"trial_type","trial_index","time_elapsed","internal_node_id","participant_id","subject_id","age","gender","rocket_sides","red_planet_first_rocket","red_display_order","purple_display_order","interactions","blur_events","focus_events","fullscreenenter_events","fullscreenexit_events","rt","stimulus","key_press","button_pressed","success","duration","valid_pressed","rts","keys","planet_text","right_text","left_text","center_text","chosen_text","reward_text","trial_stage","practice_trial","transition_type","choice","transition","reward","timestamp"
"pavlovia","0","28","0.0-0.0","3432","6126","14","Female","false","false","true","true","
","
","
","
","
","","","","","","","","","","","","","","","","","","","","","",""
"html-keyboard-response","1","2900","0.0-1.0","3432","6126","14","Female","false","false","true","true","
","
","
","
","
","2870","Welcome! Press the space bar to begin.","32","","","","","","","","","","","","","","","","","","",""
"audio-keyboard-response","2","6452","0.0-2.0","3432","6126","14","Female","false","false","true","true","
","
","
","
","
","2872","audio/beep_loop.wav","32","","","","","","","","","","","","","","","","","","",""
"audio-button-response","3","9393","0.0-3.0","3432","6126","14","Female","false","false","true","true","
","
","
","
","
","NaN","audio/fish.mp3","","1","","","","","","","","","","","","","","","","","",""
"audio-button-response","4","12103","0.0-4.0","3432","6126","14","Female","false","false","true","true","""event"",""trial"",""time""
""fullscreenenter"",""5"",""19129""
","
","
","""event"",""trial"",""time""
""fullscreenenter"",""5"",""19129""
","
","NaN","audio/tiger.mp3","","4","","","","","","","","","","","","","","","","","",""
"fullscreen","5","19857","0.0-5.0","3432","6126","14","Female","false","false","true","true","""event"",""trial"",""time""
""fullscreenenter"",""5"",""19129""
","
","
","""event"",""trial"",""time""
""fullscreenenter"",""5"",""19129""
","
","","","","","true","","","","","","","","","","","","","","","","",""
"d3-instructions","6","34947","0.0-6.0","3432","6126","14","Female","false","false","true","true","""event"",""trial"",""time""
""fullscreenenter"",""5"",""19129""
","
","
","""event"",""trial"",""time""
""fullscreenenter"",""5"",""19129""
","
","","","","","","","","","","","","","","","","","","","","","",""
"d3-instructions","7","42417","0.0-7.0","3432","6126","14","Female","false","false","true","true","""event"",""trial"",""time""
""fullscreenenter"",""5"",""19129""
","
","
","""event"",""trial"",""time""
""fullscreenenter"",""5"",""19129""
","
","","","","","","","","","","","","","","","","","","","","","",""
"d3-instructions","8","49791","0.0-8.0","3432","6126","14","Female","false","false","true","true","""event"",""trial"",""time""
""fullscreenenter"",""5"",""19129""
","
","
","""event"",""trial"",""time""
""fullscreenenter"",""5"",""19129""
","
","","","","","","","","","","","","","","","","","","","","","",""
"d3-instructions","9","60206","0.0-9.0","3432","6126","14","Female","false","false","true","true","""event"",""trial"",""time""
""fullscreenenter"",""5"",""19129""
","
","
","""event"",""trial"",""time""
""fullscreenenter"",""5"",""19129""
","
","","","","","","","","","","","","","","","","","","","","","",""
"d3-instructions","10","78232","0.0-10.0","3432","6126","14","Female","false","false","true","true","""event"",""trial"",""time""
""fullscreenenter"",""5"",""19129""
","
","
","""event"",""trial"",""time""
""fullscreenenter"",""5"",""19129""
","
","","","","","","","","","","","","","","","","","","","","","",""
"d3-animate-choice","11","81467","0.0-11.0","3432","6126","14","Female","false","false","true","true","""event"",""trial"",""time""
""fullscreenenter"",""5"",""19129""
","
","
","""event"",""trial"",""time""
""fullscreenenter"",""5"",""19129""
","
","1201","","49","","","3000","1","2768","48","images/tutgreenplanet.jpg","images/tutalien1","images/tutalien2","null","images/tutalien2","","NA","practice","null","","","",""
"d3-animate-choice","12","84158","0.0-12.0","3432","6126","14","Female","false","false","true","true","""event"",""trial"",""time""
""fullscreenenter"",""5"",""19129""
","
","
","""event"",""trial"",""time""
""fullscreenenter"",""5"",""19129""
","
","667","","48","","","3000","1","","","images/tutgreenplanet.jpg","images/tutalien1","images/tutalien2","null","images/tutalien1","","NA","practice","null","","","",""
"d3-animate-choice","13","87210","0.0-13.0","3432","6126","14","Female","false","false","true","true","""event"",""trial"",""time""
""fullscreenenter"",""5"",""19129""
","
","
","""event"",""trial"",""time""
""fullscreenenter"",""5"",""19129""
","
","1039","","49","","","3000","1","","","images/tutgreenplanet.jpg","images/tutalien1","images/tutalien2","null","images/tutalien2","","NA","practice","null","","","",""
"d3-animate-choice","14","89628","0.0-14.0","3432","6126","14","Female","false","false","true","true","""event"",""trial"",""time""
""fullscreenenter"",""5"",""19129""
","
","
","""event"",""trial"",""time""
""fullscreenenter"",""5"",""19129""
","
","403","","48","","","3000","1","","","images/tutgreenplanet.jpg","images/tutalien1","images/tutalien2","null","images/tutalien1","","NA","practice","null","","","",""
"d3-instructions","15","97282","0.0-15.0","3432","6126","14","Female","false","false","true","true","""event"",""trial"",""time""
""fullscreenenter"",""5"",""19129""
","
","
","""event"",""trial"",""time""
""fullscreenenter"",""5"",""19129""
","
","","","","","","","","","","","","","","","","","","","","","",""
"d3-instructions","16","105092","0.0-16.0","3432","6126","14","Female","false","false","true","true","""event"",""trial"",""time""
""fullscreenenter"",""5"",""19129""
","
","
","""event"",""trial"",""time""
""fullscreenenter"",""5"",""19129""
","
","","","","","","","","","","","","","","","","","","","","","",""
"d3-instructions","17","113595","0.0-17.0","3432","6126","14","Female","false","false","true","true","""event"",""trial"",""time""
""fullscreenenter"",""5"",""19129""
","
","
","""event"",""trial"",""time""
""fullscreenenter"",""5"",""19129""
","
","","","","","","","","","","","","","","","","","","","","","",""
"d3-instructions","18","126074","0.0-18.0","3432","6126","14","Female","false","false","true","true","""event"",""trial"",""time""
""fullscreenenter"",""5"",""19129""
","
","
","""event"",""trial"",""time""
""fullscreenenter"",""5"",""19129""
","
","","","","","","","","","","","","","","","","","","","","","",""
"d3-instructions","19","139623","0.0-19.0","3432","6126","14","Female","false","false","true","true","""event"",""trial"",""time""
""fullscreenenter"",""5"",""19129""
","
","
","""event"",""trial"",""time""
""fullscreenenter"",""5"",""19129""
","
","","","","","","","","","","","","","","","","","","","","","",""
"d3-animate-choice","20","143839","0.0-20.0","3432","6126","14","Female","false","false","true","true","""event"",""trial"",""time""
""fullscreenenter"",""5"",""19129""
","
","
","""event"",""trial"",""time""
""fullscreenenter"",""5"",""19129""
","
","2202","","49","","","3000","1","","","images/tutyellowplanet.jpg","null","images/tutalien3","null","images/tutalien3","images/t.png","NA","practice","null","","","",""
"d3-animate-choice","21","146378","0.0-21.0","3432","6126","14","Female","false","false","true","true","""event"",""trial"",""time""
""fullscreenenter"",""5"",""19129""
","
","
","""event"",""trial"",""time""
""fullscreenenter"",""5"",""19129""
","
","525","","49","","","3000","1","","","images/tutyellowplanet.jpg","null","images/tutalien3","null","images/tutalien3","images/t.png","NA","practice","null","","","",""
"d3-animate-choice","22","148909","0.0-22.0","3432","6126","14","Female","false","false","true","true","""event"",""trial"",""time""
""fullscreenenter"",""5"",""19129""
","
","
","""event"",""trial"",""time""
""fullscreenenter"",""5"",""19129""
","
","513","","49","","","3000","1","","","images/tutyellowplanet.jpg","null","images/tutalien3","null","images/tutalien3","images/t.png","NA","practice","null","","","",""
"d3-animate-choice","23","151298","0.0-23.0","3432","6126","14","Female","false","false","true","true","""event"",""trial"",""time""
""fullscreenenter"",""5"",""19129""
","
","
","""event"",""trial"",""time""
""fullscreenenter"",""5"",""19129""
","
","370","","49","","","3000","1","","","images/tutyellowplanet.jpg","null","images/tutalien3","null","images/tutalien3","images/t.png","NA","practice","null","","","",""
"d3-animate-choice","24","153618","0.0-24.0","3432","6126","14","Female","false","false","true","true","""event"",""trial"",""time""
""fullscreenenter"",""5"",""19129""
","
","
","""event"",""trial"",""time""
""fullscreenenter"",""5"",""19129""
","
","298","","49","","","3000","1","","","images/tutyellowplanet.jpg","null","images/tutalien3","null","images/tutalien3","images/nothing.png","NA","practice","null","","","",""
"d3-animate-choice","25","155976","0.0-25.0","3432","6126","14","Female","false","false","true","true","""event"",""trial"",""time""
""fullscreenenter"",""5"",""19129""
","
","
","""event"",""trial"",""time""
""fullscreenenter"",""5"",""19129""
","
","345","","49","","","3000","1","","","images/tutyellowplanet.jpg","null","images/tutalien3","null","images/tutalien3","images/nothing.png","NA","practice","null","","","",""
"d3-animate-choice","26","159269","0.0-26.0","3432","6126","14","Female","false","false","true","true","""event"",""trial"",""time""
""fullscreenenter"",""5"",""19129""
","
","
","""event"",""trial"",""time""
""fullscreenenter"",""5"",""19129""
","
","677","","192","","","3000","1","1272,3213","49,49","images/tutyellowplanet.jpg","null","images/tutalien3","null","images/tutalien3","images/t.png","NA","practice","null","","","",""
"d3-animate-choice","27","161697","0.0-27.0","3432","6126","14","Female","false","false","true","true","""event"",""trial"",""time""
""fullscreenenter"",""5"",""19129""
","
","
","""event"",""trial"",""time""
""fullscreenenter"",""5"",""19129""
","
","421","","49","","","3000","1","","","images/tutyellowplanet.jpg","null","images/tutalien3","null","images/tutalien3","images/t.png","NA","practice","null","","","",""
"d3-animate-choice","28","164319","0.0-28.0","3432","6126","14","Female","false","false","true","true","""event"",""trial"",""time""
""fullscreenenter"",""5"",""19129""
","
","
","""event"",""trial"",""time""
""fullscreenenter"",""5"",""19129""
","
","598","","49","","","3000","1","","","images/tutyellowplanet.jpg","null","images/tutalien3","null","images/tutalien3","images/t.png","NA","practice","null","","","",""
"d3-animate-choice","29","166658","0.0-29.0","3432","6126","14","Female","false","false","true","true","""event"",""trial"",""time""
""fullscreenenter"",""5"",""19129""
","
","
","""event"",""trial"",""time""
""fullscreenenter"",""5"",""19129""
","
","318","","49","","","3000","1","","","images/tutyellowplanet.jpg","null","images/tutalien3","null","images/tutalien3","images/t.png","NA","practice","null","","","",""
"d3-instructions","30","173366","0.0-30.0","3432","6126","14","Female","false","false","true","true","""event"",""trial"",""time""
""fullscreenenter"",""5"",""19129""
","
","
","""event"",""trial"",""time""
""fullscreenenter"",""5"",""19129""
","
","","","","","","","","","","","","","","","","","","","","","",""
"d3-instructions","31","183028","0.0-31.0","3432","6126","14","Female","false","false","true","true","""event"",""trial"",""time""
""fullscreenenter"",""5"",""19129""
","
","
","""event"",""trial"",""time""
""fullscreenenter"",""5"",""19129""
","
","","","","","","","","","","","","","","","","","","","","","",""
"d3-instructions","32","189610","0.0-32.0","3432","6126","14","Female","false","false","true","true","""event"",""trial"",""time""
""fullscreenenter"",""5"",""19129""
","
","
","""event"",""trial"",""time""
""fullscreenenter"",""5"",""19129""
","
","","","","","","","","","","","","","","","","","","","","","",""
"d3-instructions","33","213408","0.0-33.0","3432","6126","14","Female","false","false","true","true","""event"",""trial"",""time""
""fullscreenenter"",""5"",""19129""
","
","
","""event"",""trial"",""time""
""fullscreenenter"",""5"",""19129""
","
","","","","","","","","","","","","","","","","","","","","","",""
"d3-animate-choice","34","216607","0.0-34.0","3432","6126","14","Female","false","false","true","true","""event"",""trial"",""time""
""fullscreenenter"",""5"",""19129""
","
","
","""event"",""trial"",""time""
""fullscreenenter"",""5"",""19129""
","
","1173","","49","","","3000","1","","","images/tutgreenplanet.jpg","images/tutalien1","images/tutalien2","null","images/tutalien2","images/t.png","NA","practice","null","","","",""
"d3-animate-choice","35","219118","0.0-35.0","3432","6126","14","Female","false","false","true","true","""event"",""trial"",""time""
""fullscreenenter"",""5"",""19129""
","
","
","""event"",""trial"",""time""
""fullscreenenter"",""5"",""19129""
","
","497","","49","","","3000","1","","","images/tutgreenplanet.jpg","images/tutalien1","images/tutalien2","null","images/tutalien2","images/t.png","NA","practice","null","","","",""
"d3-animate-choice","36","221470","0.0-36.0","3432","6126","14","Female","false","false","true","true","""event"",""trial"",""time""
""fullscreenenter"",""5"",""19129""
","
","
","""event"",""trial"",""time""
""fullscreenenter"",""5"",""19129""
","
","335","","49","","","3000","1","1752","49","images/tutgreenplanet.jpg","images/tutalien1","images/tutalien2","null","images/tutalien2","images/t.png","NA","practice","null","","","",""
"d3-animate-choice","37","223867","0.0-37.0","3432","6126","14","Female","false","false","true","true","""event"",""trial"",""time""
""fullscreenenter"",""5"",""19129""
","
","
","""event"",""trial"",""time""
""fullscreenenter"",""5"",""19129""
","
","390","","49","","","3000","1","","","images/tutgreenplanet.jpg","images/tutalien1","images/tutalien2","null","images/tutalien2","images/nothing.png","NA","practice","null","","","",""
"d3-animate-choice","38","226288","0.0-38.0","3432","6126","14","Female","false","false","true","true","""event"",""trial"",""time""
""fullscreenenter"",""5"",""19129""
","
","
","""event"",""trial"",""time""
""fullscreenenter"",""5"",""19129""
","
","413","","49","","","3000","1","","","images/tutgreenplanet.jpg","images/tutalien1","images/tutalien2","null","images/tutalien2","images/t.png","NA","practice","null","","","",""
"d3-animate-choice","39","229367","0.0-39.0","3432","6126","14","Female","false","false","true","true","""event"",""trial"",""time""
""fullscreenenter"",""5"",""19129""
","
","
","""event"",""trial"",""time""
""fullscreenenter"",""5"",""19129""
","
","1054","","49","","","3000","1","","","images/tutgreenplanet.jpg","images/tutalien1","images/tutalien2","null","images/tutalien2","images/t.png","NA","practice","null","","","",""
"d3-animate-choice","40","232205","0.0-40.0","3432","6126","14","Female","false","false","true","true","""event"",""trial"",""time""
""fullscreenenter"",""5"",""19129""
","
","
","""event"",""trial"",""time""
""fullscreenenter"",""5"",""19129""
","
","821","","48","","","3000","1","","","images/tutgreenplanet.jpg","images/tutalien1","images/tutalien2","null","images/tutalien1","images/nothing.png","NA","practice","null","","","",""
"d3-animate-choice","41","234688","0.0-41.0","3432","6126","14","Female","false","false","true","true","""event"",""trial"",""time""
""fullscreenenter"",""5"",""19129""
","
","
","""event"",""trial"",""time""
""fullscreenenter"",""5"",""19129""
","
","468","","49","","","3000","1","","","images/tutgreenplanet.jpg","images/tutalien1","images/tutalien2","null","images/tutalien2","images/t.png","NA","practice","null","","","",""
"d3-animate-choice","42","237727","0.0-42.0","3432","6126","14","Female","false","false","true","true","""event"",""trial"",""time""
""fullscreenenter"",""5"",""19129""
","
","
","""event"",""trial"",""time""
""fullscreenenter"",""5"",""19129""
","
","1020","","49","","","3000","1","","","images/tutgreenplanet.jpg","images/tutalien1","images/tutalien2","null","images/tutalien2","images/t.png","NA","practice","null","","","",""
"d3-animate-choice","43","239847","0.0-43.0","3432","6126","14","Female","false","false","true","true","""event"",""trial"",""time""
""fullscreenenter"",""5"",""19129""
","
","
","""event"",""trial"",""time""
""fullscreenenter"",""5"",""19129""
","
","102","","49","","","3000","1","","","images/tutgreenplanet.jpg","images/tutalien1","images/tutalien2","null","images/tutalien2","images/nothing.png","NA","practice","null","","","",""
"d3-instructions","44","251789","0.0-44.0","3432","6126","14","Female","false","false","true","true","""event"",""trial"",""time""
""fullscreenenter"",""5"",""19129""
","
","
","""event"",""trial"",""time""
""fullscreenenter"",""5"",""19129""
","
","","","","","","","","","","","","","","","","","","","","","",""
"d3-instructions","45","257552","0.0-45.0","3432","6126","14","Female","false","false","true","true","""event"",""trial"",""time""
""fullscreenenter"",""5"",""19129""
","
","
","""event"",""trial"",""time""
""fullscreenenter"",""5"",""19129""
","
","","","","","","","","","","","","","","","","","","","","","",""
"d3-instructions","46","261688","0.0-46.0","3432","6126","14","Female","false","false","true","true","""event"",""trial"",""time""
""fullscreenenter"",""5"",""19129""
","
","
","""event"",""trial"",""time""
""fullscreenenter"",""5"",""19129""
","
","","","","","","","","","","","","","","","","","","","","","",""
"d3-instructions","47","278562","0.0-47.0","3432","6126","14","Female","false","false","true","true","""event"",""trial"",""time""
""fullscreenenter"",""5"",""19129""
","
","
","""event"",""trial"",""time""
""fullscreenenter"",""5"",""19129""
","
","","","","","","","","","","","","","","","","","","","","","",""
"d3-instructions","48","284579","0.0-48.0","3432","6126","14","Female","false","false","true","true","""event"",""trial"",""time""
""fullscreenenter"",""5"",""19129""
","
","
","""event"",""trial"",""time""
""fullscreenenter"",""5"",""19129""
","
","","","","","","","","","","","","","","","","","","","","","",""
"d3-instructions","49","295574","0.0-49.0","3432","6126","14","Female","false","false","true","true","""event"",""trial"",""time""
""fullscreenenter"",""5"",""19129""
","
","
","""event"",""trial"",""time""
""fullscreenenter"",""5"",""19129""
","
","","","","","","","","","","","","","","","","","","","","","",""
"d3-instructions","50","303935","0.0-50.0","3432","6126","14","Female","false","false","true","true","""event"",""trial"",""time""
""fullscreenenter"",""5"",""19129""
","
","
","""event"",""trial"",""time""
""fullscreenenter"",""5"",""19129""
","
","","","","","","","","","","","","","","","","","","","","","",""
"d3-instructions","51","307854","0.0-51.0","3432","6126","14","Female","false","false","true","true","""event"",""trial"",""time""
""fullscreenenter"",""5"",""19129""
","
","
","""event"",""trial"",""time""
""fullscreenenter"",""5"",""19129""
","
","","","","","","","","","","","","","","","","","","","","","",""
"d3-instructions","52","311248","0.0-52.0","3432","6126","14","Female","false","false","true","true","""event"",""trial"",""time""
""fullscreenenter"",""5"",""19129""
","
","
","""event"",""trial"",""time""
""fullscreenenter"",""5"",""19129""
","
","","","","","","","","","","","","","","","","","","","","","",""
"d3-instructions","53","324800","0.0-53.0","3432","6126","14","Female","false","false","true","true","""event"",""trial"",""time""
""fullscreenenter"",""5"",""19129""
","
","
","""event"",""trial"",""time""
""fullscreenenter"",""5"",""19129""
","
","","","","","","","","","","","","","","","","","","","","","",""
"d3-instructions","54","337391","0.0-54.0","3432","6126","14","Female","false","false","true","true","""event"",""trial"",""time""
""fullscreenenter"",""5"",""19129""
","
","
","""event"",""trial"",""time""
""fullscreenenter"",""5"",""19129""
","
","","","","","","","","","","","","","","","","","","","","","",""
"d3-instructions","55","347413","0.0-55.0","3432","6126","14","Female","false","false","true","true","""event"",""trial"",""time""
""fullscreenenter"",""5"",""19129""
","
","
","""event"",""trial"",""time""
""fullscreenenter"",""5"",""19129""
","
","","","","","","","","","","","","","","","","","","","","","",""
"d3-instructions","56","356109","0.0-56.0","3432","6126","14","Female","false","false","true","true","""event"",""trial"",""time""
""fullscreenenter"",""5"",""19129""
","
","
","""event"",""trial"",""time""
""fullscreenenter"",""5"",""19129""
","
","","","","","","","","","","","","","","","","","","","","","",""
"d3-instructions","57","365732","0.0-57.0","3432","6126","14","Female","false","false","true","true","""event"",""trial"",""time""
""fullscreenenter"",""5"",""19129""
","
","
","""event"",""trial"",""time""
""fullscreenenter"",""5"",""19129""
","
","","","","","","","","","","","","","","","","","","","","","",""
"d3-instructions","58","377312","0.0-58.0","3432","6126","14","Female","false","false","true","true","""event"",""trial"",""time""
""fullscreenenter"",""5"",""19129""
","
","
","""event"",""trial"",""time""
""fullscreenenter"",""5"",""19129""
","
","","","","","","","","","","","","","","","","","","","","","",""
"d3-instructions","59","383455","0.0-59.0","3432","6126","14","Female","false","false","true","true","""event"",""trial"",""time""
""fullscreenenter"",""5"",""19129""
","
","
","""event"",""trial"",""time""
""fullscreenenter"",""5"",""19129""
","
","","","","","","","","","","","","","","","","","","","","","",""
"d3-instructions","60","391244","0.0-60.0","3432","6126","14","Female","false","false","true","true","""event"",""trial"",""time""
""fullscreenenter"",""5"",""19129""
","
","
","""event"",""trial"",""time""
""fullscreenenter"",""5"",""19129""
","
","","","","","","","","","","","","","","","","","","","","","",""
"d3-animate-choice","61","394328","0.0-61.0-0.0","3432","6126","14","Female","false","false","true","true","""event"",""trial"",""time""
""fullscreenenter"",""5"",""19129""
","
","
","""event"",""trial"",""time""
""fullscreenenter"",""5"",""19129""
","
","1059","","49","","","3000","1","","","images/earth.jpg","images/tutrocket1","images/tutrocket2","null","images/tutrocket2","","1","practice","null","1","","",""
"d3-animate-choice","62","397817","0.0-61.0-1.0","3432","6126","14","Female","false","false","true","true","""event"",""trial"",""time""
""fullscreenenter"",""5"",""19129""
","
","
","""event"",""trial"",""time""
""fullscreenenter"",""5"",""19129""
","
","1477","","49","","","3000","1","","","images/tutgreenplanet.jpg","images/tutalien2","images/tutalien1","images/tutrocket2","images/tutalien1","images/nothing.png","2","practice","true","1","common","0","2023-02-03 21:40:57.396"
"two-step-fixation","63","398836","0.0-61.0-2.0","3432","6126","14","Female","false","false","true","true","""event"",""trial"",""time""
""fullscreenenter"",""5"",""19129""
","
","
","""event"",""trial"",""time""
""fullscreenenter"",""5"",""19129""
","
","","images/earth.jpg","","","","","","","","","","","","","","fixation","","","","","",""
"d3-animate-choice","64","401207","0.0-61.0-0.1","3432","6126","14","Female","false","false","true","true","""event"",""trial"",""time""
""fullscreenenter"",""5"",""19129""
","
","
","""event"",""trial"",""time""
""fullscreenenter"",""5"",""19129""
","
","355","","48","","","3000","1","","","images/earth.jpg","images/tutrocket1","images/tutrocket2","null","images/tutrocket1","","1","practice","null","2","","",""
"d3-animate-choice","65","403927","0.0-61.0-1.1","3432","6126","14","Female","false","false","true","true","""event"",""trial"",""time""
""fullscreenenter"",""5"",""19129""
","
","
","""event"",""trial"",""time""
""fullscreenenter"",""5"",""19129""
","
","702","","48","","","3000","1","","","images/tutyellowplanet.jpg","images/tutalien4","images/tutalien3","images/tutrocket1","images/tutalien4","images/t.png","2","practice","true","2","common","1","2023-02-03 21:41:03.505"
"two-step-fixation","66","404947","0.0-61.0-2.1","3432","6126","14","Female","false","false","true","true","""event"",""trial"",""time""
""fullscreenenter"",""5"",""19129""
","
","
","""event"",""trial"",""time""
""fullscreenenter"",""5"",""19129""
","
","","images/earth.jpg","","","","","","","","","","","","","","fixation","","","","","",""
"d3-animate-choice","67","407348","0.0-61.0-0.2","3432","6126","14","Female","false","false","true","true","""event"",""trial"",""time""
""fullscreenenter"",""5"",""19129""
","
","
","""event"",""trial"",""time""
""fullscreenenter"",""5"",""19129""
","
","389","","48","","","3000","1","","","images/earth.jpg","images/tutrocket1","images/tutrocket2","null","images/tutrocket1","","1","practice","null","2","","",""
"d3-animate-choice","68","409668","0.0-61.0-1.2","3432","6126","14","Female","false","false","true","true","""event"",""trial"",""time""
""fullscreenenter"",""5"",""19129""
","
","
","""event"",""trial"",""time""
""fullscreenenter"",""5"",""19129""
","
","299","","48","","","3000","1","","","images/tutyellowplanet.jpg","images/tutalien4","images/tutalien3","images/tutrocket1","images/tutalien4","images/t.png","2","practice","true","2","common","1","2023-02-03 21:41:09.247"
"two-step-fixation","69","410688","0.0-61.0-2.2","3432","6126","14","Female","false","false","true","true","""event"",""trial"",""time""
""fullscreenenter"",""5"",""19129""
","
","
","""event"",""trial"",""time""
""fullscreenenter"",""5"",""19129""
","
","","images/earth.jpg","","","","","","","","","","","","","","fixation","","","","","",""
"d3-animate-choice","70","413027","0.0-61.0-0.3","3432","6126","14","Female","false","false","true","true","""event"",""trial"",""time""
""fullscreenenter"",""5"",""19129""
","
","
","""event"",""trial"",""time""
""fullscreenenter"",""5"",""19129""
","
","332","","48","","","3000","1","1348","192","images/earth.jpg","images/tutrocket1","images/tutrocket2","null","images/tutrocket1","","1","practice","null","2","","",""
"d3-animate-choice","71","415627","0.0-61.0-1.3","3432","6126","14","Female","false","false","true","true","""event"",""trial"",""time""
""fullscreenenter"",""5"",""19129""
","
","
","""event"",""trial"",""time""
""fullscreenenter"",""5"",""19129""
","
","579","","48","","","3000","1","","","images/tutyellowplanet.jpg","images/tutalien4","images/tutalien3","images/tutrocket1","images/tutalien4","images/t.png","2","practice","true","2","common","1","2023-02-03 21:41:15.206"
"two-step-fixation","72","416647","0.0-61.0-2.3","3432","6126","14","Female","false","false","true","true","""event"",""trial"",""time""
""fullscreenenter"",""5"",""19129""
","
","
","""event"",""trial"",""time""
""fullscreenenter"",""5"",""19129""
","
","","images/earth.jpg","","","","","","","","","","","","","","fixation","","","","","",""
"d3-animate-choice","73","419059","0.0-61.0-0.4","3432","6126","14","Female","false","false","true","true","""event"",""trial"",""time""
""fullscreenenter"",""5"",""19129""
","
","
","""event"",""trial"",""time""
""fullscreenenter"",""5"",""19129""
","
","399","","48","","","3000","1","","","images/earth.jpg","images/tutrocket1","images/tutrocket2","null","images/tutrocket1","","1","practice","null","2","","",""
"d3-animate-choice","74","422296","0.0-61.0-1.4","3432","6126","14","Female","false","false","true","true","""event"",""trial"",""time""
""fullscreenenter"",""5"",""19129""
","
","
","""event"",""trial"",""time""
""fullscreenenter"",""5"",""19129""
","
","1226","","48","","","3000","1","","","images/tutgreenplanet.jpg","images/tutalien2","images/tutalien1","images/tutrocket1","images/tutalien2","images/nothing.png","2","practice","false","2","rare","0","2023-02-03 21:41:21.874"
"two-step-fixation","75","423307","0.0-61.0-2.4","3432","6126","14","Female","false","false","true","true","""event"",""trial"",""time""
""fullscreenenter"",""5"",""19129""
","
","
","""event"",""trial"",""time""
""fullscreenenter"",""5"",""19129""
","
","","images/earth.jpg","","","","","","","","","","","","","","fixation","","","","","",""
"d3-animate-choice","76","425717","0.0-61.0-0.5","3432","6126","14","Female","false","false","true","true","""event"",""trial"",""time""
""fullscreenenter"",""5"",""19129""
","
","
","""event"",""trial"",""time""
""fullscreenenter"",""5"",""19129""
","
","391","","48","","","3000","1","","","images/earth.jpg","images/tutrocket1","images/tutrocket2","null","images/tutrocket1","","1","practice","null","2","","",""
"d3-animate-choice","77","428118","0.0-61.0-1.5","3432","6126","14","Female","false","false","true","true","""event"",""trial"",""time""
""fullscreenenter"",""5"",""19129""
","
","
","""event"",""trial"",""time""
""fullscreenenter"",""5"",""19129""
","
","384","","48","","","3000","1","","","images/tutyellowplanet.jpg","images/tutalien4","images/tutalien3","images/tutrocket1","images/tutalien4","images/nothing.png","2","practice","true","2","common","0","2023-02-03 21:41:27.696"
"two-step-fixation","78","429137","0.0-61.0-2.5","3432","6126","14","Female","false","false","true","true","""event"",""trial"",""time""
""fullscreenenter"",""5"",""19129""
","
","
","""event"",""trial"",""time""
""fullscreenenter"",""5"",""19129""
","
","","images/earth.jpg","","","","","","","","","","","","","","fixation","","","","","",""
"d3-animate-choice","79","431368","0.0-61.0-0.6","3432","6126","14","Female","false","false","true","true","""event"",""trial"",""time""
""fullscreenenter"",""5"",""19129""
","
","
","""event"",""trial"",""time""
""fullscreenenter"",""5"",""19129""
","
","222","","48","","","3000","1","","","images/earth.jpg","images/tutrocket1","images/tutrocket2","null","images/tutrocket1","","1","practice","null","2","","",""
"d3-animate-choice","80","434097","0.0-61.0-1.6","3432","6126","14","Female","false","false","true","true","""event"",""trial"",""time""
""fullscreenenter"",""5"",""19129""
","
","
","""event"",""trial"",""time""
""fullscreenenter"",""5"",""19129""
","
","718","","48","","","3000","1","","","images/tutyellowplanet.jpg","images/tutalien4","images/tutalien3","images/tutrocket1","images/tutalien4","images/nothing.png","2","practice","true","2","common","0","2023-02-03 21:41:33.676"
"two-step-fixation","81","435118","0.0-61.0-2.6","3432","6126","14","Female","false","false","true","true","""event"",""trial"",""time""
""fullscreenenter"",""5"",""19129""
","
","
","""event"",""trial"",""time""
""fullscreenenter"",""5"",""19129""
","
","","images/earth.jpg","","","","","","","","","","","","","","fixation","","","","","",""
"d3-animate-choice","82","437457","0.0-61.0-0.7","3432","6126","14","Female","false","false","true","true","""event"",""trial"",""time""
""fullscreenenter"",""5"",""19129""
","
","
","""event"",""trial"",""time""
""fullscreenenter"",""5"",""19129""
","
","315","","48","","","3000","1","","","images/earth.jpg","images/tutrocket1","images/tutrocket2","null","images/tutrocket1","","1","practice","null","2","","",""
"d3-animate-choice","83","439768","0.0-61.0-1.7","3432","6126","14","Female","false","false","true","true","""event"",""trial"",""time""
""fullscreenenter"",""5"",""19129""
","
","
","""event"",""trial"",""time""
""fullscreenenter"",""5"",""19129""
","
","296","","49","","","3000","1","","","images/tutyellowplanet.jpg","images/tutalien4","images/tutalien3","images/tutrocket1","images/tutalien3","images/nothing.png","2","practice","true","1","common","0","2023-02-03 21:41:39.346"
"two-step-fixation","84","440787","0.0-61.0-2.7","3432","6126","14","Female","false","false","true","true","""event"",""trial"",""time""
""fullscreenenter"",""5"",""19129""
","
","
","""event"",""trial"",""time""
""fullscreenenter"",""5"",""19129""
","
","","images/earth.jpg","","","","","","","","","","","","","","fixation","","","","","",""
"d3-animate-choice","85","443068","0.0-61.0-0.8","3432","6126","14","Female","false","false","true","true","""event"",""trial"",""time""
""fullscreenenter"",""5"",""19129""
","
","
","""event"",""trial"",""time""
""fullscreenenter"",""5"",""19129""
","
","260","","48","","","3000","1","","","images/earth.jpg","images/tutrocket1","images/tutrocket2","null","images/tutrocket1","","1","practice","null","2","","",""
"d3-animate-choice","86","445406","0.0-61.0-1.8","3432","6126","14","Female","false","false","true","true","""event"",""trial"",""time""
""fullscreenenter"",""5"",""19129""
","
","
","""event"",""trial"",""time""
""fullscreenenter"",""5"",""19129""
","
","322","","49","","","3000","1","","","images/tutyellowplanet.jpg","images/tutalien4","images/tutalien3","images/tutrocket1","images/tutalien3","images/nothing.png","2","practice","true","1","common","0","2023-02-03 21:41:44.986"
"two-step-fixation","87","446428","0.0-61.0-2.8","3432","6126","14","Female","false","false","true","true","""event"",""trial"",""time""
""fullscreenenter"",""5"",""19129""
","
","
","""event"",""trial"",""time""
""fullscreenenter"",""5"",""19129""
","
","","images/earth.jpg","","","","","","","","","","","","","","fixation","","","","","",""
"d3-animate-choice","88","449068","0.0-61.0-0.9","3432","6126","14","Female","false","false","true","true","""event"",""trial"",""time""
""fullscreenenter"",""5"",""19129""
","
","
","""event"",""trial"",""time""
""fullscreenenter"",""5"",""19129""
","
","623","","48","","","3000","1","","","images/earth.jpg","images/tutrocket1","images/tutrocket2","null","images/tutrocket1","","1","practice","null","2","","",""
"d3-animate-choice","89","451967","0.0-61.0-1.9","3432","6126","14","Female","false","false","true","true","""event"",""trial"",""time""
""fullscreenenter"",""5"",""19129""
","
","
","""event"",""trial"",""time""
""fullscreenenter"",""5"",""19129""
","
","883","","49","","","3000","1","","","images/tutgreenplanet.jpg","images/tutalien2","images/tutalien1","images/tutrocket1","images/tutalien1","images/nothing.png","2","practice","false","1","rare","0","2023-02-03 21:41:51.545"
"two-step-fixation","90","452986","0.0-61.0-2.9","3432","6126","14","Female","false","false","true","true","""event"",""trial"",""time""
""fullscreenenter"",""5"",""19129""
","
","
","""event"",""trial"",""time""
""fullscreenenter"",""5"",""19129""
","
","","images/earth.jpg","","","","","","","","","","","","","","fixation","","","","","",""
"d3-animate-choice","91","455658","0.0-61.0-0.10","3432","6126","14","Female","false","false","true","true","""event"",""trial"",""time""
""fullscreenenter"",""5"",""19129""
","
","
","""event"",""trial"",""time""
""fullscreenenter"",""5"",""19129""
","
","650","","49","","","3000","1","","","images/earth.jpg","images/tutrocket1","images/tutrocket2","null","images/tutrocket2","","1","practice","null","1","","",""
"d3-animate-choice","92","458147","0.0-61.0-1.10","3432","6126","14","Female","false","false","true","true","""event"",""trial"",""time""
""fullscreenenter"",""5"",""19129""
","
","
","""event"",""trial"",""time""
""fullscreenenter"",""5"",""19129""
","
","470","","48","","","3000","1","","","images/tutyellowplanet.jpg","images/tutalien4","images/tutalien3","images/tutrocket2","images/tutalien4","images/nothing.png","2","practice","false","2","rare","0","2023-02-03 21:41:57.726"
"two-step-fixation","93","459167","0.0-61.0-2.10","3432","6126","14","Female","false","false","true","true","""event"",""trial"",""time""
""fullscreenenter"",""5"",""19129""
","
","
","""event"",""trial"",""time""
""fullscreenenter"",""5"",""19129""
","
","","images/earth.jpg","","","","","","","","","","","","","","fixation","","","","","",""
"d3-animate-choice","94","461587","0.0-61.0-0.11","3432","6126","14","Female","false","false","true","true","""event"",""trial"",""time""
""fullscreenenter"",""5"",""19129""
","
","
","""event"",""trial"",""time""
""fullscreenenter"",""5"",""19129""
","
","397","","49","","","3000","1","","","images/earth.jpg","images/tutrocket1","images/tutrocket2","null","images/tutrocket2","","1","practice","null","1","","",""
"d3-animate-choice","95","464038","0.0-61.0-1.11","3432","6126","14","Female","false","false","true","true","""event"",""trial"",""time""
""fullscreenenter"",""5"",""19129""
","
","
","""event"",""trial"",""time""
""fullscreenenter"",""5"",""19129""
","
","430","","49","","","3000","1","","","images/tutgreenplanet.jpg","images/tutalien2","images/tutalien1","images/tutrocket2","images/tutalien1","images/nothing.png","2","practice","true","1","common","0","2023-02-03 21:42:03.616"
"two-step-fixation","96","465058","0.0-61.0-2.11","3432","6126","14","Female","false","false","true","true","""event"",""trial"",""time""
""fullscreenenter"",""5"",""19129""
","
","
","""event"",""trial"",""time""
""fullscreenenter"",""5"",""19129""
","
","","images/earth.jpg","","","","","","","","","","","","","","fixation","","","","","",""
"d3-animate-choice","97","467377","0.0-61.0-0.12","3432","6126","14","Female","false","false","true","true","""event"",""trial"",""time""
""fullscreenenter"",""5"",""19129""
","
","
","""event"",""trial"",""time""
""fullscreenenter"",""5"",""19129""
","
","304","","48","","","3000","1","","","images/earth.jpg","images/tutrocket1","images/tutrocket2","null","images/tutrocket1","","1","practice","null","2","","",""
"d3-animate-choice","98","469726","0.0-61.0-1.12","3432","6126","14","Female","false","false","true","true","""event"",""trial"",""time""
""fullscreenenter"",""5"",""19129""
","
","
","""event"",""trial"",""time""
""fullscreenenter"",""5"",""19129""
","
","326","","48","","","3000","1","","","images/tutyellowplanet.jpg","images/tutalien4","images/tutalien3","images/tutrocket1","images/tutalien4","images/nothing.png","2","practice","true","2","common","0","2023-02-03 21:42:09.305"
"two-step-fixation","99","470748","0.0-61.0-2.12","3432","6126","14","Female","false","false","true","true","""event"",""trial"",""time""
""fullscreenenter"",""5"",""19129""
","
","
","""event"",""trial"",""time""
""fullscreenenter"",""5"",""19129""
","
","","images/earth.jpg","","","","","","","","","","","","","","fixation","","","","","",""
"d3-animate-choice","100","473118","0.0-61.0-0.13","3432","6126","14","Female","false","false","true","true","""event"",""trial"",""time""
""fullscreenenter"",""5"",""19129""
","
","
","""event"",""trial"",""time""
""fullscreenenter"",""5"",""19129""
","
","348","","48","","","3000","1","","","images/earth.jpg","images/tutrocket1","images/tutrocket2","null","images/tutrocket1","","1","practice","null","2","","",""
"d3-animate-choice","101","475437","0.0-61.0-1.13","3432","6126","14","Female","false","false","true","true","""event"",""trial"",""time""
""fullscreenenter"",""5"",""19129""
","
","
","""event"",""trial"",""time""
""fullscreenenter"",""5"",""19129""
","
","303","","49","","","3000","1","","","images/tutyellowplanet.jpg","images/tutalien4","images/tutalien3","images/tutrocket1","images/tutalien3","images/t.png","2","practice","true","1","common","1","2023-02-03 21:42:15.015"
"two-step-fixation","102","476441","0.0-61.0-2.13","3432","6126","14","Female","false","false","true","true","""event"",""trial"",""time""
""fullscreenenter"",""5"",""19129""
","
","
","""event"",""trial"",""time""
""fullscreenenter"",""5"",""19129""
","
","","images/earth.jpg","","","","","","","","","","","","","","fixation","","","","","",""
"d3-animate-choice","103","478757","0.0-61.0-0.14","3432","6126","14","Female","false","false","true","true","""event"",""trial"",""time""
""fullscreenenter"",""5"",""19129""
","
","
","""event"",""trial"",""time""
""fullscreenenter"",""5"",""19129""
","
","293","","48","","","3000","1","","","images/earth.jpg","images/tutrocket1","images/tutrocket2","null","images/tutrocket1","","1","practice","null","2","","",""
"d3-animate-choice","104","481006","0.0-61.0-1.14","3432","6126","14","Female","false","false","true","true","""event"",""trial"",""time""
""fullscreenenter"",""5"",""19129""
","
","
","""event"",""trial"",""time""
""fullscreenenter"",""5"",""19129""
","
","235","","49","","","3000","1","","","images/tutgreenplanet.jpg","images/tutalien2","images/tutalien1","images/tutrocket1","images/tutalien1","images/t.png","2","practice","false","1","rare","1","2023-02-03 21:42:20.585"
"two-step-fixation","105","482017","0.0-61.0-2.14","3432","6126","14","Female","false","false","true","true","""event"",""trial"",""time""
""fullscreenenter"",""5"",""19129""
","
","
","""event"",""trial"",""time""
""fullscreenenter"",""5"",""19129""
","
","","images/earth.jpg","","","","","","","","","","","","","","fixation","","","","","",""
"d3-animate-choice","106","484326","0.0-61.0-0.15","3432","6126","14","Female","false","false","true","true","""event"",""trial"",""time""
""fullscreenenter"",""5"",""19129""
","
","
","""event"",""trial"",""time""
""fullscreenenter"",""5"",""19129""
","
","295","","48","","","3000","1","","","images/earth.jpg","images/tutrocket1","images/tutrocket2","null","images/tutrocket1","","1","practice","null","2","","",""
"d3-animate-choice","107","486869","0.0-61.0-1.15","3432","6126","14","Female","false","false","true","true","""event"",""trial"",""time""
""fullscreenenter"",""5"",""19129""
","
","
","""event"",""trial"",""time""
""fullscreenenter"",""5"",""19129""
","
","526","","49","","","3000","1","","","images/tutyellowplanet.jpg","images/tutalien4","images/tutalien3","images/tutrocket1","images/tutalien3","images/nothing.png","2","practice","true","1","common","0","2023-02-03 21:42:26.447"
"two-step-fixation","108","487888","0.0-61.0-2.15","3432","6126","14","Female","false","false","true","true","""event"",""trial"",""time""
""fullscreenenter"",""5"",""19129""
","
","
","""event"",""trial"",""time""
""fullscreenenter"",""5"",""19129""
","
","","images/earth.jpg","","","","","","","","","","","","","","fixation","","","","","",""
"d3-animate-choice","109","490287","0.0-61.0-0.16","3432","6126","14","Female","false","false","true","true","""event"",""trial"",""time""
""fullscreenenter"",""5"",""19129""
","
","
","""event"",""trial"",""time""
""fullscreenenter"",""5"",""19129""
","
","386","","48","","","3000","1","","","images/earth.jpg","images/tutrocket1","images/tutrocket2","null","images/tutrocket1","","1","practice","null","2","","",""
"d3-animate-choice","110","492957","0.0-61.0-1.16","3432","6126","14","Female","false","false","true","true","""event"",""trial"",""time""
""fullscreenenter"",""5"",""19129""
","
","
","""event"",""trial"",""time""
""fullscreenenter"",""5"",""19129""
","
","645","","49","","","3000","1","","","images/tutyellowplanet.jpg","images/tutalien4","images/tutalien3","images/tutrocket1","images/tutalien3","images/nothing.png","2","practice","true","1","common","0","2023-02-03 21:42:32.536"
"two-step-fixation","111","493967","0.0-61.0-2.16","3432","6126","14","Female","false","false","true","true","""event"",""trial"",""time""
""fullscreenenter"",""5"",""19129""
","
","
","""event"",""trial"",""time""
""fullscreenenter"",""5"",""19129""
","
","","images/earth.jpg","","","","","","","","","","","","","","fixation","","","","","",""
"d3-animate-choice","112","496338","0.0-61.0-0.17","3432","6126","14","Female","false","false","true","true","""event"",""trial"",""time""
""fullscreenenter"",""5"",""19129""
","
","
","""event"",""trial"",""time""
""fullscreenenter"",""5"",""19129""
","
","354","","48","","","3000","1","","","images/earth.jpg","images/tutrocket1","images/tutrocket2","null","images/tutrocket1","","1","practice","null","2","","",""
"d3-animate-choice","113","498858","0.0-61.0-1.17","3432","6126","14","Female","false","false","true","true","""event"",""trial"",""time""
""fullscreenenter"",""5"",""19129""
","
","
","""event"",""trial"",""time""
""fullscreenenter"",""5"",""19129""
","
","500","","48","","","3000","1","","","images/tutyellowplanet.jpg","images/tutalien4","images/tutalien3","images/tutrocket1","images/tutalien4","images/t.png","2","practice","true","2","common","1","2023-02-03 21:42:38.436"
"two-step-fixation","114","499877","0.0-61.0-2.17","3432","6126","14","Female","false","false","true","true","""event"",""trial"",""time""
""fullscreenenter"",""5"",""19129""
","
","
","""event"",""trial"",""time""
""fullscreenenter"",""5"",""19129""
","
","","images/earth.jpg","","","","","","","","","","","","","","fixation","","","","","",""
"d3-animate-choice","115","502197","0.0-61.0-0.18","3432","6126","14","Female","false","false","true","true","""event"",""trial"",""time""
""fullscreenenter"",""5"",""19129""
","
","
","""event"",""trial"",""time""
""fullscreenenter"",""5"",""19129""
","
","307","","48","","","3000","1","","","images/earth.jpg","images/tutrocket1","images/tutrocket2","null","images/tutrocket1","","1","practice","null","2","","",""
"d3-animate-choice","116","504668","0.0-61.0-1.18","3432","6126","14","Female","false","false","true","true","""event"",""trial"",""time""
""fullscreenenter"",""5"",""19129""
","
","
","""event"",""trial"",""time""
""fullscreenenter"",""5"",""19129""
","
","449","","48","","","3000","1","","","images/tutyellowplanet.jpg","images/tutalien4","images/tutalien3","images/tutrocket1","images/tutalien4","images/nothing.png","2","practice","true","2","common","0","2023-02-03 21:42:44.246"
"two-step-fixation","117","505677","0.0-61.0-2.18","3432","6126","14","Female","false","false","true","true","""event"",""trial"",""time""
""fullscreenenter"",""5"",""19129""
","
","
","""event"",""trial"",""time""
""fullscreenenter"",""5"",""19129""
","
","","images/earth.jpg","","","","","","","","","","","","","","fixation","","","","","",""
"d3-animate-choice","118","508137","0.0-61.0-0.19","3432","6126","14","Female","false","false","true","true","""event"",""trial"",""time""
""fullscreenenter"",""5"",""19129""
","
","
","""event"",""trial"",""time""
""fullscreenenter"",""5"",""19129""
","
","437","","48","","","3000","1","","","images/earth.jpg","images/tutrocket1","images/tutrocket2","null","images/tutrocket1","","1","practice","null","2","","",""
"d3-animate-choice","119","510598","0.0-61.0-1.19","3432","6126","14","Female","false","false","true","true","""event"",""trial"",""time""
""fullscreenenter"",""5"",""19129""
","
","
","""event"",""trial"",""time""
""fullscreenenter"",""5"",""19129""
","
","438","","48","","","3000","1","","","images/tutgreenplanet.jpg","images/tutalien2","images/tutalien1","images/tutrocket1","images/tutalien2","images/nothing.png","2","practice","false","2","rare","0","2023-02-03 21:42:50.176"
"two-step-fixation","120","511618","0.0-61.0-2.19","3432","6126","14","Female","false","false","true","true","""event"",""trial"",""time""
""fullscreenenter"",""5"",""19129""
","
","
","""event"",""trial"",""time""
""fullscreenenter"",""5"",""19129""
","
","","images/earth.jpg","","","","","","","","","","","","","","fixation","","","","","",""
"d3-instructions","121","515071","0.0-62.0","3432","6126","14","Female","false","false","true","true","""event"",""trial"",""time""
""fullscreenenter"",""5"",""19129""
","
","
","""event"",""trial"",""time""
""fullscreenenter"",""5"",""19129""
","
","","","","","","","","","","","","","","","","","","","","","",""
"audio-keyboard-response","122","518165","0.0-63.0","3432","6126","14","Female","false","false","true","true","""event"",""trial"",""time""
""fullscreenenter"",""5"",""19129""
","
","
","""event"",""trial"",""time""
""fullscreenenter"",""5"",""19129""
","
","3091","audio/instructions/treasure_feedback.wav","32","","","","","","","","","","","","","","","","","","",""
"d3-instructions","123","527489","0.0-64.0","3432","6126","14","Female","false","false","true","true","""event"",""trial"",""time""
""fullscreenenter"",""5"",""19129""
","
","
","""event"",""trial"",""time""
""fullscreenenter"",""5"",""19129""
","
","","","","","","","","","","","","","","","","","","","","","",""
"d3-instructions","124","541558","0.0-65.0","3432","6126","14","Female","false","false","true","true","""event"",""trial"",""time""
""fullscreenenter"",""5"",""19129""
","
","
","""event"",""trial"",""time""
""fullscreenenter"",""5"",""19129""
","
","","","","","","","","","","","","","","","","","","","","","",""
"d3-instructions","125","562859","0.0-66.0","3432","6126","14","Female","false","false","true","true","""event"",""trial"",""time""
""fullscreenenter"",""5"",""19129""
","
","
","""event"",""trial"",""time""
""fullscreenenter"",""5"",""19129""
","
","","","","","","","","","","","","","","","","","","","","","",""
"d3-instructions","126","572800","0.0-67.0","3432","6126","14","Female","false","false","true","true","""event"",""trial"",""time""
""fullscreenenter"",""5"",""19129""
","
","
","""event"",""trial"",""time""
""fullscreenenter"",""5"",""19129""
","
","","","","","","","","","","","","","","","","","","","","","",""
"d3-instructions","127","575652","0.0-68.0","3432","6126","14","Female","false","false","true","true","""event"",""trial"",""time""
""fullscreenenter"",""5"",""19129""
","
","
","""event"",""trial"",""time""
""fullscreenenter"",""5"",""19129""
","
","","","","","","","","","","","","","","","","","","","","","",""
"instructions-quiz","128","578449","0.0-69.0","3432","6126","14","Female","false","false","true","true","""event"",""trial"",""time""
""fullscreenenter"",""5"",""19129""
","
","
","""event"",""trial"",""time""
""fullscreenenter"",""5"",""19129""
","
","2794","audio/quiz/Q1_Prompt.wav","","1","","","","","","","","","","","","","","","","","",""
"audio-keyboard-response","129","587628","0.0-70.0","3432","6126","14","Female","false","false","true","true","""event"",""trial"",""time""
""fullscreenenter"",""5"",""19129""
","
","
","""event"",""trial"",""time""
""fullscreenenter"",""5"",""19129""
","
","null","audio/quiz/Q1_Correct.wav","null","","","","","","","","","","","","","","","","","","",""
"instructions-quiz","130","596455","0.0-71.0","3432","6126","14","Female","false","false","true","true","""event"",""trial"",""time""
""fullscreenenter"",""5"",""19129""
","
","
","""event"",""trial"",""time""
""fullscreenenter"",""5"",""19129""
","
","8825","audio/quiz/Q2_Prompt.wav","","1","","","","","","","","","","","","","","","","","",""
"audio-keyboard-response","131","602040","0.0-72.0","3432","6126","14","Female","false","false","true","true","""event"",""trial"",""time""
""fullscreenenter"",""5"",""19129""
","
","
","""event"",""trial"",""time""
""fullscreenenter"",""5"",""19129""
","
","5589","audio/quiz/Q2_Incorrect.wav","32","","","","","","","","","","","","","","","","","","",""
"instructions-quiz","132","605717","0.0-73.0","3432","6126","14","Female","false","false","true","true","""event"",""trial"",""time""
""fullscreenenter"",""5"",""19129""
","
","
","""event"",""trial"",""time""
""fullscreenenter"",""5"",""19129""
","
","3675","audio/quiz/Q3_Prompt.wav","","1","","","","","","","","","","","","","","","","","",""
"audio-keyboard-response","133","606014","0.0-74.0","3432","6126","14","Female","false","false","true","true","""event"",""trial"",""time""
""fullscreenenter"",""5"",""19129""
","
","
","""event"",""trial"",""time""
""fullscreenenter"",""5"",""19129""
","
","301","audio/quiz/Q3_Correct.wav","32","","","","","","","","","","","","","","","","","","",""
"d3-instructions","134","609880","0.0-75.0","3432","6126","14","Female","false","false","true","true","""event"",""trial"",""time""
""fullscreenenter"",""5"",""19129""
","
","
","""event"",""trial"",""time""
""fullscreenenter"",""5"",""19129""
","
","","","","","","","","","","","","","","","","","","","","","",""
"pavlovia","135","609888","0.0-76.0","3432","6126","14","Female","false","false","true","true","""event"",""trial"",""time""
""fullscreenenter"",""5"",""19129""
","
","
","""event"",""trial"",""time""
""fullscreenenter"",""5"",""19129""
","
","","","","","","","","","","","","","","","","","","","","","",""
"d3-animate-choice","136","613570","0.0-77.0-0.0","3432","6126","14","Female","false","false","true","true","""event"",""trial"",""time""
""fullscreenenter"",""5"",""19129""
","
","
","""event"",""trial"",""time""
""fullscreenenter"",""5"",""19129""
","
","1666","","48","","","3000","1","","","images/earth.jpg","images/rocket1","images/rocket2","null","images/rocket1","","1","real","null","2","","",""
"d3-animate-choice","137","617007","0.0-77.0-1.0","3432","6126","14","Female","false","false","true","true","""event"",""trial"",""time""
""fullscreenenter"",""5"",""19129""
","
","
","""event"",""trial"",""time""
""fullscreenenter"",""5"",""19129""
","
","1424","","49","","","3000","1","","","images/purpleplanet.jpg","images/alien4","images/alien3","images/rocket1","images/alien3","images/nothing.png","2","real","true","1","common","0","2023-02-03 21:44:36.585"
"two-step-fixation","138","618026","0.0-77.0-2.0","3432","6126","14","Female","false","false","true","true","""event"",""trial"",""time""
""fullscreenenter"",""5"",""19129""
","
","
","""event"",""trial"",""time""
""fullscreenenter"",""5"",""19129""
","
","","images/earth.jpg","","","","","","","","","","","","","","fixation","","","","","",""
"d3-animate-choice","139","620738","0.0-77.0-0.1","3432","6126","14","Female","false","false","true","true","""event"",""trial"",""time""
""fullscreenenter"",""5"",""19129""
","
","
","""event"",""trial"",""time""
""fullscreenenter"",""5"",""19129""
","
","697","","49","","","3000","1","","","images/earth.jpg","images/rocket1","images/rocket2","null","images/rocket2","","1","real","null","1","","",""
"d3-animate-choice","140","623638","0.0-77.0-1.1","3432","6126","14","Female","false","false","true","true","""event"",""trial"",""time""
""fullscreenenter"",""5"",""19129""
","
","
","""event"",""trial"",""time""
""fullscreenenter"",""5"",""19129""
","
","890","","48","","","3000","1","","","images/redplanet1.jpg","images/alien2","images/alien1","images/rocket2","images/alien2","images/t.png","2","real","true","2","common","1","2023-02-03 21:44:43.216"
"two-step-fixation","141","624657","0.0-77.0-2.1","3432","6126","14","Female","false","false","true","true","""event"",""trial"",""time""
""fullscreenenter"",""5"",""19129""
","
","
","""event"",""trial"",""time""
""fullscreenenter"",""5"",""19129""
","
","","images/earth.jpg","","","","","","","","","","","","","","fixation","","","","","",""
"d3-animate-choice","142","626980","0.0-77.0-0.2","3432","6126","14","Female","false","false","true","true","""event"",""trial"",""time""
""fullscreenenter"",""5"",""19129""
","
","
","""event"",""trial"",""time""
""fullscreenenter"",""5"",""19129""
","
","313","","49","","","3000","1","","","images/earth.jpg","images/rocket1","images/rocket2","null","images/rocket2","","1","real","null","1","","",""
"d3-animate-choice","143","629376","0.0-77.0-1.2","3432","6126","14","Female","false","false","true","true","""event"",""trial"",""time""
""fullscreenenter"",""5"",""19129""
","
","
","""event"",""trial"",""time""
""fullscreenenter"",""5"",""19129""
","
","376","","48","","","3000","1","","","images/purpleplanet.jpg","images/alien4","images/alien3","images/rocket2","images/alien4","images/t.png","2","real","false","2","rare","1","2023-02-03 21:44:48.954"
"two-step-fixation","144","630396","0.0-77.0-2.2","3432","6126","14","Female","false","false","true","true","""event"",""trial"",""time""
""fullscreenenter"",""5"",""19129""
","
","
","""event"",""trial"",""time""
""fullscreenenter"",""5"",""19129""
","
","","images/earth.jpg","","","","","","","","","","","","","","fixation","","","","","",""
"d3-animate-choice","145","633096","0.0-77.0-0.3","3432","6126","14","Female","false","false","true","true","""event"",""trial"",""time""
""fullscreenenter"",""5"",""19129""
","
","
","""event"",""trial"",""time""
""fullscreenenter"",""5"",""19129""
","
","680","","48","","","3000","1","","","images/earth.jpg","images/rocket1","images/rocket2","null","images/rocket1","","1","real","null","2","","",""
"d3-animate-choice","146","635557","0.0-77.0-1.3","3432","6126","14","Female","false","false","true","true","""event"",""trial"",""time""
""fullscreenenter"",""5"",""19129""
","
","
","""event"",""trial"",""time""
""fullscreenenter"",""5"",""19129""
","
","441","","48","","","3000","1","","","images/purpleplanet.jpg","images/alien4","images/alien3","images/rocket1","images/alien4","images/t.png","2","real","true","2","common","1","2023-02-03 21:44:55.135"
"two-step-fixation","147","636577","0.0-77.0-2.3","3432","6126","14","Female","false","false","true","true","""event"",""trial"",""time""
""fullscreenenter"",""5"",""19129""
","
","
","""event"",""trial"",""time""
""fullscreenenter"",""5"",""19129""
","
","","images/earth.jpg","","","","","","","","","","","","","","fixation","","","","","",""
"d3-animate-choice","148","638897","0.0-77.0-0.4","3432","6126","14","Female","false","false","true","true","""event"",""trial"",""time""
""fullscreenenter"",""5"",""19129""
","
","
","""event"",""trial"",""time""
""fullscreenenter"",""5"",""19129""
","
","309","","48","","","3000","1","","","images/earth.jpg","images/rocket1","images/rocket2","null","images/rocket1","","1","real","null","2","","",""
"d3-animate-choice","149","641482","0.0-77.0-1.4","3432","6126","14","Female","false","false","true","true","""event"",""trial"",""time""
""fullscreenenter"",""5"",""19129""
","
","
","""event"",""trial"",""time""
""fullscreenenter"",""5"",""19129""
","
","569","","48","","","3000","1","","","images/purpleplanet.jpg","images/alien4","images/alien3","images/rocket1","images/alien4","images/t.png","2","real","true","2","common","1","2023-02-03 21:45:01.060"
"two-step-fixation","150","642506","0.0-77.0-2.4","3432","6126","14","Female","false","false","true","true","""event"",""trial"",""time""
""fullscreenenter"",""5"",""19129""
","
","
","""event"",""trial"",""time""
""fullscreenenter"",""5"",""19129""
","
","","images/earth.jpg","","","","","","","","","","","","","","fixation","","","","","",""
"d3-animate-choice","151","644846","0.0-77.0-0.5","3432","6126","14","Female","false","false","true","true","""event"",""trial"",""time""
""fullscreenenter"",""5"",""19129""
","
","
","""event"",""trial"",""time""
""fullscreenenter"",""5"",""19129""
","
","318","","48","","","3000","1","","","images/earth.jpg","images/rocket1","images/rocket2","null","images/rocket1","","1","real","null","2","","",""
"d3-animate-choice","152","647177","0.0-77.0-1.5","3432","6126","14","Female","false","false","true","true","""event"",""trial"",""time""
""fullscreenenter"",""5"",""19129""
","
","
","""event"",""trial"",""time""
""fullscreenenter"",""5"",""19129""
","
","308","","48","","","3000","1","","","images/purpleplanet.jpg","images/alien4","images/alien3","images/rocket1","images/alien4","images/t.png","2","real","true","2","common","1","2023-02-03 21:45:06.755"
"two-step-fixation","153","648197","0.0-77.0-2.5","3432","6126","14","Female","false","false","true","true","""event"",""trial"",""time""
""fullscreenenter"",""5"",""19129""
","
","
","""event"",""trial"",""time""
""fullscreenenter"",""5"",""19129""
","
","","images/earth.jpg","","","","","","","","","","","","","","fixation","","","","","",""
"d3-animate-choice","154","650678","0.0-77.0-0.6","3432","6126","14","Female","false","false","true","true","""event"",""trial"",""time""
""fullscreenenter"",""5"",""19129""
","
","
","""event"",""trial"",""time""
""fullscreenenter"",""5"",""19129""
","
","470","","48","","","3000","1","","","images/earth.jpg","images/rocket1","images/rocket2","null","images/rocket1","","1","real","null","2","","",""
"d3-animate-choice","155","653177","0.0-77.0-1.6","3432","6126","14","Female","false","false","true","true","""event"",""trial"",""time""
""fullscreenenter"",""5"",""19129""
","
","
","""event"",""trial"",""time""
""fullscreenenter"",""5"",""19129""
","
","485","","48","","","3000","1","","","images/redplanet1.jpg","images/alien2","images/alien1","images/rocket1","images/alien2","images/t.png","2","real","false","2","rare","1","2023-02-03 21:45:12.755"
"two-step-fixation","156","654197","0.0-77.0-2.6","3432","6126","14","Female","false","false","true","true","""event"",""trial"",""time""
""fullscreenenter"",""5"",""19129""
","
","
","""event"",""trial"",""time""
""fullscreenenter"",""5"",""19129""
","
","","images/earth.jpg","","","","","","","","","","","","","","fixation","","","","","",""
"d3-animate-choice","157","656536","0.0-77.0-0.7","3432","6126","14","Female","false","false","true","true","""event"",""trial"",""time""
""fullscreenenter"",""5"",""19129""
","
","
","""event"",""trial"",""time""
""fullscreenenter"",""5"",""19129""
","
","322","","48","","","3000","1","","","images/earth.jpg","images/rocket1","images/rocket2","null","images/rocket1","","1","real","null","2","","",""
"d3-animate-choice","158","659428","0.0-77.0-1.7","3432","6126","14","Female","false","false","true","true","""event"",""trial"",""time""
""fullscreenenter"",""5"",""19129""
","
","
","""event"",""trial"",""time""
""fullscreenenter"",""5"",""19129""
","
","865","","48","","","3000","1","","","images/purpleplanet.jpg","images/alien4","images/alien3","images/rocket1","images/alien4","images/nothing.png","2","real","true","2","common","0","2023-02-03 21:45:19.006"
"two-step-fixation","159","660447","0.0-77.0-2.7","3432","6126","14","Female","false","false","true","true","""event"",""trial"",""time""
""fullscreenenter"",""5"",""19129""
","
","
","""event"",""trial"",""time""
""fullscreenenter"",""5"",""19129""
","
","","images/earth.jpg","","","","","","","","","","","","","","fixation","","","","","",""
"d3-animate-choice","160","662967","0.0-77.0-0.8","3432","6126","14","Female","false","false","true","true","""event"",""trial"",""time""
""fullscreenenter"",""5"",""19129""
","
","
","""event"",""trial"",""time""
""fullscreenenter"",""5"",""19129""
","
","503","","49","","","3000","1","","","images/earth.jpg","images/rocket1","images/rocket2","null","images/rocket2","","1","real","null","1","","",""
"d3-animate-choice","161","665297","0.0-77.0-1.8","3432","6126","14","Female","false","false","true","true","""event"",""trial"",""time""
""fullscreenenter"",""5"",""19129""
","
","
","""event"",""trial"",""time""
""fullscreenenter"",""5"",""19129""
","
","320","","48","","","3000","1","","","images/redplanet1.jpg","images/alien2","images/alien1","images/rocket2","images/alien2","images/nothing.png","2","real","true","2","common","0","2023-02-03 21:45:24.875"
"two-step-fixation","162","666316","0.0-77.0-2.8","3432","6126","14","Female","false","false","true","true","""event"",""trial"",""time""
""fullscreenenter"",""5"",""19129""
","
","
","""event"",""trial"",""time""
""fullscreenenter"",""5"",""19129""
","
","","images/earth.jpg","","","","","","","","","","","","","","fixation","","","","","",""
"d3-animate-choice","163","668657","0.0-77.0-0.9","3432","6126","14","Female","false","false","true","true","""event"",""trial"",""time""
""fullscreenenter"",""5"",""19129""
","
","
","""event"",""trial"",""time""
""fullscreenenter"",""5"",""19129""
","
","329","","49","","","3000","1","","","images/earth.jpg","images/rocket1","images/rocket2","null","images/rocket2","","1","real","null","1","","",""
"d3-animate-choice","164","671046","0.0-77.0-1.9","3432","6126","14","Female","false","false","true","true","""event"",""trial"",""time""
""fullscreenenter"",""5"",""19129""
","
","
","""event"",""trial"",""time""
""fullscreenenter"",""5"",""19129""
","
","368","","49","","","3000","1","","","images/purpleplanet.jpg","images/alien4","images/alien3","images/rocket2","images/alien3","images/t.png","2","real","false","1","rare","1","2023-02-03 21:45:30.625"
"two-step-fixation","165","672066","0.0-77.0-2.9","3432","6126","14","Female","false","false","true","true","""event"",""trial"",""time""
""fullscreenenter"",""5"",""19129""
","
","
","""event"",""trial"",""time""
""fullscreenenter"",""5"",""19129""
","
","","images/earth.jpg","","","","","","","","","","","","","","fixation","","","","","",""
"d3-animate-choice","166","674437","0.0-77.0-0.10","3432","6126","14","Female","false","false","true","true","""event"",""trial"",""time""
""fullscreenenter"",""5"",""19129""
","
","
","""event"",""trial"",""time""
""fullscreenenter"",""5"",""19129""
","
","353","","48","","","3000","1","","","images/earth.jpg","images/rocket1","images/rocket2","null","images/rocket1","","1","real","null","2","","",""
"d3-animate-choice","167","676836","0.0-77.0-1.10","3432","6126","14","Female","false","false","true","true","""event"",""trial"",""time""
""fullscreenenter"",""5"",""19129""
","
","
","""event"",""trial"",""time""
""fullscreenenter"",""5"",""19129""
","
","373","","49","","","3000","1","","","images/purpleplanet.jpg","images/alien4","images/alien3","images/rocket1","images/alien3","images/t.png","2","real","true","1","common","1","2023-02-03 21:45:36.415"
"two-step-fixation","168","677852","0.0-77.0-2.10","3432","6126","14","Female","false","false","true","true","""event"",""trial"",""time""
""fullscreenenter"",""5"",""19129""
","
","
","""event"",""trial"",""time""
""fullscreenenter"",""5"",""19129""
","
","","images/earth.jpg","","","","","","","","","","","","","","fixation","","","","","",""
"d3-animate-choice","169","680477","0.0-77.0-0.11","3432","6126","14","Female","false","false","true","true","""event"",""trial"",""time""
""fullscreenenter"",""5"",""19129""
","
","
","""event"",""trial"",""time""
""fullscreenenter"",""5"",""19129""
","
","605","","48","","","3000","1","","","images/earth.jpg","images/rocket1","images/rocket2","null","images/rocket1","","1","real","null","2","","",""
"d3-animate-choice","170","683064","0.0-77.0-1.11","3432","6126","14","Female","false","false","true","true","""event"",""trial"",""time""
""fullscreenenter"",""5"",""19129""
","
","
","""event"",""trial"",""time""
""fullscreenenter"",""5"",""19129""
","
","576","","49","","","3000","1","","","images/redplanet1.jpg","images/alien2","images/alien1","images/rocket1","images/alien1","images/t.png","2","real","false","1","rare","1","2023-02-03 21:45:42.642"
"two-step-fixation","171","684076","0.0-77.0-2.11","3432","6126","14","Female","false","false","true","true","""event"",""trial"",""time""
""fullscreenenter"",""5"",""19129""
","
","
","""event"",""trial"",""time""
""fullscreenenter"",""5"",""19129""
","
","","images/earth.jpg","","","","","","","","","","","","","","fixation","","","","","",""
"d3-animate-choice","172","686467","0.0-77.0-0.12","3432","6126","14","Female","false","false","true","true","""event"",""trial"",""time""
""fullscreenenter"",""5"",""19129""
","
","
","""event"",""trial"",""time""
""fullscreenenter"",""5"",""19129""
","
","383","","48","","","3000","1","","","images/earth.jpg","images/rocket1","images/rocket2","null","images/rocket1","","1","real","null","2","","",""
"d3-animate-choice","173","688988","0.0-77.0-1.12","3432","6126","14","Female","false","false","true","true","""event"",""trial"",""time""
""fullscreenenter"",""5"",""19129""
","
","
","""event"",""trial"",""time""
""fullscreenenter"",""5"",""19129""
","
","494","","49","","","3000","1","","","images/redplanet1.jpg","images/alien2","images/alien1","images/rocket1","images/alien1","images/t.png","2","real","false","1","rare","1","2023-02-03 21:45:48.566"
"two-step-fixation","174","690006","0.0-77.0-2.12","3432","6126","14","Female","false","false","true","true","""event"",""trial"",""time""
""fullscreenenter"",""5"",""19129""
","
","
","""event"",""trial"",""time""
""fullscreenenter"",""5"",""19129""
","
","","images/earth.jpg","","","","","","","","","","","","","","fixation","","","","","",""
"d3-animate-choice","175","692317","0.0-77.0-0.13","3432","6126","14","Female","false","false","true","true","""event"",""trial"",""time""
""fullscreenenter"",""5"",""19129""
","
","
","""event"",""trial"",""time""
""fullscreenenter"",""5"",""19129""
","
","294","","48","","","3000","1","","","images/earth.jpg","images/rocket1","images/rocket2","null","images/rocket1","","1","real","null","2","","",""
"d3-animate-choice","176","694738","0.0-77.0-1.13","3432","6126","14","Female","false","false","true","true","""event"",""trial"",""time""
""fullscreenenter"",""5"",""19129""
","
","
","""event"",""trial"",""time""
""fullscreenenter"",""5"",""19129""
","
","409","","49","","","3000","1","","","images/purpleplanet.jpg","images/alien4","images/alien3","images/rocket1","images/alien3","images/nothing.png","2","real","true","1","common","0","2023-02-03 21:45:54.317"
"two-step-fixation","177","695757","0.0-77.0-2.13","3432","6126","14","Female","false","false","true","true","""event"",""trial"",""time""
""fullscreenenter"",""5"",""19129""
","
","
","""event"",""trial"",""time""
""fullscreenenter"",""5"",""19129""
","
","","images/earth.jpg","","","","","","","","","","","","","","fixation","","","","","",""
"d3-animate-choice","178","698258","0.0-77.0-0.14","3432","6126","14","Female","false","false","true","true","""event"",""trial"",""time""
""fullscreenenter"",""5"",""19129""
","
","
","""event"",""trial"",""time""
""fullscreenenter"",""5"",""19129""
","
","488","","48","","","3000","1","","","images/earth.jpg","images/rocket1","images/rocket2","null","images/rocket1","","1","real","null","2","","",""
"d3-animate-choice","179","700601","0.0-77.0-1.14","3432","6126","14","Female","false","false","true","true","""event"",""trial"",""time""
""fullscreenenter"",""5"",""19129""
","
","
","""event"",""trial"",""time""
""fullscreenenter"",""5"",""19129""
","
","332","","49","","","3000","1","","","images/redplanet1.jpg","images/alien2","images/alien1","images/rocket1","images/alien1","images/nothing.png","2","real","false","1","rare","0","2023-02-03 21:46:00.179"
"two-step-fixation","180","701616","0.0-77.0-2.14","3432","6126","14","Female","false","false","true","true","""event"",""trial"",""time""
""fullscreenenter"",""5"",""19129""
","
","
","""event"",""trial"",""time""
""fullscreenenter"",""5"",""19129""
","
","","images/earth.jpg","","","","","","","","","","","","","","fixation","","","","","",""
"d3-animate-choice","181","703976","0.0-77.0-0.15","3432","6126","14","Female","false","false","true","true","""event"",""trial"",""time""
""fullscreenenter"",""5"",""19129""
","
","
","""event"",""trial"",""time""
""fullscreenenter"",""5"",""19129""
","
","347","","48","","","3000","1","","","images/earth.jpg","images/rocket1","images/rocket2","null","images/rocket1","","1","real","null","2","","",""
"d3-animate-choice","182","706347","0.0-77.0-1.15","3432","6126","14","Female","false","false","true","true","""event"",""trial"",""time""
""fullscreenenter"",""5"",""19129""
","
","
","""event"",""trial"",""time""
""fullscreenenter"",""5"",""19129""
","
","357","","48","","","3000","1","","","images/purpleplanet.jpg","images/alien4","images/alien3","images/rocket1","images/alien4","images/t.png","2","real","true","2","common","1","2023-02-03 21:46:05.925"
"two-step-fixation","183","707366","0.0-77.0-2.15","3432","6126","14","Female","false","false","true","true","""event"",""trial"",""time""
""fullscreenenter"",""5"",""19129""
","
","
","""event"",""trial"",""time""
""fullscreenenter"",""5"",""19129""
","
","","images/earth.jpg","","","","","","","","","","","","","","fixation","","","","","",""
"d3-animate-choice","184","709677","0.0-77.0-0.16","3432","6126","14","Female","false","false","true","true","""event"",""trial"",""time""
""fullscreenenter"",""5"",""19129""
","
","
","""event"",""trial"",""time""
""fullscreenenter"",""5"",""19129""
","
","286","","48","","","3000","1","","","images/earth.jpg","images/rocket1","images/rocket2","null","images/rocket1","","1","real","null","2","","",""
"d3-animate-choice","185","712197","0.0-77.0-1.16","3432","6126","14","Female","false","false","true","true","""event"",""trial"",""time""
""fullscreenenter"",""5"",""19129""
","
","
","""event"",""trial"",""time""
""fullscreenenter"",""5"",""19129""
","
","70","","192","","","3000","1","502","48","images/purpleplanet.jpg","images/alien4","images/alien3","images/rocket1","images/alien4","images/nothing.png","2","real","true","","common","0","2023-02-03 21:46:11.775"
"two-step-fixation","186","713217","0.0-77.0-2.16","3432","6126","14","Female","false","false","true","true","""event"",""trial"",""time""
""fullscreenenter"",""5"",""19129""
","
","
","""event"",""trial"",""time""
""fullscreenenter"",""5"",""19129""
","
","","images/earth.jpg","","","","","","","","","","","","","","fixation","","","","","",""
"d3-animate-choice","187","715826","0.0-77.0-0.17","3432","6126","14","Female","false","false","true","true","""event"",""trial"",""time""
""fullscreenenter"",""5"",""19129""
","
","
","""event"",""trial"",""time""
""fullscreenenter"",""5"",""19129""
","
","593","","48","","","3000","1","","","images/earth.jpg","images/rocket1","images/rocket2","null","images/rocket1","","1","real","null","2","","",""
"d3-animate-choice","188","718087","0.0-77.0-1.17","3432","6126","14","Female","false","false","true","true","""event"",""trial"",""time""
""fullscreenenter"",""5"",""19129""
","
","
","""event"",""trial"",""time""
""fullscreenenter"",""5"",""19129""
","
","239","","48","","","3000","1","","","images/purpleplanet.jpg","images/alien4","images/alien3","images/rocket1","images/alien4","images/nothing.png","2","real","true","2","common","0","2023-02-03 21:46:17.665"
"two-step-fixation","189","719108","0.0-77.0-2.17","3432","6126","14","Female","false","false","true","true","""event"",""trial"",""time""
""fullscreenenter"",""5"",""19129""
","
","
","""event"",""trial"",""time""
""fullscreenenter"",""5"",""19129""
","
","","images/earth.jpg","","","","","","","","","","","","","","fixation","","","","","",""
"d3-animate-choice","190","721466","0.0-77.0-0.18","3432","6126","14","Female","false","false","true","true","""event"",""trial"",""time""
""fullscreenenter"",""5"",""19129""
","
","
","""event"",""trial"",""time""
""fullscreenenter"",""5"",""19129""
","
","338","","48","","","3000","1","","","images/earth.jpg","images/rocket1","images/rocket2","null","images/rocket1","","1","real","null","2","","",""
"d3-animate-choice","191","723877","0.0-77.0-1.18","3432","6126","14","Female","false","false","true","true","""event"",""trial"",""time""
""fullscreenenter"",""5"",""19129""
","
","
","""event"",""trial"",""time""
""fullscreenenter"",""5"",""19129""
","
","389","","49","","","3000","1","","","images/redplanet1.jpg","images/alien2","images/alien1","images/rocket1","images/alien1","images/nothing.png","2","real","false","1","rare","0","2023-02-03 21:46:23.455"
"two-step-fixation","192","724897","0.0-77.0-2.18","3432","6126","14","Female","false","false","true","true","""event"",""trial"",""time""
""fullscreenenter"",""5"",""19129""
","
","
","""event"",""trial"",""time""
""fullscreenenter"",""5"",""19129""
","
","","images/earth.jpg","","","","","","","","","","","","","","fixation","","","","","",""
"d3-animate-choice","193","727396","0.0-77.0-0.19","3432","6126","14","Female","false","false","true","true","""event"",""trial"",""time""
""fullscreenenter"",""5"",""19129""
","
","
","""event"",""trial"",""time""
""fullscreenenter"",""5"",""19129""
","
","477","","49","","","3000","1","","","images/earth.jpg","images/rocket1","images/rocket2","null","images/rocket2","","1","real","null","1","","",""
"d3-animate-choice","194","730130","0.0-77.0-1.19","3432","6126","14","Female","false","false","true","true","""event"",""trial"",""time""
""fullscreenenter"",""5"",""19129""
","
","
","""event"",""trial"",""time""
""fullscreenenter"",""5"",""19129""
","
","704","","48","","","3000","1","","","images/redplanet1.jpg","images/alien2","images/alien1","images/rocket2","images/alien2","images/t.png","2","real","true","2","common","1","2023-02-03 21:46:29.708"
"two-step-fixation","195","731147","0.0-77.0-2.19","3432","6126","14","Female","false","false","true","true","""event"",""trial"",""time""
""fullscreenenter"",""5"",""19129""
","
","
","""event"",""trial"",""time""
""fullscreenenter"",""5"",""19129""
","
","","images/earth.jpg","","","","","","","","","","","","","","fixation","","","","","",""
"d3-animate-choice","196","733548","0.0-77.0-0.20","3432","6126","14","Female","false","false","true","true","""event"",""trial"",""time""
""fullscreenenter"",""5"",""19129""
","
","
","""event"",""trial"",""time""
""fullscreenenter"",""5"",""19129""
","
","382","","49","","","3000","1","1335","192","images/earth.jpg","images/rocket1","images/rocket2","null","images/rocket2","","1","real","null","1","","",""
"d3-animate-choice","197","735966","0.0-77.0-1.20","3432","6126","14","Female","false","false","true","true","""event"",""trial"",""time""
""fullscreenenter"",""5"",""19129""
","
","
","""event"",""trial"",""time""
""fullscreenenter"",""5"",""19129""
","
","395","","48","","","3000","1","","","images/redplanet1.jpg","images/alien2","images/alien1","images/rocket2","images/alien2","images/nothing.png","2","real","true","2","common","0","2023-02-03 21:46:35.544"
"two-step-fixation","198","736983","0.0-77.0-2.20","3432","6126","14","Female","false","false","true","true","""event"",""trial"",""time""
""fullscreenenter"",""5"",""19129""
","
","
","""event"",""trial"",""time""
""fullscreenenter"",""5"",""19129""
","
","","images/earth.jpg","","","","","","","","","","","","","","fixation","","","","","",""
"d3-animate-choice","199","739436","0.0-77.0-0.21","3432","6126","14","Female","false","false","true","true","""event"",""trial"",""time""
""fullscreenenter"",""5"",""19129""
","
","
","""event"",""trial"",""time""
""fullscreenenter"",""5"",""19129""
","
","431","","49","","","3000","1","","","images/earth.jpg","images/rocket1","images/rocket2","null","images/rocket2","","1","real","null","1","","",""
"d3-animate-choice","200","741817","0.0-77.0-1.21","3432","6126","14","Female","false","false","true","true","""event"",""trial"",""time""
""fullscreenenter"",""5"",""19129""
","
","
","""event"",""trial"",""time""
""fullscreenenter"",""5"",""19129""
","
","370","","49","","","3000","1","","","images/purpleplanet.jpg","images/alien4","images/alien3","images/rocket2","images/alien3","images/nothing.png","2","real","false","1","rare","0","2023-02-03 21:46:41.395"
"two-step-fixation","201","742836","0.0-77.0-2.21","3432","6126","14","Female","false","false","true","true","""event"",""trial"",""time""
""fullscreenenter"",""5"",""19129""
","
","
","""event"",""trial"",""time""
""fullscreenenter"",""5"",""19129""
","
","","images/earth.jpg","","","","","","","","","","","","","","fixation","","","","","",""
"d3-animate-choice","202","745455","0.0-77.0-0.22","3432","6126","14","Female","false","false","true","true","""event"",""trial"",""time""
""fullscreenenter"",""5"",""19129""
","
","
","""event"",""trial"",""time""
""fullscreenenter"",""5"",""19129""
","
","607","","48","","","3000","1","","","images/earth.jpg","images/rocket1","images/rocket2","null","images/rocket1","","1","real","null","2","","",""
"d3-animate-choice","203","748038","0.0-77.0-1.22","3432","6126","14","Female","false","false","true","true","""event"",""trial"",""time""
""fullscreenenter"",""5"",""19129""
","
","
","""event"",""trial"",""time""
""fullscreenenter"",""5"",""19129""
","
","569","","48","","","3000","1","","","images/purpleplanet.jpg","images/alien4","images/alien3","images/rocket1","images/alien4","images/t.png","2","real","true","2","common","1","2023-02-03 21:46:47.616"
"two-step-fixation","204","749046","0.0-77.0-2.22","3432","6126","14","Female","false","false","true","true","""event"",""trial"",""time""
""fullscreenenter"",""5"",""19129""
","
","
","""event"",""trial"",""time""
""fullscreenenter"",""5"",""19129""
","
","","images/earth.jpg","","","","","","","","","","","","","","fixation","","","","","",""
"d3-animate-choice","205","751336","0.0-77.0-0.23","3432","6126","14","Female","false","false","true","true","""event"",""trial"",""time""
""fullscreenenter"",""5"",""19129""
","
","
","""event"",""trial"",""time""
""fullscreenenter"",""5"",""19129""
","
","279","","49","","","3000","1","","","images/earth.jpg","images/rocket1","images/rocket2","null","images/rocket2","","1","real","null","1","","",""
"d3-animate-choice","206","753997","0.0-77.0-1.23","3432","6126","14","Female","false","false","true","true","""event"",""trial"",""time""
""fullscreenenter"",""5"",""19129""
","
","
","""event"",""trial"",""time""
""fullscreenenter"",""5"",""19129""
","
","649","","49","","","3000","1","","","images/redplanet1.jpg","images/alien2","images/alien1","images/rocket2","images/alien1","images/t.png","2","real","true","1","common","1","2023-02-03 21:46:53.575"
"two-step-fixation","207","755017","0.0-77.0-2.23","3432","6126","14","Female","false","false","true","true","""event"",""trial"",""time""
""fullscreenenter"",""5"",""19129""
","
","
","""event"",""trial"",""time""
""fullscreenenter"",""5"",""19129""
","
","","images/earth.jpg","","","","","","","","","","","","","","fixation","","","","","",""
"d3-animate-choice","208","757425","0.0-77.0-0.24","3432","6126","14","Female","false","false","true","true","""event"",""trial"",""time""
""fullscreenenter"",""5"",""19129""
","
","
","""event"",""trial"",""time""
""fullscreenenter"",""5"",""19129""
","
","384","","49","","","3000","1","","","images/earth.jpg","images/rocket1","images/rocket2","null","images/rocket2","","1","real","null","1","","",""
"d3-animate-choice","209","759896","0.0-77.0-1.24","3432","6126","14","Female","false","false","true","true","""event"",""trial"",""time""
""fullscreenenter"",""5"",""19129""
","
","
","""event"",""trial"",""time""
""fullscreenenter"",""5"",""19129""
","
","453","","49","","","3000","1","","","images/purpleplanet.jpg","images/alien4","images/alien3","images/rocket2","images/alien3","images/t.png","2","real","false","1","rare","1","2023-02-03 21:46:59.476"
"two-step-fixation","210","760907","0.0-77.0-2.24","3432","6126","14","Female","false","false","true","true","""event"",""trial"",""time""
""fullscreenenter"",""5"",""19129""
","
","
","""event"",""trial"",""time""
""fullscreenenter"",""5"",""19129""
","
","","images/earth.jpg","","","","","","","","","","","","","","fixation","","","","","",""
"d3-animate-choice","211","763277","0.0-77.0-0.25","3432","6126","14","Female","false","false","true","true","""event"",""trial"",""time""
""fullscreenenter"",""5"",""19129""
","
","
","""event"",""trial"",""time""
""fullscreenenter"",""5"",""19129""
","
","345","","49","","","3000","1","","","images/earth.jpg","images/rocket1","images/rocket2","null","images/rocket2","","1","real","null","1","","",""
"d3-animate-choice","212","765826","0.0-77.0-1.25","3432","6126","14","Female","false","false","true","true","""event"",""trial"",""time""
""fullscreenenter"",""5"",""19129""
","
","
","""event"",""trial"",""time""
""fullscreenenter"",""5"",""19129""
","
","524","","49","","","3000","1","","","images/redplanet1.jpg","images/alien2","images/alien1","images/rocket2","images/alien1","images/t.png","2","real","true","1","common","1","2023-02-03 21:47:05.405"
"two-step-fixation","213","766836","0.0-77.0-2.25","3432","6126","14","Female","false","false","true","true","""event"",""trial"",""time""
""fullscreenenter"",""5"",""19129""
","
","
","""event"",""trial"",""time""
""fullscreenenter"",""5"",""19129""
","
","","images/earth.jpg","","","","","","","","","","","","","","fixation","","","","","",""
"d3-animate-choice","214","769157","0.0-77.0-0.26","3432","6126","14","Female","false","false","true","true","""event"",""trial"",""time""
""fullscreenenter"",""5"",""19129""
","
","
","""event"",""trial"",""time""
""fullscreenenter"",""5"",""19129""
","
","298","","49","","","3000","1","","","images/earth.jpg","images/rocket1","images/rocket2","null","images/rocket2","","1","real","null","1","","",""
"d3-animate-choice","215","771587","0.0-77.0-1.26","3432","6126","14","Female","false","false","true","true","""event"",""trial"",""time""
""fullscreenenter"",""5"",""19129""
","
","
","""event"",""trial"",""time""
""fullscreenenter"",""5"",""19129""
","
","408","","49","","","3000","1","","","images/redplanet1.jpg","images/alien2","images/alien1","images/rocket2","images/alien1","images/nothing.png","2","real","true","1","common","0","2023-02-03 21:47:11.166"
"two-step-fixation","216","772608","0.0-77.0-2.26","3432","6126","14","Female","false","false","true","true","""event"",""trial"",""time""
""fullscreenenter"",""5"",""19129""
","
","
","""event"",""trial"",""time""
""fullscreenenter"",""5"",""19129""
","
","","images/earth.jpg","","","","","","","","","","","","","","fixation","","","","","",""
"d3-animate-choice","217","775147","0.0-77.0-0.27","3432","6126","14","Female","false","false","true","true","""event"",""trial"",""time""
""fullscreenenter"",""5"",""19129""
","
","
","""event"",""trial"",""time""
""fullscreenenter"",""5"",""19129""
","
","513","","49","","","3000","1","","","images/earth.jpg","images/rocket1","images/rocket2","null","images/rocket2","","1","real","null","1","","",""
"d3-animate-choice","218","777737","0.0-77.0-1.27","3432","6126","14","Female","false","false","true","true","""event"",""trial"",""time""
""fullscreenenter"",""5"",""19129""
","
","
","""event"",""trial"",""time""
""fullscreenenter"",""5"",""19129""
","
","568","","49","","","3000","1","","","images/redplanet1.jpg","images/alien2","images/alien1","images/rocket2","images/alien1","images/t.png","2","real","true","1","common","1","2023-02-03 21:47:17.315"
"two-step-fixation","219","778756","0.0-77.0-2.27","3432","6126","14","Female","false","false","true","true","""event"",""trial"",""time""
""fullscreenenter"",""5"",""19129""
","
","
","""event"",""trial"",""time""
""fullscreenenter"",""5"",""19129""
","
","","images/earth.jpg","","","","","","","","","","","","","","fixation","","","","","",""
"d3-animate-choice","220","781174","0.0-77.0-0.28","3432","6126","14","Female","false","false","true","true","""event"",""trial"",""time""
""fullscreenenter"",""5"",""19129""
","
","
","""event"",""trial"",""time""
""fullscreenenter"",""5"",""19129""
","
","400","","49","","","3000","1","","","images/earth.jpg","images/rocket1","images/rocket2","null","images/rocket2","","1","real","null","1","","",""
"d3-animate-choice","221","783597","0.0-77.0-1.28","3432","6126","14","Female","false","false","true","true","""event"",""trial"",""time""
""fullscreenenter"",""5"",""19129""
","
","
","""event"",""trial"",""time""
""fullscreenenter"",""5"",""19129""
","
","401","","49","","","3000","1","","","images/redplanet1.jpg","images/alien2","images/alien1","images/rocket2","images/alien1","images/t.png","2","real","true","1","common","1","2023-02-03 21:47:23.176"
"two-step-fixation","222","784617","0.0-77.0-2.28","3432","6126","14","Female","false","false","true","true","""event"",""trial"",""time""
""fullscreenenter"",""5"",""19129""
","
","
","""event"",""trial"",""time""
""fullscreenenter"",""5"",""19129""
","
","","images/earth.jpg","","","","","","","","","","","","","","fixation","","","","","",""
"d3-animate-choice","223","787296","0.0-77.0-0.29","3432","6126","14","Female","false","false","true","true","""event"",""trial"",""time""
""fullscreenenter"",""5"",""19129""
","
","
","""event"",""trial"",""time""
""fullscreenenter"",""5"",""19129""
","
","659","","49","","","3000","1","","","images/earth.jpg","images/rocket1","images/rocket2","null","images/rocket2","","1","real","null","1","","",""
"d3-animate-choice","224","789897","0.0-77.0-1.29","3432","6126","14","Female","false","false","true","true","""event"",""trial"",""time""
""fullscreenenter"",""5"",""19129""
","
","
","""event"",""trial"",""time""
""fullscreenenter"",""5"",""19129""
","
","579","","49","","","3000","1","","","images/redplanet1.jpg","images/alien2","images/alien1","images/rocket2","images/alien1","images/nothing.png","2","real","true","1","common","0","2023-02-03 21:47:29.476"
"two-step-fixation","225","790917","0.0-77.0-2.29","3432","6126","14","Female","false","false","true","true","""event"",""trial"",""time""
""fullscreenenter"",""5"",""19129""
","
","
","""event"",""trial"",""time""
""fullscreenenter"",""5"",""19129""
","
","","images/earth.jpg","","","","","","","","","","","","","","fixation","","","","","",""
"d3-animate-choice","226","793216","0.0-77.0-0.30","3432","6126","14","Female","false","false","true","true","""event"",""trial"",""time""
""fullscreenenter"",""5"",""19129""
","
","
","""event"",""trial"",""time""
""fullscreenenter"",""5"",""19129""
","
","288","","49","","","3000","1","","","images/earth.jpg","images/rocket1","images/rocket2","null","images/rocket2","","1","real","null","1","","",""
"d3-animate-choice","227","795677","0.0-77.0-1.30","3432","6126","14","Female","false","false","true","true","""event"",""trial"",""time""
""fullscreenenter"",""5"",""19129""
","
","
","""event"",""trial"",""time""
""fullscreenenter"",""5"",""19129""
","
","449","","49","","","3000","1","","","images/purpleplanet.jpg","images/alien4","images/alien3","images/rocket2","images/alien3","images/nothing.png","2","real","false","1","rare","0","2023-02-03 21:47:35.255"
"two-step-fixation","228","796696","0.0-77.0-2.30","3432","6126","14","Female","false","false","true","true","""event"",""trial"",""time""
""fullscreenenter"",""5"",""19129""
","
","
","""event"",""trial"",""time""
""fullscreenenter"",""5"",""19129""
","
","","images/earth.jpg","","","","","","","","","","","","","","fixation","","","","","",""
"d3-animate-choice","229","799016","0.0-77.0-0.31","3432","6126","14","Female","false","false","true","true","""event"",""trial"",""time""
""fullscreenenter"",""5"",""19129""
","
","
","""event"",""trial"",""time""
""fullscreenenter"",""5"",""19129""
","
","304","","48","","","3000","1","","","images/earth.jpg","images/rocket1","images/rocket2","null","images/rocket1","","1","real","null","2","","",""
"d3-animate-choice","230","801586","0.0-77.0-1.31","3432","6126","14","Female","false","false","true","true","""event"",""trial"",""time""
""fullscreenenter"",""5"",""19129""
","
","
","""event"",""trial"",""time""
""fullscreenenter"",""5"",""19129""
","
","549","","48","","","3000","1","","","images/purpleplanet.jpg","images/alien4","images/alien3","images/rocket1","images/alien4","images/t.png","2","real","true","2","common","1","2023-02-03 21:47:41.164"
"two-step-fixation","231","802607","0.0-77.0-2.31","3432","6126","14","Female","false","false","true","true","""event"",""trial"",""time""
""fullscreenenter"",""5"",""19129""
","
","
","""event"",""trial"",""time""
""fullscreenenter"",""5"",""19129""
","
","","images/earth.jpg","","","","","","","","","","","","","","fixation","","","","","",""
"d3-animate-choice","232","804966","0.0-77.0-0.32","3432","6126","14","Female","false","false","true","true","""event"",""trial"",""time""
""fullscreenenter"",""5"",""19129""
","
","
","""event"",""trial"",""time""
""fullscreenenter"",""5"",""19129""
","
","352","","48","","","3000","1","","","images/earth.jpg","images/rocket1","images/rocket2","null","images/rocket1","","1","real","null","2","","",""
"d3-animate-choice","233","807346","0.0-77.0-1.32","3432","6126","14","Female","false","false","true","true","""event"",""trial"",""time""
""fullscreenenter"",""5"",""19129""
","
","
","""event"",""trial"",""time""
""fullscreenenter"",""5"",""19129""
","
","371","","48","","","3000","1","","","images/purpleplanet.jpg","images/alien4","images/alien3","images/rocket1","images/alien4","images/nothing.png","2","real","true","2","common","0","2023-02-03 21:47:46.925"
"two-step-fixation","234","808366","0.0-77.0-2.32","3432","6126","14","Female","false","false","true","true","""event"",""trial"",""time""
""fullscreenenter"",""5"",""19129""
","
","
","""event"",""trial"",""time""
""fullscreenenter"",""5"",""19129""
","
","","images/earth.jpg","","","","","","","","","","","","","","fixation","","","","","",""
"d3-animate-choice","235","810766","0.0-77.0-0.33","3432","6126","14","Female","false","false","true","true","""event"",""trial"",""time""
""fullscreenenter"",""5"",""19129""
","
","
","""event"",""trial"",""time""
""fullscreenenter"",""5"",""19129""
","
","379","","48","","","3000","1","","","images/earth.jpg","images/rocket1","images/rocket2","null","images/rocket1","","1","real","null","2","","",""
"d3-animate-choice","236","813096","0.0-77.0-1.33","3432","6126","14","Female","false","false","true","true","""event"",""trial"",""time""
""fullscreenenter"",""5"",""19129""
","
","
","""event"",""trial"",""time""
""fullscreenenter"",""5"",""19129""
","
","310","","49","","","3000","1","","","images/purpleplanet.jpg","images/alien4","images/alien3","images/rocket1","images/alien3","images/nothing.png","2","real","true","1","common","0","2023-02-03 21:47:52.674"
"two-step-fixation","237","814117","0.0-77.0-2.33","3432","6126","14","Female","false","false","true","true","""event"",""trial"",""time""
""fullscreenenter"",""5"",""19129""
","
","
","""event"",""trial"",""time""
""fullscreenenter"",""5"",""19129""
","
","","images/earth.jpg","","","","","","","","","","","","","","fixation","","","","","",""
"d3-animate-choice","238","816487","0.0-77.0-0.34","3432","6126","14","Female","false","false","true","true","""event"",""trial"",""time""
""fullscreenenter"",""5"",""19129""
","
","
","""event"",""trial"",""time""
""fullscreenenter"",""5"",""19129""
","
","353","","49","","","3000","1","","","images/earth.jpg","images/rocket1","images/rocket2","null","images/rocket2","","1","real","null","1","","",""
"d3-animate-choice","239","819136","0.0-77.0-1.34","3432","6126","14","Female","false","false","true","true","""event"",""trial"",""time""
""fullscreenenter"",""5"",""19129""
","
","
","""event"",""trial"",""time""
""fullscreenenter"",""5"",""19129""
","
","644","","48","","","3000","1","","","images/purpleplanet.jpg","images/alien4","images/alien3","images/rocket2","images/alien4","images/t.png","2","real","false","2","rare","1","2023-02-03 21:47:58.715"
"two-step-fixation","240","820156","0.0-77.0-2.34","3432","6126","14","Female","false","false","true","true","""event"",""trial"",""time""
""fullscreenenter"",""5"",""19129""
","
","
","""event"",""trial"",""time""
""fullscreenenter"",""5"",""19129""
","
","","images/earth.jpg","","","","","","","","","","","","","","fixation","","","","","",""
"d3-animate-choice","241","822556","0.0-77.0-0.35","3432","6126","14","Female","false","false","true","true","""event"",""trial"",""time""
""fullscreenenter"",""5"",""19129""
","
","
","""event"",""trial"",""time""
""fullscreenenter"",""5"",""19129""
","
","382","","49","","","3000","1","","","images/earth.jpg","images/rocket1","images/rocket2","null","images/rocket2","","1","real","null","1","","",""
"d3-animate-choice","242","825106","0.0-77.0-1.35","3432","6126","14","Female","false","false","true","true","""event"",""trial"",""time""
""fullscreenenter"",""5"",""19129""
","
","
","""event"",""trial"",""time""
""fullscreenenter"",""5"",""19129""
","
","530","","48","","","3000","1","","","images/redplanet1.jpg","images/alien2","images/alien1","images/rocket2","images/alien2","images/t.png","2","real","true","2","common","1","2023-02-03 21:48:04.685"
"two-step-fixation","243","826125","0.0-77.0-2.35","3432","6126","14","Female","false","false","true","true","""event"",""trial"",""time""
""fullscreenenter"",""5"",""19129""
","
","
","""event"",""trial"",""time""
""fullscreenenter"",""5"",""19129""
","
","","images/earth.jpg","","","","","","","","","","","","","","fixation","","","","","",""
"d3-animate-choice","244","828496","0.0-77.0-0.36","3432","6126","14","Female","false","false","true","true","""event"",""trial"",""time""
""fullscreenenter"",""5"",""19129""
","
","
","""event"",""trial"",""time""
""fullscreenenter"",""5"",""19129""
","
","361","","49","","","3000","1","","","images/earth.jpg","images/rocket1","images/rocket2","null","images/rocket2","","1","real","null","1","","",""
"d3-animate-choice","245","830917","0.0-77.0-1.36","3432","6126","14","Female","false","false","true","true","""event"",""trial"",""time""
""fullscreenenter"",""5"",""19129""
","
","
","""event"",""trial"",""time""
""fullscreenenter"",""5"",""19129""
","
","409","","49","","","3000","1","","","images/purpleplanet.jpg","images/alien4","images/alien3","images/rocket2","images/alien3","images/nothing.png","2","real","false","1","rare","0","2023-02-03 21:48:10.496"
"two-step-fixation","246","831936","0.0-77.0-2.36","3432","6126","14","Female","false","false","true","true","""event"",""trial"",""time""
""fullscreenenter"",""5"",""19129""
","
","
","""event"",""trial"",""time""
""fullscreenenter"",""5"",""19129""
","
","","images/earth.jpg","","","","","","","","","","","","","","fixation","","","","","",""
"d3-animate-choice","247","834266","0.0-77.0-0.37","3432","6126","14","Female","false","false","true","true","""event"",""trial"",""time""
""fullscreenenter"",""5"",""19129""
","
","
","""event"",""trial"",""time""
""fullscreenenter"",""5"",""19129""
","
","318","","49","","","3000","1","","","images/earth.jpg","images/rocket1","images/rocket2","null","images/rocket2","","1","real","null","1","","",""
"d3-animate-choice","248","836846","0.0-77.0-1.37","3432","6126","14","Female","false","false","true","true","""event"",""trial"",""time""
""fullscreenenter"",""5"",""19129""
","
","
","""event"",""trial"",""time""
""fullscreenenter"",""5"",""19129""
","
","573","","48","","","3000","1","","","images/redplanet1.jpg","images/alien2","images/alien1","images/rocket2","images/alien2","images/nothing.png","2","real","true","2","common","0","2023-02-03 21:48:16.425"
"two-step-fixation","249","837866","0.0-77.0-2.37","3432","6126","14","Female","false","false","true","true","""event"",""trial"",""time""
""fullscreenenter"",""5"",""19129""
","
","
","""event"",""trial"",""time""
""fullscreenenter"",""5"",""19129""
","
