"trial_type","trial_index","time_elapsed","internal_node_id","participant_id","subject_id","age","gender","rocket_sides","red_planet_first_rocket","red_display_order","purple_display_order","interactions","blur_events","focus_events","fullscreenenter_events","fullscreenexit_events","rt","stimulus","key_press","button_pressed","success","duration","valid_pressed","rts","keys","planet_text","right_text","left_text","center_text","chosen_text","reward_text","trial_stage","practice_trial","transition_type","choice","transition","reward","timestamp"
"pavlovia","0","3","0.0-0.0","3129","5287","20","Male","true","false","true","true","""event"",""trial"",""time""
""focus"",""0"",""0""
""blur"",""0"",""0""
""focus"",""0"",""0""
""blur"",""0"",""0""
""focus"",""0"",""0""
""blur"",""0"",""0""
""focus"",""1"",""28075""
""blur"",""1"",""28087""
""focus"",""1"",""28175""
","""event"",""trial"",""time""
""blur"",""0"",""0""
""blur"",""0"",""0""
""blur"",""0"",""0""
""blur"",""1"",""28087""
","""event"",""trial"",""time""
""focus"",""0"",""0""
""focus"",""0"",""0""
""focus"",""0"",""0""
""focus"",""1"",""28075""
""focus"",""1"",""28175""
","
","
","","","","","","","","","","","","","","","","","","","","","",""
"html-keyboard-response","1","29223","0.0-1.0","3129","5287","20","Male","true","false","true","true","""event"",""trial"",""time""
""focus"",""0"",""0""
""blur"",""0"",""0""
""focus"",""0"",""0""
""blur"",""0"",""0""
""focus"",""0"",""0""
""blur"",""0"",""0""
""focus"",""1"",""28075""
""blur"",""1"",""28087""
""focus"",""1"",""28175""
","""event"",""trial"",""time""
""blur"",""0"",""0""
""blur"",""0"",""0""
""blur"",""0"",""0""
""blur"",""1"",""28087""
","""event"",""trial"",""time""
""focus"",""0"",""0""
""focus"",""0"",""0""
""focus"",""0"",""0""
""focus"",""1"",""28075""
""focus"",""1"",""28175""
","
","
","29220","Welcome! Press the space bar to begin.","32","","","","","","","","","","","","","","","","","","",""
"audio-keyboard-response","2","32097","0.0-2.0","3129","5287","20","Male","true","false","true","true","""event"",""trial"",""time""
""focus"",""0"",""0""
""blur"",""0"",""0""
""focus"",""0"",""0""
""blur"",""0"",""0""
""focus"",""0"",""0""
""blur"",""0"",""0""
""focus"",""1"",""28075""
""blur"",""1"",""28087""
""focus"",""1"",""28175""
","""event"",""trial"",""time""
""blur"",""0"",""0""
""blur"",""0"",""0""
""blur"",""0"",""0""
""blur"",""1"",""28087""
","""event"",""trial"",""time""
""focus"",""0"",""0""
""focus"",""0"",""0""
""focus"",""0"",""0""
""focus"",""1"",""28075""
""focus"",""1"",""28175""
","
","
","2669","audio/beep_loop.wav","32","","","","","","","","","","","","","","","","","","",""
"audio-button-response","3","34370","0.0-3.0","3129","5287","20","Male","true","false","true","true","""event"",""trial"",""time""
""focus"",""0"",""0""
""blur"",""0"",""0""
""focus"",""0"",""0""
""blur"",""0"",""0""
""focus"",""0"",""0""
""blur"",""0"",""0""
""focus"",""1"",""28075""
""blur"",""1"",""28087""
""focus"",""1"",""28175""
","""event"",""trial"",""time""
""blur"",""0"",""0""
""blur"",""0"",""0""
""blur"",""0"",""0""
""blur"",""1"",""28087""
","""event"",""trial"",""time""
""focus"",""0"",""0""
""focus"",""0"",""0""
""focus"",""0"",""0""
""focus"",""1"",""28075""
""focus"",""1"",""28175""
","
","
","NaN","audio/fish.mp3","","1","","","","","","","","","","","","","","","","","",""
"audio-button-response","4","36897","0.0-4.0","3129","5287","20","Male","true","false","true","true","""event"",""trial"",""time""
""focus"",""0"",""0""
""blur"",""0"",""0""
""focus"",""0"",""0""
""blur"",""0"",""0""
""focus"",""0"",""0""
""blur"",""0"",""0""
""focus"",""1"",""28075""
""blur"",""1"",""28087""
""focus"",""1"",""28175""
""fullscreenenter"",""5"",""39147""
","""event"",""trial"",""time""
""blur"",""0"",""0""
""blur"",""0"",""0""
""blur"",""0"",""0""
""blur"",""1"",""28087""
","""event"",""trial"",""time""
""focus"",""0"",""0""
""focus"",""0"",""0""
""focus"",""0"",""0""
""focus"",""1"",""28075""
""focus"",""1"",""28175""
","""event"",""trial"",""time""
""fullscreenenter"",""5"",""39147""
","
","NaN","audio/tiger.mp3","","4","","","","","","","","","","","","","","","","","",""
"fullscreen","5","40130","0.0-5.0","3129","5287","20","Male","true","false","true","true","""event"",""trial"",""time""
""focus"",""0"",""0""
""blur"",""0"",""0""
""focus"",""0"",""0""
""blur"",""0"",""0""
""focus"",""0"",""0""
""blur"",""0"",""0""
""focus"",""1"",""28075""
""blur"",""1"",""28087""
""focus"",""1"",""28175""
""fullscreenenter"",""5"",""39147""
","""event"",""trial"",""time""
""blur"",""0"",""0""
""blur"",""0"",""0""
""blur"",""0"",""0""
""blur"",""1"",""28087""
","""event"",""trial"",""time""
""focus"",""0"",""0""
""focus"",""0"",""0""
""focus"",""0"",""0""
""focus"",""1"",""28075""
""focus"",""1"",""28175""
","""event"",""trial"",""time""
""fullscreenenter"",""5"",""39147""
","
","","","","","true","","","","","","","","","","","","","","","","",""
"d3-instructions","6","54723","0.0-6.0","3129","5287","20","Male","true","false","true","true","""event"",""trial"",""time""
""focus"",""0"",""0""
""blur"",""0"",""0""
""focus"",""0"",""0""
""blur"",""0"",""0""
""focus"",""0"",""0""
""blur"",""0"",""0""
""focus"",""1"",""28075""
""blur"",""1"",""28087""
""focus"",""1"",""28175""
""fullscreenenter"",""5"",""39147""
","""event"",""trial"",""time""
""blur"",""0"",""0""
""blur"",""0"",""0""
""blur"",""0"",""0""
""blur"",""1"",""28087""
","""event"",""trial"",""time""
""focus"",""0"",""0""
""focus"",""0"",""0""
""focus"",""0"",""0""
""focus"",""1"",""28075""
""focus"",""1"",""28175""
","""event"",""trial"",""time""
""fullscreenenter"",""5"",""39147""
","
","","","","","","","","","","","","","","","","","","","","","",""
"d3-instructions","7","62904","0.0-7.0","3129","5287","20","Male","true","false","true","true","""event"",""trial"",""time""
""focus"",""0"",""0""
""blur"",""0"",""0""
""focus"",""0"",""0""
""blur"",""0"",""0""
""focus"",""0"",""0""
""blur"",""0"",""0""
""focus"",""1"",""28075""
""blur"",""1"",""28087""
""focus"",""1"",""28175""
""fullscreenenter"",""5"",""39147""
","""event"",""trial"",""time""
""blur"",""0"",""0""
""blur"",""0"",""0""
""blur"",""0"",""0""
""blur"",""1"",""28087""
","""event"",""trial"",""time""
""focus"",""0"",""0""
""focus"",""0"",""0""
""focus"",""0"",""0""
""focus"",""1"",""28075""
""focus"",""1"",""28175""
","""event"",""trial"",""time""
""fullscreenenter"",""5"",""39147""
","
","","","","","","","","","","","","","","","","","","","","","",""
"d3-instructions","8","69513","0.0-8.0","3129","5287","20","Male","true","false","true","true","""event"",""trial"",""time""
""focus"",""0"",""0""
""blur"",""0"",""0""
""focus"",""0"",""0""
""blur"",""0"",""0""
""focus"",""0"",""0""
""blur"",""0"",""0""
""focus"",""1"",""28075""
""blur"",""1"",""28087""
""focus"",""1"",""28175""
""fullscreenenter"",""5"",""39147""
","""event"",""trial"",""time""
""blur"",""0"",""0""
""blur"",""0"",""0""
""blur"",""0"",""0""
""blur"",""1"",""28087""
","""event"",""trial"",""time""
""focus"",""0"",""0""
""focus"",""0"",""0""
""focus"",""0"",""0""
""focus"",""1"",""28075""
""focus"",""1"",""28175""
","""event"",""trial"",""time""
""fullscreenenter"",""5"",""39147""
","
","","","","","","","","","","","","","","","","","","","","","",""
"d3-instructions","9","79760","0.0-9.0","3129","5287","20","Male","true","false","true","true","""event"",""trial"",""time""
""focus"",""0"",""0""
""blur"",""0"",""0""
""focus"",""0"",""0""
""blur"",""0"",""0""
""focus"",""0"",""0""
""blur"",""0"",""0""
""focus"",""1"",""28075""
""blur"",""1"",""28087""
""focus"",""1"",""28175""
""fullscreenenter"",""5"",""39147""
","""event"",""trial"",""time""
""blur"",""0"",""0""
""blur"",""0"",""0""
""blur"",""0"",""0""
""blur"",""1"",""28087""
","""event"",""trial"",""time""
""focus"",""0"",""0""
""focus"",""0"",""0""
""focus"",""0"",""0""
""focus"",""1"",""28075""
""focus"",""1"",""28175""
","""event"",""trial"",""time""
""fullscreenenter"",""5"",""39147""
","
","","","","","","","","","","","","","","","","","","","","","",""
"d3-instructions","10","98966","0.0-10.0","3129","5287","20","Male","true","false","true","true","""event"",""trial"",""time""
""focus"",""0"",""0""
""blur"",""0"",""0""
""focus"",""0"",""0""
""blur"",""0"",""0""
""focus"",""0"",""0""
""blur"",""0"",""0""
""focus"",""1"",""28075""
""blur"",""1"",""28087""
""focus"",""1"",""28175""
""fullscreenenter"",""5"",""39147""
","""event"",""trial"",""time""
""blur"",""0"",""0""
""blur"",""0"",""0""
""blur"",""0"",""0""
""blur"",""1"",""28087""
","""event"",""trial"",""time""
""focus"",""0"",""0""
""focus"",""0"",""0""
""focus"",""0"",""0""
""focus"",""1"",""28075""
""focus"",""1"",""28175""
","""event"",""trial"",""time""
""fullscreenenter"",""5"",""39147""
","
","","","","","","","","","","","","","","","","","","","","","",""
"d3-animate-choice","11","101725","0.0-11.0","3129","5287","20","Male","true","false","true","true","""event"",""trial"",""time""
""focus"",""0"",""0""
""blur"",""0"",""0""
""focus"",""0"",""0""
""blur"",""0"",""0""
""focus"",""0"",""0""
""blur"",""0"",""0""
""focus"",""1"",""28075""
""blur"",""1"",""28087""
""focus"",""1"",""28175""
""fullscreenenter"",""5"",""39147""
","""event"",""trial"",""time""
""blur"",""0"",""0""
""blur"",""0"",""0""
""blur"",""0"",""0""
""blur"",""1"",""28087""
","""event"",""trial"",""time""
""focus"",""0"",""0""
""focus"",""0"",""0""
""focus"",""0"",""0""
""focus"",""1"",""28075""
""focus"",""1"",""28175""
","""event"",""trial"",""time""
""fullscreenenter"",""5"",""39147""
","
","739.8000000119209","","49","","","3000","1","","","images/tutgreenplanet.jpg","images/tutalien1","images/tutalien2","null","images/tutalien2","","NA","practice","null","","","",""
"d3-animate-choice","12","103999","0.0-12.0","3129","5287","20","Male","true","false","true","true","""event"",""trial"",""time""
""focus"",""0"",""0""
""blur"",""0"",""0""
""focus"",""0"",""0""
""blur"",""0"",""0""
""focus"",""0"",""0""
""blur"",""0"",""0""
""focus"",""1"",""28075""
""blur"",""1"",""28087""
""focus"",""1"",""28175""
""fullscreenenter"",""5"",""39147""
","""event"",""trial"",""time""
""blur"",""0"",""0""
""blur"",""0"",""0""
""blur"",""0"",""0""
""blur"",""1"",""28087""
","""event"",""trial"",""time""
""focus"",""0"",""0""
""focus"",""0"",""0""
""focus"",""0"",""0""
""focus"",""1"",""28075""
""focus"",""1"",""28175""
","""event"",""trial"",""time""
""fullscreenenter"",""5"",""39147""
","
","250.29999999701977","","48","","","3000","1","","","images/tutgreenplanet.jpg","images/tutalien1","images/tutalien2","null","images/tutalien1","","NA","practice","null","","","",""
"d3-animate-choice","13","106547","0.0-13.0","3129","5287","20","Male","true","false","true","true","""event"",""trial"",""time""
""focus"",""0"",""0""
""blur"",""0"",""0""
""focus"",""0"",""0""
""blur"",""0"",""0""
""focus"",""0"",""0""
""blur"",""0"",""0""
""focus"",""1"",""28075""
""blur"",""1"",""28087""
""focus"",""1"",""28175""
""fullscreenenter"",""5"",""39147""
","""event"",""trial"",""time""
""blur"",""0"",""0""
""blur"",""0"",""0""
""blur"",""0"",""0""
""blur"",""1"",""28087""
","""event"",""trial"",""time""
""focus"",""0"",""0""
""focus"",""0"",""0""
""focus"",""0"",""0""
""focus"",""1"",""28075""
""focus"",""1"",""28175""
","""event"",""trial"",""time""
""fullscreenenter"",""5"",""39147""
","
","529.3999999910593","","49","","","3000","1","","","images/tutgreenplanet.jpg","images/tutalien1","images/tutalien2","null","images/tutalien2","","NA","practice","null","","","",""
"d3-animate-choice","14","108820","0.0-14.0","3129","5287","20","Male","true","false","true","true","""event"",""trial"",""time""
""focus"",""0"",""0""
""blur"",""0"",""0""
""focus"",""0"",""0""
""blur"",""0"",""0""
""focus"",""0"",""0""
""blur"",""0"",""0""
""focus"",""1"",""28075""
""blur"",""1"",""28087""
""focus"",""1"",""28175""
""fullscreenenter"",""5"",""39147""
","""event"",""trial"",""time""
""blur"",""0"",""0""
""blur"",""0"",""0""
""blur"",""0"",""0""
""blur"",""1"",""28087""
","""event"",""trial"",""time""
""focus"",""0"",""0""
""focus"",""0"",""0""
""focus"",""0"",""0""
""focus"",""1"",""28075""
""focus"",""1"",""28175""
","""event"",""trial"",""time""
""fullscreenenter"",""5"",""39147""
","
","262","","49","","","3000","1","","","images/tutgreenplanet.jpg","images/tutalien1","images/tutalien2","null","images/tutalien2","","NA","practice","null","","","",""
"d3-instructions","15","114524","0.0-15.0","3129","5287","20","Male","true","false","true","true","""event"",""trial"",""time""
""focus"",""0"",""0""
""blur"",""0"",""0""
""focus"",""0"",""0""
""blur"",""0"",""0""
""focus"",""0"",""0""
""blur"",""0"",""0""
""focus"",""1"",""28075""
""blur"",""1"",""28087""
""focus"",""1"",""28175""
""fullscreenenter"",""5"",""39147""
","""event"",""trial"",""time""
""blur"",""0"",""0""
""blur"",""0"",""0""
""blur"",""0"",""0""
""blur"",""1"",""28087""
","""event"",""trial"",""time""
""focus"",""0"",""0""
""focus"",""0"",""0""
""focus"",""0"",""0""
""focus"",""1"",""28075""
""focus"",""1"",""28175""
","""event"",""trial"",""time""
""fullscreenenter"",""5"",""39147""
","
","","","","","","","","","","","","","","","","","","","","","",""
"d3-instructions","16","118158","0.0-16.0","3129","5287","20","Male","true","false","true","true","""event"",""trial"",""time""
""focus"",""0"",""0""
""blur"",""0"",""0""
""focus"",""0"",""0""
""blur"",""0"",""0""
""focus"",""0"",""0""
""blur"",""0"",""0""
""focus"",""1"",""28075""
""blur"",""1"",""28087""
""focus"",""1"",""28175""
""fullscreenenter"",""5"",""39147""
","""event"",""trial"",""time""
""blur"",""0"",""0""
""blur"",""0"",""0""
""blur"",""0"",""0""
""blur"",""1"",""28087""
","""event"",""trial"",""time""
""focus"",""0"",""0""
""focus"",""0"",""0""
""focus"",""0"",""0""
""focus"",""1"",""28075""
""focus"",""1"",""28175""
","""event"",""trial"",""time""
""fullscreenenter"",""5"",""39147""
","
","","","","","","","","","","","","","","","","","","","","","",""
"d3-instructions","17","126229","0.0-17.0","3129","5287","20","Male","true","false","true","true","""event"",""trial"",""time""
""focus"",""0"",""0""
""blur"",""0"",""0""
""focus"",""0"",""0""
""blur"",""0"",""0""
""focus"",""0"",""0""
""blur"",""0"",""0""
""focus"",""1"",""28075""
""blur"",""1"",""28087""
""focus"",""1"",""28175""
""fullscreenenter"",""5"",""39147""
","""event"",""trial"",""time""
""blur"",""0"",""0""
""blur"",""0"",""0""
""blur"",""0"",""0""
""blur"",""1"",""28087""
","""event"",""trial"",""time""
""focus"",""0"",""0""
""focus"",""0"",""0""
""focus"",""0"",""0""
""focus"",""1"",""28075""
""focus"",""1"",""28175""
","""event"",""trial"",""time""
""fullscreenenter"",""5"",""39147""
","
","","","","","","","","","","","","","","","","","","","","","",""
"d3-instructions","18","131623","0.0-18.0","3129","5287","20","Male","true","false","true","true","""event"",""trial"",""time""
""focus"",""0"",""0""
""blur"",""0"",""0""
""focus"",""0"",""0""
""blur"",""0"",""0""
""focus"",""0"",""0""
""blur"",""0"",""0""
""focus"",""1"",""28075""
""blur"",""1"",""28087""
""focus"",""1"",""28175""
""fullscreenenter"",""5"",""39147""
","""event"",""trial"",""time""
""blur"",""0"",""0""
""blur"",""0"",""0""
""blur"",""0"",""0""
""blur"",""1"",""28087""
","""event"",""trial"",""time""
""focus"",""0"",""0""
""focus"",""0"",""0""
""focus"",""0"",""0""
""focus"",""1"",""28075""
""focus"",""1"",""28175""
","""event"",""trial"",""time""
""fullscreenenter"",""5"",""39147""
","
","","","","","","","","","","","","","","","","","","","","","",""
"d3-instructions","19","137061","0.0-19.0","3129","5287","20","Male","true","false","true","true","""event"",""trial"",""time""
""focus"",""0"",""0""
""blur"",""0"",""0""
""focus"",""0"",""0""
""blur"",""0"",""0""
""focus"",""0"",""0""
""blur"",""0"",""0""
""focus"",""1"",""28075""
""blur"",""1"",""28087""
""focus"",""1"",""28175""
""fullscreenenter"",""5"",""39147""
","""event"",""trial"",""time""
""blur"",""0"",""0""
""blur"",""0"",""0""
""blur"",""0"",""0""
""blur"",""1"",""28087""
","""event"",""trial"",""time""
""focus"",""0"",""0""
""focus"",""0"",""0""
""focus"",""0"",""0""
""focus"",""1"",""28075""
""focus"",""1"",""28175""
","""event"",""trial"",""time""
""fullscreenenter"",""5"",""39147""
","
","","","","","","","","","","","","","","","","","","","","","",""
"d3-animate-choice","20","139564","0.0-20.0","3129","5287","20","Male","true","false","true","true","""event"",""trial"",""time""
""focus"",""0"",""0""
""blur"",""0"",""0""
""focus"",""0"",""0""
""blur"",""0"",""0""
""focus"",""0"",""0""
""blur"",""0"",""0""
""focus"",""1"",""28075""
""blur"",""1"",""28087""
""focus"",""1"",""28175""
""fullscreenenter"",""5"",""39147""
","""event"",""trial"",""time""
""blur"",""0"",""0""
""blur"",""0"",""0""
""blur"",""0"",""0""
""blur"",""1"",""28087""
","""event"",""trial"",""time""
""focus"",""0"",""0""
""focus"",""0"",""0""
""focus"",""0"",""0""
""focus"",""1"",""28075""
""focus"",""1"",""28175""
","""event"",""trial"",""time""
""fullscreenenter"",""5"",""39147""
","
","486.20000000298023","","49","","","3000","1","","","images/tutyellowplanet.jpg","null","images/tutalien3","null","images/tutalien3","images/t.png","NA","practice","null","","","",""
"d3-animate-choice","21","141859","0.0-21.0","3129","5287","20","Male","true","false","true","true","""event"",""trial"",""time""
""focus"",""0"",""0""
""blur"",""0"",""0""
""focus"",""0"",""0""
""blur"",""0"",""0""
""focus"",""0"",""0""
""blur"",""0"",""0""
""focus"",""1"",""28075""
""blur"",""1"",""28087""
""focus"",""1"",""28175""
""fullscreenenter"",""5"",""39147""
","""event"",""trial"",""time""
""blur"",""0"",""0""
""blur"",""0"",""0""
""blur"",""0"",""0""
""blur"",""1"",""28087""
","""event"",""trial"",""time""
""focus"",""0"",""0""
""focus"",""0"",""0""
""focus"",""0"",""0""
""focus"",""1"",""28075""
""focus"",""1"",""28175""
","""event"",""trial"",""time""
""fullscreenenter"",""5"",""39147""
","
","282.20000000298023","","49","","","3000","1","2023.7000000029802,2229.7000000029802","49,49","images/tutyellowplanet.jpg","null","images/tutalien3","null","images/tutalien3","images/t.png","NA","practice","null","","","",""
"d3-animate-choice","22","144079","0.0-22.0","3129","5287","20","Male","true","false","true","true","""event"",""trial"",""time""
""focus"",""0"",""0""
""blur"",""0"",""0""
""focus"",""0"",""0""
""blur"",""0"",""0""
""focus"",""0"",""0""
""blur"",""0"",""0""
""focus"",""1"",""28075""
""blur"",""1"",""28087""
""focus"",""1"",""28175""
""fullscreenenter"",""5"",""39147""
","""event"",""trial"",""time""
""blur"",""0"",""0""
""blur"",""0"",""0""
""blur"",""0"",""0""
""blur"",""1"",""28087""
","""event"",""trial"",""time""
""focus"",""0"",""0""
""focus"",""0"",""0""
""focus"",""0"",""0""
""focus"",""1"",""28075""
""focus"",""1"",""28175""
","""event"",""trial"",""time""
""fullscreenenter"",""5"",""39147""
","
","204.30000001192093","","49","","","3000","1","415.30000001192093,639.4000000059605,910.8000000119209,1201.6000000089407,1471.2000000029802,1733.6000000089407,1982.800000011921,2217.4000000059605","49,49,49,49,49,49,49,49","images/tutyellowplanet.jpg","null","images/tutalien3","null","images/tutalien3","images/t.png","NA","practice","null","","","",""
"d3-animate-choice","23","146318","0.0-23.0","3129","5287","20","Male","true","false","true","true","""event"",""trial"",""time""
""focus"",""0"",""0""
""blur"",""0"",""0""
""focus"",""0"",""0""
""blur"",""0"",""0""
""focus"",""0"",""0""
""blur"",""0"",""0""
""focus"",""1"",""28075""
""blur"",""1"",""28087""
""focus"",""1"",""28175""
""fullscreenenter"",""5"",""39147""
","""event"",""trial"",""time""
""blur"",""0"",""0""
""blur"",""0"",""0""
""blur"",""0"",""0""
""blur"",""1"",""28087""
","""event"",""trial"",""time""
""focus"",""0"",""0""
""focus"",""0"",""0""
""focus"",""0"",""0""
""focus"",""1"",""28075""
""focus"",""1"",""28175""
","""event"",""trial"",""time""
""fullscreenenter"",""5"",""39147""
","
","225.70000000298023","","49","","","3000","1","453.70000000298023,753.7000000029802,1018.7999999970198,1306.7999999970198,1664.9000000059605,2038.5","49,49,49,49,49,49","images/tutyellowplanet.jpg","null","images/tutalien3","null","images/tutalien3","images/t.png","NA","practice","null","","","",""
"d3-animate-choice","24","148417","0.0-24.0","3129","5287","20","Male","true","false","true","true","""event"",""trial"",""time""
""focus"",""0"",""0""
""blur"",""0"",""0""
""focus"",""0"",""0""
""blur"",""0"",""0""
""focus"",""0"",""0""
""blur"",""0"",""0""
""focus"",""1"",""28075""
""blur"",""1"",""28087""
""focus"",""1"",""28175""
""fullscreenenter"",""5"",""39147""
","""event"",""trial"",""time""
""blur"",""0"",""0""
""blur"",""0"",""0""
""blur"",""0"",""0""
""blur"",""1"",""28087""
","""event"",""trial"",""time""
""focus"",""0"",""0""
""focus"",""0"",""0""
""focus"",""0"",""0""
""focus"",""1"",""28075""
""focus"",""1"",""28175""
","""event"",""trial"",""time""
""fullscreenenter"",""5"",""39147""
","
","85.19999998807907","","49","","","3000","1","365.5,672.6999999880791,958.0999999940395,1232.5999999940395,1468.5999999940395,1743.8999999910593,2013.0999999940395","49,49,49,49,49,49,49","images/tutyellowplanet.jpg","null","images/tutalien3","null","images/tutalien3","images/nothing.png","NA","practice","null","","","",""
"d3-animate-choice","25","150686","0.0-25.0","3129","5287","20","Male","true","false","true","true","""event"",""trial"",""time""
""focus"",""0"",""0""
""blur"",""0"",""0""
""focus"",""0"",""0""
""blur"",""0"",""0""
""focus"",""0"",""0""
""blur"",""0"",""0""
""focus"",""1"",""28075""
""blur"",""1"",""28087""
""focus"",""1"",""28175""
""fullscreenenter"",""5"",""39147""
","""event"",""trial"",""time""
""blur"",""0"",""0""
""blur"",""0"",""0""
""blur"",""0"",""0""
""blur"",""1"",""28087""
","""event"",""trial"",""time""
""focus"",""0"",""0""
""focus"",""0"",""0""
""focus"",""0"",""0""
""focus"",""1"",""28075""
""focus"",""1"",""28175""
","""event"",""trial"",""time""
""fullscreenenter"",""5"",""39147""
","
","258.09999999403954","","49","","","3000","1","489.5,910.9000000059605,1166.2000000029802,1627.5,2093","49,49,49,49,49","images/tutyellowplanet.jpg","null","images/tutalien3","null","images/tutalien3","images/t.png","NA","practice","null","","","",""
"d3-animate-choice","26","152900","0.0-26.0","3129","5287","20","Male","true","false","true","true","""event"",""trial"",""time""
""focus"",""0"",""0""
""blur"",""0"",""0""
""focus"",""0"",""0""
""blur"",""0"",""0""
""focus"",""0"",""0""
""blur"",""0"",""0""
""focus"",""1"",""28075""
""blur"",""1"",""28087""
""focus"",""1"",""28175""
""fullscreenenter"",""5"",""39147""
","""event"",""trial"",""time""
""blur"",""0"",""0""
""blur"",""0"",""0""
""blur"",""0"",""0""
""blur"",""1"",""28087""
","""event"",""trial"",""time""
""focus"",""0"",""0""
""focus"",""0"",""0""
""focus"",""0"",""0""
""focus"",""1"",""28075""
""focus"",""1"",""28175""
","""event"",""trial"",""time""
""fullscreenenter"",""5"",""39147""
","
","200.59999999403954","","49","","","3000","1","465.09999999403954,852.5,1104.5999999940395,1420.199999988079,1891.5999999940395","49,49,49,49,49","images/tutyellowplanet.jpg","null","images/tutalien3","null","images/tutalien3","images/t.png","NA","practice","null","","","",""
"d3-animate-choice","27","155011","0.0-27.0","3129","5287","20","Male","true","false","true","true","""event"",""trial"",""time""
""focus"",""0"",""0""
""blur"",""0"",""0""
""focus"",""0"",""0""
""blur"",""0"",""0""
""focus"",""0"",""0""
""blur"",""0"",""0""
""focus"",""1"",""28075""
""blur"",""1"",""28087""
""focus"",""1"",""28175""
""fullscreenenter"",""5"",""39147""
","""event"",""trial"",""time""
""blur"",""0"",""0""
""blur"",""0"",""0""
""blur"",""0"",""0""
""blur"",""1"",""28087""
","""event"",""trial"",""time""
""focus"",""0"",""0""
""focus"",""0"",""0""
""focus"",""0"",""0""
""focus"",""1"",""28075""
""focus"",""1"",""28175""
","""event"",""trial"",""time""
""fullscreenenter"",""5"",""39147""
","
","106.5","","49","","","3000","1","353.29999999701977,986.9000000059605,1709.7000000029802","49,49,49","images/tutyellowplanet.jpg","null","images/tutalien3","null","images/tutalien3","images/t.png","NA","practice","null","","","",""
"d3-animate-choice","28","157110","0.0-28.0","3129","5287","20","Male","true","false","true","true","""event"",""trial"",""time""
""focus"",""0"",""0""
""blur"",""0"",""0""
""focus"",""0"",""0""
""blur"",""0"",""0""
""focus"",""0"",""0""
""blur"",""0"",""0""
""focus"",""1"",""28075""
""blur"",""1"",""28087""
""focus"",""1"",""28175""
""fullscreenenter"",""5"",""39147""
","""event"",""trial"",""time""
""blur"",""0"",""0""
""blur"",""0"",""0""
""blur"",""0"",""0""
""blur"",""1"",""28087""
","""event"",""trial"",""time""
""focus"",""0"",""0""
""focus"",""0"",""0""
""focus"",""0"",""0""
""focus"",""1"",""28075""
""focus"",""1"",""28175""
","""event"",""trial"",""time""
""fullscreenenter"",""5"",""39147""
","
","75.79999999701977","","49","","","3000","1","452.5,1019.8999999910593,1311.8999999910593,2010.5","49,49,49,49","images/tutyellowplanet.jpg","null","images/tutalien3","null","images/tutalien3","images/t.png","NA","practice","null","","","",""
"d3-animate-choice","29","159601","0.0-29.0","3129","5287","20","Male","true","false","true","true","""event"",""trial"",""time""
""focus"",""0"",""0""
""blur"",""0"",""0""
""focus"",""0"",""0""
""blur"",""0"",""0""
""focus"",""0"",""0""
""blur"",""0"",""0""
""focus"",""1"",""28075""
""blur"",""1"",""28087""
""focus"",""1"",""28175""
""fullscreenenter"",""5"",""39147""
","""event"",""trial"",""time""
""blur"",""0"",""0""
""blur"",""0"",""0""
""blur"",""0"",""0""
""blur"",""1"",""28087""
","""event"",""trial"",""time""
""focus"",""0"",""0""
""focus"",""0"",""0""
""focus"",""0"",""0""
""focus"",""1"",""28075""
""focus"",""1"",""28175""
","""event"",""trial"",""time""
""fullscreenenter"",""5"",""39147""
","
","464.29999999701977","","49","","","3000","1","1561.9000000059605,2135.1000000089407","49,49","images/tutyellowplanet.jpg","null","images/tutalien3","null","images/tutalien3","images/t.png","NA","practice","null","","","",""
"d3-instructions","30","162809","0.0-30.0","3129","5287","20","Male","true","false","true","true","""event"",""trial"",""time""
""focus"",""0"",""0""
""blur"",""0"",""0""
""focus"",""0"",""0""
""blur"",""0"",""0""
""focus"",""0"",""0""
""blur"",""0"",""0""
""focus"",""1"",""28075""
""blur"",""1"",""28087""
""focus"",""1"",""28175""
""fullscreenenter"",""5"",""39147""
","""event"",""trial"",""time""
""blur"",""0"",""0""
""blur"",""0"",""0""
""blur"",""0"",""0""
""blur"",""1"",""28087""
","""event"",""trial"",""time""
""focus"",""0"",""0""
""focus"",""0"",""0""
""focus"",""0"",""0""
""focus"",""1"",""28075""
""focus"",""1"",""28175""
","""event"",""trial"",""time""
""fullscreenenter"",""5"",""39147""
","
","","","","","","","","","","","","","","","","","","","","","",""
"d3-instructions","31","165901","0.0-31.0","3129","5287","20","Male","true","false","true","true","""event"",""trial"",""time""
""focus"",""0"",""0""
""blur"",""0"",""0""
""focus"",""0"",""0""
""blur"",""0"",""0""
""focus"",""0"",""0""
""blur"",""0"",""0""
""focus"",""1"",""28075""
""blur"",""1"",""28087""
""focus"",""1"",""28175""
""fullscreenenter"",""5"",""39147""
","""event"",""trial"",""time""
""blur"",""0"",""0""
""blur"",""0"",""0""
""blur"",""0"",""0""
""blur"",""1"",""28087""
","""event"",""trial"",""time""
""focus"",""0"",""0""
""focus"",""0"",""0""
""focus"",""0"",""0""
""focus"",""1"",""28075""
""focus"",""1"",""28175""
","""event"",""trial"",""time""
""fullscreenenter"",""5"",""39147""
","
","","","","","","","","","","","","","","","","","","","","","",""
"d3-instructions","32","170033","0.0-32.0","3129","5287","20","Male","true","false","true","true","""event"",""trial"",""time""
""focus"",""0"",""0""
""blur"",""0"",""0""
""focus"",""0"",""0""
""blur"",""0"",""0""
""focus"",""0"",""0""
""blur"",""0"",""0""
""focus"",""1"",""28075""
""blur"",""1"",""28087""
""focus"",""1"",""28175""
""fullscreenenter"",""5"",""39147""
","""event"",""trial"",""time""
""blur"",""0"",""0""
""blur"",""0"",""0""
""blur"",""0"",""0""
""blur"",""1"",""28087""
","""event"",""trial"",""time""
""focus"",""0"",""0""
""focus"",""0"",""0""
""focus"",""0"",""0""
""focus"",""1"",""28075""
""focus"",""1"",""28175""
","""event"",""trial"",""time""
""fullscreenenter"",""5"",""39147""
","
","","","","","","","","","","","","","","","","","","","","","",""
"d3-instructions","33","173971","0.0-33.0","3129","5287","20","Male","true","false","true","true","""event"",""trial"",""time""
""focus"",""0"",""0""
""blur"",""0"",""0""
""focus"",""0"",""0""
""blur"",""0"",""0""
""focus"",""0"",""0""
""blur"",""0"",""0""
""focus"",""1"",""28075""
""blur"",""1"",""28087""
""focus"",""1"",""28175""
""fullscreenenter"",""5"",""39147""
","""event"",""trial"",""time""
""blur"",""0"",""0""
""blur"",""0"",""0""
""blur"",""0"",""0""
""blur"",""1"",""28087""
","""event"",""trial"",""time""
""focus"",""0"",""0""
""focus"",""0"",""0""
""focus"",""0"",""0""
""focus"",""1"",""28075""
""focus"",""1"",""28175""
","""event"",""trial"",""time""
""fullscreenenter"",""5"",""39147""
","
","","","","","","","","","","","","","","","","","","","","","",""
"d3-animate-choice","34","176560","0.0-34.0","3129","5287","20","Male","true","false","true","true","""event"",""trial"",""time""
""focus"",""0"",""0""
""blur"",""0"",""0""
""focus"",""0"",""0""
""blur"",""0"",""0""
""focus"",""0"",""0""
""blur"",""0"",""0""
""focus"",""1"",""28075""
""blur"",""1"",""28087""
""focus"",""1"",""28175""
""fullscreenenter"",""5"",""39147""
","""event"",""trial"",""time""
""blur"",""0"",""0""
""blur"",""0"",""0""
""blur"",""0"",""0""
""blur"",""1"",""28087""
","""event"",""trial"",""time""
""focus"",""0"",""0""
""focus"",""0"",""0""
""focus"",""0"",""0""
""focus"",""1"",""28075""
""focus"",""1"",""28175""
","""event"",""trial"",""time""
""fullscreenenter"",""5"",""39147""
","
","569.7999999970198","","49","","","3000","1","","","images/tutgreenplanet.jpg","images/tutalien1","images/tutalien2","null","images/tutalien2","images/t.png","NA","practice","null","","","",""
"d3-animate-choice","35","179486","0.0-35.0","3129","5287","20","Male","true","false","true","true","""event"",""trial"",""time""
""focus"",""0"",""0""
""blur"",""0"",""0""
""focus"",""0"",""0""
""blur"",""0"",""0""
""focus"",""0"",""0""
""blur"",""0"",""0""
""focus"",""1"",""28075""
""blur"",""1"",""28087""
""focus"",""1"",""28175""
""fullscreenenter"",""5"",""39147""
","""event"",""trial"",""time""
""blur"",""0"",""0""
""blur"",""0"",""0""
""blur"",""0"",""0""
""blur"",""1"",""28087""
","""event"",""trial"",""time""
""focus"",""0"",""0""
""focus"",""0"",""0""
""focus"",""0"",""0""
""focus"",""1"",""28075""
""focus"",""1"",""28175""
","""event"",""trial"",""time""
""fullscreenenter"",""5"",""39147""
","
","903.2999999970198","","48","","","3000","1","","","images/tutgreenplanet.jpg","images/tutalien1","images/tutalien2","null","images/tutalien1","images/nothing.png","NA","practice","null","","","",""
"d3-animate-choice","36","181746","0.0-36.0","3129","5287","20","Male","true","false","true","true","""event"",""trial"",""time""
""focus"",""0"",""0""
""blur"",""0"",""0""
""focus"",""0"",""0""
""blur"",""0"",""0""
""focus"",""0"",""0""
""blur"",""0"",""0""
""focus"",""1"",""28075""
""blur"",""1"",""28087""
""focus"",""1"",""28175""
""fullscreenenter"",""5"",""39147""
","""event"",""trial"",""time""
""blur"",""0"",""0""
""blur"",""0"",""0""
""blur"",""0"",""0""
""blur"",""1"",""28087""
","""event"",""trial"",""time""
""focus"",""0"",""0""
""focus"",""0"",""0""
""focus"",""0"",""0""
""focus"",""1"",""28075""
""focus"",""1"",""28175""
","""event"",""trial"",""time""
""fullscreenenter"",""5"",""39147""
","
","250.80000001192093","","49","","","3000","1","","","images/tutgreenplanet.jpg","images/tutalien1","images/tutalien2","null","images/tutalien2","images/nothing.png","NA","practice","null","","","",""
"d3-animate-choice","37","184142","0.0-37.0","3129","5287","20","Male","true","false","true","true","""event"",""trial"",""time""
""focus"",""0"",""0""
""blur"",""0"",""0""
""focus"",""0"",""0""
""blur"",""0"",""0""
""focus"",""0"",""0""
""blur"",""0"",""0""
""focus"",""1"",""28075""
""blur"",""1"",""28087""
""focus"",""1"",""28175""
""fullscreenenter"",""5"",""39147""
","""event"",""trial"",""time""
""blur"",""0"",""0""
""blur"",""0"",""0""
""blur"",""0"",""0""
""blur"",""1"",""28087""
","""event"",""trial"",""time""
""focus"",""0"",""0""
""focus"",""0"",""0""
""focus"",""0"",""0""
""focus"",""1"",""28075""
""focus"",""1"",""28175""
","""event"",""trial"",""time""
""fullscreenenter"",""5"",""39147""
","
","372.8999999910593","","49","","","3000","1","","","images/tutgreenplanet.jpg","images/tutalien1","images/tutalien2","null","images/tutalien2","images/t.png","NA","practice","null","","","",""
"d3-animate-choice","38","186343","0.0-38.0","3129","5287","20","Male","true","false","true","true","""event"",""trial"",""time""
""focus"",""0"",""0""
""blur"",""0"",""0""
""focus"",""0"",""0""
""blur"",""0"",""0""
""focus"",""0"",""0""
""blur"",""0"",""0""
""focus"",""1"",""28075""
""blur"",""1"",""28087""
""focus"",""1"",""28175""
""fullscreenenter"",""5"",""39147""
","""event"",""trial"",""time""
""blur"",""0"",""0""
""blur"",""0"",""0""
""blur"",""0"",""0""
""blur"",""1"",""28087""
","""event"",""trial"",""time""
""focus"",""0"",""0""
""focus"",""0"",""0""
""focus"",""0"",""0""
""focus"",""1"",""28075""
""focus"",""1"",""28175""
","""event"",""trial"",""time""
""fullscreenenter"",""5"",""39147""
","
","184","","48","","","3000","1","","","images/tutgreenplanet.jpg","images/tutalien1","images/tutalien2","null","images/tutalien1","images/nothing.png","NA","practice","null","","","",""
"d3-animate-choice","39","188538","0.0-39.0","3129","5287","20","Male","true","false","true","true","""event"",""trial"",""time""
""focus"",""0"",""0""
""blur"",""0"",""0""
""focus"",""0"",""0""
""blur"",""0"",""0""
""focus"",""0"",""0""
""blur"",""0"",""0""
""focus"",""1"",""28075""
""blur"",""1"",""28087""
""focus"",""1"",""28175""
""fullscreenenter"",""5"",""39147""
","""event"",""trial"",""time""
""blur"",""0"",""0""
""blur"",""0"",""0""
""blur"",""0"",""0""
""blur"",""1"",""28087""
","""event"",""trial"",""time""
""focus"",""0"",""0""
""focus"",""0"",""0""
""focus"",""0"",""0""
""focus"",""1"",""28075""
""focus"",""1"",""28175""
","""event"",""trial"",""time""
""fullscreenenter"",""5"",""39147""
","
","189.90000000596046","","48","","","3000","1","1979","49","images/tutgreenplanet.jpg","images/tutalien1","images/tutalien2","null","images/tutalien1","images/nothing.png","NA","practice","null","","","",""
"d3-animate-choice","40","190631","0.0-40.0","3129","5287","20","Male","true","false","true","true","""event"",""trial"",""time""
""focus"",""0"",""0""
""blur"",""0"",""0""
""focus"",""0"",""0""
""blur"",""0"",""0""
""focus"",""0"",""0""
""blur"",""0"",""0""
""focus"",""1"",""28075""
""blur"",""1"",""28087""
""focus"",""1"",""28175""
""fullscreenenter"",""5"",""39147""
","""event"",""trial"",""time""
""blur"",""0"",""0""
""blur"",""0"",""0""
""blur"",""0"",""0""
""blur"",""1"",""28087""
","""event"",""trial"",""time""
""focus"",""0"",""0""
""focus"",""0"",""0""
""focus"",""0"",""0""
""focus"",""1"",""28075""
""focus"",""1"",""28175""
","""event"",""trial"",""time""
""fullscreenenter"",""5"",""39147""
","
","70.79999999701977","","49","","","3000","1","1503.199999988079,1770.699999988079,2009.699999988079","49,49,49","images/tutgreenplanet.jpg","images/tutalien1","images/tutalien2","null","images/tutalien2","images/t.png","NA","practice","null","","","",""
"d3-animate-choice","41","192823","0.0-41.0","3129","5287","20","Male","true","false","true","true","""event"",""trial"",""time""
""focus"",""0"",""0""
""blur"",""0"",""0""
""focus"",""0"",""0""
""blur"",""0"",""0""
""focus"",""0"",""0""
""blur"",""0"",""0""
""focus"",""1"",""28075""
""blur"",""1"",""28087""
""focus"",""1"",""28175""
""fullscreenenter"",""5"",""39147""
","""event"",""trial"",""time""
""blur"",""0"",""0""
""blur"",""0"",""0""
""blur"",""0"",""0""
""blur"",""1"",""28087""
","""event"",""trial"",""time""
""focus"",""0"",""0""
""focus"",""0"",""0""
""focus"",""0"",""0""
""focus"",""1"",""28075""
""focus"",""1"",""28175""
","""event"",""trial"",""time""
""fullscreenenter"",""5"",""39147""
","
","178.20000000298023","","49","","","3000","1","1577.5,1872.2999999970198,2167.0999999940395","49,49,49","images/tutgreenplanet.jpg","images/tutalien1","images/tutalien2","null","images/tutalien2","images/t.png","NA","practice","null","","","",""
"d3-animate-choice","42","195114","0.0-42.0","3129","5287","20","Male","true","false","true","true","""event"",""trial"",""time""
""focus"",""0"",""0""
""blur"",""0"",""0""
""focus"",""0"",""0""
""blur"",""0"",""0""
""focus"",""0"",""0""
""blur"",""0"",""0""
""focus"",""1"",""28075""
""blur"",""1"",""28087""
""focus"",""1"",""28175""
""fullscreenenter"",""5"",""39147""
","""event"",""trial"",""time""
""blur"",""0"",""0""
""blur"",""0"",""0""
""blur"",""0"",""0""
""blur"",""1"",""28087""
","""event"",""trial"",""time""
""focus"",""0"",""0""
""focus"",""0"",""0""
""focus"",""0"",""0""
""focus"",""1"",""28075""
""focus"",""1"",""28175""
","""event"",""trial"",""time""
""fullscreenenter"",""5"",""39147""
","
","272.70000000298023","","49","","","3000","1","587.4000000059605","49","images/tutgreenplanet.jpg","images/tutalien1","images/tutalien2","null","images/tutalien2","images/t.png","NA","practice","null","","","",""
"d3-animate-choice","43","197347","0.0-43.0","3129","5287","20","Male","true","false","true","true","""event"",""trial"",""time""
""focus"",""0"",""0""
""blur"",""0"",""0""
""focus"",""0"",""0""
""blur"",""0"",""0""
""focus"",""0"",""0""
""blur"",""0"",""0""
""focus"",""1"",""28075""
""blur"",""1"",""28087""
""focus"",""1"",""28175""
""fullscreenenter"",""5"",""39147""
","""event"",""trial"",""time""
""blur"",""0"",""0""
""blur"",""0"",""0""
""blur"",""0"",""0""
""blur"",""1"",""28087""
","""event"",""trial"",""time""
""focus"",""0"",""0""
""focus"",""0"",""0""
""focus"",""0"",""0""
""focus"",""1"",""28075""
""focus"",""1"",""28175""
","""event"",""trial"",""time""
""fullscreenenter"",""5"",""39147""
","
","227.29999999701977","","49","","","3000","1","","","images/tutgreenplanet.jpg","images/tutalien1","images/tutalien2","null","images/tutalien2","images/t.png","NA","practice","null","","","",""
"d3-instructions","44","207042","0.0-44.0","3129","5287","20","Male","true","false","true","true","""event"",""trial"",""time""
""focus"",""0"",""0""
""blur"",""0"",""0""
""focus"",""0"",""0""
""blur"",""0"",""0""
""focus"",""0"",""0""
""blur"",""0"",""0""
""focus"",""1"",""28075""
""blur"",""1"",""28087""
""focus"",""1"",""28175""
""fullscreenenter"",""5"",""39147""
","""event"",""trial"",""time""
""blur"",""0"",""0""
""blur"",""0"",""0""
""blur"",""0"",""0""
""blur"",""1"",""28087""
","""event"",""trial"",""time""
""focus"",""0"",""0""
""focus"",""0"",""0""
""focus"",""0"",""0""
""focus"",""1"",""28075""
""focus"",""1"",""28175""
","""event"",""trial"",""time""
""fullscreenenter"",""5"",""39147""
","
","","","","","","","","","","","","","","","","","","","","","",""
"d3-instructions","45","210436","0.0-45.0","3129","5287","20","Male","true","false","true","true","""event"",""trial"",""time""
""focus"",""0"",""0""
""blur"",""0"",""0""
""focus"",""0"",""0""
""blur"",""0"",""0""
""focus"",""0"",""0""
""blur"",""0"",""0""
""focus"",""1"",""28075""
""blur"",""1"",""28087""
""focus"",""1"",""28175""
""fullscreenenter"",""5"",""39147""
","""event"",""trial"",""time""
""blur"",""0"",""0""
""blur"",""0"",""0""
""blur"",""0"",""0""
""blur"",""1"",""28087""
","""event"",""trial"",""time""
""focus"",""0"",""0""
""focus"",""0"",""0""
""focus"",""0"",""0""
""focus"",""1"",""28075""
""focus"",""1"",""28175""
","""event"",""trial"",""time""
""fullscreenenter"",""5"",""39147""
","
","","","","","","","","","","","","","","","","","","","","","",""
"d3-instructions","46","213258","0.0-46.0","3129","5287","20","Male","true","false","true","true","""event"",""trial"",""time""
""focus"",""0"",""0""
""blur"",""0"",""0""
""focus"",""0"",""0""
""blur"",""0"",""0""
""focus"",""0"",""0""
""blur"",""0"",""0""
""focus"",""1"",""28075""
""blur"",""1"",""28087""
""focus"",""1"",""28175""
""fullscreenenter"",""5"",""39147""
","""event"",""trial"",""time""
""blur"",""0"",""0""
""blur"",""0"",""0""
""blur"",""0"",""0""
""blur"",""1"",""28087""
","""event"",""trial"",""time""
""focus"",""0"",""0""
""focus"",""0"",""0""
""focus"",""0"",""0""
""focus"",""1"",""28075""
""focus"",""1"",""28175""
","""event"",""trial"",""time""
""fullscreenenter"",""5"",""39147""
","
","","","","","","","","","","","","","","","","","","","","","",""
"d3-instructions","47","223362","0.0-47.0","3129","5287","20","Male","true","false","true","true","""event"",""trial"",""time""
""focus"",""0"",""0""
""blur"",""0"",""0""
""focus"",""0"",""0""
""blur"",""0"",""0""
""focus"",""0"",""0""
""blur"",""0"",""0""
""focus"",""1"",""28075""
""blur"",""1"",""28087""
""focus"",""1"",""28175""
""fullscreenenter"",""5"",""39147""
","""event"",""trial"",""time""
""blur"",""0"",""0""
""blur"",""0"",""0""
""blur"",""0"",""0""
""blur"",""1"",""28087""
","""event"",""trial"",""time""
""focus"",""0"",""0""
""focus"",""0"",""0""
""focus"",""0"",""0""
""focus"",""1"",""28075""
""focus"",""1"",""28175""
","""event"",""trial"",""time""
""fullscreenenter"",""5"",""39147""
","
","","","","","","","","","","","","","","","","","","","","","",""
"d3-instructions","48","227004","0.0-48.0","3129","5287","20","Male","true","false","true","true","""event"",""trial"",""time""
""focus"",""0"",""0""
""blur"",""0"",""0""
""focus"",""0"",""0""
""blur"",""0"",""0""
""focus"",""0"",""0""
""blur"",""0"",""0""
""focus"",""1"",""28075""
""blur"",""1"",""28087""
""focus"",""1"",""28175""
""fullscreenenter"",""5"",""39147""
","""event"",""trial"",""time""
""blur"",""0"",""0""
""blur"",""0"",""0""
""blur"",""0"",""0""
""blur"",""1"",""28087""
","""event"",""trial"",""time""
""focus"",""0"",""0""
""focus"",""0"",""0""
""focus"",""0"",""0""
""focus"",""1"",""28075""
""focus"",""1"",""28175""
","""event"",""trial"",""time""
""fullscreenenter"",""5"",""39147""
","
","","","","","","","","","","","","","","","","","","","","","",""
"d3-instructions","49","229903","0.0-49.0","3129","5287","20","Male","true","false","true","true","""event"",""trial"",""time""
""focus"",""0"",""0""
""blur"",""0"",""0""
""focus"",""0"",""0""
""blur"",""0"",""0""
""focus"",""0"",""0""
""blur"",""0"",""0""
""focus"",""1"",""28075""
""blur"",""1"",""28087""
""focus"",""1"",""28175""
""fullscreenenter"",""5"",""39147""
","""event"",""trial"",""time""
""blur"",""0"",""0""
""blur"",""0"",""0""
""blur"",""0"",""0""
""blur"",""1"",""28087""
","""event"",""trial"",""time""
""focus"",""0"",""0""
""focus"",""0"",""0""
""focus"",""0"",""0""
""focus"",""1"",""28075""
""focus"",""1"",""28175""
","""event"",""trial"",""time""
""fullscreenenter"",""5"",""39147""
","
","","","","","","","","","","","","","","","","","","","","","",""
"d3-instructions","50","232900","0.0-50.0","3129","5287","20","Male","true","false","true","true","""event"",""trial"",""time""
""focus"",""0"",""0""
""blur"",""0"",""0""
""focus"",""0"",""0""
""blur"",""0"",""0""
""focus"",""0"",""0""
""blur"",""0"",""0""
""focus"",""1"",""28075""
""blur"",""1"",""28087""
""focus"",""1"",""28175""
""fullscreenenter"",""5"",""39147""
","""event"",""trial"",""time""
""blur"",""0"",""0""
""blur"",""0"",""0""
""blur"",""0"",""0""
""blur"",""1"",""28087""
","""event"",""trial"",""time""
""focus"",""0"",""0""
""focus"",""0"",""0""
""focus"",""0"",""0""
""focus"",""1"",""28075""
""focus"",""1"",""28175""
","""event"",""trial"",""time""
""fullscreenenter"",""5"",""39147""
","
","","","","","","","","","","","","","","","","","","","","","",""
"d3-instructions","51","234201","0.0-51.0","3129","5287","20","Male","true","false","true","true","""event"",""trial"",""time""
""focus"",""0"",""0""
""blur"",""0"",""0""
""focus"",""0"",""0""
""blur"",""0"",""0""
""focus"",""0"",""0""
""blur"",""0"",""0""
""focus"",""1"",""28075""
""blur"",""1"",""28087""
""focus"",""1"",""28175""
""fullscreenenter"",""5"",""39147""
","""event"",""trial"",""time""
""blur"",""0"",""0""
""blur"",""0"",""0""
""blur"",""0"",""0""
""blur"",""1"",""28087""
","""event"",""trial"",""time""
""focus"",""0"",""0""
""focus"",""0"",""0""
""focus"",""0"",""0""
""focus"",""1"",""28075""
""focus"",""1"",""28175""
","""event"",""trial"",""time""
""fullscreenenter"",""5"",""39147""
","
","","","","","","","","","","","","","","","","","","","","","",""
"d3-instructions","52","234998","0.0-52.0","3129","5287","20","Male","true","false","true","true","""event"",""trial"",""time""
""focus"",""0"",""0""
""blur"",""0"",""0""
""focus"",""0"",""0""
""blur"",""0"",""0""
""focus"",""0"",""0""
""blur"",""0"",""0""
""focus"",""1"",""28075""
""blur"",""1"",""28087""
""focus"",""1"",""28175""
""fullscreenenter"",""5"",""39147""
","""event"",""trial"",""time""
""blur"",""0"",""0""
""blur"",""0"",""0""
""blur"",""0"",""0""
""blur"",""1"",""28087""
","""event"",""trial"",""time""
""focus"",""0"",""0""
""focus"",""0"",""0""
""focus"",""0"",""0""
""focus"",""1"",""28075""
""focus"",""1"",""28175""
","""event"",""trial"",""time""
""fullscreenenter"",""5"",""39147""
","
","","","","","","","","","","","","","","","","","","","","","",""
"d3-instructions","53","242690","0.0-53.0","3129","5287","20","Male","true","false","true","true","""event"",""trial"",""time""
""focus"",""0"",""0""
""blur"",""0"",""0""
""focus"",""0"",""0""
""blur"",""0"",""0""
""focus"",""0"",""0""
""blur"",""0"",""0""
""focus"",""1"",""28075""
""blur"",""1"",""28087""
""focus"",""1"",""28175""
""fullscreenenter"",""5"",""39147""
","""event"",""trial"",""time""
""blur"",""0"",""0""
""blur"",""0"",""0""
""blur"",""0"",""0""
""blur"",""1"",""28087""
","""event"",""trial"",""time""
""focus"",""0"",""0""
""focus"",""0"",""0""
""focus"",""0"",""0""
""focus"",""1"",""28075""
""focus"",""1"",""28175""
","""event"",""trial"",""time""
""fullscreenenter"",""5"",""39147""
","
","","","","","","","","","","","","","","","","","","","","","",""
"d3-instructions","54","251035","0.0-54.0","3129","5287","20","Male","true","false","true","true","""event"",""trial"",""time""
""focus"",""0"",""0""
""blur"",""0"",""0""
""focus"",""0"",""0""
""blur"",""0"",""0""
""focus"",""0"",""0""
""blur"",""0"",""0""
""focus"",""1"",""28075""
""blur"",""1"",""28087""
""focus"",""1"",""28175""
""fullscreenenter"",""5"",""39147""
","""event"",""trial"",""time""
""blur"",""0"",""0""
""blur"",""0"",""0""
""blur"",""0"",""0""
""blur"",""1"",""28087""
","""event"",""trial"",""time""
""focus"",""0"",""0""
""focus"",""0"",""0""
""focus"",""0"",""0""
""focus"",""1"",""28075""
""focus"",""1"",""28175""
","""event"",""trial"",""time""
""fullscreenenter"",""5"",""39147""
","
","","","","","","","","","","","","","","","","","","","","","",""
"d3-instructions","55","253788","0.0-55.0","3129","5287","20","Male","true","false","true","true","""event"",""trial"",""time""
""focus"",""0"",""0""
""blur"",""0"",""0""
""focus"",""0"",""0""
""blur"",""0"",""0""
""focus"",""0"",""0""
""blur"",""0"",""0""
""focus"",""1"",""28075""
""blur"",""1"",""28087""
""focus"",""1"",""28175""
""fullscreenenter"",""5"",""39147""
","""event"",""trial"",""time""
""blur"",""0"",""0""
""blur"",""0"",""0""
""blur"",""0"",""0""
""blur"",""1"",""28087""
","""event"",""trial"",""time""
""focus"",""0"",""0""
""focus"",""0"",""0""
""focus"",""0"",""0""
""focus"",""1"",""28075""
""focus"",""1"",""28175""
","""event"",""trial"",""time""
""fullscreenenter"",""5"",""39147""
","
","","","","","","","","","","","","","","","","","","","","","",""
"d3-instructions","56","258380","0.0-56.0","3129","5287","20","Male","true","false","true","true","""event"",""trial"",""time""
""focus"",""0"",""0""
""blur"",""0"",""0""
""focus"",""0"",""0""
""blur"",""0"",""0""
""focus"",""0"",""0""
""blur"",""0"",""0""
""focus"",""1"",""28075""
""blur"",""1"",""28087""
""focus"",""1"",""28175""
""fullscreenenter"",""5"",""39147""
","""event"",""trial"",""time""
""blur"",""0"",""0""
""blur"",""0"",""0""
""blur"",""0"",""0""
""blur"",""1"",""28087""
","""event"",""trial"",""time""
""focus"",""0"",""0""
""focus"",""0"",""0""
""focus"",""0"",""0""
""focus"",""1"",""28075""
""focus"",""1"",""28175""
","""event"",""trial"",""time""
""fullscreenenter"",""5"",""39147""
","
","","","","","","","","","","","","","","","","","","","","","",""
"d3-instructions","57","261742","0.0-57.0","3129","5287","20","Male","true","false","true","true","""event"",""trial"",""time""
""focus"",""0"",""0""
""blur"",""0"",""0""
""focus"",""0"",""0""
""blur"",""0"",""0""
""focus"",""0"",""0""
""blur"",""0"",""0""
""focus"",""1"",""28075""
""blur"",""1"",""28087""
""focus"",""1"",""28175""
""fullscreenenter"",""5"",""39147""
","""event"",""trial"",""time""
""blur"",""0"",""0""
""blur"",""0"",""0""
""blur"",""0"",""0""
""blur"",""1"",""28087""
","""event"",""trial"",""time""
""focus"",""0"",""0""
""focus"",""0"",""0""
""focus"",""0"",""0""
""focus"",""1"",""28075""
""focus"",""1"",""28175""
","""event"",""trial"",""time""
""fullscreenenter"",""5"",""39147""
","
","","","","","","","","","","","","","","","","","","","","","",""
"d3-instructions","58","265487","0.0-58.0","3129","5287","20","Male","true","false","true","true","""event"",""trial"",""time""
""focus"",""0"",""0""
""blur"",""0"",""0""
""focus"",""0"",""0""
""blur"",""0"",""0""
""focus"",""0"",""0""
""blur"",""0"",""0""
""focus"",""1"",""28075""
""blur"",""1"",""28087""
""focus"",""1"",""28175""
""fullscreenenter"",""5"",""39147""
","""event"",""trial"",""time""
""blur"",""0"",""0""
""blur"",""0"",""0""
""blur"",""0"",""0""
""blur"",""1"",""28087""
","""event"",""trial"",""time""
""focus"",""0"",""0""
""focus"",""0"",""0""
""focus"",""0"",""0""
""focus"",""1"",""28075""
""focus"",""1"",""28175""
","""event"",""trial"",""time""
""fullscreenenter"",""5"",""39147""
","
","","","","","","","","","","","","","","","","","","","","","",""
"d3-instructions","59","266783","0.0-59.0","3129","5287","20","Male","true","false","true","true","""event"",""trial"",""time""
""focus"",""0"",""0""
""blur"",""0"",""0""
""focus"",""0"",""0""
""blur"",""0"",""0""
""focus"",""0"",""0""
""blur"",""0"",""0""
""focus"",""1"",""28075""
""blur"",""1"",""28087""
""focus"",""1"",""28175""
""fullscreenenter"",""5"",""39147""
","""event"",""trial"",""time""
""blur"",""0"",""0""
""blur"",""0"",""0""
""blur"",""0"",""0""
""blur"",""1"",""28087""
","""event"",""trial"",""time""
""focus"",""0"",""0""
""focus"",""0"",""0""
""focus"",""0"",""0""
""focus"",""1"",""28075""
""focus"",""1"",""28175""
","""event"",""trial"",""time""
""fullscreenenter"",""5"",""39147""
","
","","","","","","","","","","","","","","","","","","","","","",""
"d3-instructions","60","268195","0.0-60.0","3129","5287","20","Male","true","false","true","true","""event"",""trial"",""time""
""focus"",""0"",""0""
""blur"",""0"",""0""
""focus"",""0"",""0""
""blur"",""0"",""0""
""focus"",""0"",""0""
""blur"",""0"",""0""
""focus"",""1"",""28075""
""blur"",""1"",""28087""
""focus"",""1"",""28175""
""fullscreenenter"",""5"",""39147""
","""event"",""trial"",""time""
""blur"",""0"",""0""
""blur"",""0"",""0""
""blur"",""0"",""0""
""blur"",""1"",""28087""
","""event"",""trial"",""time""
""focus"",""0"",""0""
""focus"",""0"",""0""
""focus"",""0"",""0""
""focus"",""1"",""28075""
""focus"",""1"",""28175""
","""event"",""trial"",""time""
""fullscreenenter"",""5"",""39147""
","
","","","","","","","","","","","","","","","","","","","","","",""
"d3-animate-choice","61","270645","0.0-61.0-0.0","3129","5287","20","Male","true","false","true","true","""event"",""trial"",""time""
""focus"",""0"",""0""
""blur"",""0"",""0""
""focus"",""0"",""0""
""blur"",""0"",""0""
""focus"",""0"",""0""
""blur"",""0"",""0""
""focus"",""1"",""28075""
""blur"",""1"",""28087""
""focus"",""1"",""28175""
""fullscreenenter"",""5"",""39147""
","""event"",""trial"",""time""
""blur"",""0"",""0""
""blur"",""0"",""0""
""blur"",""0"",""0""
""blur"",""1"",""28087""
","""event"",""trial"",""time""
""focus"",""0"",""0""
""focus"",""0"",""0""
""focus"",""0"",""0""
""focus"",""1"",""28075""
""focus"",""1"",""28175""
","""event"",""trial"",""time""
""fullscreenenter"",""5"",""39147""
","
","446.1000000089407","","49","","","3000","1","","","images/earth.jpg","images/tutrocket1","images/tutrocket2","null","images/tutrocket2","","1","practice","null","1","","",""
"d3-animate-choice","62","273582","0.0-61.0-1.0","3129","5287","20","Male","true","false","true","true","""event"",""trial"",""time""
""focus"",""0"",""0""
""blur"",""0"",""0""
""focus"",""0"",""0""
""blur"",""0"",""0""
""focus"",""0"",""0""
""blur"",""0"",""0""
""focus"",""1"",""28075""
""blur"",""1"",""28087""
""focus"",""1"",""28175""
""fullscreenenter"",""5"",""39147""
","""event"",""trial"",""time""
""blur"",""0"",""0""
""blur"",""0"",""0""
""blur"",""0"",""0""
""blur"",""1"",""28087""
","""event"",""trial"",""time""
""focus"",""0"",""0""
""focus"",""0"",""0""
""focus"",""0"",""0""
""focus"",""1"",""28075""
""focus"",""1"",""28175""
","""event"",""trial"",""time""
""fullscreenenter"",""5"",""39147""
","
","918.7000000029802","","49","","","3000","1","","","images/tutgreenplanet.jpg","images/tutalien2","images/tutalien1","images/tutrocket2","images/tutalien1","images/nothing.png","2","practice","true","1","common","0","2022-12-18 19:04:59.575"
"two-step-fixation","63","274609","0.0-61.0-2.0","3129","5287","20","Male","true","false","true","true","""event"",""trial"",""time""
""focus"",""0"",""0""
""blur"",""0"",""0""
""focus"",""0"",""0""
""blur"",""0"",""0""
""focus"",""0"",""0""
""blur"",""0"",""0""
""focus"",""1"",""28075""
""blur"",""1"",""28087""
""focus"",""1"",""28175""
""fullscreenenter"",""5"",""39147""
","""event"",""trial"",""time""
""blur"",""0"",""0""
""blur"",""0"",""0""
""blur"",""0"",""0""
""blur"",""1"",""28087""
","""event"",""trial"",""time""
""focus"",""0"",""0""
""focus"",""0"",""0""
""focus"",""0"",""0""
""focus"",""1"",""28075""
""focus"",""1"",""28175""
","""event"",""trial"",""time""
""fullscreenenter"",""5"",""39147""
","
","","images/earth.jpg","","","","","","","","","","","","","","fixation","","","","","",""
"d3-animate-choice","64","277210","0.0-61.0-0.1","3129","5287","20","Male","true","false","true","true","""event"",""trial"",""time""
""focus"",""0"",""0""
""blur"",""0"",""0""
""focus"",""0"",""0""
""blur"",""0"",""0""
""focus"",""0"",""0""
""blur"",""0"",""0""
""focus"",""1"",""28075""
""blur"",""1"",""28087""
""focus"",""1"",""28175""
""fullscreenenter"",""5"",""39147""
","""event"",""trial"",""time""
""blur"",""0"",""0""
""blur"",""0"",""0""
""blur"",""0"",""0""
""blur"",""1"",""28087""
","""event"",""trial"",""time""
""focus"",""0"",""0""
""focus"",""0"",""0""
""focus"",""0"",""0""
""focus"",""1"",""28075""
""focus"",""1"",""28175""
","""event"",""trial"",""time""
""fullscreenenter"",""5"",""39147""
","
","595.7000000029802","","49","","","3000","1","","","images/earth.jpg","images/tutrocket1","images/tutrocket2","null","images/tutrocket2","","1","practice","null","1","","",""
"d3-animate-choice","65","280242","0.0-61.0-1.1","3129","5287","20","Male","true","false","true","true","""event"",""trial"",""time""
""focus"",""0"",""0""
""blur"",""0"",""0""
""focus"",""0"",""0""
""blur"",""0"",""0""
""focus"",""0"",""0""
""blur"",""0"",""0""
""focus"",""1"",""28075""
""blur"",""1"",""28087""
""focus"",""1"",""28175""
""fullscreenenter"",""5"",""39147""
","""event"",""trial"",""time""
""blur"",""0"",""0""
""blur"",""0"",""0""
""blur"",""0"",""0""
""blur"",""1"",""28087""
","""event"",""trial"",""time""
""focus"",""0"",""0""
""focus"",""0"",""0""
""focus"",""0"",""0""
""focus"",""1"",""28075""
""focus"",""1"",""28175""
","""event"",""trial"",""time""
""fullscreenenter"",""5"",""39147""
","
","1026.5","","49","","","3000","1","","","images/tutyellowplanet.jpg","images/tutalien4","images/tutalien3","images/tutrocket2","images/tutalien3","images/nothing.png","2","practice","false","1","rare","0","2022-12-18 19:05:06.235"
"two-step-fixation","66","281251","0.0-61.0-2.1","3129","5287","20","Male","true","false","true","true","""event"",""trial"",""time""
""focus"",""0"",""0""
""blur"",""0"",""0""
""focus"",""0"",""0""
""blur"",""0"",""0""
""focus"",""0"",""0""
""blur"",""0"",""0""
""focus"",""1"",""28075""
""blur"",""1"",""28087""
""focus"",""1"",""28175""
""fullscreenenter"",""5"",""39147""
","""event"",""trial"",""time""
""blur"",""0"",""0""
""blur"",""0"",""0""
""blur"",""0"",""0""
""blur"",""1"",""28087""
","""event"",""trial"",""time""
""focus"",""0"",""0""
""focus"",""0"",""0""
""focus"",""0"",""0""
""focus"",""1"",""28075""
""focus"",""1"",""28175""
","""event"",""trial"",""time""
""fullscreenenter"",""5"",""39147""
","
","","images/earth.jpg","","","","","","","","","","","","","","fixation","","","","","",""
"d3-animate-choice","67","283579","0.0-61.0-0.2","3129","5287","20","Male","true","false","true","true","""event"",""trial"",""time""
""focus"",""0"",""0""
""blur"",""0"",""0""
""focus"",""0"",""0""
""blur"",""0"",""0""
""focus"",""0"",""0""
""blur"",""0"",""0""
""focus"",""1"",""28075""
""blur"",""1"",""28087""
""focus"",""1"",""28175""
""fullscreenenter"",""5"",""39147""
","""event"",""trial"",""time""
""blur"",""0"",""0""
""blur"",""0"",""0""
""blur"",""0"",""0""
""blur"",""1"",""28087""
","""event"",""trial"",""time""
""focus"",""0"",""0""
""focus"",""0"",""0""
""focus"",""0"",""0""
""focus"",""1"",""28075""
""focus"",""1"",""28175""
","""event"",""trial"",""time""
""fullscreenenter"",""5"",""39147""
","
","315.69999998807907","","49","","","3000","1","","","images/earth.jpg","images/tutrocket1","images/tutrocket2","null","images/tutrocket2","","1","practice","null","1","","",""
"d3-animate-choice","68","286442","0.0-61.0-1.2","3129","5287","20","Male","true","false","true","true","""event"",""trial"",""time""
""focus"",""0"",""0""
""blur"",""0"",""0""
""focus"",""0"",""0""
""blur"",""0"",""0""
""focus"",""0"",""0""
""blur"",""0"",""0""
""focus"",""1"",""28075""
""blur"",""1"",""28087""
""focus"",""1"",""28175""
""fullscreenenter"",""5"",""39147""
","""event"",""trial"",""time""
""blur"",""0"",""0""
""blur"",""0"",""0""
""blur"",""0"",""0""
""blur"",""1"",""28087""
","""event"",""trial"",""time""
""focus"",""0"",""0""
""focus"",""0"",""0""
""focus"",""0"",""0""
""focus"",""1"",""28075""
""focus"",""1"",""28175""
","""event"",""trial"",""time""
""fullscreenenter"",""5"",""39147""
","
","858.3999999910593","","48","","","3000","1","","","images/tutgreenplanet.jpg","images/tutalien2","images/tutalien1","images/tutrocket2","images/tutalien2","images/t.png","2","practice","true","2","common","1","2022-12-18 19:05:12.435"
"two-step-fixation","69","287444","0.0-61.0-2.2","3129","5287","20","Male","true","false","true","true","""event"",""trial"",""time""
""focus"",""0"",""0""
""blur"",""0"",""0""
""focus"",""0"",""0""
""blur"",""0"",""0""
""focus"",""0"",""0""
""blur"",""0"",""0""
""focus"",""1"",""28075""
""blur"",""1"",""28087""
""focus"",""1"",""28175""
""fullscreenenter"",""5"",""39147""
","""event"",""trial"",""time""
""blur"",""0"",""0""
""blur"",""0"",""0""
""blur"",""0"",""0""
""blur"",""1"",""28087""
","""event"",""trial"",""time""
""focus"",""0"",""0""
""focus"",""0"",""0""
""focus"",""0"",""0""
""focus"",""1"",""28075""
""focus"",""1"",""28175""
","""event"",""trial"",""time""
""fullscreenenter"",""5"",""39147""
","
","","images/earth.jpg","","","","","","","","","","","","","","fixation","","","","","",""
"d3-animate-choice","70","289706","0.0-61.0-0.3","3129","5287","20","Male","true","false","true","true","""event"",""trial"",""time""
""focus"",""0"",""0""
""blur"",""0"",""0""
""focus"",""0"",""0""
""blur"",""0"",""0""
""focus"",""0"",""0""
""blur"",""0"",""0""
""focus"",""1"",""28075""
""blur"",""1"",""28087""
""focus"",""1"",""28175""
""fullscreenenter"",""5"",""39147""
","""event"",""trial"",""time""
""blur"",""0"",""0""
""blur"",""0"",""0""
""blur"",""0"",""0""
""blur"",""1"",""28087""
","""event"",""trial"",""time""
""focus"",""0"",""0""
""focus"",""0"",""0""
""focus"",""0"",""0""
""focus"",""1"",""28075""
""focus"",""1"",""28175""
","""event"",""trial"",""time""
""fullscreenenter"",""5"",""39147""
","
","257.70000000298023","","49","","","3000","1","","","images/earth.jpg","images/tutrocket1","images/tutrocket2","null","images/tutrocket2","","1","practice","null","1","","",""
"d3-animate-choice","71","292766","0.0-61.0-1.3","3129","5287","20","Male","true","false","true","true","""event"",""trial"",""time""
""focus"",""0"",""0""
""blur"",""0"",""0""
""focus"",""0"",""0""
""blur"",""0"",""0""
""focus"",""0"",""0""
""blur"",""0"",""0""
""focus"",""1"",""28075""
""blur"",""1"",""28087""
""focus"",""1"",""28175""
""fullscreenenter"",""5"",""39147""
","""event"",""trial"",""time""
""blur"",""0"",""0""
""blur"",""0"",""0""
""blur"",""0"",""0""
""blur"",""1"",""28087""
","""event"",""trial"",""time""
""focus"",""0"",""0""
""focus"",""0"",""0""
""focus"",""0"",""0""
""focus"",""1"",""28075""
""focus"",""1"",""28175""
","""event"",""trial"",""time""
""fullscreenenter"",""5"",""39147""
","
","1038.300000011921","","48","","","3000","1","","","images/tutgreenplanet.jpg","images/tutalien2","images/tutalien1","images/tutrocket2","images/tutalien2","images/nothing.png","2","practice","true","2","common","0","2022-12-18 19:05:18.759"
"two-step-fixation","72","293775","0.0-61.0-2.3","3129","5287","20","Male","true","false","true","true","""event"",""trial"",""time""
""focus"",""0"",""0""
""blur"",""0"",""0""
""focus"",""0"",""0""
""blur"",""0"",""0""
""focus"",""0"",""0""
""blur"",""0"",""0""
""focus"",""1"",""28075""
""blur"",""1"",""28087""
""focus"",""1"",""28175""
""fullscreenenter"",""5"",""39147""
","""event"",""trial"",""time""
""blur"",""0"",""0""
""blur"",""0"",""0""
""blur"",""0"",""0""
""blur"",""1"",""28087""
","""event"",""trial"",""time""
""focus"",""0"",""0""
""focus"",""0"",""0""
""focus"",""0"",""0""
""focus"",""1"",""28075""
""focus"",""1"",""28175""
","""event"",""trial"",""time""
""fullscreenenter"",""5"",""39147""
","
","","images/earth.jpg","","","","","","","","","","","","","","fixation","","","","","",""
"d3-animate-choice","73","296146","0.0-61.0-0.4","3129","5287","20","Male","true","false","true","true","""event"",""trial"",""time""
""focus"",""0"",""0""
""blur"",""0"",""0""
""focus"",""0"",""0""
""blur"",""0"",""0""
""focus"",""0"",""0""
""blur"",""0"",""0""
""focus"",""1"",""28075""
""blur"",""1"",""28087""
""focus"",""1"",""28175""
""fullscreenenter"",""5"",""39147""
","""event"",""trial"",""time""
""blur"",""0"",""0""
""blur"",""0"",""0""
""blur"",""0"",""0""
""blur"",""1"",""28087""
","""event"",""trial"",""time""
""focus"",""0"",""0""
""focus"",""0"",""0""
""focus"",""0"",""0""
""focus"",""1"",""28075""
""focus"",""1"",""28175""
","""event"",""trial"",""time""
""fullscreenenter"",""5"",""39147""
","
","361.59999999403954","","49","","","3000","1","","","images/earth.jpg","images/tutrocket1","images/tutrocket2","null","images/tutrocket2","","1","practice","null","1","","",""
"d3-animate-choice","74","299314","0.0-61.0-1.4","3129","5287","20","Male","true","false","true","true","""event"",""trial"",""time""
""focus"",""0"",""0""
""blur"",""0"",""0""
""focus"",""0"",""0""
""blur"",""0"",""0""
""focus"",""0"",""0""
""blur"",""0"",""0""
""focus"",""1"",""28075""
""blur"",""1"",""28087""
""focus"",""1"",""28175""
""fullscreenenter"",""5"",""39147""
","""event"",""trial"",""time""
""blur"",""0"",""0""
""blur"",""0"",""0""
""blur"",""0"",""0""
""blur"",""1"",""28087""
","""event"",""trial"",""time""
""focus"",""0"",""0""
""focus"",""0"",""0""
""focus"",""0"",""0""
""focus"",""1"",""28075""
""focus"",""1"",""28175""
","""event"",""trial"",""time""
""fullscreenenter"",""5"",""39147""
","
","1162.199999988079","","48","","","3000","1","","","images/tutyellowplanet.jpg","images/tutalien4","images/tutalien3","images/tutrocket2","images/tutalien4","images/t.png","2","practice","false","2","rare","1","2022-12-18 19:05:25.307"
"two-step-fixation","75","300323","0.0-61.0-2.4","3129","5287","20","Male","true","false","true","true","""event"",""trial"",""time""
""focus"",""0"",""0""
""blur"",""0"",""0""
""focus"",""0"",""0""
""blur"",""0"",""0""
""focus"",""0"",""0""
""blur"",""0"",""0""
""focus"",""1"",""28075""
""blur"",""1"",""28087""
""focus"",""1"",""28175""
""fullscreenenter"",""5"",""39147""
","""event"",""trial"",""time""
""blur"",""0"",""0""
""blur"",""0"",""0""
""blur"",""0"",""0""
""blur"",""1"",""28087""
","""event"",""trial"",""time""
""focus"",""0"",""0""
""focus"",""0"",""0""
""focus"",""0"",""0""
""focus"",""1"",""28075""
""focus"",""1"",""28175""
","""event"",""trial"",""time""
""fullscreenenter"",""5"",""39147""
","
","","images/earth.jpg","","","","","","","","","","","","","","fixation","","","","","",""
"d3-animate-choice","76","302634","0.0-61.0-0.5","3129","5287","20","Male","true","false","true","true","""event"",""trial"",""time""
""focus"",""0"",""0""
""blur"",""0"",""0""
""focus"",""0"",""0""
""blur"",""0"",""0""
""focus"",""0"",""0""
""blur"",""0"",""0""
""focus"",""1"",""28075""
""blur"",""1"",""28087""
""focus"",""1"",""28175""
""fullscreenenter"",""5"",""39147""
","""event"",""trial"",""time""
""blur"",""0"",""0""
""blur"",""0"",""0""
""blur"",""0"",""0""
""blur"",""1"",""28087""
","""event"",""trial"",""time""
""focus"",""0"",""0""
""focus"",""0"",""0""
""focus"",""0"",""0""
""focus"",""1"",""28075""
""focus"",""1"",""28175""
","""event"",""trial"",""time""
""fullscreenenter"",""5"",""39147""
","
","303.59999999403954","","49","","","3000","1","","","images/earth.jpg","images/tutrocket1","images/tutrocket2","null","images/tutrocket2","","1","practice","null","1","","",""
"d3-animate-choice","77","305330","0.0-61.0-1.5","3129","5287","20","Male","true","false","true","true","""event"",""trial"",""time""
""focus"",""0"",""0""
""blur"",""0"",""0""
""focus"",""0"",""0""
""blur"",""0"",""0""
""focus"",""0"",""0""
""blur"",""0"",""0""
""focus"",""1"",""28075""
""blur"",""1"",""28087""
""focus"",""1"",""28175""
""fullscreenenter"",""5"",""39147""
","""event"",""trial"",""time""
""blur"",""0"",""0""
""blur"",""0"",""0""
""blur"",""0"",""0""
""blur"",""1"",""28087""
","""event"",""trial"",""time""
""focus"",""0"",""0""
""focus"",""0"",""0""
""focus"",""0"",""0""
""focus"",""1"",""28075""
""focus"",""1"",""28175""
","""event"",""trial"",""time""
""fullscreenenter"",""5"",""39147""
","
","686.5","","48","","","3000","1","","","images/tutgreenplanet.jpg","images/tutalien2","images/tutalien1","images/tutrocket2","images/tutalien2","images/nothing.png","2","practice","true","2","common","0","2022-12-18 19:05:31.324"
"two-step-fixation","78","306339","0.0-61.0-2.5","3129","5287","20","Male","true","false","true","true","""event"",""trial"",""time""
""focus"",""0"",""0""
""blur"",""0"",""0""
""focus"",""0"",""0""
""blur"",""0"",""0""
""focus"",""0"",""0""
""blur"",""0"",""0""
""focus"",""1"",""28075""
""blur"",""1"",""28087""
""focus"",""1"",""28175""
""fullscreenenter"",""5"",""39147""
","""event"",""trial"",""time""
""blur"",""0"",""0""
""blur"",""0"",""0""
""blur"",""0"",""0""
""blur"",""1"",""28087""
","""event"",""trial"",""time""
""focus"",""0"",""0""
""focus"",""0"",""0""
""focus"",""0"",""0""
""focus"",""1"",""28075""
""focus"",""1"",""28175""
","""event"",""trial"",""time""
""fullscreenenter"",""5"",""39147""
","
","","images/earth.jpg","","","","","","","","","","","","","","fixation","","","","","",""
"d3-animate-choice","79","308490","0.0-61.0-0.6","3129","5287","20","Male","true","false","true","true","""event"",""trial"",""time""
""focus"",""0"",""0""
""blur"",""0"",""0""
""focus"",""0"",""0""
""blur"",""0"",""0""
""focus"",""0"",""0""
""blur"",""0"",""0""
""focus"",""1"",""28075""
""blur"",""1"",""28087""
""focus"",""1"",""28175""
""fullscreenenter"",""5"",""39147""
","""event"",""trial"",""time""
""blur"",""0"",""0""
""blur"",""0"",""0""
""blur"",""0"",""0""
""blur"",""1"",""28087""
","""event"",""trial"",""time""
""focus"",""0"",""0""
""focus"",""0"",""0""
""focus"",""0"",""0""
""focus"",""1"",""28075""
""focus"",""1"",""28175""
","""event"",""trial"",""time""
""fullscreenenter"",""5"",""39147""
","
","145.59999999403954","","49","","","3000","1","","","images/earth.jpg","images/tutrocket1","images/tutrocket2","null","images/tutrocket2","","1","practice","null","1","","",""
"d3-animate-choice","80","311851","0.0-61.0-1.6","3129","5287","20","Male","true","false","true","true","""event"",""trial"",""time""
""focus"",""0"",""0""
""blur"",""0"",""0""
""focus"",""0"",""0""
""blur"",""0"",""0""
""focus"",""0"",""0""
""blur"",""0"",""0""
""focus"",""1"",""28075""
""blur"",""1"",""28087""
""focus"",""1"",""28175""
""fullscreenenter"",""5"",""39147""
","""event"",""trial"",""time""
""blur"",""0"",""0""
""blur"",""0"",""0""
""blur"",""0"",""0""
""blur"",""1"",""28087""
","""event"",""trial"",""time""
""focus"",""0"",""0""
""focus"",""0"",""0""
""focus"",""0"",""0""
""focus"",""1"",""28075""
""focus"",""1"",""28175""
","""event"",""trial"",""time""
""fullscreenenter"",""5"",""39147""
","
","1353.2000000029802","","49","","","3000","1","","","images/tutgreenplanet.jpg","images/tutalien2","images/tutalien1","images/tutrocket2","images/tutalien1","images/nothing.png","2","practice","true","1","common","0","2022-12-18 19:05:37.844"
"two-step-fixation","81","312858","0.0-61.0-2.6","3129","5287","20","Male","true","false","true","true","""event"",""trial"",""time""
""focus"",""0"",""0""
""blur"",""0"",""0""
""focus"",""0"",""0""
""blur"",""0"",""0""
""focus"",""0"",""0""
""blur"",""0"",""0""
""focus"",""1"",""28075""
""blur"",""1"",""28087""
""focus"",""1"",""28175""
""fullscreenenter"",""5"",""39147""
","""event"",""trial"",""time""
""blur"",""0"",""0""
""blur"",""0"",""0""
""blur"",""0"",""0""
""blur"",""1"",""28087""
","""event"",""trial"",""time""
""focus"",""0"",""0""
""focus"",""0"",""0""
""focus"",""0"",""0""
""focus"",""1"",""28075""
""focus"",""1"",""28175""
","""event"",""trial"",""time""
""fullscreenenter"",""5"",""39147""
","
","","images/earth.jpg","","","","","","","","","","","","","","fixation","","","","","",""
"d3-animate-choice","82","315090","0.0-61.0-0.7","3129","5287","20","Male","true","false","true","true","""event"",""trial"",""time""
""focus"",""0"",""0""
""blur"",""0"",""0""
""focus"",""0"",""0""
""blur"",""0"",""0""
""focus"",""0"",""0""
""blur"",""0"",""0""
""focus"",""1"",""28075""
""blur"",""1"",""28087""
""focus"",""1"",""28175""
""fullscreenenter"",""5"",""39147""
","""event"",""trial"",""time""
""blur"",""0"",""0""
""blur"",""0"",""0""
""blur"",""0"",""0""
""blur"",""1"",""28087""
","""event"",""trial"",""time""
""focus"",""0"",""0""
""focus"",""0"",""0""
""focus"",""0"",""0""
""focus"",""1"",""28075""
""focus"",""1"",""28175""
","""event"",""trial"",""time""
""fullscreenenter"",""5"",""39147""
","
","226.09999999403954","","49","","","3000","1","","","images/earth.jpg","images/tutrocket1","images/tutrocket2","null","images/tutrocket2","","1","practice","null","1","","",""
"d3-animate-choice","83","317634","0.0-61.0-1.7","3129","5287","20","Male","true","false","true","true","""event"",""trial"",""time""
""focus"",""0"",""0""
""blur"",""0"",""0""
""focus"",""0"",""0""
""blur"",""0"",""0""
""focus"",""0"",""0""
""blur"",""0"",""0""
""focus"",""1"",""28075""
""blur"",""1"",""28087""
""focus"",""1"",""28175""
""fullscreenenter"",""5"",""39147""
","""event"",""trial"",""time""
""blur"",""0"",""0""
""blur"",""0"",""0""
""blur"",""0"",""0""
""blur"",""1"",""28087""
","""event"",""trial"",""time""
""focus"",""0"",""0""
""focus"",""0"",""0""
""focus"",""0"",""0""
""focus"",""1"",""28075""
""focus"",""1"",""28175""
","""event"",""trial"",""time""
""fullscreenenter"",""5"",""39147""
","
","536.5","","48","","","3000","1","","","images/tutgreenplanet.jpg","images/tutalien2","images/tutalien1","images/tutrocket2","images/tutalien2","images/t.png","2","practice","true","2","common","1","2022-12-18 19:05:43.627"
"two-step-fixation","84","318642","0.0-61.0-2.7","3129","5287","20","Male","true","false","true","true","""event"",""trial"",""time""
""focus"",""0"",""0""
""blur"",""0"",""0""
""focus"",""0"",""0""
""blur"",""0"",""0""
""focus"",""0"",""0""
""blur"",""0"",""0""
""focus"",""1"",""28075""
""blur"",""1"",""28087""
""focus"",""1"",""28175""
""fullscreenenter"",""5"",""39147""
","""event"",""trial"",""time""
""blur"",""0"",""0""
""blur"",""0"",""0""
""blur"",""0"",""0""
""blur"",""1"",""28087""
","""event"",""trial"",""time""
""focus"",""0"",""0""
""focus"",""0"",""0""
""focus"",""0"",""0""
""focus"",""1"",""28075""
""focus"",""1"",""28175""
","""event"",""trial"",""time""
""fullscreenenter"",""5"",""39147""
","
","","images/earth.jpg","","","","","","","","","","","","","","fixation","","","","","",""
"d3-animate-choice","85","321666","0.0-61.0-0.8","3129","5287","20","Male","true","false","true","true","""event"",""trial"",""time""
""focus"",""0"",""0""
""blur"",""0"",""0""
""focus"",""0"",""0""
""blur"",""0"",""0""
""focus"",""0"",""0""
""blur"",""0"",""0""
""focus"",""1"",""28075""
""blur"",""1"",""28087""
""focus"",""1"",""28175""
""fullscreenenter"",""5"",""39147""
","""event"",""trial"",""time""
""blur"",""0"",""0""
""blur"",""0"",""0""
""blur"",""0"",""0""
""blur"",""1"",""28087""
","""event"",""trial"",""time""
""focus"",""0"",""0""
""focus"",""0"",""0""
""focus"",""0"",""0""
""focus"",""1"",""28075""
""focus"",""1"",""28175""
","""event"",""trial"",""time""
""fullscreenenter"",""5"",""39147""
","
","305.40000000596046","","50","","","3000","1","1016.7000000029802","48","images/earth.jpg","images/tutrocket1","images/tutrocket2","null","images/tutrocket1","","1","practice","null","","","",""
"d3-animate-choice","86","324482","0.0-61.0-1.8","3129","5287","20","Male","true","false","true","true","""event"",""trial"",""time""
""focus"",""0"",""0""
""blur"",""0"",""0""
""focus"",""0"",""0""
""blur"",""0"",""0""
""focus"",""0"",""0""
""blur"",""0"",""0""
""focus"",""1"",""28075""
""blur"",""1"",""28087""
""focus"",""1"",""28175""
""fullscreenenter"",""5"",""39147""
","""event"",""trial"",""time""
""blur"",""0"",""0""
""blur"",""0"",""0""
""blur"",""0"",""0""
""blur"",""1"",""28087""
","""event"",""trial"",""time""
""focus"",""0"",""0""
""focus"",""0"",""0""
""focus"",""0"",""0""
""focus"",""1"",""28075""
""focus"",""1"",""28175""
","""event"",""trial"",""time""
""fullscreenenter"",""5"",""39147""
","
","811","","49","","","3000","1","","","images/tutyellowplanet.jpg","images/tutalien4","images/tutalien3","images/tutrocket1","images/tutalien3","images/nothing.png","2","practice","true","1","common","0","2022-12-18 19:05:50.475"
"two-step-fixation","87","325490","0.0-61.0-2.8","3129","5287","20","Male","true","false","true","true","""event"",""trial"",""time""
""focus"",""0"",""0""
""blur"",""0"",""0""
""focus"",""0"",""0""
""blur"",""0"",""0""
""focus"",""0"",""0""
""blur"",""0"",""0""
""focus"",""1"",""28075""
""blur"",""1"",""28087""
""focus"",""1"",""28175""
""fullscreenenter"",""5"",""39147""
","""event"",""trial"",""time""
""blur"",""0"",""0""
""blur"",""0"",""0""
""blur"",""0"",""0""
""blur"",""1"",""28087""
","""event"",""trial"",""time""
""focus"",""0"",""0""
""focus"",""0"",""0""
""focus"",""0"",""0""
""focus"",""1"",""28075""
""focus"",""1"",""28175""
","""event"",""trial"",""time""
""fullscreenenter"",""5"",""39147""
","
","","images/earth.jpg","","","","","","","","","","","","","","fixation","","","","","",""
"d3-animate-choice","88","327722","0.0-61.0-0.9","3129","5287","20","Male","true","false","true","true","""event"",""trial"",""time""
""focus"",""0"",""0""
""blur"",""0"",""0""
""focus"",""0"",""0""
""blur"",""0"",""0""
""focus"",""0"",""0""
""blur"",""0"",""0""
""focus"",""1"",""28075""
""blur"",""1"",""28087""
""focus"",""1"",""28175""
""fullscreenenter"",""5"",""39147""
","""event"",""trial"",""time""
""blur"",""0"",""0""
""blur"",""0"",""0""
""blur"",""0"",""0""
""blur"",""1"",""28087""
","""event"",""trial"",""time""
""focus"",""0"",""0""
""focus"",""0"",""0""
""focus"",""0"",""0""
""focus"",""1"",""28075""
""focus"",""1"",""28175""
","""event"",""trial"",""time""
""fullscreenenter"",""5"",""39147""
","
","224.70000000298023","","48","","","3000","1","","","images/earth.jpg","images/tutrocket1","images/tutrocket2","null","images/tutrocket1","","1","practice","null","2","","",""
"d3-animate-choice","89","330091","0.0-61.0-1.9","3129","5287","20","Male","true","false","true","true","""event"",""trial"",""time""
""focus"",""0"",""0""
""blur"",""0"",""0""
""focus"",""0"",""0""
""blur"",""0"",""0""
""focus"",""0"",""0""
""blur"",""0"",""0""
""focus"",""1"",""28075""
""blur"",""1"",""28087""
""focus"",""1"",""28175""
""fullscreenenter"",""5"",""39147""
","""event"",""trial"",""time""
""blur"",""0"",""0""
""blur"",""0"",""0""
""blur"",""0"",""0""
""blur"",""1"",""28087""
","""event"",""trial"",""time""
""focus"",""0"",""0""
""focus"",""0"",""0""
""focus"",""0"",""0""
""focus"",""1"",""28075""
""focus"",""1"",""28175""
","""event"",""trial"",""time""
""fullscreenenter"",""5"",""39147""
","
","358.29999999701977","","48","","","3000","1","","","images/tutyellowplanet.jpg","images/tutalien4","images/tutalien3","images/tutrocket1","images/tutalien4","images/t.png","2","practice","true","2","common","1","2022-12-18 19:05:56.084"
"two-step-fixation","90","331099","0.0-61.0-2.9","3129","5287","20","Male","true","false","true","true","""event"",""trial"",""time""
""focus"",""0"",""0""
""blur"",""0"",""0""
""focus"",""0"",""0""
""blur"",""0"",""0""
""focus"",""0"",""0""
""blur"",""0"",""0""
""focus"",""1"",""28075""
""blur"",""1"",""28087""
""focus"",""1"",""28175""
""fullscreenenter"",""5"",""39147""
","""event"",""trial"",""time""
""blur"",""0"",""0""
""blur"",""0"",""0""
""blur"",""0"",""0""
""blur"",""1"",""28087""
","""event"",""trial"",""time""
""focus"",""0"",""0""
""focus"",""0"",""0""
""focus"",""0"",""0""
""focus"",""1"",""28075""
""focus"",""1"",""28175""
","""event"",""trial"",""time""
""fullscreenenter"",""5"",""39147""
","
","","images/earth.jpg","","","","","","","","","","","","","","fixation","","","","","",""
"d3-animate-choice","91","333209","0.0-61.0-0.10","3129","5287","20","Male","true","false","true","true","""event"",""trial"",""time""
""focus"",""0"",""0""
""blur"",""0"",""0""
""focus"",""0"",""0""
""blur"",""0"",""0""
""focus"",""0"",""0""
""blur"",""0"",""0""
""focus"",""1"",""28075""
""blur"",""1"",""28087""
""focus"",""1"",""28175""
""fullscreenenter"",""5"",""39147""
","""event"",""trial"",""time""
""blur"",""0"",""0""
""blur"",""0"",""0""
""blur"",""0"",""0""
""blur"",""1"",""28087""
","""event"",""trial"",""time""
""focus"",""0"",""0""
""focus"",""0"",""0""
""focus"",""0"",""0""
""focus"",""1"",""28075""
""focus"",""1"",""28175""
","""event"",""trial"",""time""
""fullscreenenter"",""5"",""39147""
","
","106.5","","48","","","3000","1","","","images/earth.jpg","images/tutrocket1","images/tutrocket2","null","images/tutrocket1","","1","practice","null","2","","",""
"d3-animate-choice","92","335506","0.0-61.0-1.10","3129","5287","20","Male","true","false","true","true","""event"",""trial"",""time""
""focus"",""0"",""0""
""blur"",""0"",""0""
""focus"",""0"",""0""
""blur"",""0"",""0""
""focus"",""0"",""0""
""blur"",""0"",""0""
""focus"",""1"",""28075""
""blur"",""1"",""28087""
""focus"",""1"",""28175""
""fullscreenenter"",""5"",""39147""
","""event"",""trial"",""time""
""blur"",""0"",""0""
""blur"",""0"",""0""
""blur"",""0"",""0""
""blur"",""1"",""28087""
","""event"",""trial"",""time""
""focus"",""0"",""0""
""focus"",""0"",""0""
""focus"",""0"",""0""
""focus"",""1"",""28075""
""focus"",""1"",""28175""
","""event"",""trial"",""time""
""fullscreenenter"",""5"",""39147""
","
","290.29999999701977","","48","","","3000","1","","","images/tutyellowplanet.jpg","images/tutalien4","images/tutalien3","images/tutrocket1","images/tutalien4","images/t.png","2","practice","true","2","common","1","2022-12-18 19:06:01.500"
"two-step-fixation","93","336515","0.0-61.0-2.10","3129","5287","20","Male","true","false","true","true","""event"",""trial"",""time""
""focus"",""0"",""0""
""blur"",""0"",""0""
""focus"",""0"",""0""
""blur"",""0"",""0""
""focus"",""0"",""0""
""blur"",""0"",""0""
""focus"",""1"",""28075""
""blur"",""1"",""28087""
""focus"",""1"",""28175""
""fullscreenenter"",""5"",""39147""
","""event"",""trial"",""time""
""blur"",""0"",""0""
""blur"",""0"",""0""
""blur"",""0"",""0""
""blur"",""1"",""28087""
","""event"",""trial"",""time""
""focus"",""0"",""0""
""focus"",""0"",""0""
""focus"",""0"",""0""
""focus"",""1"",""28075""
""focus"",""1"",""28175""
","""event"",""trial"",""time""
""fullscreenenter"",""5"",""39147""
","
","","images/earth.jpg","","","","","","","","","","","","","","fixation","","","","","",""
"d3-animate-choice","94","338595","0.0-61.0-0.11","3129","5287","20","Male","true","false","true","true","""event"",""trial"",""time""
""focus"",""0"",""0""
""blur"",""0"",""0""
""focus"",""0"",""0""
""blur"",""0"",""0""
""focus"",""0"",""0""
""blur"",""0"",""0""
""focus"",""1"",""28075""
""blur"",""1"",""28087""
""focus"",""1"",""28175""
""fullscreenenter"",""5"",""39147""
","""event"",""trial"",""time""
""blur"",""0"",""0""
""blur"",""0"",""0""
""blur"",""0"",""0""
""blur"",""1"",""28087""
","""event"",""trial"",""time""
""focus"",""0"",""0""
""focus"",""0"",""0""
""focus"",""0"",""0""
""focus"",""1"",""28075""
""focus"",""1"",""28175""
","""event"",""trial"",""time""
""fullscreenenter"",""5"",""39147""
","
","71.20000000298023","","48","","","3000","1","289.79999999701977,507.59999999403954,738.5,932.5,1128.9000000059605,1330.2000000029802,1564.0999999940395","48,48,48,48,48,48,48","images/earth.jpg","images/tutrocket1","images/tutrocket2","null","images/tutrocket1","","1","practice","null","2","","",""
"d3-animate-choice","95","340913","0.0-61.0-1.11","3129","5287","20","Male","true","false","true","true","""event"",""trial"",""time""
""focus"",""0"",""0""
""blur"",""0"",""0""
""focus"",""0"",""0""
""blur"",""0"",""0""
""focus"",""0"",""0""
""blur"",""0"",""0""
""focus"",""1"",""28075""
""blur"",""1"",""28087""
""focus"",""1"",""28175""
""fullscreenenter"",""5"",""39147""
","""event"",""trial"",""time""
""blur"",""0"",""0""
""blur"",""0"",""0""
""blur"",""0"",""0""
""blur"",""1"",""28087""
","""event"",""trial"",""time""
""focus"",""0"",""0""
""focus"",""0"",""0""
""focus"",""0"",""0""
""focus"",""1"",""28075""
""focus"",""1"",""28175""
","""event"",""trial"",""time""
""fullscreenenter"",""5"",""39147""
","
","315.80000001192093","","48","","","3000","1","498.6000000089407,727.1000000089407,916.4000000059605,1092.6000000089407,1519.9000000059605,1710.800000011921,1930.5,2124.7000000029802,2316.5","48,48,48,48,48,48,48,48,48","images/tutyellowplanet.jpg","images/tutalien4","images/tutalien3","images/tutrocket1","images/tutalien4","images/t.png","2","practice","true","2","common","1","2022-12-18 19:06:06.906"
"two-step-fixation","96","341916","0.0-61.0-2.11","3129","5287","20","Male","true","false","true","true","""event"",""trial"",""time""
""focus"",""0"",""0""
""blur"",""0"",""0""
""focus"",""0"",""0""
""blur"",""0"",""0""
""focus"",""0"",""0""
""blur"",""0"",""0""
""focus"",""1"",""28075""
""blur"",""1"",""28087""
""focus"",""1"",""28175""
""fullscreenenter"",""5"",""39147""
","""event"",""trial"",""time""
""blur"",""0"",""0""
""blur"",""0"",""0""
""blur"",""0"",""0""
""blur"",""1"",""28087""
","""event"",""trial"",""time""
""focus"",""0"",""0""
""focus"",""0"",""0""
""focus"",""0"",""0""
""focus"",""1"",""28075""
""focus"",""1"",""28175""
","""event"",""trial"",""time""
""fullscreenenter"",""5"",""39147""
","
","","images/earth.jpg","","","","","","","","","","","","","","fixation","","","","","",""
"d3-animate-choice","97","344022","0.0-61.0-0.12","3129","5287","20","Male","true","false","true","true","""event"",""trial"",""time""
""focus"",""0"",""0""
""blur"",""0"",""0""
""focus"",""0"",""0""
""blur"",""0"",""0""
""focus"",""0"",""0""
""blur"",""0"",""0""
""focus"",""1"",""28075""
""blur"",""1"",""28087""
""focus"",""1"",""28175""
""fullscreenenter"",""5"",""39147""
","""event"",""trial"",""time""
""blur"",""0"",""0""
""blur"",""0"",""0""
""blur"",""0"",""0""
""blur"",""1"",""28087""
","""event"",""trial"",""time""
""focus"",""0"",""0""
""focus"",""0"",""0""
""focus"",""0"",""0""
""focus"",""1"",""28075""
""focus"",""1"",""28175""
","""event"",""trial"",""time""
""fullscreenenter"",""5"",""39147""
","
","102.5","","48","","","3000","1","307.90000000596046,515.7999999970198,728.7999999970198,947.1000000089407,1136.4000000059605,1347.1000000089407,1559.9000000059605,1786.6000000089407,1998.7999999970198","48,48,48,48,48,48,48,48,48","images/earth.jpg","images/tutrocket1","images/tutrocket2","null","images/tutrocket1","","1","practice","null","2","","",""
"d3-animate-choice","98","346170","0.0-61.0-1.12","3129","5287","20","Male","true","false","true","true","""event"",""trial"",""time""
""focus"",""0"",""0""
""blur"",""0"",""0""
""focus"",""0"",""0""
""blur"",""0"",""0""
""focus"",""0"",""0""
""blur"",""0"",""0""
""focus"",""1"",""28075""
""blur"",""1"",""28087""
""focus"",""1"",""28175""
""fullscreenenter"",""5"",""39147""
","""event"",""trial"",""time""
""blur"",""0"",""0""
""blur"",""0"",""0""
""blur"",""0"",""0""
""blur"",""1"",""28087""
","""event"",""trial"",""time""
""focus"",""0"",""0""
""focus"",""0"",""0""
""focus"",""0"",""0""
""focus"",""1"",""28075""
""focus"",""1"",""28175""
","""event"",""trial"",""time""
""fullscreenenter"",""5"",""39147""
","
","139.79999999701977","","48","","","3000","1","362.70000000298023,576.7999999970198,799.5999999940395,1039.0999999940395,1265.7999999970198,1522.5999999940395,1801.7000000029802","48,48,48,48,48,48,48","images/tutyellowplanet.jpg","images/tutalien4","images/tutalien3","images/tutrocket1","images/tutalien4","images/nothing.png","2","practice","true","2","common","0","2022-12-18 19:06:12.164"
"two-step-fixation","99","347175","0.0-61.0-2.12","3129","5287","20","Male","true","false","true","true","""event"",""trial"",""time""
""focus"",""0"",""0""
""blur"",""0"",""0""
""focus"",""0"",""0""
""blur"",""0"",""0""
""focus"",""0"",""0""
""blur"",""0"",""0""
""focus"",""1"",""28075""
""blur"",""1"",""28087""
""focus"",""1"",""28175""
""fullscreenenter"",""5"",""39147""
","""event"",""trial"",""time""
""blur"",""0"",""0""
""blur"",""0"",""0""
""blur"",""0"",""0""
""blur"",""1"",""28087""
","""event"",""trial"",""time""
""focus"",""0"",""0""
""focus"",""0"",""0""
""focus"",""0"",""0""
""focus"",""1"",""28075""
""focus"",""1"",""28175""
","""event"",""trial"",""time""
""fullscreenenter"",""5"",""39147""
","
","","images/earth.jpg","","","","","","","","","","","","","","fixation","","","","","",""
"d3-animate-choice","100","349259","0.0-61.0-0.13","3129","5287","20","Male","true","false","true","true","""event"",""trial"",""time""
""focus"",""0"",""0""
""blur"",""0"",""0""
""focus"",""0"",""0""
""blur"",""0"",""0""
""focus"",""0"",""0""
""blur"",""0"",""0""
""focus"",""1"",""28075""
""blur"",""1"",""28087""
""focus"",""1"",""28175""
""fullscreenenter"",""5"",""39147""
","""event"",""trial"",""time""
""blur"",""0"",""0""
""blur"",""0"",""0""
""blur"",""0"",""0""
""blur"",""1"",""28087""
","""event"",""trial"",""time""
""focus"",""0"",""0""
""focus"",""0"",""0""
""focus"",""0"",""0""
""focus"",""1"",""28075""
""focus"",""1"",""28175""
","""event"",""trial"",""time""
""fullscreenenter"",""5"",""39147""
","
","78.8999999910593","","48","","","3000","1","286.3999999910593,577.7000000029802,787.8999999910593,1004.5999999940395,1308.7000000029802,1521.2999999970198,1762.8999999910593,1984.0999999940395","48,48,48,48,48,48,48,48","images/earth.jpg","images/tutrocket1","images/tutrocket2","null","images/tutrocket1","","1","practice","null","2","","",""
"d3-animate-choice","101","351402","0.0-61.0-1.13","3129","5287","20","Male","true","false","true","true","""event"",""trial"",""time""
""focus"",""0"",""0""
""blur"",""0"",""0""
""focus"",""0"",""0""
""blur"",""0"",""0""
""focus"",""0"",""0""
""blur"",""0"",""0""
""focus"",""1"",""28075""
""blur"",""1"",""28087""
""focus"",""1"",""28175""
""fullscreenenter"",""5"",""39147""
","""event"",""trial"",""time""
""blur"",""0"",""0""
""blur"",""0"",""0""
""blur"",""0"",""0""
""blur"",""1"",""28087""
","""event"",""trial"",""time""
""focus"",""0"",""0""
""focus"",""0"",""0""
""focus"",""0"",""0""
""focus"",""1"",""28075""
""focus"",""1"",""28175""
","""event"",""trial"",""time""
""fullscreenenter"",""5"",""39147""
","
","137.1000000089407","","48","","","3000","1","331.79999999701977,650.9000000059605,2013.1000000089407","48,48,48","images/tutgreenplanet.jpg","images/tutalien2","images/tutalien1","images/tutrocket1","images/tutalien2","images/t.png","2","practice","false","2","rare","1","2022-12-18 19:06:17.395"
"two-step-fixation","102","352410","0.0-61.0-2.13","3129","5287","20","Male","true","false","true","true","""event"",""trial"",""time""
""focus"",""0"",""0""
""blur"",""0"",""0""
""focus"",""0"",""0""
""blur"",""0"",""0""
""focus"",""0"",""0""
""blur"",""0"",""0""
""focus"",""1"",""28075""
""blur"",""1"",""28087""
""focus"",""1"",""28175""
""fullscreenenter"",""5"",""39147""
","""event"",""trial"",""time""
""blur"",""0"",""0""
""blur"",""0"",""0""
""blur"",""0"",""0""
""blur"",""1"",""28087""
","""event"",""trial"",""time""
""focus"",""0"",""0""
""focus"",""0"",""0""
""focus"",""0"",""0""
""focus"",""1"",""28075""
""focus"",""1"",""28175""
","""event"",""trial"",""time""
""fullscreenenter"",""5"",""39147""
","
","","images/earth.jpg","","","","","","","","","","","","","","fixation","","","","","",""
"d3-animate-choice","103","354646","0.0-61.0-0.14","3129","5287","20","Male","true","false","true","true","""event"",""trial"",""time""
""focus"",""0"",""0""
""blur"",""0"",""0""
""focus"",""0"",""0""
""blur"",""0"",""0""
""focus"",""0"",""0""
""blur"",""0"",""0""
""focus"",""1"",""28075""
""blur"",""1"",""28087""
""focus"",""1"",""28175""
""fullscreenenter"",""5"",""39147""
","""event"",""trial"",""time""
""blur"",""0"",""0""
""blur"",""0"",""0""
""blur"",""0"",""0""
""blur"",""1"",""28087""
","""event"",""trial"",""time""
""focus"",""0"",""0""
""focus"",""0"",""0""
""focus"",""0"",""0""
""focus"",""1"",""28075""
""focus"",""1"",""28175""
","""event"",""trial"",""time""
""fullscreenenter"",""5"",""39147""
","
","230.09999999403954","","48","","","3000","1","402.79999999701977","48","images/earth.jpg","images/tutrocket1","images/tutrocket2","null","images/tutrocket1","","1","practice","null","2","","",""
"d3-animate-choice","104","357107","0.0-61.0-1.14","3129","5287","20","Male","true","false","true","true","""event"",""trial"",""time""
""focus"",""0"",""0""
""blur"",""0"",""0""
""focus"",""0"",""0""
""blur"",""0"",""0""
""focus"",""0"",""0""
""blur"",""0"",""0""
""focus"",""1"",""28075""
""blur"",""1"",""28087""
""focus"",""1"",""28175""
""fullscreenenter"",""5"",""39147""
","""event"",""trial"",""time""
""blur"",""0"",""0""
""blur"",""0"",""0""
""blur"",""0"",""0""
""blur"",""1"",""28087""
","""event"",""trial"",""time""
""focus"",""0"",""0""
""focus"",""0"",""0""
""focus"",""0"",""0""
""focus"",""1"",""28075""
""focus"",""1"",""28175""
","""event"",""trial"",""time""
""fullscreenenter"",""5"",""39147""
","
","457.29999999701977","","48","","","3000","1","","","images/tutgreenplanet.jpg","images/tutalien2","images/tutalien1","images/tutrocket1","images/tutalien2","images/nothing.png","2","practice","false","2","rare","0","2022-12-18 19:06:23.100"
"two-step-fixation","105","358113","0.0-61.0-2.14","3129","5287","20","Male","true","false","true","true","""event"",""trial"",""time""
""focus"",""0"",""0""
""blur"",""0"",""0""
""focus"",""0"",""0""
""blur"",""0"",""0""
""focus"",""0"",""0""
""blur"",""0"",""0""
""focus"",""1"",""28075""
""blur"",""1"",""28087""
""focus"",""1"",""28175""
""fullscreenenter"",""5"",""39147""
","""event"",""trial"",""time""
""blur"",""0"",""0""
""blur"",""0"",""0""
""blur"",""0"",""0""
""blur"",""1"",""28087""
","""event"",""trial"",""time""
""focus"",""0"",""0""
""focus"",""0"",""0""
""focus"",""0"",""0""
""focus"",""1"",""28075""
""focus"",""1"",""28175""
","""event"",""trial"",""time""
""fullscreenenter"",""5"",""39147""
","
","","images/earth.jpg","","","","","","","","","","","","","","fixation","","","","","",""
"d3-animate-choice","106","360210","0.0-61.0-0.15","3129","5287","20","Male","true","false","true","true","""event"",""trial"",""time""
""focus"",""0"",""0""
""blur"",""0"",""0""
""focus"",""0"",""0""
""blur"",""0"",""0""
""focus"",""0"",""0""
""blur"",""0"",""0""
""focus"",""1"",""28075""
""blur"",""1"",""28087""
""focus"",""1"",""28175""
""fullscreenenter"",""5"",""39147""
","""event"",""trial"",""time""
""blur"",""0"",""0""
""blur"",""0"",""0""
""blur"",""0"",""0""
""blur"",""1"",""28087""
","""event"",""trial"",""time""
""focus"",""0"",""0""
""focus"",""0"",""0""
""focus"",""0"",""0""
""focus"",""1"",""28075""
""focus"",""1"",""28175""
","""event"",""trial"",""time""
""fullscreenenter"",""5"",""39147""
","
","89.70000000298023","","49","","","3000","1","","","images/earth.jpg","images/tutrocket1","images/tutrocket2","null","images/tutrocket2","","1","practice","null","1","","",""
"d3-animate-choice","107","362651","0.0-61.0-1.15","3129","5287","20","Male","true","false","true","true","""event"",""trial"",""time""
""focus"",""0"",""0""
""blur"",""0"",""0""
""focus"",""0"",""0""
""blur"",""0"",""0""
""focus"",""0"",""0""
""blur"",""0"",""0""
""focus"",""1"",""28075""
""blur"",""1"",""28087""
""focus"",""1"",""28175""
""fullscreenenter"",""5"",""39147""
","""event"",""trial"",""time""
""blur"",""0"",""0""
""blur"",""0"",""0""
""blur"",""0"",""0""
""blur"",""1"",""28087""
","""event"",""trial"",""time""
""focus"",""0"",""0""
""focus"",""0"",""0""
""focus"",""0"",""0""
""focus"",""1"",""28075""
""focus"",""1"",""28175""
","""event"",""trial"",""time""
""fullscreenenter"",""5"",""39147""
","
","437.5","","48","","","3000","1","","","images/tutgreenplanet.jpg","images/tutalien2","images/tutalien1","images/tutrocket2","images/tutalien2","images/t.png","2","practice","true","2","common","1","2022-12-18 19:06:28.644"
"two-step-fixation","108","363655","0.0-61.0-2.15","3129","5287","20","Male","true","false","true","true","""event"",""trial"",""time""
""focus"",""0"",""0""
""blur"",""0"",""0""
""focus"",""0"",""0""
""blur"",""0"",""0""
""focus"",""0"",""0""
""blur"",""0"",""0""
""focus"",""1"",""28075""
""blur"",""1"",""28087""
""focus"",""1"",""28175""
""fullscreenenter"",""5"",""39147""
","""event"",""trial"",""time""
""blur"",""0"",""0""
""blur"",""0"",""0""
""blur"",""0"",""0""
""blur"",""1"",""28087""
","""event"",""trial"",""time""
""focus"",""0"",""0""
""focus"",""0"",""0""
""focus"",""0"",""0""
""focus"",""1"",""28075""
""focus"",""1"",""28175""
","""event"",""trial"",""time""
""fullscreenenter"",""5"",""39147""
","
","","images/earth.jpg","","","","","","","","","","","","","","fixation","","","","","",""
"d3-animate-choice","109","365811","0.0-61.0-0.16","3129","5287","20","Male","true","false","true","true","""event"",""trial"",""time""
""focus"",""0"",""0""
""blur"",""0"",""0""
""focus"",""0"",""0""
""blur"",""0"",""0""
""focus"",""0"",""0""
""blur"",""0"",""0""
""focus"",""1"",""28075""
""blur"",""1"",""28087""
""focus"",""1"",""28175""
""fullscreenenter"",""5"",""39147""
","""event"",""trial"",""time""
""blur"",""0"",""0""
""blur"",""0"",""0""
""blur"",""0"",""0""
""blur"",""1"",""28087""
","""event"",""trial"",""time""
""focus"",""0"",""0""
""focus"",""0"",""0""
""focus"",""0"",""0""
""focus"",""1"",""28075""
""focus"",""1"",""28175""
","""event"",""trial"",""time""
""fullscreenenter"",""5"",""39147""
","
","149.79999999701977","","48","","","3000","1","","","images/earth.jpg","images/tutrocket1","images/tutrocket2","null","images/tutrocket1","","1","practice","null","2","","",""
"d3-animate-choice","110","368393","0.0-61.0-1.16","3129","5287","20","Male","true","false","true","true","""event"",""trial"",""time""
""focus"",""0"",""0""
""blur"",""0"",""0""
""focus"",""0"",""0""
""blur"",""0"",""0""
""focus"",""0"",""0""
""blur"",""0"",""0""
""focus"",""1"",""28075""
""blur"",""1"",""28087""
""focus"",""1"",""28175""
""fullscreenenter"",""5"",""39147""
","""event"",""trial"",""time""
""blur"",""0"",""0""
""blur"",""0"",""0""
""blur"",""0"",""0""
""blur"",""1"",""28087""
","""event"",""trial"",""time""
""focus"",""0"",""0""
""focus"",""0"",""0""
""focus"",""0"",""0""
""focus"",""1"",""28075""
""focus"",""1"",""28175""
","""event"",""trial"",""time""
""fullscreenenter"",""5"",""39147""
","
","576.9000000059605","","49","","","3000","1","2580","48","images/tutyellowplanet.jpg","images/tutalien4","images/tutalien3","images/tutrocket1","images/tutalien3","images/nothing.png","2","practice","true","1","common","0","2022-12-18 19:06:34.387"
