"trial_type","trial_index","time_elapsed","internal_node_id","participant_id","subject_id","age","gender","rocket_sides","red_planet_first_rocket","red_display_order","purple_display_order","interactions","blur_events","focus_events","fullscreenenter_events","fullscreenexit_events","rt","stimulus","key_press","button_pressed","success","duration","valid_pressed","rts","keys","planet_text","right_text","left_text","center_text","chosen_text","reward_text","trial_stage","practice_trial","transition_type","choice","transition","reward","timestamp"
"pavlovia","0","2","0.0-0.0","3875","7682","24","Male","true","true","false","false","
","
","
","
","
","","","","","","","","","","","","","","","","","","","","","",""
"html-keyboard-response","1","5876","0.0-1.0","3875","7682","24","Male","true","true","false","false","
","
","
","
","
","5873","Welcome! Press the space bar to begin.","32","","","","","","","","","","","","","","","","","","",""
"audio-keyboard-response","2","8660","0.0-2.0","3875","7682","24","Male","true","true","false","false","
","
","
","
","
","2381","audio/beep_loop.wav","32","","","","","","","","","","","","","","","","","","",""
"audio-button-response","3","14843","0.0-3.0","3875","7682","24","Male","true","true","false","false","
","
","
","
","
","NaN","audio/fish.mp3","","1","","","","","","","","","","","","","","","","","",""
"audio-button-response","4","17312","0.0-4.0","3875","7682","24","Male","true","true","false","false","""event"",""trial"",""time""
""fullscreenenter"",""5"",""19894""
","
","
","""event"",""trial"",""time""
""fullscreenenter"",""5"",""19894""
","
","NaN","audio/tiger.mp3","","4","","","","","","","","","","","","","","","","","",""
"fullscreen","5","20880","0.0-5.0","3875","7682","24","Male","true","true","false","false","""event"",""trial"",""time""
""fullscreenenter"",""5"",""19894""
","
","
","""event"",""trial"",""time""
""fullscreenenter"",""5"",""19894""
","
","","","","","true","","","","","","","","","","","","","","","","",""
"d3-instructions","6","29506","0.0-6.0","3875","7682","24","Male","true","true","false","false","""event"",""trial"",""time""
""fullscreenenter"",""5"",""19894""
","
","
","""event"",""trial"",""time""
""fullscreenenter"",""5"",""19894""
","
","","","","","","","","","","","","","","","","","","","","","",""
"d3-instructions","7","37730","0.0-7.0","3875","7682","24","Male","true","true","false","false","""event"",""trial"",""time""
""fullscreenenter"",""5"",""19894""
","
","
","""event"",""trial"",""time""
""fullscreenenter"",""5"",""19894""
","
","","","","","","","","","","","","","","","","","","","","","",""
"d3-instructions","8","40897","0.0-8.0","3875","7682","24","Male","true","true","false","false","""event"",""trial"",""time""
""fullscreenenter"",""5"",""19894""
","
","
","""event"",""trial"",""time""
""fullscreenenter"",""5"",""19894""
","
","","","","","","","","","","","","","","","","","","","","","",""
"d3-instructions","9","47554","0.0-9.0","3875","7682","24","Male","true","true","false","false","""event"",""trial"",""time""
""fullscreenenter"",""5"",""19894""
","
","
","""event"",""trial"",""time""
""fullscreenenter"",""5"",""19894""
","
","","","","","","","","","","","","","","","","","","","","","",""
"d3-instructions","10","54673","0.0-10.0","3875","7682","24","Male","true","true","false","false","""event"",""trial"",""time""
""fullscreenenter"",""5"",""19894""
","
","
","""event"",""trial"",""time""
""fullscreenenter"",""5"",""19894""
","
","","","","","","","","","","","","","","","","","","","","","",""
"d3-animate-choice","11","57723","0.0-11.0","3875","7682","24","Male","true","true","false","false","""event"",""trial"",""time""
""fullscreenenter"",""5"",""19894""
","
","
","""event"",""trial"",""time""
""fullscreenenter"",""5"",""19894""
","
","1038","","49","","","3000","1","","","images/tutgreenplanet.jpg","images/tutalien1","images/tutalien2","null","images/tutalien2","","NA","practice","null","","","",""
"d3-animate-choice","12","59759","0.0-12.0","3875","7682","24","Male","true","true","false","false","""event"",""trial"",""time""
""fullscreenenter"",""5"",""19894""
","
","
","""event"",""trial"",""time""
""fullscreenenter"",""5"",""19894""
","
","19.5","","49","","","3000","1","1555.1000000238419","48","images/tutgreenplanet.jpg","images/tutalien1","images/tutalien2","null","images/tutalien2","","NA","practice","null","","","",""
"d3-animate-choice","13","61862","0.0-13.0","3875","7682","24","Male","true","true","false","false","""event"",""trial"",""time""
""fullscreenenter"",""5"",""19894""
","
","
","""event"",""trial"",""time""
""fullscreenenter"",""5"",""19894""
","
","94.69999992847443","","48","","","3000","1","","","images/tutgreenplanet.jpg","images/tutalien1","images/tutalien2","null","images/tutalien1","","NA","practice","null","","","",""
"d3-animate-choice","14","64152","0.0-14.0","3875","7682","24","Male","true","true","false","false","""event"",""trial"",""time""
""fullscreenenter"",""5"",""19894""
","
","
","""event"",""trial"",""time""
""fullscreenenter"",""5"",""19894""
","
","282.60000002384186","","49","","","3000","1","","","images/tutgreenplanet.jpg","images/tutalien1","images/tutalien2","null","images/tutalien2","","NA","practice","null","","","",""
"d3-instructions","15","68642","0.0-15.0","3875","7682","24","Male","true","true","false","false","""event"",""trial"",""time""
""fullscreenenter"",""5"",""19894""
","
","
","""event"",""trial"",""time""
""fullscreenenter"",""5"",""19894""
","
","","","","","","","","","","","","","","","","","","","","","",""
"d3-instructions","16","72369","0.0-16.0","3875","7682","24","Male","true","true","false","false","""event"",""trial"",""time""
""fullscreenenter"",""5"",""19894""
","
","
","""event"",""trial"",""time""
""fullscreenenter"",""5"",""19894""
","
","","","","","","","","","","","","","","","","","","","","","",""
"d3-instructions","17","76274","0.0-17.0","3875","7682","24","Male","true","true","false","false","""event"",""trial"",""time""
""fullscreenenter"",""5"",""19894""
","
","
","""event"",""trial"",""time""
""fullscreenenter"",""5"",""19894""
","
","","","","","","","","","","","","","","","","","","","","","",""
"d3-instructions","18","84571","0.0-18.0","3875","7682","24","Male","true","true","false","false","""event"",""trial"",""time""
""fullscreenenter"",""5"",""19894""
","
","
","""event"",""trial"",""time""
""fullscreenenter"",""5"",""19894""
","
","","","","","","","","","","","","","","","","","","","","","",""
"d3-instructions","19","90251","0.0-19.0","3875","7682","24","Male","true","true","false","false","""event"",""trial"",""time""
""fullscreenenter"",""5"",""19894""
","
","
","""event"",""trial"",""time""
""fullscreenenter"",""5"",""19894""
","
","","","","","","","","","","","","","","","","","","","","","",""
"d3-animate-choice","20","93068","0.0-20.0","3875","7682","24","Male","true","true","false","false","""event"",""trial"",""time""
""fullscreenenter"",""5"",""19894""
","
","
","""event"",""trial"",""time""
""fullscreenenter"",""5"",""19894""
","
","811","","49","","","3000","1","1883.3999999761581,2092.399999976158,2235.2999999523163","49,49,49","images/tutyellowplanet.jpg","null","images/tutalien3","null","images/tutalien3","images/t.png","NA","practice","null","","","",""
"d3-animate-choice","21","95356","0.0-21.0","3875","7682","24","Male","true","true","false","false","""event"",""trial"",""time""
""fullscreenenter"",""5"",""19894""
","
","
","""event"",""trial"",""time""
""fullscreenenter"",""5"",""19894""
","
","284.2999999523163","","49","","","3000","1","476.6999999284744,1772.2999999523163,1981.0999999046326,2156.399999976158,2283.6999999284744","49,49,49,49,49","images/tutyellowplanet.jpg","null","images/tutalien3","null","images/tutalien3","images/nothing.png","NA","practice","null","","","",""
"d3-animate-choice","22","97533","0.0-22.0","3875","7682","24","Male","true","true","false","false","""event"",""trial"",""time""
""fullscreenenter"",""5"",""19894""
","
","
","""event"",""trial"",""time""
""fullscreenenter"",""5"",""19894""
","
","171.89999997615814","","49","","","3000","1","333.60000002384186,1532.3000000715256,1725.6000000238419,1884.2000000476837,2061.2000000476837","49,49,49,49,49","images/tutyellowplanet.jpg","null","images/tutalien3","null","images/tutalien3","images/t.png","NA","practice","null","","","",""
"d3-animate-choice","23","99595","0.0-23.0","3875","7682","24","Male","true","true","false","false","""event"",""trial"",""time""
""fullscreenenter"",""5"",""19894""
","
","
","""event"",""trial"",""time""
""fullscreenenter"",""5"",""19894""
","
","58.199999928474426","","49","","","3000","1","234.29999995231628,394,1002,1227.1999999284744,1418.3999999761581,1626.8999999761581,1801.7999999523163,1978.1999999284744","49,49,49,49,49,49,49,49","images/tutyellowplanet.jpg","null","images/tutalien3","null","images/tutalien3","images/t.png","NA","practice","null","","","",""
"d3-animate-choice","24","101728","0.0-24.0","3875","7682","24","Male","true","true","false","false","""event"",""trial"",""time""
""fullscreenenter"",""5"",""19894""
","
","
","""event"",""trial"",""time""
""fullscreenenter"",""5"",""19894""
","
","124.60000002384186","","49","","","3000","1","317.7000000476837,1613.6000000238419,1804,1981.3000000715256","49,49,49,49","images/tutyellowplanet.jpg","null","images/tutalien3","null","images/tutalien3","images/t.png","NA","practice","null","","","",""
"d3-animate-choice","25","103763","0.0-25.0","3875","7682","24","Male","true","true","false","false","""event"",""trial"",""time""
""fullscreenenter"",""5"",""19894""
","
","
","""event"",""trial"",""time""
""fullscreenenter"",""5"",""19894""
","
","24.40000009536743","","49","","","3000","1","201.5,376.10000002384186,665.6000000238419,888.2000000476837,1095.9000000953674,1322.7000000476837,1625.7000000476837,1817.5","49,49,49,49,49,49,49,49","images/tutyellowplanet.jpg","null","images/tutalien3","null","images/tutalien3","images/t.png","NA","practice","null","","","",""
"d3-animate-choice","26","105780","0.0-26.0","3875","7682","24","Male","true","true","false","false","""event"",""trial"",""time""
""fullscreenenter"",""5"",""19894""
","
","
","""event"",""trial"",""time""
""fullscreenenter"",""5"",""19894""
","
","5.700000047683716","","49","","","3000","1","391,1574.3000000715256,1797.9000000953674,1974","49,49,49,49","images/tutyellowplanet.jpg","null","images/tutalien3","null","images/tutalien3","images/nothing.png","NA","practice","null","","","",""
"d3-animate-choice","27","107942","0.0-27.0","3875","7682","24","Male","true","true","false","false","""event"",""trial"",""time""
""fullscreenenter"",""5"",""19894""
","
","
","""event"",""trial"",""time""
""fullscreenenter"",""5"",""19894""
","
","148.70000004768372","","49","","","3000","1","341,1587.7000000476837,1797.1000000238419,2005.3000000715256","49,49,49,49","images/tutyellowplanet.jpg","null","images/tutalien3","null","images/tutalien3","images/t.png","NA","practice","null","","","",""
"d3-animate-choice","28","110349","0.0-28.0","3875","7682","24","Male","true","true","false","false","""event"",""trial"",""time""
""fullscreenenter"",""5"",""19894""
","
","
","""event"",""trial"",""time""
""fullscreenenter"",""5"",""19894""
","
","402.7000000476837","","49","","","3000","1","1490.8000000715256,1907.5,2146.399999976158,2369.7000000476837","49,49,49,49","images/tutyellowplanet.jpg","null","images/tutalien3","null","images/tutalien3","images/t.png","NA","practice","null","","","",""
"d3-animate-choice","29","112535","0.0-29.0","3875","7682","24","Male","true","true","false","false","""event"",""trial"",""time""
""fullscreenenter"",""5"",""19894""
","
","
","""event"",""trial"",""time""
""fullscreenenter"",""5"",""19894""
","
","172.39999997615814","","49","","","3000","1","396.60000002384186,571.2999999523163,700.3999999761581,908.2999999523163,1100.6999999284744,1275.3999999761581,1452.6999999284744,1629,1787.2999999523163","49,49,49,49,49,49,49,49,49","images/tutyellowplanet.jpg","null","images/tutalien3","null","images/tutalien3","images/t.png","NA","practice","null","","","",""
"d3-instructions","30","115818","0.0-30.0","3875","7682","24","Male","true","true","false","false","""event"",""trial"",""time""
""fullscreenenter"",""5"",""19894""
","
","
","""event"",""trial"",""time""
""fullscreenenter"",""5"",""19894""
","
","","","","","","","","","","","","","","","","","","","","","",""
"d3-instructions","31","117995","0.0-31.0","3875","7682","24","Male","true","true","false","false","""event"",""trial"",""time""
""fullscreenenter"",""5"",""19894""
","
","
","""event"",""trial"",""time""
""fullscreenenter"",""5"",""19894""
","
","","","","","","","","","","","","","","","","","","","","","",""
"d3-instructions","32","119882","0.0-32.0","3875","7682","24","Male","true","true","false","false","""event"",""trial"",""time""
""fullscreenenter"",""5"",""19894""
","
","
","""event"",""trial"",""time""
""fullscreenenter"",""5"",""19894""
","
","","","","","","","","","","","","","","","","","","","","","",""
"d3-instructions","33","121465","0.0-33.0","3875","7682","24","Male","true","true","false","false","""event"",""trial"",""time""
""fullscreenenter"",""5"",""19894""
","
","
","""event"",""trial"",""time""
""fullscreenenter"",""5"",""19894""
","
","","","","","","","","","","","","","","","","","","","","","",""
"d3-animate-choice","34","124138","0.0-34.0","3875","7682","24","Male","true","true","false","false","""event"",""trial"",""time""
""fullscreenenter"",""5"",""19894""
","
","
","""event"",""trial"",""time""
""fullscreenenter"",""5"",""19894""
","
","655.4000000953674","","49","","","3000","1","","","images/tutgreenplanet.jpg","images/tutalien1","images/tutalien2","null","images/tutalien2","images/t.png","NA","practice","null","","","",""
"d3-animate-choice","35","126345","0.0-35.0","3875","7682","24","Male","true","true","false","false","""event"",""trial"",""time""
""fullscreenenter"",""5"",""19894""
","
","
","""event"",""trial"",""time""
""fullscreenenter"",""5"",""19894""
","
","191.09999990463257","","49","","","3000","1","1630.3999999761581,1887,2095.1999999284744","49,49,49","images/tutgreenplanet.jpg","images/tutalien1","images/tutalien2","null","images/tutalien2","images/t.png","NA","practice","null","","","",""
"d3-animate-choice","36","128418","0.0-36.0","3875","7682","24","Male","true","true","false","false","""event"",""trial"",""time""
""fullscreenenter"",""5"",""19894""
","
","
","""event"",""trial"",""time""
""fullscreenenter"",""5"",""19894""
","
","62.700000047683716","","49","","","3000","1","223.5,1679.7000000476837,1871.4000000953674,2031.5","49,49,49,49","images/tutgreenplanet.jpg","images/tutalien1","images/tutalien2","null","images/tutalien2","images/t.png","NA","practice","null","","","",""
"d3-animate-choice","37","130564","0.0-37.0","3875","7682","24","Male","true","true","false","false","""event"",""trial"",""time""
""fullscreenenter"",""5"",""19894""
","
","
","""event"",""trial"",""time""
""fullscreenenter"",""5"",""19894""
","
","135","","49","","","3000","1","325.7999999523163,1911.0999999046326,2085.7999999523163","49,49,49","images/tutgreenplanet.jpg","images/tutalien1","images/tutalien2","null","images/tutalien2","images/t.png","NA","practice","null","","","",""
"d3-animate-choice","38","132672","0.0-38.0","3875","7682","24","Male","true","true","false","false","""event"",""trial"",""time""
""fullscreenenter"",""5"",""19894""
","
","
","""event"",""trial"",""time""
""fullscreenenter"",""5"",""19894""
","
","101.39999997615814","","49","","","3000","1","276.59999990463257,1508.5,1716.2999999523163,1878.0999999046326,2053.399999976158","49,49,49,49,49","images/tutgreenplanet.jpg","images/tutalien1","images/tutalien2","null","images/tutalien2","images/t.png","NA","practice","null","","","",""
"d3-animate-choice","39","134782","0.0-39.0","3875","7682","24","Male","true","true","false","false","""event"",""trial"",""time""
""fullscreenenter"",""5"",""19894""
","
","
","""event"",""trial"",""time""
""fullscreenenter"",""5"",""19894""
","
","103.80000007152557","","49","","","3000","1","488.10000002384186,650.2000000476837,838.8000000715256,1014.9000000953674,1207.9000000953674,1366.5,1559.1000000238419,1702.9000000953674,1863.5,2039","49,49,49,49,49,49,49,49,49,49","images/tutgreenplanet.jpg","images/tutalien1","images/tutalien2","null","images/tutalien2","images/t.png","NA","practice","null","","","",""
"d3-animate-choice","40","136891","0.0-40.0","3875","7682","24","Male","true","true","false","false","""event"",""trial"",""time""
""fullscreenenter"",""5"",""19894""
","
","
","""event"",""trial"",""time""
""fullscreenenter"",""5"",""19894""
","
","106","","49","","","3000","1","265.2000000476837,426.2000000476837,620.7999999523163,793.8999999761581,1145.6000000238419,1289.2999999523163,1450.5,1640.7000000476837,1786.2999999523163,1961.7999999523163","49,49,49,49,49,49,49,49,49,49","images/tutgreenplanet.jpg","images/tutalien1","images/tutalien2","null","images/tutalien2","images/t.png","NA","practice","null","","","",""
"d3-animate-choice","41","138922","0.0-41.0","3875","7682","24","Male","true","true","false","false","""event"",""trial"",""time""
""fullscreenenter"",""5"",""19894""
","
","
","""event"",""trial"",""time""
""fullscreenenter"",""5"",""19894""
","
","27.199999928474426","","49","","","3000","1","1403.3999999761581,1596.5999999046326,1804.2999999523163","49,49,49","images/tutgreenplanet.jpg","images/tutalien1","images/tutalien2","null","images/tutalien2","images/t.png","NA","practice","null","","","",""
"d3-animate-choice","42","141466","0.0-42.0","3875","7682","24","Male","true","true","false","false","""event"",""trial"",""time""
""fullscreenenter"",""5"",""19894""
","
","
","""event"",""trial"",""time""
""fullscreenenter"",""5"",""19894""
","
","543.1000000238419","","49","","","3000","1","738.3000000715256,943.6000000238419,1870.9000000953674,2112.5,2302.7000000476837","49,49,49,49,49","images/tutgreenplanet.jpg","images/tutalien1","images/tutalien2","null","images/tutalien2","images/nothing.png","NA","practice","null","","","",""
"d3-animate-choice","43","143742","0.0-43.0","3875","7682","24","Male","true","true","false","false","""event"",""trial"",""time""
""fullscreenenter"",""5"",""19894""
","
","
","""event"",""trial"",""time""
""fullscreenenter"",""5"",""19894""
","
","269.3000000715256","","49","","","3000","1","1677.3000000715256,1900.8000000715256,2124.2000000476837","49,49,49","images/tutgreenplanet.jpg","images/tutalien1","images/tutalien2","null","images/tutalien2","images/t.png","NA","practice","null","","","",""
"d3-instructions","44","148371","0.0-44.0","3875","7682","24","Male","true","true","false","false","""event"",""trial"",""time""
""fullscreenenter"",""5"",""19894""
","
","
","""event"",""trial"",""time""
""fullscreenenter"",""5"",""19894""
","
","","","","","","","","","","","","","","","","","","","","","",""
"d3-instructions","45","150643","0.0-45.0","3875","7682","24","Male","true","true","false","false","""event"",""trial"",""time""
""fullscreenenter"",""5"",""19894""
","
","
","""event"",""trial"",""time""
""fullscreenenter"",""5"",""19894""
","
","","","","","","","","","","","","","","","","","","","","","",""
"d3-instructions","46","151876","0.0-46.0","3875","7682","24","Male","true","true","false","false","""event"",""trial"",""time""
""fullscreenenter"",""5"",""19894""
","
","
","""event"",""trial"",""time""
""fullscreenenter"",""5"",""19894""
","
","","","","","","","","","","","","","","","","","","","","","",""
"d3-instructions","47","161269","0.0-47.0","3875","7682","24","Male","true","true","false","false","""event"",""trial"",""time""
""fullscreenenter"",""5"",""19894""
","
","
","""event"",""trial"",""time""
""fullscreenenter"",""5"",""19894""
","
","","","","","","","","","","","","","","","","","","","","","",""
"d3-instructions","48","164355","0.0-48.0","3875","7682","24","Male","true","true","false","false","""event"",""trial"",""time""
""fullscreenenter"",""5"",""19894""
","
","
","""event"",""trial"",""time""
""fullscreenenter"",""5"",""19894""
","
","","","","","","","","","","","","","","","","","","","","","",""
"d3-instructions","49","168803","0.0-49.0","3875","7682","24","Male","true","true","false","false","""event"",""trial"",""time""
""fullscreenenter"",""5"",""19894""
","
","
","""event"",""trial"",""time""
""fullscreenenter"",""5"",""19894""
","
","","","","","","","","","","","","","","","","","","","","","",""
"d3-instructions","50","171443","0.0-50.0","3875","7682","24","Male","true","true","false","false","""event"",""trial"",""time""
""fullscreenenter"",""5"",""19894""
","
","
","""event"",""trial"",""time""
""fullscreenenter"",""5"",""19894""
","
","","","","","","","","","","","","","","","","","","","","","",""
"d3-instructions","51","175205","0.0-51.0","3875","7682","24","Male","true","true","false","false","""event"",""trial"",""time""
""fullscreenenter"",""5"",""19894""
","
","
","""event"",""trial"",""time""
""fullscreenenter"",""5"",""19894""
","
","","","","","","","","","","","","","","","","","","","","","",""
"d3-instructions","52","178245","0.0-52.0","3875","7682","24","Male","true","true","false","false","""event"",""trial"",""time""
""fullscreenenter"",""5"",""19894""
","
","
","""event"",""trial"",""time""
""fullscreenenter"",""5"",""19894""
","
","","","","","","","","","","","","","","","","","","","","","",""
"d3-instructions","53","183957","0.0-53.0","3875","7682","24","Male","true","true","false","false","""event"",""trial"",""time""
""fullscreenenter"",""5"",""19894""
","
","
","""event"",""trial"",""time""
""fullscreenenter"",""5"",""19894""
","
","","","","","","","","","","","","","","","","","","","","","",""
"d3-instructions","54","196467","0.0-54.0","3875","7682","24","Male","true","true","false","false","""event"",""trial"",""time""
""fullscreenenter"",""5"",""19894""
","
","
","""event"",""trial"",""time""
""fullscreenenter"",""5"",""19894""
","
","","","","","","","","","","","","","","","","","","","","","",""
"d3-instructions","55","199699","0.0-55.0","3875","7682","24","Male","true","true","false","false","""event"",""trial"",""time""
""fullscreenenter"",""5"",""19894""
","
","
","""event"",""trial"",""time""
""fullscreenenter"",""5"",""19894""
","
","","","","","","","","","","","","","","","","","","","","","",""
"d3-instructions","56","202453","0.0-56.0","3875","7682","24","Male","true","true","false","false","""event"",""trial"",""time""
""fullscreenenter"",""5"",""19894""
","
","
","""event"",""trial"",""time""
""fullscreenenter"",""5"",""19894""
","
","","","","","","","","","","","","","","","","","","","","","",""
"d3-instructions","57","206239","0.0-57.0","3875","7682","24","Male","true","true","false","false","""event"",""trial"",""time""
""fullscreenenter"",""5"",""19894""
","
","
","""event"",""trial"",""time""
""fullscreenenter"",""5"",""19894""
","
","","","","","","","","","","","","","","","","","","","","","",""
"d3-instructions","58","210719","0.0-58.0","3875","7682","24","Male","true","true","false","false","""event"",""trial"",""time""
""fullscreenenter"",""5"",""19894""
","
","
","""event"",""trial"",""time""
""fullscreenenter"",""5"",""19894""
","
","","","","","","","","","","","","","","","","","","","","","",""
"d3-instructions","59","212558","0.0-59.0","3875","7682","24","Male","true","true","false","false","""event"",""trial"",""time""
""fullscreenenter"",""5"",""19894""
","
","
","""event"",""trial"",""time""
""fullscreenenter"",""5"",""19894""
","
","","","","","","","","","","","","","","","","","","","","","",""
"d3-instructions","60","214269","0.0-60.0","3875","7682","24","Male","true","true","false","false","""event"",""trial"",""time""
""fullscreenenter"",""5"",""19894""
","
","
","""event"",""trial"",""time""
""fullscreenenter"",""5"",""19894""
","
","","","","","","","","","","","","","","","","","","","","","",""
"d3-animate-choice","61","217058","0.0-61.0-0.0","3875","7682","24","Male","true","true","false","false","""event"",""trial"",""time""
""fullscreenenter"",""5"",""19894""
","
","
","""event"",""trial"",""time""
""fullscreenenter"",""5"",""19894""
","
","786.0999999046326","","49","","","3000","1","","","images/earth.jpg","images/tutrocket1","images/tutrocket2","null","images/tutrocket2","","1","practice","null","1","","",""
"d3-animate-choice","62","220000","0.0-61.0-1.0","3875","7682","24","Male","true","true","false","false","""event"",""trial"",""time""
""fullscreenenter"",""5"",""19894""
","
","
","""event"",""trial"",""time""
""fullscreenenter"",""5"",""19894""
","
","935.5","","49","","","3000","1","","","images/tutgreenplanet.jpg","images/tutalien2","images/tutalien1","images/tutrocket2","images/tutalien1","images/t.png","2","practice","false","1","rare","1","2023-03-10 21:18:37.131"
"two-step-fixation","63","221003","0.0-61.0-2.0","3875","7682","24","Male","true","true","false","false","""event"",""trial"",""time""
""fullscreenenter"",""5"",""19894""
","
","
","""event"",""trial"",""time""
""fullscreenenter"",""5"",""19894""
","
","","images/earth.jpg","","","","","","","","","","","","","","fixation","","","","","",""
"d3-animate-choice","64","224327","0.0-61.0-0.1","3875","7682","24","Male","true","true","false","false","""event"",""trial"",""time""
""fullscreenenter"",""5"",""19894""
","
","
","""event"",""trial"",""time""
""fullscreenenter"",""5"",""19894""
","
","401.89999997615814","","50","","","3000","1","1058.8999999761581,1314.8999999761581","50,49","images/earth.jpg","images/tutrocket1","images/tutrocket2","null","images/tutrocket2","","1","practice","null","","","",""
"d3-animate-choice","65","227488","0.0-61.0-1.1","3875","7682","24","Male","true","true","false","false","""event"",""trial"",""time""
""fullscreenenter"",""5"",""19894""
","
","
","""event"",""trial"",""time""
""fullscreenenter"",""5"",""19894""
","
","726.4000000953674","","50","","","3000","1","1157.2000000476837","49","images/tutyellowplanet.jpg","images/tutalien4","images/tutalien3","images/tutrocket2","images/tutalien3","images/t.png","2","practice","true","","common","1","2023-03-10 21:18:44.619"
"two-step-fixation","66","228493","0.0-61.0-2.1","3875","7682","24","Male","true","true","false","false","""event"",""trial"",""time""
""fullscreenenter"",""5"",""19894""
","
","
","""event"",""trial"",""time""
""fullscreenenter"",""5"",""19894""
","
","","images/earth.jpg","","","","","","","","","","","","","","fixation","","","","","",""
"d3-animate-choice","67","230800","0.0-61.0-0.2","3875","7682","24","Male","true","true","false","false","""event"",""trial"",""time""
""fullscreenenter"",""5"",""19894""
","
","
","""event"",""trial"",""time""
""fullscreenenter"",""5"",""19894""
","
","303.90000009536743","","48","","","3000","1","","","images/earth.jpg","images/tutrocket1","images/tutrocket2","null","images/tutrocket1","","1","practice","null","2","","",""
"d3-animate-choice","68","233360","0.0-61.0-1.2","3875","7682","24","Male","true","true","false","false","""event"",""trial"",""time""
""fullscreenenter"",""5"",""19894""
","
","
","""event"",""trial"",""time""
""fullscreenenter"",""5"",""19894""
","
","557.5","","48","","","3000","1","","","images/tutgreenplanet.jpg","images/tutalien2","images/tutalien1","images/tutrocket1","images/tutalien2","images/nothing.png","2","practice","true","2","common","0","2023-03-10 21:18:50.491"
"two-step-fixation","69","234379","0.0-61.0-2.2","3875","7682","24","Male","true","true","false","false","""event"",""trial"",""time""
""fullscreenenter"",""5"",""19894""
","
","
","""event"",""trial"",""time""
""fullscreenenter"",""5"",""19894""
","
","","images/earth.jpg","","","","","","","","","","","","","","fixation","","","","","",""
"d3-animate-choice","70","237227","0.0-61.0-0.3","3875","7682","24","Male","true","true","false","false","""event"",""trial"",""time""
""fullscreenenter"",""5"",""19894""
","
","
","""event"",""trial"",""time""
""fullscreenenter"",""5"",""19894""
","
","833.2999999523163","","49","","","3000","1","","","images/earth.jpg","images/tutrocket1","images/tutrocket2","null","images/tutrocket2","","1","practice","null","1","","",""
"d3-animate-choice","71","239950","0.0-61.0-1.3","3875","7682","24","Male","true","true","false","false","""event"",""trial"",""time""
""fullscreenenter"",""5"",""19894""
","
","
","""event"",""trial"",""time""
""fullscreenenter"",""5"",""19894""
","
","720.6000000238419","","49","","","3000","1","","","images/tutyellowplanet.jpg","images/tutalien4","images/tutalien3","images/tutrocket2","images/tutalien3","images/t.png","2","practice","true","1","common","1","2023-03-10 21:18:57.081"
"two-step-fixation","72","240956","0.0-61.0-2.3","3875","7682","24","Male","true","true","false","false","""event"",""trial"",""time""
""fullscreenenter"",""5"",""19894""
","
","
","""event"",""trial"",""time""
""fullscreenenter"",""5"",""19894""
","
","","images/earth.jpg","","","","","","","","","","","","","","fixation","","","","","",""
"d3-animate-choice","73","243194","0.0-61.0-0.4","3875","7682","24","Male","true","true","false","false","""event"",""trial"",""time""
""fullscreenenter"",""5"",""19894""
","
","
","""event"",""trial"",""time""
""fullscreenenter"",""5"",""19894""
","
","225.5","","49","","","3000","1","","","images/earth.jpg","images/tutrocket1","images/tutrocket2","null","images/tutrocket2","","1","practice","null","1","","",""
"d3-animate-choice","74","245519","0.0-61.0-1.4","3875","7682","24","Male","true","true","false","false","""event"",""trial"",""time""
""fullscreenenter"",""5"",""19894""
","
","
","""event"",""trial"",""time""
""fullscreenenter"",""5"",""19894""
","
","322.09999990463257","","49","","","3000","1","","","images/tutyellowplanet.jpg","images/tutalien4","images/tutalien3","images/tutrocket2","images/tutalien3","images/nothing.png","2","practice","true","1","common","0","2023-03-10 21:19:02.650"
"two-step-fixation","75","246521","0.0-61.0-2.4","3875","7682","24","Male","true","true","false","false","""event"",""trial"",""time""
""fullscreenenter"",""5"",""19894""
","
","
","""event"",""trial"",""time""
""fullscreenenter"",""5"",""19894""
","
","","images/earth.jpg","","","","","","","","","","","","","","fixation","","","","","",""
"d3-animate-choice","76","248591","0.0-61.0-0.5","3875","7682","24","Male","true","true","false","false","""event"",""trial"",""time""
""fullscreenenter"",""5"",""19894""
","
","
","""event"",""trial"",""time""
""fullscreenenter"",""5"",""19894""
","
","64.70000004768372","","49","","","3000","1","257.89999997615814,2002.6000000238419","49,49","images/earth.jpg","images/tutrocket1","images/tutrocket2","null","images/tutrocket2","","1","practice","null","1","","",""
"d3-animate-choice","77","250712","0.0-61.0-1.5","3875","7682","24","Male","true","true","false","false","""event"",""trial"",""time""
""fullscreenenter"",""5"",""19894""
","
","
","""event"",""trial"",""time""
""fullscreenenter"",""5"",""19894""
","
","107.80000007152557","","49","","","3000","1","285.90000009536743","49","images/tutyellowplanet.jpg","images/tutalien4","images/tutalien3","images/tutrocket2","images/tutalien3","images/nothing.png","2","practice","true","1","common","0","2023-03-10 21:19:07.843"
"two-step-fixation","78","251714","0.0-61.0-2.5","3875","7682","24","Male","true","true","false","false","""event"",""trial"",""time""
""fullscreenenter"",""5"",""19894""
","
","
","""event"",""trial"",""time""
""fullscreenenter"",""5"",""19894""
","
","","images/earth.jpg","","","","","","","","","","","","","","fixation","","","","","",""
"d3-animate-choice","79","253918","0.0-61.0-0.6","3875","7682","24","Male","true","true","false","false","""event"",""trial"",""time""
""fullscreenenter"",""5"",""19894""
","
","
","""event"",""trial"",""time""
""fullscreenenter"",""5"",""19894""
","
","202.60000002384186","","49","","","3000","1","","","images/earth.jpg","images/tutrocket1","images/tutrocket2","null","images/tutrocket2","","1","practice","null","1","","",""
"d3-animate-choice","80","256207","0.0-61.0-1.6","3875","7682","24","Male","true","true","false","false","""event"",""trial"",""time""
""fullscreenenter"",""5"",""19894""
","
","
","""event"",""trial"",""time""
""fullscreenenter"",""5"",""19894""
","
","285.90000009536743","","48","","","3000","1","","","images/tutyellowplanet.jpg","images/tutalien4","images/tutalien3","images/tutrocket2","images/tutalien4","images/t.png","2","practice","true","2","common","1","2023-03-10 21:19:13.338"
"two-step-fixation","81","257214","0.0-61.0-2.6","3875","7682","24","Male","true","true","false","false","""event"",""trial"",""time""
""fullscreenenter"",""5"",""19894""
","
","
","""event"",""trial"",""time""
""fullscreenenter"",""5"",""19894""
","
","","images/earth.jpg","","","","","","","","","","","","","","fixation","","","","","",""
"d3-animate-choice","82","259408","0.0-61.0-0.7","3875","7682","24","Male","true","true","false","false","""event"",""trial"",""time""
""fullscreenenter"",""5"",""19894""
","
","
","""event"",""trial"",""time""
""fullscreenenter"",""5"",""19894""
","
","189.20000004768372","","49","","","3000","1","","","images/earth.jpg","images/tutrocket1","images/tutrocket2","null","images/tutrocket2","","1","practice","null","1","","",""
"d3-animate-choice","83","261729","0.0-61.0-1.7","3875","7682","24","Male","true","true","false","false","""event"",""trial"",""time""
""fullscreenenter"",""5"",""19894""
","
","
","""event"",""trial"",""time""
""fullscreenenter"",""5"",""19894""
","
","314.10000002384186","","48","","","3000","1","","","images/tutyellowplanet.jpg","images/tutalien4","images/tutalien3","images/tutrocket2","images/tutalien4","images/t.png","2","practice","true","2","common","1","2023-03-10 21:19:18.860"
"two-step-fixation","84","262732","0.0-61.0-2.7","3875","7682","24","Male","true","true","false","false","""event"",""trial"",""time""
""fullscreenenter"",""5"",""19894""
","
","
","""event"",""trial"",""time""
""fullscreenenter"",""5"",""19894""
","
","","images/earth.jpg","","","","","","","","","","","","","","fixation","","","","","",""
"d3-animate-choice","85","264972","0.0-61.0-0.8","3875","7682","24","Male","true","true","false","false","""event"",""trial"",""time""
""fullscreenenter"",""5"",""19894""
","
","
","""event"",""trial"",""time""
""fullscreenenter"",""5"",""19894""
","
","239.79999995231628","","49","","","3000","1","","","images/earth.jpg","images/tutrocket1","images/tutrocket2","null","images/tutrocket2","","1","practice","null","1","","",""
"d3-animate-choice","86","267434","0.0-61.0-1.8","3875","7682","24","Male","true","true","false","false","""event"",""trial"",""time""
""fullscreenenter"",""5"",""19894""
","
","
","""event"",""trial"",""time""
""fullscreenenter"",""5"",""19894""
","
","458.09999990463257","","48","","","3000","1","","","images/tutgreenplanet.jpg","images/tutalien2","images/tutalien1","images/tutrocket2","images/tutalien2","images/nothing.png","2","practice","false","2","rare","0","2023-03-10 21:19:24.565"
"two-step-fixation","87","268436","0.0-61.0-2.8","3875","7682","24","Male","true","true","false","false","""event"",""trial"",""time""
""fullscreenenter"",""5"",""19894""
","
","
","""event"",""trial"",""time""
""fullscreenenter"",""5"",""19894""
","
","","images/earth.jpg","","","","","","","","","","","","","","fixation","","","","","",""
"d3-animate-choice","88","270539","0.0-61.0-0.9","3875","7682","24","Male","true","true","false","false","""event"",""trial"",""time""
""fullscreenenter"",""5"",""19894""
","
","
","""event"",""trial"",""time""
""fullscreenenter"",""5"",""19894""
","
","99.69999992847443","","49","","","3000","1","","","images/earth.jpg","images/tutrocket1","images/tutrocket2","null","images/tutrocket2","","1","practice","null","1","","",""
"d3-animate-choice","89","272971","0.0-61.0-1.9","3875","7682","24","Male","true","true","false","false","""event"",""trial"",""time""
""fullscreenenter"",""5"",""19894""
","
","
","""event"",""trial"",""time""
""fullscreenenter"",""5"",""19894""
","
","429.8000000715256","","48","","","3000","1","","","images/tutyellowplanet.jpg","images/tutalien4","images/tutalien3","images/tutrocket2","images/tutalien4","images/t.png","2","practice","true","2","common","1","2023-03-10 21:19:30.102"
"two-step-fixation","90","273974","0.0-61.0-2.9","3875","7682","24","Male","true","true","false","false","""event"",""trial"",""time""
""fullscreenenter"",""5"",""19894""
","
","
","""event"",""trial"",""time""
""fullscreenenter"",""5"",""19894""
","
","","images/earth.jpg","","","","","","","","","","","","","","fixation","","","","","",""
"d3-animate-choice","91","276042","0.0-61.0-0.10","3875","7682","24","Male","true","true","false","false","""event"",""trial"",""time""
""fullscreenenter"",""5"",""19894""
","
","
","""event"",""trial"",""time""
""fullscreenenter"",""5"",""19894""
","
","64","","49","","","3000","1","","","images/earth.jpg","images/tutrocket1","images/tutrocket2","null","images/tutrocket2","","1","practice","null","1","","",""
"d3-animate-choice","92","278668","0.0-61.0-1.10","3875","7682","24","Male","true","true","false","false","""event"",""trial"",""time""
""fullscreenenter"",""5"",""19894""
","
","
","""event"",""trial"",""time""
""fullscreenenter"",""5"",""19894""
","
","621","","48","","","3000","1","","","images/tutyellowplanet.jpg","images/tutalien4","images/tutalien3","images/tutrocket2","images/tutalien4","images/t.png","2","practice","true","2","common","1","2023-03-10 21:19:35.799"
"two-step-fixation","93","279670","0.0-61.0-2.10","3875","7682","24","Male","true","true","false","false","""event"",""trial"",""time""
""fullscreenenter"",""5"",""19894""
","
","
","""event"",""trial"",""time""
""fullscreenenter"",""5"",""19894""
","
","","images/earth.jpg","","","","","","","","","","","","","","fixation","","","","","",""
"d3-animate-choice","94","281929","0.0-61.0-0.11","3875","7682","24","Male","true","true","false","false","""event"",""trial"",""time""
""fullscreenenter"",""5"",""19894""
","
","
","""event"",""trial"",""time""
""fullscreenenter"",""5"",""19894""
","
","253.80000007152557","","49","","","3000","1","","","images/earth.jpg","images/tutrocket1","images/tutrocket2","null","images/tutrocket2","","1","practice","null","1","","",""
"d3-animate-choice","95","284266","0.0-61.0-1.11","3875","7682","24","Male","true","true","false","false","""event"",""trial"",""time""
""fullscreenenter"",""5"",""19894""
","
","
","""event"",""trial"",""time""
""fullscreenenter"",""5"",""19894""
","
","333.39999997615814","","48","","","3000","1","","","images/tutyellowplanet.jpg","images/tutalien4","images/tutalien3","images/tutrocket2","images/tutalien4","images/t.png","2","practice","true","2","common","1","2023-03-10 21:19:41.397"
"two-step-fixation","96","285271","0.0-61.0-2.11","3875","7682","24","Male","true","true","false","false","""event"",""trial"",""time""
""fullscreenenter"",""5"",""19894""
","
","
","""event"",""trial"",""time""
""fullscreenenter"",""5"",""19894""
","
","","images/earth.jpg","","","","","","","","","","","","","","fixation","","","","","",""
"d3-animate-choice","97","287515","0.0-61.0-0.12","3875","7682","24","Male","true","true","false","false","""event"",""trial"",""time""
""fullscreenenter"",""5"",""19894""
","
","
","""event"",""trial"",""time""
""fullscreenenter"",""5"",""19894""
","
","238.30000007152557","","49","","","3000","1","","","images/earth.jpg","images/tutrocket1","images/tutrocket2","null","images/tutrocket2","","1","practice","null","1","","",""
"d3-animate-choice","98","289977","0.0-61.0-1.12","3875","7682","24","Male","true","true","false","false","""event"",""trial"",""time""
""fullscreenenter"",""5"",""19894""
","
","
","""event"",""trial"",""time""
""fullscreenenter"",""5"",""19894""
","
","460.2999999523163","","48","","","3000","1","","","images/tutyellowplanet.jpg","images/tutalien4","images/tutalien3","images/tutrocket2","images/tutalien4","images/t.png","2","practice","true","2","common","1","2023-03-10 21:19:47.108"
"two-step-fixation","99","290983","0.0-61.0-2.12","3875","7682","24","Male","true","true","false","false","""event"",""trial"",""time""
""fullscreenenter"",""5"",""19894""
","
","
","""event"",""trial"",""time""
""fullscreenenter"",""5"",""19894""
","
","","images/earth.jpg","","","","","","","","","","","","","","fixation","","","","","",""
"d3-animate-choice","100","293193","0.0-61.0-0.13","3875","7682","24","Male","true","true","false","false","""event"",""trial"",""time""
""fullscreenenter"",""5"",""19894""
","
","
","""event"",""trial"",""time""
""fullscreenenter"",""5"",""19894""
","
","205.20000004768372","","49","","","3000","1","","","images/earth.jpg","images/tutrocket1","images/tutrocket2","null","images/tutrocket2","","1","practice","null","1","","",""
"d3-animate-choice","101","295594","0.0-61.0-1.13","3875","7682","24","Male","true","true","false","false","""event"",""trial"",""time""
""fullscreenenter"",""5"",""19894""
","
","
","""event"",""trial"",""time""
""fullscreenenter"",""5"",""19894""
","
","398.5","","48","","","3000","1","","","images/tutyellowplanet.jpg","images/tutalien4","images/tutalien3","images/tutrocket2","images/tutalien4","images/nothing.png","2","practice","true","2","common","0","2023-03-10 21:19:52.725"
"two-step-fixation","102","296597","0.0-61.0-2.13","3875","7682","24","Male","true","true","false","false","""event"",""trial"",""time""
""fullscreenenter"",""5"",""19894""
","
","
","""event"",""trial"",""time""
""fullscreenenter"",""5"",""19894""
","
","","images/earth.jpg","","","","","","","","","","","","","","fixation","","","","","",""
"d3-animate-choice","103","299018","0.0-61.0-0.14","3875","7682","24","Male","true","true","false","false","""event"",""trial"",""time""
""fullscreenenter"",""5"",""19894""
","
","
","""event"",""trial"",""time""
""fullscreenenter"",""5"",""19894""
","
","419.2000000476837","","49","","","3000","1","","","images/earth.jpg","images/tutrocket1","images/tutrocket2","null","images/tutrocket2","","1","practice","null","1","","",""
"d3-animate-choice","104","301883","0.0-61.0-1.14","3875","7682","24","Male","true","true","false","false","""event"",""trial"",""time""
""fullscreenenter"",""5"",""19894""
","
","
","""event"",""trial"",""time""
""fullscreenenter"",""5"",""19894""
","
","861.8999999761581","","48","","","3000","1","","","images/tutyellowplanet.jpg","images/tutalien4","images/tutalien3","images/tutrocket2","images/tutalien4","images/nothing.png","2","practice","true","2","common","0","2023-03-10 21:19:59.014"
"two-step-fixation","105","302889","0.0-61.0-2.14","3875","7682","24","Male","true","true","false","false","""event"",""trial"",""time""
""fullscreenenter"",""5"",""19894""
","
","
","""event"",""trial"",""time""
""fullscreenenter"",""5"",""19894""
","
","","images/earth.jpg","","","","","","","","","","","","","","fixation","","","","","",""
"d3-animate-choice","106","305161","0.0-61.0-0.15","3875","7682","24","Male","true","true","false","false","""event"",""trial"",""time""
""fullscreenenter"",""5"",""19894""
","
","
","""event"",""trial"",""time""
""fullscreenenter"",""5"",""19894""
","
","269.89999997615814","","48","","","3000","1","","","images/earth.jpg","images/tutrocket1","images/tutrocket2","null","images/tutrocket1","","1","practice","null","2","","",""
"d3-animate-choice","107","307626","0.0-61.0-1.15","3875","7682","24","Male","true","true","false","false","""event"",""trial"",""time""
""fullscreenenter"",""5"",""19894""
","
","
","""event"",""trial"",""time""
""fullscreenenter"",""5"",""19894""
","
","460.90000009536743","","49","","","3000","1","","","images/tutgreenplanet.jpg","images/tutalien2","images/tutalien1","images/tutrocket1","images/tutalien1","images/nothing.png","2","practice","true","1","common","0","2023-03-10 21:20:04.757"
"two-step-fixation","108","308632","0.0-61.0-2.15","3875","7682","24","Male","true","true","false","false","""event"",""trial"",""time""
""fullscreenenter"",""5"",""19894""
","
","
","""event"",""trial"",""time""
""fullscreenenter"",""5"",""19894""
","
","","images/earth.jpg","","","","","","","","","","","","","","fixation","","","","","",""
"d3-animate-choice","109","310763","0.0-61.0-0.16","3875","7682","24","Male","true","true","false","false","""event"",""trial"",""time""
""fullscreenenter"",""5"",""19894""
","
","
","""event"",""trial"",""time""
""fullscreenenter"",""5"",""19894""
","
","128","","48","","","3000","1","304.2999999523163","48","images/earth.jpg","images/tutrocket1","images/tutrocket2","null","images/tutrocket1","","1","practice","null","2","","",""
"d3-animate-choice","110","313210","0.0-61.0-1.16","3875","7682","24","Male","true","true","false","false","""event"",""trial"",""time""
""fullscreenenter"",""5"",""19894""
","
","
","""event"",""trial"",""time""
""fullscreenenter"",""5"",""19894""
","
","442.1999999284744","","49","","","3000","1","","","images/tutgreenplanet.jpg","images/tutalien2","images/tutalien1","images/tutrocket1","images/tutalien1","images/t.png","2","practice","true","1","common","1","2023-03-10 21:20:10.341"
"two-step-fixation","111","314215","0.0-61.0-2.16","3875","7682","24","Male","true","true","false","false","""event"",""trial"",""time""
""fullscreenenter"",""5"",""19894""
","
","
","""event"",""trial"",""time""
""fullscreenenter"",""5"",""19894""
","
","","images/earth.jpg","","","","","","","","","","","","","","fixation","","","","","",""
"d3-animate-choice","112","316362","0.0-61.0-0.17","3875","7682","24","Male","true","true","false","false","""event"",""trial"",""time""
""fullscreenenter"",""5"",""19894""
","
","
","""event"",""trial"",""time""
""fullscreenenter"",""5"",""19894""
","
","143.5","","48","","","3000","1","335.8000000715256","48","images/earth.jpg","images/tutrocket1","images/tutrocket2","null","images/tutrocket1","","1","practice","null","2","","",""
"d3-animate-choice","113","318729","0.0-61.0-1.17","3875","7682","24","Male","true","true","false","false","""event"",""trial"",""time""
""fullscreenenter"",""5"",""19894""
","
","
","""event"",""trial"",""time""
""fullscreenenter"",""5"",""19894""
","
","365.2000000476837","","49","","","3000","1","","","images/tutgreenplanet.jpg","images/tutalien2","images/tutalien1","images/tutrocket1","images/tutalien1","images/nothing.png","2","practice","true","1","common","0","2023-03-10 21:20:15.860"
"two-step-fixation","114","319734","0.0-61.0-2.17","3875","7682","24","Male","true","true","false","false","""event"",""trial"",""time""
""fullscreenenter"",""5"",""19894""
","
","
","""event"",""trial"",""time""
""fullscreenenter"",""5"",""19894""
","
","","images/earth.jpg","","","","","","","","","","","","","","fixation","","","","","",""
"d3-animate-choice","115","321899","0.0-61.0-0.18","3875","7682","24","Male","true","true","false","false","""event"",""trial"",""time""
""fullscreenenter"",""5"",""19894""
","
","
","""event"",""trial"",""time""
""fullscreenenter"",""5"",""19894""
","
","161.89999997615814","","48","","","3000","1","321.10000002384186,1728.8999999761581,2112.600000023842","48,48,48","images/earth.jpg","images/tutrocket1","images/tutrocket2","null","images/tutrocket1","","1","practice","null","2","","",""
"d3-animate-choice","116","324075","0.0-61.0-1.18","3875","7682","24","Male","true","true","false","false","""event"",""trial"",""time""
""fullscreenenter"",""5"",""19894""
","
","
","""event"",""trial"",""time""
""fullscreenenter"",""5"",""19894""
","
","173.20000004768372","","48","","","3000","1","380.7999999523163,652.1000000238419","48,48","images/tutgreenplanet.jpg","images/tutalien2","images/tutalien1","images/tutrocket1","images/tutalien2","images/nothing.png","2","practice","true","2","common","0","2023-03-10 21:20:21.206"
"two-step-fixation","117","325077","0.0-61.0-2.18","3875","7682","24","Male","true","true","false","false","""event"",""trial"",""time""
""fullscreenenter"",""5"",""19894""
","
","
","""event"",""trial"",""time""
""fullscreenenter"",""5"",""19894""
","
","","images/earth.jpg","","","","","","","","","","","","","","fixation","","","","","",""
"d3-animate-choice","118","327175","0.0-61.0-0.19","3875","7682","24","Male","true","true","false","false","""event"",""trial"",""time""
""fullscreenenter"",""5"",""19894""
","
","
","""event"",""trial"",""time""
""fullscreenenter"",""5"",""19894""
","
","93.10000002384186","","48","","","3000","1","253.10000002384186","48","images/earth.jpg","images/tutrocket1","images/tutrocket2","null","images/tutrocket1","","1","practice","null","2","","",""
"d3-animate-choice","119","330918","0.0-61.0-1.19","3875","7682","24","Male","true","true","false","false","""event"",""trial"",""time""
""fullscreenenter"",""5"",""19894""
","
","
","""event"",""trial"",""time""
""fullscreenenter"",""5"",""19894""
","
","1741","","48","","","3000","1","","","images/tutyellowplanet.jpg","images/tutalien4","images/tutalien3","images/tutrocket1","images/tutalien4","images/nothing.png","2","practice","false","2","rare","0","2023-03-10 21:20:28.049"
"two-step-fixation","120","331921","0.0-61.0-2.19","3875","7682","24","Male","true","true","false","false","""event"",""trial"",""time""
""fullscreenenter"",""5"",""19894""
","
","
","""event"",""trial"",""time""
""fullscreenenter"",""5"",""19894""
","
","","images/earth.jpg","","","","","","","","","","","","","","fixation","","","","","",""
"d3-instructions","121","334535","0.0-62.0","3875","7682","24","Male","true","true","false","false","""event"",""trial"",""time""
""fullscreenenter"",""5"",""19894""
","
","
","""event"",""trial"",""time""
""fullscreenenter"",""5"",""19894""
","
","","","","","","","","","","","","","","","","","","","","","",""
"audio-keyboard-response","122","336247","0.0-63.0","3875","7682","24","Male","true","true","false","false","""event"",""trial"",""time""
""fullscreenenter"",""5"",""19894""
","
","
","""event"",""trial"",""time""
""fullscreenenter"",""5"",""19894""
","
","1709","audio/instructions/treasure_feedback.wav","32","","","","","","","","","","","","","","","","","","",""
"d3-instructions","123","342500","0.0-64.0","3875","7682","24","Male","true","true","false","false","""event"",""trial"",""time""
""fullscreenenter"",""5"",""19894""
","
","
","""event"",""trial"",""time""
""fullscreenenter"",""5"",""19894""
","
","","","","","","","","","","","","","","","","","","","","","",""
"d3-instructions","124","351975","0.0-65.0","3875","7682","24","Male","true","true","false","false","""event"",""trial"",""time""
""fullscreenenter"",""5"",""19894""
","
","
","""event"",""trial"",""time""
""fullscreenenter"",""5"",""19894""
","
","","","","","","","","","","","","","","","","","","","","","",""
"d3-instructions","125","368149","0.0-66.0","3875","7682","24","Male","true","true","false","false","""event"",""trial"",""time""
""fullscreenenter"",""5"",""19894""
","
","
","""event"",""trial"",""time""
""fullscreenenter"",""5"",""19894""
","
","","","","","","","","","","","","","","","","","","","","","",""
"d3-instructions","126","374342","0.0-67.0","3875","7682","24","Male","true","true","false","false","""event"",""trial"",""time""
""fullscreenenter"",""5"",""19894""
","
","
","""event"",""trial"",""time""
""fullscreenenter"",""5"",""19894""
","
","","","","","","","","","","","","","","","","","","","","","",""
"d3-instructions","127","377381","0.0-68.0","3875","7682","24","Male","true","true","false","false","""event"",""trial"",""time""
""fullscreenenter"",""5"",""19894""
","
","
","""event"",""trial"",""time""
""fullscreenenter"",""5"",""19894""
","
","","","","","","","","","","","","","","","","","","","","","",""
"instructions-quiz","128","380381","0.0-69.0","3875","7682","24","Male","true","true","false","false","""event"",""trial"",""time""
""fullscreenenter"",""5"",""19894""
","
","
","""event"",""trial"",""time""
""fullscreenenter"",""5"",""19894""
","
","2998.7000000476837","audio/quiz/Q1_Prompt.wav","","1","","","","","","","","","","","","","","","","","",""
"audio-keyboard-response","129","381078","0.0-70.0","3875","7682","24","Male","true","true","false","false","""event"",""trial"",""time""
""fullscreenenter"",""5"",""19894""
","
","
","""event"",""trial"",""time""
""fullscreenenter"",""5"",""19894""
","
","691","audio/quiz/Q1_Correct.wav","32","","","","","","","","","","","","","","","","","","",""
"instructions-quiz","130","386757","0.0-71.0","3875","7682","24","Male","true","true","false","false","""event"",""trial"",""time""
""fullscreenenter"",""5"",""19894""
","
","
","""event"",""trial"",""time""
""fullscreenenter"",""5"",""19894""
","
","5677.300000071526","audio/quiz/Q2_Prompt.wav","","0","","","","","","","","","","","","","","","","","",""
"audio-keyboard-response","131","387558","0.0-72.0","3875","7682","24","Male","true","true","false","false","""event"",""trial"",""time""
""fullscreenenter"",""5"",""19894""
","
","
","""event"",""trial"",""time""
""fullscreenenter"",""5"",""19894""
","
","800","audio/quiz/Q2_Correct.wav","32","","","","","","","","","","","","","","","","","","",""
"instructions-quiz","132","390197","0.0-73.0","3875","7682","24","Male","true","true","false","false","""event"",""trial"",""time""
""fullscreenenter"",""5"",""19894""
","
","
","""event"",""trial"",""time""
""fullscreenenter"",""5"",""19894""
","
","2637.2000000476837","audio/quiz/Q3_Prompt.wav","","1","","","","","","","","","","","","","","","","","",""
"audio-keyboard-response","133","390389","0.0-74.0","3875","7682","24","Male","true","true","false","false","""event"",""trial"",""time""
""fullscreenenter"",""5"",""19894""
","
","
","""event"",""trial"",""time""
""fullscreenenter"",""5"",""19894""
","
","189","audio/quiz/Q3_Correct.wav","32","","","","","","","","","","","","","","","","","","",""
"d3-instructions","134","393093","0.0-75.0","3875","7682","24","Male","true","true","false","false","""event"",""trial"",""time""
""fullscreenenter"",""5"",""19894""
","
","
","""event"",""trial"",""time""
""fullscreenenter"",""5"",""19894""
","
","","","","","","","","","","","","","","","","","","","","","",""
"pavlovia","135","393095","0.0-76.0","3875","7682","24","Male","true","true","false","false","""event"",""trial"",""time""
""fullscreenenter"",""5"",""19894""
","
","
","""event"",""trial"",""time""
""fullscreenenter"",""5"",""19894""
","
","","","","","","","","","","","","","","","","","","","","","",""
"d3-animate-choice","136","396134","0.0-77.0-0.0","3875","7682","24","Male","true","true","false","false","""event"",""trial"",""time""
""fullscreenenter"",""5"",""19894""
","
","
","""event"",""trial"",""time""
""fullscreenenter"",""5"",""19894""
","
","1035.3999999761581","","49","","","3000","1","","","images/earth.jpg","images/rocket2","images/rocket1","null","images/rocket1","","1","real","null","1","","",""
"d3-animate-choice","137","398710","0.0-77.0-1.0","3875","7682","24","Male","true","true","false","false","""event"",""trial"",""time""
""fullscreenenter"",""5"",""19894""
","
","
","""event"",""trial"",""time""
""fullscreenenter"",""5"",""19894""
","
","572.7999999523163","","49","","","3000","1","","","images/redplanet1.jpg","images/alien2","images/alien1","images/rocket1","images/alien1","images/nothing.png","2","real","true","1","common","0","2023-03-10 21:21:35.841"
"two-step-fixation","138","399713","0.0-77.0-2.0","3875","7682","24","Male","true","true","false","false","""event"",""trial"",""time""
""fullscreenenter"",""5"",""19894""
","
","
","""event"",""trial"",""time""
""fullscreenenter"",""5"",""19894""
","
","","images/earth.jpg","","","","","","","","","","","","","","fixation","","","","","",""
"d3-animate-choice","139","402053","0.0-77.0-0.1","3875","7682","24","Male","true","true","false","false","""event"",""trial"",""time""
""fullscreenenter"",""5"",""19894""
","
","
","""event"",""trial"",""time""
""fullscreenenter"",""5"",""19894""
","
","338","","49","","","3000","1","","","images/earth.jpg","images/rocket2","images/rocket1","null","images/rocket1","","1","real","null","1","","",""
"d3-animate-choice","140","404516","0.0-77.0-1.1","3875","7682","24","Male","true","true","false","false","""event"",""trial"",""time""
""fullscreenenter"",""5"",""19894""
","
","
","""event"",""trial"",""time""
""fullscreenenter"",""5"",""19894""
","
","446.40000009536743","","49","","","3000","1","","","images/redplanet1.jpg","images/alien2","images/alien1","images/rocket1","images/alien1","images/t.png","2","real","true","1","common","1","2023-03-10 21:21:41.647"
"two-step-fixation","141","405521","0.0-77.0-2.1","3875","7682","24","Male","true","true","false","false","""event"",""trial"",""time""
""fullscreenenter"",""5"",""19894""
","
","
","""event"",""trial"",""time""
""fullscreenenter"",""5"",""19894""
","
","","images/earth.jpg","","","","","","","","","","","","","","fixation","","","","","",""
"d3-animate-choice","142","407782","0.0-77.0-0.2","3875","7682","24","Male","true","true","false","false","""event"",""trial"",""time""
""fullscreenenter"",""5"",""19894""
","
","
","""event"",""trial"",""time""
""fullscreenenter"",""5"",""19894""
","
","258.7000000476837","","49","","","3000","1","","","images/earth.jpg","images/rocket2","images/rocket1","null","images/rocket1","","1","real","null","1","","",""
"d3-animate-choice","143","410053","0.0-77.0-1.2","3875","7682","24","Male","true","true","false","false","""event"",""trial"",""time""
""fullscreenenter"",""5"",""19894""
","
","
","""event"",""trial"",""time""
""fullscreenenter"",""5"",""19894""
","
","269.09999990463257","","49","","","3000","1","","","images/redplanet1.jpg","images/alien2","images/alien1","images/rocket1","images/alien1","images/t.png","2","real","true","1","common","1","2023-03-10 21:21:47.184"
"two-step-fixation","144","411055","0.0-77.0-2.2","3875","7682","24","Male","true","true","false","false","""event"",""trial"",""time""
""fullscreenenter"",""5"",""19894""
","
","
","""event"",""trial"",""time""
""fullscreenenter"",""5"",""19894""
","
","","images/earth.jpg","","","","","","","","","","","","","","fixation","","","","","",""
"d3-animate-choice","145","413157","0.0-77.0-0.3","3875","7682","24","Male","true","true","false","false","""event"",""trial"",""time""
""fullscreenenter"",""5"",""19894""
","
","
","""event"",""trial"",""time""
""fullscreenenter"",""5"",""19894""
","
","99.69999992847443","","49","","","3000","1","291.7999999523163,2020.6999999284744","49,49","images/earth.jpg","images/rocket2","images/rocket1","null","images/rocket1","","1","real","null","1","","",""
"d3-animate-choice","146","415238","0.0-77.0-1.3","3875","7682","24","Male","true","true","false","false","""event"",""trial"",""time""
""fullscreenenter"",""5"",""19894""
","
","
","""event"",""trial"",""time""
""fullscreenenter"",""5"",""19894""
","
","78.19999992847443","","49","","","3000","1","221.89999997615814","49","images/purpleplanet.jpg","images/alien4","images/alien3","images/rocket1","images/alien3","images/t.png","2","real","false","1","rare","1","2023-03-10 21:21:52.369"
"two-step-fixation","147","416246","0.0-77.0-2.3","3875","7682","24","Male","true","true","false","false","""event"",""trial"",""time""
""fullscreenenter"",""5"",""19894""
","
","
","""event"",""trial"",""time""
""fullscreenenter"",""5"",""19894""
","
","","images/earth.jpg","","","","","","","","","","","","","","fixation","","","","","",""
"d3-animate-choice","148","418488","0.0-77.0-0.4","3875","7682","24","Male","true","true","false","false","""event"",""trial"",""time""
""fullscreenenter"",""5"",""19894""
","
","
","""event"",""trial"",""time""
""fullscreenenter"",""5"",""19894""
","
","238.20000004768372","","49","","","3000","1","","","images/earth.jpg","images/rocket2","images/rocket1","null","images/rocket1","","1","real","null","1","","",""
"d3-animate-choice","149","420806","0.0-77.0-1.4","3875","7682","24","Male","true","true","false","false","""event"",""trial"",""time""
""fullscreenenter"",""5"",""19894""
","
","
","""event"",""trial"",""time""
""fullscreenenter"",""5"",""19894""
","
","316","","49","","","3000","1","","","images/redplanet1.jpg","images/alien2","images/alien1","images/rocket1","images/alien1","images/nothing.png","2","real","true","1","common","0","2023-03-10 21:21:57.938"
"two-step-fixation","150","421809","0.0-77.0-2.4","3875","7682","24","Male","true","true","false","false","""event"",""trial"",""time""
""fullscreenenter"",""5"",""19894""
","
","
","""event"",""trial"",""time""
""fullscreenenter"",""5"",""19894""
","
","","images/earth.jpg","","","","","","","","","","","","","","fixation","","","","","",""
"d3-animate-choice","151","423927","0.0-77.0-0.5","3875","7682","24","Male","true","true","false","false","""event"",""trial"",""time""
""fullscreenenter"",""5"",""19894""
","
","
","""event"",""trial"",""time""
""fullscreenenter"",""5"",""19894""
","
","115.60000002384186","","49","","","3000","1","","","images/earth.jpg","images/rocket2","images/rocket1","null","images/rocket1","","1","real","null","1","","",""
"d3-animate-choice","152","426184","0.0-77.0-1.5","3875","7682","24","Male","true","true","false","false","""event"",""trial"",""time""
""fullscreenenter"",""5"",""19894""
","
","
","""event"",""trial"",""time""
""fullscreenenter"",""5"",""19894""
","
","253.09999990463257","","49","","","3000","1","","","images/redplanet1.jpg","images/alien2","images/alien1","images/rocket1","images/alien1","images/t.png","2","real","true","1","common","1","2023-03-10 21:22:03.315"
"two-step-fixation","153","427186","0.0-77.0-2.5","3875","7682","24","Male","true","true","false","false","""event"",""trial"",""time""
""fullscreenenter"",""5"",""19894""
","
","
","""event"",""trial"",""time""
""fullscreenenter"",""5"",""19894""
","
","","images/earth.jpg","","","","","","","","","","","","","","fixation","","","","","",""
"d3-animate-choice","154","429304","0.0-77.0-0.6","3875","7682","24","Male","true","true","false","false","""event"",""trial"",""time""
""fullscreenenter"",""5"",""19894""
","
","
","""event"",""trial"",""time""
""fullscreenenter"",""5"",""19894""
","
","112.80000007152557","","49","","","3000","1","254.70000004768372","49","images/earth.jpg","images/rocket2","images/rocket1","null","images/rocket1","","1","real","null","1","","",""
"d3-animate-choice","155","431575","0.0-77.0-1.6","3875","7682","24","Male","true","true","false","false","""event"",""trial"",""time""
""fullscreenenter"",""5"",""19894""
","
","
","""event"",""trial"",""time""
""fullscreenenter"",""5"",""19894""
","
","266.2999999523163","","49","","","3000","1","","","images/purpleplanet.jpg","images/alien4","images/alien3","images/rocket1","images/alien3","images/t.png","2","real","false","1","rare","1","2023-03-10 21:22:08.706"
"two-step-fixation","156","432577","0.0-77.0-2.6","3875","7682","24","Male","true","true","false","false","""event"",""trial"",""time""
""fullscreenenter"",""5"",""19894""
","
","
","""event"",""trial"",""time""
""fullscreenenter"",""5"",""19894""
","
","","images/earth.jpg","","","","","","","","","","","","","","fixation","","","","","",""
"d3-animate-choice","157","434742","0.0-77.0-0.7","3875","7682","24","Male","true","true","false","false","""event"",""trial"",""time""
""fullscreenenter"",""5"",""19894""
","
","
","""event"",""trial"",""time""
""fullscreenenter"",""5"",""19894""
","
","159.90000009536743","","49","","","3000","1","2050.4000000953674","49","images/earth.jpg","images/rocket2","images/rocket1","null","images/rocket1","","1","real","null","1","","",""
"d3-animate-choice","158","436998","0.0-77.0-1.7","3875","7682","24","Male","true","true","false","false","""event"",""trial"",""time""
""fullscreenenter"",""5"",""19894""
","
","
","""event"",""trial"",""time""
""fullscreenenter"",""5"",""19894""
","
","252.80000007152557","","49","","","3000","1","","","images/purpleplanet.jpg","images/alien4","images/alien3","images/rocket1","images/alien3","images/nothing.png","2","real","false","1","rare","0","2023-03-10 21:22:14.130"
"two-step-fixation","159","438001","0.0-77.0-2.7","3875","7682","24","Male","true","true","false","false","""event"",""trial"",""time""
""fullscreenenter"",""5"",""19894""
","
","
","""event"",""trial"",""time""
""fullscreenenter"",""5"",""19894""
","
","","images/earth.jpg","","","","","","","","","","","","","","fixation","","","","","",""
"d3-animate-choice","160","440823","0.0-77.0-0.8","3875","7682","24","Male","true","true","false","false","""event"",""trial"",""time""
""fullscreenenter"",""5"",""19894""
","
","
","""event"",""trial"",""time""
""fullscreenenter"",""5"",""19894""
","
","817.3999999761581","","49","","","3000","1","","","images/earth.jpg","images/rocket2","images/rocket1","null","images/rocket1","","1","real","null","1","","",""
"d3-animate-choice","161","443127","0.0-77.0-1.8","3875","7682","24","Male","true","true","false","false","""event"",""trial"",""time""
""fullscreenenter"",""5"",""19894""
","
","
","""event"",""trial"",""time""
""fullscreenenter"",""5"",""19894""
","
","300.6999999284744","","49","","","3000","1","","","images/purpleplanet.jpg","images/alien4","images/alien3","images/rocket1","images/alien3","images/t.png","2","real","false","1","rare","1","2023-03-10 21:22:20.258"
"two-step-fixation","162","444133","0.0-77.0-2.8","3875","7682","24","Male","true","true","false","false","""event"",""trial"",""time""
""fullscreenenter"",""5"",""19894""
","
","
","""event"",""trial"",""time""
""fullscreenenter"",""5"",""19894""
","
","","images/earth.jpg","","","","","","","","","","","","","","fixation","","","","","",""
"d3-animate-choice","163","446215","0.0-77.0-0.9","3875","7682","24","Male","true","true","false","false","""event"",""trial"",""time""
""fullscreenenter"",""5"",""19894""
","
","
","""event"",""trial"",""time""
""fullscreenenter"",""5"",""19894""
","
","76.80000007152557","","49","","","3000","1","","","images/earth.jpg","images/rocket2","images/rocket1","null","images/rocket1","","1","real","null","1","","",""
"d3-animate-choice","164","448826","0.0-77.0-1.9","3875","7682","24","Male","true","true","false","false","""event"",""trial"",""time""
""fullscreenenter"",""5"",""19894""
","
","
","""event"",""trial"",""time""
""fullscreenenter"",""5"",""19894""
","
","606.6000000238419","","49","","","3000","1","","","images/purpleplanet.jpg","images/alien4","images/alien3","images/rocket1","images/alien3","images/t.png","2","real","false","1","rare","1","2023-03-10 21:22:25.957"
"two-step-fixation","165","449829","0.0-77.0-2.9","3875","7682","24","Male","true","true","false","false","""event"",""trial"",""time""
""fullscreenenter"",""5"",""19894""
","
","
","""event"",""trial"",""time""
""fullscreenenter"",""5"",""19894""
","
","","images/earth.jpg","","","","","","","","","","","","","","fixation","","","","","",""
"d3-animate-choice","166","452264","0.0-77.0-0.10","3875","7682","24","Male","true","true","false","false","""event"",""trial"",""time""
""fullscreenenter"",""5"",""19894""
","
","
","""event"",""trial"",""time""
""fullscreenenter"",""5"",""19894""
","
","429.60000002384186","","49","","","3000","1","619.9000000953674","49","images/earth.jpg","images/rocket2","images/rocket1","null","images/rocket1","","1","real","null","1","","",""
"d3-animate-choice","167","454549","0.0-77.0-1.10","3875","7682","24","Male","true","true","false","false","""event"",""trial"",""time""
""fullscreenenter"",""5"",""19894""
","
","
","""event"",""trial"",""time""
""fullscreenenter"",""5"",""19894""
","
","280.60000002384186","","49","","","3000","1","","","images/purpleplanet.jpg","images/alien4","images/alien3","images/rocket1","images/alien3","images/t.png","2","real","false","1","rare","1","2023-03-10 21:22:31.680"
"two-step-fixation","168","455552","0.0-77.0-2.10","3875","7682","24","Male","true","true","false","false","""event"",""trial"",""time""
""fullscreenenter"",""5"",""19894""
","
","
","""event"",""trial"",""time""
""fullscreenenter"",""5"",""19894""
","
","","images/earth.jpg","","","","","","","","","","","","","","fixation","","","","","",""
"d3-animate-choice","169","457894","0.0-77.0-0.11","3875","7682","24","Male","true","true","false","false","""event"",""trial"",""time""
""fullscreenenter"",""5"",""19894""
","
","
","""event"",""trial"",""time""
""fullscreenenter"",""5"",""19894""
","
","337","","49","","","3000","1","","","images/earth.jpg","images/rocket2","images/rocket1","null","images/rocket1","","1","real","null","1","","",""
"d3-animate-choice","170","460231","0.0-77.0-1.11","3875","7682","24","Male","true","true","false","false","""event"",""trial"",""time""
""fullscreenenter"",""5"",""19894""
","
","
","""event"",""trial"",""time""
""fullscreenenter"",""5"",""19894""
","
","334.40000009536743","","49","","","3000","1","","","images/redplanet1.jpg","images/alien2","images/alien1","images/rocket1","images/alien1","images/nothing.png","2","real","true","1","common","0","2023-03-10 21:22:37.362"
"two-step-fixation","171","461232","0.0-77.0-2.11","3875","7682","24","Male","true","true","false","false","""event"",""trial"",""time""
""fullscreenenter"",""5"",""19894""
","
","
","""event"",""trial"",""time""
""fullscreenenter"",""5"",""19894""
","
","","images/earth.jpg","","","","","","","","","","","","","","fixation","","","","","",""
"d3-animate-choice","172","463384","0.0-77.0-0.12","3875","7682","24","Male","true","true","false","false","""event"",""trial"",""time""
""fullscreenenter"",""5"",""19894""
","
","
","""event"",""trial"",""time""
""fullscreenenter"",""5"",""19894""
","
","148.5","","48","","","3000","1","","","images/earth.jpg","images/rocket2","images/rocket1","null","images/rocket2","","1","real","null","2","","",""
"d3-animate-choice","173","465685","0.0-77.0-1.12","3875","7682","24","Male","true","true","false","false","""event"",""trial"",""time""
""fullscreenenter"",""5"",""19894""
","
","
","""event"",""trial"",""time""
""fullscreenenter"",""5"",""19894""
","
","297.2999999523163","","49","","","3000","1","","","images/purpleplanet.jpg","images/alien4","images/alien3","images/rocket2","images/alien3","images/t.png","2","real","true","1","common","1","2023-03-10 21:22:42.816"
"two-step-fixation","174","466691","0.0-77.0-2.12","3875","7682","24","Male","true","true","false","false","""event"",""trial"",""time""
""fullscreenenter"",""5"",""19894""
","
","
","""event"",""trial"",""time""
""fullscreenenter"",""5"",""19894""
","
","","images/earth.jpg","","","","","","","","","","","","","","fixation","","","","","",""
"d3-animate-choice","175","468918","0.0-77.0-0.13","3875","7682","24","Male","true","true","false","false","""event"",""trial"",""time""
""fullscreenenter"",""5"",""19894""
","
","
","""event"",""trial"",""time""
""fullscreenenter"",""5"",""19894""
","
","224.10000002384186","","48","","","3000","1","","","images/earth.jpg","images/rocket2","images/rocket1","null","images/rocket2","","1","real","null","2","","",""
"d3-animate-choice","176","471238","0.0-77.0-1.13","3875","7682","24","Male","true","true","false","false","""event"",""trial"",""time""
""fullscreenenter"",""5"",""19894""
","
","
","""event"",""trial"",""time""
""fullscreenenter"",""5"",""19894""
","
","316","","49","","","3000","1","","","images/purpleplanet.jpg","images/alien4","images/alien3","images/rocket2","images/alien3","images/t.png","2","real","true","1","common","1","2023-03-10 21:22:48.369"
"two-step-fixation","177","472241","0.0-77.0-2.13","3875","7682","24","Male","true","true","false","false","""event"",""trial"",""time""
""fullscreenenter"",""5"",""19894""
","
","
","""event"",""trial"",""time""
""fullscreenenter"",""5"",""19894""
","
","","images/earth.jpg","","","","","","","","","","","","","","fixation","","","","","",""
"d3-animate-choice","178","474310","0.0-77.0-0.14","3875","7682","24","Male","true","true","false","false","""event"",""trial"",""time""
""fullscreenenter"",""5"",""19894""
","
","
","""event"",""trial"",""time""
""fullscreenenter"",""5"",""19894""
","
","67","","48","","","3000","1","274.39999997615814","48","images/earth.jpg","images/rocket2","images/rocket1","null","images/rocket2","","1","real","null","2","","",""
"d3-animate-choice","179","476344","0.0-77.0-1.14","3875","7682","24","Male","true","true","false","false","""event"",""trial"",""time""
""fullscreenenter"",""5"",""19894""
","
","
","""event"",""trial"",""time""
""fullscreenenter"",""5"",""19894""
","
","29.899999976158142","","49","","","3000","1","252.09999990463257","49","images/purpleplanet.jpg","images/alien4","images/alien3","images/rocket2","images/alien3","images/nothing.png","2","real","true","1","common","0","2023-03-10 21:22:53.475"
"two-step-fixation","180","477348","0.0-77.0-2.14","3875","7682","24","Male","true","true","false","false","""event"",""trial"",""time""
""fullscreenenter"",""5"",""19894""
","
","
","""event"",""trial"",""time""
""fullscreenenter"",""5"",""19894""
","
","","images/earth.jpg","","","","","","","","","","","","","","fixation","","","","","",""
"d3-animate-choice","181","479718","0.0-77.0-0.15","3875","7682","24","Male","true","true","false","false","""event"",""trial"",""time""
""fullscreenenter"",""5"",""19894""
","
","
","""event"",""trial"",""time""
""fullscreenenter"",""5"",""19894""
","
","366.7999999523163","","48","","","3000","1","1984.5999999046326,2239.0999999046326","49,49","images/earth.jpg","images/rocket2","images/rocket1","null","images/rocket2","","1","real","null","2","","",""
"d3-animate-choice","182","481783","0.0-77.0-1.15","3875","7682","24","Male","true","true","false","false","""event"",""trial"",""time""
""fullscreenenter"",""5"",""19894""
","
","
","""event"",""trial"",""time""
""fullscreenenter"",""5"",""19894""
","
","60.59999990463257","","49","","","3000","1","252.19999992847443","49","images/purpleplanet.jpg","images/alien4","images/alien3","images/rocket2","images/alien3","images/t.png","2","real","true","1","common","1","2023-03-10 21:22:58.914"
"two-step-fixation","183","482789","0.0-77.0-2.15","3875","7682","24","Male","true","true","false","false","""event"",""trial"",""time""
""fullscreenenter"",""5"",""19894""
","
","
","""event"",""trial"",""time""
""fullscreenenter"",""5"",""19894""
","
","","images/earth.jpg","","","","","","","","","","","","","","fixation","","","","","",""
"d3-animate-choice","184","485063","0.0-77.0-0.16","3875","7682","24","Male","true","true","false","false","""event"",""trial"",""time""
""fullscreenenter"",""5"",""19894""
","
","
","""event"",""trial"",""time""
""fullscreenenter"",""5"",""19894""
","
","270.7000000476837","","48","","","3000","1","1629.5,1838.7999999523163,2046.6000000238419,2237.2999999523163","49,49,49,49","images/earth.jpg","images/rocket2","images/rocket1","null","images/rocket2","","1","real","null","2","","",""
"d3-animate-choice","185","487320","0.0-77.0-1.16","3875","7682","24","Male","true","true","false","false","""event"",""trial"",""time""
""fullscreenenter"",""5"",""19894""
","
","
","""event"",""trial"",""time""
""fullscreenenter"",""5"",""19894""
","
","254","","49","","","3000","1","","","images/purpleplanet.jpg","images/alien4","images/alien3","images/rocket2","images/alien3","images/t.png","2","real","true","1","common","1","2023-03-10 21:23:04.451"
"two-step-fixation","186","488325","0.0-77.0-2.16","3875","7682","24","Male","true","true","false","false","""event"",""trial"",""time""
""fullscreenenter"",""5"",""19894""
","
","
","""event"",""trial"",""time""
""fullscreenenter"",""5"",""19894""
","
","","images/earth.jpg","","","","","","","","","","","","","","fixation","","","","","",""
"d3-animate-choice","187","490855","0.0-77.0-0.17","3875","7682","24","Male","true","true","false","false","""event"",""trial"",""time""
""fullscreenenter"",""5"",""19894""
","
","
","""event"",""trial"",""time""
""fullscreenenter"",""5"",""19894""
","
","524.7999999523163","","48","","","3000","1","1884.1000000238419,2091.600000023842,2318.399999976158,2475.600000023842","49,49,49,49","images/earth.jpg","images/rocket2","images/rocket1","null","images/rocket2","","1","real","null","2","","",""
"d3-animate-choice","188","493687","0.0-77.0-1.17","3875","7682","24","Male","true","true","false","false","""event"",""trial"",""time""
""fullscreenenter"",""5"",""19894""
","
","
","""event"",""trial"",""time""
""fullscreenenter"",""5"",""19894""
","
","828.7999999523163","","49","","","3000","1","","","images/redplanet1.jpg","images/alien2","images/alien1","images/rocket2","images/alien1","images/t.png","2","real","false","1","rare","1","2023-03-10 21:23:10.818"
"two-step-fixation","189","494692","0.0-77.0-2.17","3875","7682","24","Male","true","true","false","false","""event"",""trial"",""time""
""fullscreenenter"",""5"",""19894""
","
","
","""event"",""trial"",""time""
""fullscreenenter"",""5"",""19894""
","
","","images/earth.jpg","","","","","","","","","","","","","","fixation","","","","","",""
"d3-animate-choice","190","496981","0.0-77.0-0.18","3875","7682","24","Male","true","true","false","false","""event"",""trial"",""time""
""fullscreenenter"",""5"",""19894""
","
","
","""event"",""trial"",""time""
""fullscreenenter"",""5"",""19894""
","
","284.2999999523163","","48","","","3000","1","","","images/earth.jpg","images/rocket2","images/rocket1","null","images/rocket2","","1","real","null","2","","",""
"d3-animate-choice","191","499062","0.0-77.0-1.18","3875","7682","24","Male","true","true","false","false","""event"",""trial"",""time""
""fullscreenenter"",""5"",""19894""
","
","
","""event"",""trial"",""time""
""fullscreenenter"",""5"",""19894""
","
","76.5","","49","","","3000","1","","","images/purpleplanet.jpg","images/alien4","images/alien3","images/rocket2","images/alien3","images/nothing.png","2","real","true","1","common","0","2023-03-10 21:23:16.193"
"two-step-fixation","192","500064","0.0-77.0-2.18","3875","7682","24","Male","true","true","false","false","""event"",""trial"",""time""
""fullscreenenter"",""5"",""19894""
","
","
","""event"",""trial"",""time""
""fullscreenenter"",""5"",""19894""
","
","","images/earth.jpg","","","","","","","","","","","","","","fixation","","","","","",""
"d3-animate-choice","193","502198","0.0-77.0-0.19","3875","7682","24","Male","true","true","false","false","""event"",""trial"",""time""
""fullscreenenter"",""5"",""19894""
","
","
","""event"",""trial"",""time""
""fullscreenenter"",""5"",""19894""
","
","132.20000004768372","","48","","","3000","1","277.7000000476837,1956.2000000476837","48,49","images/earth.jpg","images/rocket2","images/rocket1","null","images/rocket2","","1","real","null","2","","",""
"d3-animate-choice","194","504805","0.0-77.0-1.19","3875","7682","24","Male","true","true","false","false","""event"",""trial"",""time""
""fullscreenenter"",""5"",""19894""
","
","
","""event"",""trial"",""time""
""fullscreenenter"",""5"",""19894""
","
","605.6999999284744","","49","","","3000","1","","","images/purpleplanet.jpg","images/alien4","images/alien3","images/rocket2","images/alien3","images/t.png","2","real","true","1","common","1","2023-03-10 21:23:21.936"
"two-step-fixation","195","505807","0.0-77.0-2.19","3875","7682","24","Male","true","true","false","false","""event"",""trial"",""time""
""fullscreenenter"",""5"",""19894""
","
","
","""event"",""trial"",""time""
""fullscreenenter"",""5"",""19894""
","
","","images/earth.jpg","","","","","","","","","","","","","","fixation","","","","","",""
"d3-animate-choice","196","508006","0.0-77.0-0.20","3875","7682","24","Male","true","true","false","false","""event"",""trial"",""time""
""fullscreenenter"",""5"",""19894""
","
","
","""event"",""trial"",""time""
""fullscreenenter"",""5"",""19894""
","
","196","","48","","","3000","1","2114.899999976158","49","images/earth.jpg","images/rocket2","images/rocket1","null","images/rocket2","","1","real","null","2","","",""
"d3-animate-choice","197","510182","0.0-77.0-1.20","3875","7682","24","Male","true","true","false","false","""event"",""trial"",""time""
""fullscreenenter"",""5"",""19894""
","
","
","""event"",""trial"",""time""
""fullscreenenter"",""5"",""19894""
","
","172.39999997615814","","49","","","3000","1","","","images/purpleplanet.jpg","images/alien4","images/alien3","images/rocket2","images/alien3","images/nothing.png","2","real","true","1","common","0","2023-03-10 21:23:27.314"
"two-step-fixation","198","511187","0.0-77.0-2.20","3875","7682","24","Male","true","true","false","false","""event"",""trial"",""time""
""fullscreenenter"",""5"",""19894""
","
","
","""event"",""trial"",""time""
""fullscreenenter"",""5"",""19894""
","
","","images/earth.jpg","","","","","","","","","","","","","","fixation","","","","","",""
"d3-animate-choice","199","513349","0.0-77.0-0.21","3875","7682","24","Male","true","true","false","false","""event"",""trial"",""time""
""fullscreenenter"",""5"",""19894""
","
","
","""event"",""trial"",""time""
""fullscreenenter"",""5"",""19894""
","
","159.39999997615814","","48","","","3000","1","2046.7999999523163","49","images/earth.jpg","images/rocket2","images/rocket1","null","images/rocket2","","1","real","null","2","","",""
"d3-animate-choice","200","515497","0.0-77.0-1.21","3875","7682","24","Male","true","true","false","false","""event"",""trial"",""time""
""fullscreenenter"",""5"",""19894""
","
","
","""event"",""trial"",""time""
""fullscreenenter"",""5"",""19894""
","
","145.79999995231628","","49","","","3000","1","303","49","images/purpleplanet.jpg","images/alien4","images/alien3","images/rocket2","images/alien3","images/nothing.png","2","real","true","1","common","0","2023-03-10 21:23:32.628"
"two-step-fixation","201","516499","0.0-77.0-2.21","3875","7682","24","Male","true","true","false","false","""event"",""trial"",""time""
""fullscreenenter"",""5"",""19894""
","
","
","""event"",""trial"",""time""
""fullscreenenter"",""5"",""19894""
","
","","images/earth.jpg","","","","","","","","","","","","","","fixation","","","","","",""
"d3-animate-choice","202","518790","0.0-77.0-0.22","3875","7682","24","Male","true","true","false","false","""event"",""trial"",""time""
""fullscreenenter"",""5"",""19894""
","
","
","""event"",""trial"",""time""
""fullscreenenter"",""5"",""19894""
","
","286.90000009536743","","49","","","3000","1","","","images/earth.jpg","images/rocket2","images/rocket1","null","images/rocket1","","1","real","null","1","","",""
"d3-animate-choice","203","521014","0.0-77.0-1.22","3875","7682","24","Male","true","true","false","false","""event"",""trial"",""time""
""fullscreenenter"",""5"",""19894""
","
","
","""event"",""trial"",""time""
""fullscreenenter"",""5"",""19894""
","
","221.40000009536743","","49","","","3000","1","","","images/redplanet1.jpg","images/alien2","images/alien1","images/rocket1","images/alien1","images/t.png","2","real","true","1","common","1","2023-03-10 21:23:38.145"
"two-step-fixation","204","522019","0.0-77.0-2.22","3875","7682","24","Male","true","true","false","false","""event"",""trial"",""time""
""fullscreenenter"",""5"",""19894""
","
","
","""event"",""trial"",""time""
""fullscreenenter"",""5"",""19894""
","
","","images/earth.jpg","","","","","","","","","","","","","","fixation","","","","","",""
"d3-animate-choice","205","524102","0.0-77.0-0.23","3875","7682","24","Male","true","true","false","false","""event"",""trial"",""time""
""fullscreenenter"",""5"",""19894""
","
","
","""event"",""trial"",""time""
""fullscreenenter"",""5"",""19894""
","
","77.90000009536743","","49","","","3000","1","238,365.90000009536743,574.2000000476837","49,49,49","images/earth.jpg","images/rocket2","images/rocket1","null","images/rocket1","","1","real","null","1","","",""
"d3-animate-choice","206","526421","0.0-77.0-1.23","3875","7682","24","Male","true","true","false","false","""event"",""trial"",""time""
""fullscreenenter"",""5"",""19894""
","
","
","""event"",""trial"",""time""
""fullscreenenter"",""5"",""19894""
","
","315","","49","","","3000","1","","","images/redplanet1.jpg","images/alien2","images/alien1","images/rocket1","images/alien1","images/t.png","2","real","true","1","common","1","2023-03-10 21:23:43.552"
"two-step-fixation","207","527426","0.0-77.0-2.23","3875","7682","24","Male","true","true","false","false","""event"",""trial"",""time""
""fullscreenenter"",""5"",""19894""
","
","
","""event"",""trial"",""time""
""fullscreenenter"",""5"",""19894""
","
","","images/earth.jpg","","","","","","","","","","","","","","fixation","","","","","",""
"d3-animate-choice","208","529575","0.0-77.0-0.24","3875","7682","24","Male","true","true","false","false","""event"",""trial"",""time""
""fullscreenenter"",""5"",""19894""
","
","
","""event"",""trial"",""time""
""fullscreenenter"",""5"",""19894""
","
","144.29999995231628","","49","","","3000","1","302.7000000476837,511.10000002384186,1712.2000000476837,1870.8999999761581,2064.399999976158","49,49,49,49,49","images/earth.jpg","images/rocket2","images/rocket1","null","images/rocket1","","1","real","null","1","","",""
"d3-animate-choice","209","531670","0.0-77.0-1.24","3875","7682","24","Male","true","true","false","false","""event"",""trial"",""time""
""fullscreenenter"",""5"",""19894""
","
","
","""event"",""trial"",""time""
""fullscreenenter"",""5"",""19894""
","
","91.20000004768372","","49","","","3000","1","265.7000000476837,426.2000000476837","49,49","images/redplanet1.jpg","images/alien2","images/alien1","images/rocket1","images/alien1","images/t.png","2","real","true","1","common","1","2023-03-10 21:23:48.801"
"two-step-fixation","210","532673","0.0-77.0-2.24","3875","7682","24","Male","true","true","false","false","""event"",""trial"",""time""
""fullscreenenter"",""5"",""19894""
","
","
","""event"",""trial"",""time""
""fullscreenenter"",""5"",""19894""
","
","","images/earth.jpg","","","","","","","","","","","","","","fixation","","","","","",""
"d3-animate-choice","211","534855","0.0-77.0-0.25","3875","7682","24","Male","true","true","false","false","""event"",""trial"",""time""
""fullscreenenter"",""5"",""19894""
","
","
","""event"",""trial"",""time""
""fullscreenenter"",""5"",""19894""
","
","175","","49","","","3000","1","350.09999990463257,527.0999999046326,958.0999999046326,1567.0999999046326","49,49,49,49","images/earth.jpg","images/rocket2","images/rocket1","null","images/rocket1","","1","real","null","1","","",""
"d3-animate-choice","212","537430","0.0-77.0-1.25","3875","7682","24","Male","true","true","false","false","""event"",""trial"",""time""
""fullscreenenter"",""5"",""19894""
","
","
","""event"",""trial"",""time""
""fullscreenenter"",""5"",""19894""
","
","570.6999999284744","","49","","","3000","1","","","images/purpleplanet.jpg","images/alien4","images/alien3","images/rocket1","images/alien3","images/t.png","2","real","false","1","rare","1","2023-03-10 21:23:54.562"
"two-step-fixation","213","538434","0.0-77.0-2.25","3875","7682","24","Male","true","true","false","false","""event"",""trial"",""time""
""fullscreenenter"",""5"",""19894""
","
","
","""event"",""trial"",""time""
""fullscreenenter"",""5"",""19894""
","
","","images/earth.jpg","","","","","","","","","","","","","","fixation","","","","","",""
"d3-animate-choice","214","540487","0.0-77.0-0.26","3875","7682","24","Male","true","true","false","false","""event"",""trial"",""time""
""fullscreenenter"",""5"",""19894""
","
","
","""event"",""trial"",""time""
""fullscreenenter"",""5"",""19894""
","
","47","","49","","","3000","1","","","images/earth.jpg","images/rocket2","images/rocket1","null","images/rocket1","","1","real","null","1","","",""
"d3-animate-choice","215","542533","0.0-77.0-1.26","3875","7682","24","Male","true","true","false","false","""event"",""trial"",""time""
""fullscreenenter"",""5"",""19894""
","
","
","""event"",""trial"",""time""
""fullscreenenter"",""5"",""19894""
","
","43.5","","49","","","3000","1","332.5,1900.5","49,49","images/redplanet1.jpg","images/alien2","images/alien1","images/rocket1","images/alien1","images/t.png","2","real","true","1","common","1","2023-03-10 21:23:59.664"
"two-step-fixation","216","543539","0.0-77.0-2.26","3875","7682","24","Male","true","true","false","false","""event"",""trial"",""time""
""fullscreenenter"",""5"",""19894""
","
","
","""event"",""trial"",""time""
""fullscreenenter"",""5"",""19894""
","
","","images/earth.jpg","","","","","","","","","","","","","","fixation","","","","","",""
"d3-animate-choice","217","545671","0.0-77.0-0.27","3875","7682","24","Male","true","true","false","false","""event"",""trial"",""time""
""fullscreenenter"",""5"",""19894""
","
","
","""event"",""trial"",""time""
""fullscreenenter"",""5"",""19894""
","
","127.69999992847443","","49","","","3000","1","1087.1999999284744,1487.1999999284744,1854.6000000238419","49,49,49","images/earth.jpg","images/rocket2","images/rocket1","null","images/rocket1","","1","real","null","1","","",""
"d3-animate-choice","218","548214","0.0-77.0-1.27","3875","7682","24","Male","true","true","false","false","""event"",""trial"",""time""
""fullscreenenter"",""5"",""19894""
","
","
","""event"",""trial"",""time""
""fullscreenenter"",""5"",""19894""
","
","539","","49","","","3000","1","729.3000000715256","49","images/purpleplanet.jpg","images/alien4","images/alien3","images/rocket1","images/alien3","images/nothing.png","2","real","false","1","rare","0","2023-03-10 21:24:05.346"
"two-step-fixation","219","549220","0.0-77.0-2.27","3875","7682","24","Male","true","true","false","false","""event"",""trial"",""time""
""fullscreenenter"",""5"",""19894""
","
","
","""event"",""trial"",""time""
""fullscreenenter"",""5"",""19894""
","
","","images/earth.jpg","","","","","","","","","","","","","","fixation","","","","","",""
"d3-animate-choice","220","551800","0.0-77.0-0.28","3875","7682","24","Male","true","true","false","false","""event"",""trial"",""time""
""fullscreenenter"",""5"",""19894""
","
","
","""event"",""trial"",""time""
""fullscreenenter"",""5"",""19894""
","
","577.2999999523163","","49","","","3000","1","767.8999999761581,959.2999999523163","49,49","images/earth.jpg","images/rocket2","images/rocket1","null","images/rocket1","","1","real","null","1","","",""
"d3-animate-choice","221","554215","0.0-77.0-1.28","3875","7682","24","Male","true","true","false","false","""event"",""trial"",""time""
""fullscreenenter"",""5"",""19894""
","
","
","""event"",""trial"",""time""
""fullscreenenter"",""5"",""19894""
","
","409.8000000715256","","49","","","3000","1","","","images/redplanet1.jpg","images/alien2","images/alien1","images/rocket1","images/alien1","images/t.png","2","real","true","1","common","1","2023-03-10 21:24:11.346"
"two-step-fixation","222","555221","0.0-77.0-2.28","3875","7682","24","Male","true","true","false","false","""event"",""trial"",""time""
""fullscreenenter"",""5"",""19894""
","
","
","""event"",""trial"",""time""
""fullscreenenter"",""5"",""19894""
","
","","images/earth.jpg","","","","","","","","","","","","","","fixation","","","","","",""
"d3-animate-choice","223","557622","0.0-77.0-0.29","3875","7682","24","Male","true","true","false","false","""event"",""trial"",""time""
""fullscreenenter"",""5"",""19894""
","
","
","""event"",""trial"",""time""
""fullscreenenter"",""5"",""19894""
","
","395.89999997615814","","49","","","3000","1","","","images/earth.jpg","images/rocket2","images/rocket1","null","images/rocket1","","1","real","null","1","","",""
"d3-animate-choice","224","560294","0.0-77.0-1.29","3875","7682","24","Male","true","true","false","false","""event"",""trial"",""time""
""fullscreenenter"",""5"",""19894""
","
","
","""event"",""trial"",""time""
""fullscreenenter"",""5"",""19894""
","
","669.8000000715256","","49","","","3000","1","","","images/purpleplanet.jpg","images/alien4","images/alien3","images/rocket1","images/alien3","images/nothing.png","2","real","false","1","rare","0","2023-03-10 21:24:17.425"
"two-step-fixation","225","561297","0.0-77.0-2.29","3875","7682","24","Male","true","true","false","false","""event"",""trial"",""time""
""fullscreenenter"",""5"",""19894""
","
","
","""event"",""trial"",""time""
""fullscreenenter"",""5"",""19894""
","
","","images/earth.jpg","","","","","","","","","","","","","","fixation","","","","","",""
"d3-animate-choice","226","563433","0.0-77.0-0.30","3875","7682","24","Male","true","true","false","false","""event"",""trial"",""time""
""fullscreenenter"",""5"",""19894""
","
","
","""event"",""trial"",""time""
""fullscreenenter"",""5"",""19894""
","
","134.20000004768372","","49","","","3000","1","338.5","49","images/earth.jpg","images/rocket2","images/rocket1","null","images/rocket1","","1","real","null","1","","",""
"d3-animate-choice","227","565831","0.0-77.0-1.30","3875","7682","24","Male","true","true","false","false","""event"",""trial"",""time""
""fullscreenenter"",""5"",""19894""
","
","
","""event"",""trial"",""time""
""fullscreenenter"",""5"",""19894""
","
","392.89999997615814","","49","","","3000","1","","","images/redplanet1.jpg","images/alien2","images/alien1","images/rocket1","images/alien1","images/t.png","2","real","true","1","common","1","2023-03-10 21:24:22.962"
"two-step-fixation","228","566833","0.0-77.0-2.30","3875","7682","24","Male","true","true","false","false","""event"",""trial"",""time""
""fullscreenenter"",""5"",""19894""
","
","
","""event"",""trial"",""time""
""fullscreenenter"",""5"",""19894""
","
","","images/earth.jpg","","","","","","","","","","","","","","fixation","","","","","",""
"d3-animate-choice","229","568902","0.0-77.0-0.31","3875","7682","24","Male","true","true","false","false","""event"",""trial"",""time""
""fullscreenenter"",""5"",""19894""
","
","
","""event"",""trial"",""time""
""fullscreenenter"",""5"",""19894""
","
","64.70000004768372","","49","","","3000","1","","","images/earth.jpg","images/rocket2","images/rocket1","null","images/rocket1","","1","real","null","1","","",""
"d3-animate-choice","230","571333","0.0-77.0-1.31","3875","7682","24","Male","true","true","false","false","""event"",""trial"",""time""
""fullscreenenter"",""5"",""19894""
","
","
","""event"",""trial"",""time""
""fullscreenenter"",""5"",""19894""
","
","427.10000002384186","","49","","","3000","1","","","images/redplanet1.jpg","images/alien2","images/alien1","images/rocket1","images/alien1","images/t.png","2","real","true","1","common","1","2023-03-10 21:24:28.464"
"two-step-fixation","231","572338","0.0-77.0-2.31","3875","7682","24","Male","true","true","false","false","""event"",""trial"",""time""
""fullscreenenter"",""5"",""19894""
","
","
","""event"",""trial"",""time""
""fullscreenenter"",""5"",""19894""
","
","","images/earth.jpg","","","","","","","","","","","","","","fixation","","","","","",""
"d3-animate-choice","232","574534","0.0-77.0-0.32","3875","7682","24","Male","true","true","false","false","""event"",""trial"",""time""
""fullscreenenter"",""5"",""19894""
","
","
","""event"",""trial"",""time""
""fullscreenenter"",""5"",""19894""
","
","193.09999990463257","","49","","","3000","1","385.59999990463257","49","images/earth.jpg","images/rocket2","images/rocket1","null","images/rocket1","","1","real","null","1","","",""
"d3-animate-choice","233","576999","0.0-77.0-1.32","3875","7682","24","Male","true","true","false","false","""event"",""trial"",""time""
""fullscreenenter"",""5"",""19894""
","
","
","""event"",""trial"",""time""
""fullscreenenter"",""5"",""19894""
","
","462.60000002384186","","49","","","3000","1","","","images/redplanet1.jpg","images/alien2","images/alien1","images/rocket1","images/alien1","images/t.png","2","real","true","1","common","1","2023-03-10 21:24:34.130"
"two-step-fixation","234","578003","0.0-77.0-2.32","3875","7682","24","Male","true","true","false","false","""event"",""trial"",""time""
""fullscreenenter"",""5"",""19894""
","
","
","""event"",""trial"",""time""
""fullscreenenter"",""5"",""19894""
","
","","images/earth.jpg","","","","","","","","","","","","","","fixation","","","","","",""
"d3-animate-choice","235","580281","0.0-77.0-0.33","3875","7682","24","Male","true","true","false","false","""event"",""trial"",""time""
""fullscreenenter"",""5"",""19894""
","
","
","""event"",""trial"",""time""
""fullscreenenter"",""5"",""19894""
","
","272.60000002384186","","49","","","3000","1","","","images/earth.jpg","images/rocket2","images/rocket1","null","images/rocket1","","1","real","null","1","","",""
"d3-animate-choice","236","582632","0.0-77.0-1.33","3875","7682","24","Male","true","true","false","false","""event"",""trial"",""time""
""fullscreenenter"",""5"",""19894""
","
","
","""event"",""trial"",""time""
""fullscreenenter"",""5"",""19894""
","
","345.5","","48","","","3000","1","","","images/purpleplanet.jpg","images/alien4","images/alien3","images/rocket1","images/alien4","images/nothing.png","2","real","false","2","rare","0","2023-03-10 21:24:39.763"
"two-step-fixation","237","583635","0.0-77.0-2.33","3875","7682","24","Male","true","true","false","false","""event"",""trial"",""time""
""fullscreenenter"",""5"",""19894""
","
","
","""event"",""trial"",""time""
""fullscreenenter"",""5"",""19894""
","
","","images/earth.jpg","","","","","","","","","","","","","","fixation","","","","","",""
"d3-animate-choice","238","585751","0.0-77.0-0.34","3875","7682","24","Male","true","true","false","false","""event"",""trial"",""time""
""fullscreenenter"",""5"",""19894""
","
","
","""event"",""trial"",""time""
""fullscreenenter"",""5"",""19894""
","
","111","","49","","","3000","1","","","images/earth.jpg","images/rocket2","images/rocket1","null","images/rocket1","","1","real","null","1","","",""
"d3-animate-choice","239","588068","0.0-77.0-1.34","3875","7682","24","Male","true","true","false","false","""event"",""trial"",""time""
""fullscreenenter"",""5"",""19894""
","
","
","""event"",""trial"",""time""
""fullscreenenter"",""5"",""19894""
","
