"trial_type","trial_index","time_elapsed","internal_node_id","participant_id","subject_id","age","gender","rocket_sides","red_planet_first_rocket","red_display_order","purple_display_order","interactions","blur_events","focus_events","fullscreenenter_events","fullscreenexit_events","rt","stimulus","key_press","button_pressed","success","duration","valid_pressed","rts","keys","planet_text","right_text","left_text","center_text","chosen_text","reward_text","trial_stage","practice_trial","transition_type","choice","transition","reward","timestamp"
"pavlovia","0","110","0.0-0.0","2505","5213","10","Female","false","true","true","true","
","
","
","
","
","","","","","","","","","","","","","","","","","","","","","",""
"html-keyboard-response","1","23990","0.0-1.0","2505","5213","10","Female","false","true","true","true","
","
","
","
","
","23879.29999999702","Welcome! Press the space bar to begin.","32","","","","","","","","","","","","","","","","","","",""
"audio-keyboard-response","2","29831","0.0-2.0","2505","5213","10","Female","false","true","true","true","
","
","
","
","
","5689","audio/beep_loop.wav","32","","","","","","","","","","","","","","","","","","",""
"audio-button-response","3","33427","0.0-3.0","2505","5213","10","Female","false","true","true","true","
","
","
","
","
","NaN","audio/fish.mp3","","1","","","","","","","","","","","","","","","","","",""
"audio-button-response","4","36160","0.0-4.0","2505","5213","10","Female","false","true","true","true","""event"",""trial"",""time""
""fullscreenenter"",""5"",""38652""
","
","
","""event"",""trial"",""time""
""fullscreenenter"",""5"",""38652""
","
","NaN","audio/tiger.mp3","","4","","","","","","","","","","","","","","","","","",""
"fullscreen","5","39557","0.0-5.0","2505","5213","10","Female","false","true","true","true","""event"",""trial"",""time""
""fullscreenenter"",""5"",""38652""
","
","
","""event"",""trial"",""time""
""fullscreenenter"",""5"",""38652""
","
","","","","","true","","","","","","","","","","","","","","","","",""
"d3-instructions","6","65501","0.0-6.0","2505","5213","10","Female","false","true","true","true","""event"",""trial"",""time""
""fullscreenenter"",""5"",""38652""
","
","
","""event"",""trial"",""time""
""fullscreenenter"",""5"",""38652""
","
","","","","","","","","","","","","","","","","","","","","","",""
"d3-instructions","7","73871","0.0-7.0","2505","5213","10","Female","false","true","true","true","""event"",""trial"",""time""
""fullscreenenter"",""5"",""38652""
","
","
","""event"",""trial"",""time""
""fullscreenenter"",""5"",""38652""
","
","","","","","","","","","","","","","","","","","","","","","",""
"d3-instructions","8","79871","0.0-8.0","2505","5213","10","Female","false","true","true","true","""event"",""trial"",""time""
""fullscreenenter"",""5"",""38652""
","
","
","""event"",""trial"",""time""
""fullscreenenter"",""5"",""38652""
","
","","","","","","","","","","","","","","","","","","","","","",""
"d3-instructions","9","89892","0.0-9.0","2505","5213","10","Female","false","true","true","true","""event"",""trial"",""time""
""fullscreenenter"",""5"",""38652""
","
","
","""event"",""trial"",""time""
""fullscreenenter"",""5"",""38652""
","
","","","","","","","","","","","","","","","","","","","","","",""
"d3-instructions","10","97121","0.0-10.0","2505","5213","10","Female","false","true","true","true","""event"",""trial"",""time""
""fullscreenenter"",""5"",""38652""
","
","
","""event"",""trial"",""time""
""fullscreenenter"",""5"",""38652""
","
","","","","","","","","","","","","","","","","","","","","","",""
"d3-animate-choice","11","111169","0.0-11.0","2505","5213","10","Female","false","true","true","true","""event"",""trial"",""time""
""fullscreenenter"",""5"",""38652""
","
","
","""event"",""trial"",""time""
""fullscreenenter"",""5"",""38652""
","
","12018","","49","","","3000","1","","","images/tutgreenplanet.jpg","images/tutalien1","images/tutalien2","null","images/tutalien2","","NA","practice","null","","","",""
"d3-animate-choice","12","113223","0.0-12.0","2505","5213","10","Female","false","true","true","true","""event"",""trial"",""time""
""fullscreenenter"",""5"",""38652""
","
","
","""event"",""trial"",""time""
""fullscreenenter"",""5"",""38652""
","
","52","","48","","","3000","1","1146.5","48","images/tutgreenplanet.jpg","images/tutalien1","images/tutalien2","null","images/tutalien1","","NA","practice","null","","","",""
"d3-animate-choice","13","115892","0.0-13.0","2505","5213","10","Female","false","true","true","true","""event"",""trial"",""time""
""fullscreenenter"",""5"",""38652""
","
","
","""event"",""trial"",""time""
""fullscreenenter"",""5"",""38652""
","
","667.5","","49","","","3000","1","2362.4000000059605","48","images/tutgreenplanet.jpg","images/tutalien1","images/tutalien2","null","images/tutalien2","","NA","practice","null","","","",""
"d3-animate-choice","14","120368","0.0-14.0","2505","5213","10","Female","false","true","true","true","""event"",""trial"",""time""
""fullscreenenter"",""5"",""38652""
","
","
","""event"",""trial"",""time""
""fullscreenenter"",""5"",""38652""
","
","2469","","48","","","3000","1","","","images/tutgreenplanet.jpg","images/tutalien1","images/tutalien2","null","images/tutalien1","","NA","practice","null","","","",""
"d3-instructions","15","129777","0.0-15.0","2505","5213","10","Female","false","true","true","true","""event"",""trial"",""time""
""fullscreenenter"",""5"",""38652""
","
","
","""event"",""trial"",""time""
""fullscreenenter"",""5"",""38652""
","
","","","","","","","","","","","","","","","","","","","","","",""
"d3-instructions","16","136152","0.0-16.0","2505","5213","10","Female","false","true","true","true","""event"",""trial"",""time""
""fullscreenenter"",""5"",""38652""
","
","
","""event"",""trial"",""time""
""fullscreenenter"",""5"",""38652""
","
","","","","","","","","","","","","","","","","","","","","","",""
"d3-instructions","17","144553","0.0-17.0","2505","5213","10","Female","false","true","true","true","""event"",""trial"",""time""
""fullscreenenter"",""5"",""38652""
","
","
","""event"",""trial"",""time""
""fullscreenenter"",""5"",""38652""
","
","","","","","","","","","","","","","","","","","","","","","",""
"d3-instructions","18","156972","0.0-18.0","2505","5213","10","Female","false","true","true","true","""event"",""trial"",""time""
""fullscreenenter"",""5"",""38652""
","
","
","""event"",""trial"",""time""
""fullscreenenter"",""5"",""38652""
","
","","","","","","","","","","","","","","","","","","","","","",""
"d3-instructions","19","164772","0.0-19.0","2505","5213","10","Female","false","true","true","true","""event"",""trial"",""time""
""fullscreenenter"",""5"",""38652""
","
","
","""event"",""trial"",""time""
""fullscreenenter"",""5"",""38652""
","
","","","","","","","","","","","","","","","","","","","","","",""
"d3-animate-choice","20","186216","0.0-20.0","2505","5213","10","Female","false","true","true","true","""event"",""trial"",""time""
""fullscreenenter"",""5"",""38652""
","
","
","""event"",""trial"",""time""
""fullscreenenter"",""5"",""38652""
","
","1513.5","","48","","","3000","1","2368.8000000044703,3239.10000000149,3448.8000000044703,4708.9000000059605,5294,5503.9000000059605,5698.70000000298,6478.9000000059605,6673.9000000059605,6898.4000000059605,7123.9000000059605,7498.5,7708.9000000059605,7918.60000000149,8144,8354,8578.90000000596,8804.20000000298,9013.60000000149,9163.90000000596,9479,10079.20000000298,10528.70000000298,19439.30000000447","32,48,32,48,48,48,48,48,48,48,48,48,48,48,48,48,48,48,48,48,32,32,48,49","images/tutyellowplanet.jpg","null","images/tutalien3","null","images/tutalien3","images/t.png","NA","practice","null","","","",""
"d3-animate-choice","21","189395","0.0-21.0","2505","5213","10","Female","false","true","true","true","""event"",""trial"",""time""
""fullscreenenter"",""5"",""38652""
","
","
","""event"",""trial"",""time""
""fullscreenenter"",""5"",""38652""
","
","1176.1000000014901","","49","","","3000","1","","","images/tutyellowplanet.jpg","null","images/tutalien3","null","images/tutalien3","images/nothing.png","NA","practice","null","","","",""
"d3-animate-choice","22","191899","0.0-22.0","2505","5213","10","Female","false","true","true","true","""event"",""trial"",""time""
""fullscreenenter"",""5"",""38652""
","
","
","""event"",""trial"",""time""
""fullscreenenter"",""5"",""38652""
","
","502.1000000014901","","49","","","3000","1","","","images/tutyellowplanet.jpg","null","images/tutalien3","null","images/tutalien3","images/t.png","NA","practice","null","","","",""
"d3-animate-choice","23","194346","0.0-23.0","2505","5213","10","Female","false","true","true","true","""event"",""trial"",""time""
""fullscreenenter"",""5"",""38652""
","
","
","""event"",""trial"",""time""
""fullscreenenter"",""5"",""38652""
","
","443","","49","","","3000","1","","","images/tutyellowplanet.jpg","null","images/tutalien3","null","images/tutalien3","images/t.png","NA","practice","null","","","",""
"d3-animate-choice","24","196820","0.0-24.0","2505","5213","10","Female","false","true","true","true","""event"",""trial"",""time""
""fullscreenenter"",""5"",""38652""
","
","
","""event"",""trial"",""time""
""fullscreenenter"",""5"",""38652""
","
","471","","49","","","3000","1","","","images/tutyellowplanet.jpg","null","images/tutalien3","null","images/tutalien3","images/nothing.png","NA","practice","null","","","",""
"d3-animate-choice","25","199115","0.0-25.0","2505","5213","10","Female","false","true","true","true","""event"",""trial"",""time""
""fullscreenenter"",""5"",""38652""
","
","
","""event"",""trial"",""time""
""fullscreenenter"",""5"",""38652""
","
","291.6000000014901","","49","","","3000","1","2196.8000000044703","32","images/tutyellowplanet.jpg","null","images/tutalien3","null","images/tutalien3","images/t.png","NA","practice","null","","","",""
"d3-animate-choice","26","201516","0.0-26.0","2505","5213","10","Female","false","true","true","true","""event"",""trial"",""time""
""fullscreenenter"",""5"",""38652""
","
","
","""event"",""trial"",""time""
""fullscreenenter"",""5"",""38652""
","
","396.90000000596046","","49","","","3000","1","","","images/tutyellowplanet.jpg","null","images/tutalien3","null","images/tutalien3","images/t.png","NA","practice","null","","","",""
"d3-animate-choice","27","203856","0.0-27.0","2505","5213","10","Female","false","true","true","true","""event"",""trial"",""time""
""fullscreenenter"",""5"",""38652""
","
","
","""event"",""trial"",""time""
""fullscreenenter"",""5"",""38652""
","
","336.30000000447035","","49","","","3000","1","","","images/tutyellowplanet.jpg","null","images/tutalien3","null","images/tutalien3","images/nothing.png","NA","practice","null","","","",""
"d3-animate-choice","28","206198","0.0-28.0","2505","5213","10","Female","false","true","true","true","""event"",""trial"",""time""
""fullscreenenter"",""5"",""38652""
","
","
","""event"",""trial"",""time""
""fullscreenenter"",""5"",""38652""
","
","336.5","","49","","","3000","1","","","images/tutyellowplanet.jpg","null","images/tutalien3","null","images/tutalien3","images/t.png","NA","practice","null","","","",""
"d3-animate-choice","29","208671","0.0-29.0","2505","5213","10","Female","false","true","true","true","""event"",""trial"",""time""
""fullscreenenter"",""5"",""38652""
","
","
","""event"",""trial"",""time""
""fullscreenenter"",""5"",""38652""
","
","469.6000000014901","","49","","","3000","1","","","images/tutyellowplanet.jpg","null","images/tutalien3","null","images/tutalien3","images/t.png","NA","practice","null","","","",""
"d3-instructions","30","215803","0.0-30.0","2505","5213","10","Female","false","true","true","true","""event"",""trial"",""time""
""fullscreenenter"",""5"",""38652""
","
","
","""event"",""trial"",""time""
""fullscreenenter"",""5"",""38652""
","
","","","","","","","","","","","","","","","","","","","","","",""
"d3-instructions","31","226079","0.0-31.0","2505","5213","10","Female","false","true","true","true","""event"",""trial"",""time""
""fullscreenenter"",""5"",""38652""
","
","
","""event"",""trial"",""time""
""fullscreenenter"",""5"",""38652""
","
","","","","","","","","","","","","","","","","","","","","","",""
"d3-instructions","32","227384","0.0-32.0","2505","5213","10","Female","false","true","true","true","""event"",""trial"",""time""
""fullscreenenter"",""5"",""38652""
","
","
","""event"",""trial"",""time""
""fullscreenenter"",""5"",""38652""
","
","","","","","","","","","","","","","","","","","","","","","",""
"d3-instructions","33","230399","0.0-33.0","2505","5213","10","Female","false","true","true","true","""event"",""trial"",""time""
""fullscreenenter"",""5"",""38652""
","
","
","""event"",""trial"",""time""
""fullscreenenter"",""5"",""38652""
","
","","","","","","","","","","","","","","","","","","","","","",""
"d3-animate-choice","34","234906","0.0-34.0","2505","5213","10","Female","false","true","true","true","""event"",""trial"",""time""
""fullscreenenter"",""5"",""38652""
","
","
","""event"",""trial"",""time""
""fullscreenenter"",""5"",""38652""
","
","2504.0999999940395","","49","","","3000","1","","","images/tutgreenplanet.jpg","images/tutalien1","images/tutalien2","null","images/tutalien2","images/t.png","NA","practice","null","","","",""
"d3-animate-choice","35","238673","0.0-35.0","2505","5213","10","Female","false","true","true","true","""event"",""trial"",""time""
""fullscreenenter"",""5"",""38652""
","
","
","""event"",""trial"",""time""
""fullscreenenter"",""5"",""38652""
","
","1762.5","","48","","","3000","1","","","images/tutgreenplanet.jpg","images/tutalien1","images/tutalien2","null","images/tutalien1","images/nothing.png","NA","practice","null","","","",""
"d3-animate-choice","36","241866","0.0-36.0","2505","5213","10","Female","false","true","true","true","""event"",""trial"",""time""
""fullscreenenter"",""5"",""38652""
","
","
","""event"",""trial"",""time""
""fullscreenenter"",""5"",""38652""
","
","1190.3999999985099","","49","","","3000","1","","","images/tutgreenplanet.jpg","images/tutalien1","images/tutalien2","null","images/tutalien2","images/t.png","NA","practice","null","","","",""
"d3-animate-choice","37","245047","0.0-37.0","2505","5213","10","Female","false","true","true","true","""event"",""trial"",""time""
""fullscreenenter"",""5"",""38652""
","
","
","""event"",""trial"",""time""
""fullscreenenter"",""5"",""38652""
","
","1072.3999999985099","","39","","","3000","1","1176.8999999985099","48","images/tutgreenplanet.jpg","images/tutalien1","images/tutalien2","null","images/tutalien1","images/nothing.png","NA","practice","null","","","",""
"d3-animate-choice","38","248767","0.0-38.0","2505","5213","10","Female","false","true","true","true","""event"",""trial"",""time""
""fullscreenenter"",""5"",""38652""
","
","
","""event"",""trial"",""time""
""fullscreenenter"",""5"",""38652""
","
","1716.2999999970198","","48","","","3000","1","","","images/tutgreenplanet.jpg","images/tutalien1","images/tutalien2","null","images/tutalien1","images/nothing.png","NA","practice","null","","","",""
"d3-animate-choice","39","251797","0.0-39.0","2505","5213","10","Female","false","true","true","true","""event"",""trial"",""time""
""fullscreenenter"",""5"",""38652""
","
","
","""event"",""trial"",""time""
""fullscreenenter"",""5"",""38652""
","
","1026.1000000014901","","49","","","3000","1","","","images/tutgreenplanet.jpg","images/tutalien1","images/tutalien2","null","images/tutalien2","images/t.png","NA","practice","null","","","",""
"d3-animate-choice","40","254915","0.0-40.0","2505","5213","10","Female","false","true","true","true","""event"",""trial"",""time""
""fullscreenenter"",""5"",""38652""
","
","
","""event"",""trial"",""time""
""fullscreenenter"",""5"",""38652""
","
","1116.1999999955297","","48","","","3000","1","","","images/tutgreenplanet.jpg","images/tutalien1","images/tutalien2","null","images/tutalien1","images/nothing.png","NA","practice","null","","","",""
"d3-animate-choice","41","257330","0.0-41.0","2505","5213","10","Female","false","true","true","true","""event"",""trial"",""time""
""fullscreenenter"",""5"",""38652""
","
","
","""event"",""trial"",""time""
""fullscreenenter"",""5"",""38652""
","
","412.5","","48","","","3000","1","2033","48","images/tutgreenplanet.jpg","images/tutalien1","images/tutalien2","null","images/tutalien1","images/nothing.png","NA","practice","null","","","",""
"d3-animate-choice","42","259774","0.0-42.0","2505","5213","10","Female","false","true","true","true","""event"",""trial"",""time""
""fullscreenenter"",""5"",""38652""
","
","
","""event"",""trial"",""time""
""fullscreenenter"",""5"",""38652""
","
","442.6000000014901","","48","","","3000","1","","","images/tutgreenplanet.jpg","images/tutalien1","images/tutalien2","null","images/tutalien1","images/nothing.png","NA","practice","null","","","",""
"d3-animate-choice","43","262718","0.0-43.0","2505","5213","10","Female","false","true","true","true","""event"",""trial"",""time""
""fullscreenenter"",""5"",""38652""
","
","
","""event"",""trial"",""time""
""fullscreenenter"",""5"",""38652""
","
","939.1000000014901","","49","","","3000","1","","","images/tutgreenplanet.jpg","images/tutalien1","images/tutalien2","null","images/tutalien2","images/t.png","NA","practice","null","","","",""
"d3-instructions","44","274859","0.0-44.0","2505","5213","10","Female","false","true","true","true","""event"",""trial"",""time""
""fullscreenenter"",""5"",""38652""
","
","
","""event"",""trial"",""time""
""fullscreenenter"",""5"",""38652""
","
","","","","","","","","","","","","","","","","","","","","","",""
"d3-instructions","45","280185","0.0-45.0","2505","5213","10","Female","false","true","true","true","""event"",""trial"",""time""
""fullscreenenter"",""5"",""38652""
","
","
","""event"",""trial"",""time""
""fullscreenenter"",""5"",""38652""
","
","","","","","","","","","","","","","","","","","","","","","",""
"d3-instructions","46","281700","0.0-46.0","2505","5213","10","Female","false","true","true","true","""event"",""trial"",""time""
""fullscreenenter"",""5"",""38652""
","
","
","""event"",""trial"",""time""
""fullscreenenter"",""5"",""38652""
","
","","","","","","","","","","","","","","","","","","","","","",""
"d3-instructions","47","283335","0.0-47.0","2505","5213","10","Female","false","true","true","true","""event"",""trial"",""time""
""fullscreenenter"",""5"",""38652""
","
","
","""event"",""trial"",""time""
""fullscreenenter"",""5"",""38652""
","
","","","","","","","","","","","","","","","","","","","","","",""
"d3-instructions","48","284894","0.0-48.0","2505","5213","10","Female","false","true","true","true","""event"",""trial"",""time""
""fullscreenenter"",""5"",""38652""
","
","
","""event"",""trial"",""time""
""fullscreenenter"",""5"",""38652""
","
","","","","","","","","","","","","","","","","","","","","","",""
"d3-instructions","49","285614","0.0-49.0","2505","5213","10","Female","false","true","true","true","""event"",""trial"",""time""
""fullscreenenter"",""5"",""38652""
","
","
","""event"",""trial"",""time""
""fullscreenenter"",""5"",""38652""
","
","","","","","","","","","","","","","","","","","","","","","",""
"d3-instructions","50","292604","0.0-50.0","2505","5213","10","Female","false","true","true","true","""event"",""trial"",""time""
""fullscreenenter"",""5"",""38652""
","
","
","""event"",""trial"",""time""
""fullscreenenter"",""5"",""38652""
","
","","","","","","","","","","","","","","","","","","","","","",""
"d3-instructions","51","294735","0.0-51.0","2505","5213","10","Female","false","true","true","true","""event"",""trial"",""time""
""fullscreenenter"",""5"",""38652""
","
","
","""event"",""trial"",""time""
""fullscreenenter"",""5"",""38652""
","
","","","","","","","","","","","","","","","","","","","","","",""
"d3-instructions","52","295859","0.0-52.0","2505","5213","10","Female","false","true","true","true","""event"",""trial"",""time""
""fullscreenenter"",""5"",""38652""
","
","
","""event"",""trial"",""time""
""fullscreenenter"",""5"",""38652""
","
","","","","","","","","","","","","","","","","","","","","","",""
"d3-instructions","53","306526","0.0-53.0","2505","5213","10","Female","false","true","true","true","""event"",""trial"",""time""
""fullscreenenter"",""5"",""38652""
","
","
","""event"",""trial"",""time""
""fullscreenenter"",""5"",""38652""
","
","","","","","","","","","","","","","","","","","","","","","",""
"d3-instructions","54","323505","0.0-54.0","2505","5213","10","Female","false","true","true","true","""event"",""trial"",""time""
""fullscreenenter"",""5"",""38652""
","
","
","""event"",""trial"",""time""
""fullscreenenter"",""5"",""38652""
","
","","","","","","","","","","","","","","","","","","","","","",""
"d3-instructions","55","326685","0.0-55.0","2505","5213","10","Female","false","true","true","true","""event"",""trial"",""time""
""fullscreenenter"",""5"",""38652""
","
","
","""event"",""trial"",""time""
""fullscreenenter"",""5"",""38652""
","
","","","","","","","","","","","","","","","","","","","","","",""
"d3-instructions","56","328036","0.0-56.0","2505","5213","10","Female","false","true","true","true","""event"",""trial"",""time""
""fullscreenenter"",""5"",""38652""
","
","
","""event"",""trial"",""time""
""fullscreenenter"",""5"",""38652""
","
","","","","","","","","","","","","","","","","","","","","","",""
"d3-instructions","57","330075","0.0-57.0","2505","5213","10","Female","false","true","true","true","""event"",""trial"",""time""
""fullscreenenter"",""5"",""38652""
","
","
","""event"",""trial"",""time""
""fullscreenenter"",""5"",""38652""
","
","","","","","","","","","","","","","","","","","","","","","",""
"d3-instructions","58","339646","0.0-58.0","2505","5213","10","Female","false","true","true","true","""event"",""trial"",""time""
""fullscreenenter"",""5"",""38652""
","
","
","""event"",""trial"",""time""
""fullscreenenter"",""5"",""38652""
","
","","","","","","","","","","","","","","","","","","","","","",""
"d3-instructions","59","341850","0.0-59.0","2505","5213","10","Female","false","true","true","true","""event"",""trial"",""time""
""fullscreenenter"",""5"",""38652""
","
","
","""event"",""trial"",""time""
""fullscreenenter"",""5"",""38652""
","
","","","","","","","","","","","","","","","","","","","","","",""
"d3-instructions","60","349096","0.0-60.0","2505","5213","10","Female","false","true","true","true","""event"",""trial"",""time""
""fullscreenenter"",""5"",""38652""
","
","
","""event"",""trial"",""time""
""fullscreenenter"",""5"",""38652""
","
","","","","","","","","","","","","","","","","","","","","","",""
"d3-animate-choice","61","352192","0.0-61.0-0.0","2505","5213","10","Female","false","true","true","true","""event"",""trial"",""time""
""fullscreenenter"",""5"",""38652""
","
","
","""event"",""trial"",""time""
""fullscreenenter"",""5"",""38652""
","
","1092.8000000044703","","49","","","3000","1","","","images/earth.jpg","images/tutrocket2","images/tutrocket1","null","images/tutrocket1","","1","practice","null","1","","",""
"d3-animate-choice","62","356186","0.0-61.0-1.0","2505","5213","10","Female","false","true","true","true","""event"",""trial"",""time""
""fullscreenenter"",""5"",""38652""
","
","
","""event"",""trial"",""time""
""fullscreenenter"",""5"",""38652""
","
","1987","","49","","","3000","1","","","images/tutgreenplanet.jpg","images/tutalien2","images/tutalien1","images/tutrocket1","images/tutalien1","images/nothing.png","2","practice","true","1","common","0","2022-12-11 19:00:41.437"
"two-step-fixation","63","357191","0.0-61.0-2.0","2505","5213","10","Female","false","true","true","true","""event"",""trial"",""time""
""fullscreenenter"",""5"",""38652""
","
","
","""event"",""trial"",""time""
""fullscreenenter"",""5"",""38652""
","
","","images/earth.jpg","","","","","","","","","","","","","","fixation","","","","","",""
"d3-animate-choice","64","359513","0.0-61.0-0.1","2505","5213","10","Female","false","true","true","true","""event"",""trial"",""time""
""fullscreenenter"",""5"",""38652""
","
","
","""event"",""trial"",""time""
""fullscreenenter"",""5"",""38652""
","
","319.20000000298023","","48","","","3000","1","","","images/earth.jpg","images/tutrocket2","images/tutrocket1","null","images/tutrocket2","","1","practice","null","2","","",""
"d3-animate-choice","65","362107","0.0-61.0-1.1","2505","5213","10","Female","false","true","true","true","""event"",""trial"",""time""
""fullscreenenter"",""5"",""38652""
","
","
","""event"",""trial"",""time""
""fullscreenenter"",""5"",""38652""
","
","592.3999999985099","","48","","","3000","1","","","images/tutgreenplanet.jpg","images/tutalien2","images/tutalien1","images/tutrocket2","images/tutalien2","images/nothing.png","2","practice","false","2","rare","0","2022-12-11 19:00:47.358"
"two-step-fixation","66","363111","0.0-61.0-2.1","2505","5213","10","Female","false","true","true","true","""event"",""trial"",""time""
""fullscreenenter"",""5"",""38652""
","
","
","""event"",""trial"",""time""
""fullscreenenter"",""5"",""38652""
","
","","images/earth.jpg","","","","","","","","","","","","","","fixation","","","","","",""
"d3-animate-choice","67","365467","0.0-61.0-0.2","2505","5213","10","Female","false","true","true","true","""event"",""trial"",""time""
""fullscreenenter"",""5"",""38652""
","
","
","""event"",""trial"",""time""
""fullscreenenter"",""5"",""38652""
","
","353.40000000596046","","49","","","3000","1","","","images/earth.jpg","images/tutrocket2","images/tutrocket1","null","images/tutrocket1","","1","practice","null","1","","",""
"d3-animate-choice","68","368034","0.0-61.0-1.2","2505","5213","10","Female","false","true","true","true","""event"",""trial"",""time""
""fullscreenenter"",""5"",""38652""
","
","
","""event"",""trial"",""time""
""fullscreenenter"",""5"",""38652""
","
","563.2000000029802","","48","","","3000","1","","","images/tutgreenplanet.jpg","images/tutalien2","images/tutalien1","images/tutrocket1","images/tutalien2","images/t.png","2","practice","true","2","common","1","2022-12-11 19:00:53.285"
"two-step-fixation","69","369036","0.0-61.0-2.2","2505","5213","10","Female","false","true","true","true","""event"",""trial"",""time""
""fullscreenenter"",""5"",""38652""
","
","
","""event"",""trial"",""time""
""fullscreenenter"",""5"",""38652""
","
","","images/earth.jpg","","","","","","","","","","","","","","fixation","","","","","",""
"d3-animate-choice","70","371392","0.0-61.0-0.3","2505","5213","10","Female","false","true","true","true","""event"",""trial"",""time""
""fullscreenenter"",""5"",""38652""
","
","
","""event"",""trial"",""time""
""fullscreenenter"",""5"",""38652""
","
","353.20000000298023","","48","","","3000","1","","","images/earth.jpg","images/tutrocket2","images/tutrocket1","null","images/tutrocket2","","1","practice","null","2","","",""
"d3-animate-choice","71","374005","0.0-61.0-1.3","2505","5213","10","Female","false","true","true","true","""event"",""trial"",""time""
""fullscreenenter"",""5"",""38652""
","
","
","""event"",""trial"",""time""
""fullscreenenter"",""5"",""38652""
","
","608.2000000029802","","49","","","3000","1","","","images/tutyellowplanet.jpg","images/tutalien4","images/tutalien3","images/tutrocket2","images/tutalien3","images/nothing.png","2","practice","true","1","common","0","2022-12-11 19:00:59.256"
"two-step-fixation","72","375007","0.0-61.0-2.3","2505","5213","10","Female","false","true","true","true","""event"",""trial"",""time""
""fullscreenenter"",""5"",""38652""
","
","
","""event"",""trial"",""time""
""fullscreenenter"",""5"",""38652""
","
","","images/earth.jpg","","","","","","","","","","","","","","fixation","","","","","",""
"d3-animate-choice","73","377066","0.0-61.0-0.4","2505","5213","10","Female","false","true","true","true","""event"",""trial"",""time""
""fullscreenenter"",""5"",""38652""
","
","
","""event"",""trial"",""time""
""fullscreenenter"",""5"",""38652""
","
","52.79999999701977","","48","","","3000","1","","","images/earth.jpg","images/tutrocket2","images/tutrocket1","null","images/tutrocket2","","1","practice","null","2","","",""
"d3-animate-choice","74","379447","0.0-61.0-1.4","2505","5213","10","Female","false","true","true","true","""event"",""trial"",""time""
""fullscreenenter"",""5"",""38652""
","
","
","""event"",""trial"",""time""
""fullscreenenter"",""5"",""38652""
","
","378.40000000596046","","48","","","3000","1","","","images/tutyellowplanet.jpg","images/tutalien4","images/tutalien3","images/tutrocket2","images/tutalien4","images/nothing.png","2","practice","true","2","common","0","2022-12-11 19:01:04.699"
"two-step-fixation","75","380451","0.0-61.0-2.4","2505","5213","10","Female","false","true","true","true","""event"",""trial"",""time""
""fullscreenenter"",""5"",""38652""
","
","
","""event"",""trial"",""time""
""fullscreenenter"",""5"",""38652""
","
","","images/earth.jpg","","","","","","","","","","","","","","fixation","","","","","",""
"d3-animate-choice","76","383137","0.0-61.0-0.5","2505","5213","10","Female","false","true","true","true","""event"",""trial"",""time""
""fullscreenenter"",""5"",""38652""
","
","
","""event"",""trial"",""time""
""fullscreenenter"",""5"",""38652""
","
","683.8999999985099","","49","","","3000","1","","","images/earth.jpg","images/tutrocket2","images/tutrocket1","null","images/tutrocket1","","1","practice","null","1","","",""
"d3-animate-choice","77","385177","0.0-61.0-1.5","2505","5213","10","Female","false","true","true","true","""event"",""trial"",""time""
""fullscreenenter"",""5"",""38652""
","
","
","""event"",""trial"",""time""
""fullscreenenter"",""5"",""38652""
","
","37.600000001490116","","48","","","3000","1","","","images/tutgreenplanet.jpg","images/tutalien2","images/tutalien1","images/tutrocket1","images/tutalien2","images/nothing.png","2","practice","true","2","common","0","2022-12-11 19:01:10.428"
"two-step-fixation","78","386181","0.0-61.0-2.5","2505","5213","10","Female","false","true","true","true","""event"",""trial"",""time""
""fullscreenenter"",""5"",""38652""
","
","
","""event"",""trial"",""time""
""fullscreenenter"",""5"",""38652""
","
","","images/earth.jpg","","","","","","","","","","","","","","fixation","","","","","",""
"d3-animate-choice","79","388718","0.0-61.0-0.6","2505","5213","10","Female","false","true","true","true","""event"",""trial"",""time""
""fullscreenenter"",""5"",""38652""
","
","
","""event"",""trial"",""time""
""fullscreenenter"",""5"",""38652""
","
","533.7000000029802","","49","","","3000","1","","","images/earth.jpg","images/tutrocket2","images/tutrocket1","null","images/tutrocket1","","1","practice","null","1","","",""
"d3-animate-choice","80","391885","0.0-61.0-1.6","2505","5213","10","Female","false","true","true","true","""event"",""trial"",""time""
""fullscreenenter"",""5"",""38652""
","
","
","""event"",""trial"",""time""
""fullscreenenter"",""5"",""38652""
","
","1161.8999999985099","","49","","","3000","1","","","images/tutgreenplanet.jpg","images/tutalien2","images/tutalien1","images/tutrocket1","images/tutalien1","images/nothing.png","2","practice","true","1","common","0","2022-12-11 19:01:17.136"
"two-step-fixation","81","392886","0.0-61.0-2.6","2505","5213","10","Female","false","true","true","true","""event"",""trial"",""time""
""fullscreenenter"",""5"",""38652""
","
","
","""event"",""trial"",""time""
""fullscreenenter"",""5"",""38652""
","
","","images/earth.jpg","","","","","","","","","","","","","","fixation","","","","","",""
"d3-animate-choice","82","395185","0.0-61.0-0.7","2505","5213","10","Female","false","true","true","true","""event"",""trial"",""time""
""fullscreenenter"",""5"",""38652""
","
","
","""event"",""trial"",""time""
""fullscreenenter"",""5"",""38652""
","
","294.6000000014901","","49","","","3000","1","2049","49","images/earth.jpg","images/tutrocket2","images/tutrocket1","null","images/tutrocket1","","1","practice","null","1","","",""
"d3-animate-choice","83","397872","0.0-61.0-1.7","2505","5213","10","Female","false","true","true","true","""event"",""trial"",""time""
""fullscreenenter"",""5"",""38652""
","
","
","""event"",""trial"",""time""
""fullscreenenter"",""5"",""38652""
","
","680.8000000044703","","49","","","3000","1","","","images/tutgreenplanet.jpg","images/tutalien2","images/tutalien1","images/tutrocket1","images/tutalien1","images/nothing.png","2","practice","true","1","common","0","2022-12-11 19:01:23.123"
"two-step-fixation","84","398874","0.0-61.0-2.7","2505","5213","10","Female","false","true","true","true","""event"",""trial"",""time""
""fullscreenenter"",""5"",""38652""
","
","
","""event"",""trial"",""time""
""fullscreenenter"",""5"",""38652""
","
","","images/earth.jpg","","","","","","","","","","","","","","fixation","","","","","",""
"d3-animate-choice","85","401332","0.0-61.0-0.8","2505","5213","10","Female","false","true","true","true","""event"",""trial"",""time""
""fullscreenenter"",""5"",""38652""
","
","
","""event"",""trial"",""time""
""fullscreenenter"",""5"",""38652""
","
","456.80000000447035","","48","","","3000","1","","","images/earth.jpg","images/tutrocket2","images/tutrocket1","null","images/tutrocket2","","1","practice","null","2","","",""
"d3-animate-choice","86","404783","0.0-61.0-1.8","2505","5213","10","Female","false","true","true","true","""event"",""trial"",""time""
""fullscreenenter"",""5"",""38652""
","
","
","""event"",""trial"",""time""
""fullscreenenter"",""5"",""38652""
","
","368.29999999701977","","40","","","3000","1","503.3999999985099,742.8999999985099,1448.2999999970198","40,40,48","images/tutgreenplanet.jpg","images/tutalien2","images/tutalien1","images/tutrocket2","images/tutalien2","images/nothing.png","2","practice","false","","rare","0","2022-12-11 19:01:30.034"
"two-step-fixation","87","405785","0.0-61.0-2.8","2505","5213","10","Female","false","true","true","true","""event"",""trial"",""time""
""fullscreenenter"",""5"",""38652""
","
","
","""event"",""trial"",""time""
""fullscreenenter"",""5"",""38652""
","
","","images/earth.jpg","","","","","","","","","","","","","","fixation","","","","","",""
"d3-animate-choice","88","409787","0.0-61.0-0.9","2505","5213","10","Female","false","true","true","true","""event"",""trial"",""time""
""fullscreenenter"",""5"",""38652""
","
","
","""event"",""trial"",""time""
""fullscreenenter"",""5"",""38652""
","
","131.09999999403954","","40","","","3000","1","160.5,836,865.7999999970198,1480.8999999985099,1885.6999999955297,2636.1999999955297,2935.7999999970198","18,192,192,192,192,49,49","images/earth.jpg","images/tutrocket2","images/tutrocket1","null","images/tutrocket1","","1","practice","null","","","",""
"d3-animate-choice","89","412298","0.0-61.0-1.9","2505","5213","10","Female","false","true","true","true","""event"",""trial"",""time""
""fullscreenenter"",""5"",""38652""
","
","
","""event"",""trial"",""time""
""fullscreenenter"",""5"",""38652""
","
","508.5","","48","","","3000","1","898.2999999970198,1288.0999999940395,1453.5","48,48,48","images/tutgreenplanet.jpg","images/tutalien2","images/tutalien1","images/tutrocket1","images/tutalien2","images/t.png","2","practice","true","2","common","1","2022-12-11 19:01:37.549"
"two-step-fixation","90","413302","0.0-61.0-2.9","2505","5213","10","Female","false","true","true","true","""event"",""trial"",""time""
""fullscreenenter"",""5"",""38652""
","
","
","""event"",""trial"",""time""
""fullscreenenter"",""5"",""38652""
","
","","images/earth.jpg","","","","","","","","","","","","","","fixation","","","","","",""
"d3-animate-choice","91","415734","0.0-61.0-0.10","2505","5213","10","Female","false","true","true","true","""event"",""trial"",""time""
""fullscreenenter"",""5"",""38652""
","
","
","""event"",""trial"",""time""
""fullscreenenter"",""5"",""38652""
","
","428.69999999552965","","48","","","3000","1","","","images/earth.jpg","images/tutrocket2","images/tutrocket1","null","images/tutrocket2","","1","practice","null","2","","",""
"d3-animate-choice","92","418509","0.0-61.0-1.10","2505","5213","10","Female","false","true","true","true","""event"",""trial"",""time""
""fullscreenenter"",""5"",""38652""
","
","
","""event"",""trial"",""time""
""fullscreenenter"",""5"",""38652""
","
","771.7000000029802","","48","","","3000","1","","","images/tutyellowplanet.jpg","images/tutalien4","images/tutalien3","images/tutrocket2","images/tutalien4","images/nothing.png","2","practice","true","2","common","0","2022-12-11 19:01:43.760"
"two-step-fixation","93","419514","0.0-61.0-2.10","2505","5213","10","Female","false","true","true","true","""event"",""trial"",""time""
""fullscreenenter"",""5"",""38652""
","
","
","""event"",""trial"",""time""
""fullscreenenter"",""5"",""38652""
","
","","images/earth.jpg","","","","","","","","","","","","","","fixation","","","","","",""
"d3-animate-choice","94","422741","0.0-61.0-0.11","2505","5213","10","Female","false","true","true","true","""event"",""trial"",""time""
""fullscreenenter"",""5"",""38652""
","
","
","""event"",""trial"",""time""
""fullscreenenter"",""5"",""38652""
","
","1222.3999999985099","","49","","","3000","1","","","images/earth.jpg","images/tutrocket2","images/tutrocket1","null","images/tutrocket1","","1","practice","null","1","","",""
"d3-animate-choice","95","426009","0.0-61.0-1.11","2505","5213","10","Female","false","true","true","true","""event"",""trial"",""time""
""fullscreenenter"",""5"",""38652""
","
","
","""event"",""trial"",""time""
""fullscreenenter"",""5"",""38652""
","
","1264.7999999970198","","48","","","3000","1","","","images/tutgreenplanet.jpg","images/tutalien2","images/tutalien1","images/tutrocket1","images/tutalien2","images/nothing.png","2","practice","true","2","common","0","2022-12-11 19:01:51.260"
"two-step-fixation","96","427011","0.0-61.0-2.11","2505","5213","10","Female","false","true","true","true","""event"",""trial"",""time""
""fullscreenenter"",""5"",""38652""
","
","
","""event"",""trial"",""time""
""fullscreenenter"",""5"",""38652""
","
","","images/earth.jpg","","","","","","","","","","","","","","fixation","","","","","",""
"d3-animate-choice","97","429579","0.0-61.0-0.12","2505","5213","10","Female","false","true","true","true","""event"",""trial"",""time""
""fullscreenenter"",""5"",""38652""
","
","
","""event"",""trial"",""time""
""fullscreenenter"",""5"",""38652""
","
","564.6999999955297","","49","","","3000","1","","","images/earth.jpg","images/tutrocket2","images/tutrocket1","null","images/tutrocket1","","1","practice","null","1","","",""
"d3-animate-choice","98","432129","0.0-61.0-1.12","2505","5213","10","Female","false","true","true","true","""event"",""trial"",""time""
""fullscreenenter"",""5"",""38652""
","
","
","""event"",""trial"",""time""
""fullscreenenter"",""5"",""38652""
","
","547.0999999940395","","49","","","3000","1","","","images/tutgreenplanet.jpg","images/tutalien2","images/tutalien1","images/tutrocket1","images/tutalien1","images/nothing.png","2","practice","true","1","common","0","2022-12-11 19:01:57.380"
"two-step-fixation","99","433132","0.0-61.0-2.12","2505","5213","10","Female","false","true","true","true","""event"",""trial"",""time""
""fullscreenenter"",""5"",""38652""
","
","
","""event"",""trial"",""time""
""fullscreenenter"",""5"",""38652""
","
","","images/earth.jpg","","","","","","","","","","","","","","fixation","","","","","",""
"d3-animate-choice","100","435474","0.0-61.0-0.13","2505","5213","10","Female","false","true","true","true","""event"",""trial"",""time""
""fullscreenenter"",""5"",""38652""
","
","
","""event"",""trial"",""time""
""fullscreenenter"",""5"",""38652""
","
","339.29999999701977","","48","","","3000","1","","","images/earth.jpg","images/tutrocket2","images/tutrocket1","null","images/tutrocket2","","1","practice","null","2","","",""
"d3-animate-choice","101","438293","0.0-61.0-1.13","2505","5213","10","Female","false","true","true","true","""event"",""trial"",""time""
""fullscreenenter"",""5"",""38652""
","
","
","""event"",""trial"",""time""
""fullscreenenter"",""5"",""38652""
","
","817.5","","48","","","3000","1","","","images/tutgreenplanet.jpg","images/tutalien2","images/tutalien1","images/tutrocket2","images/tutalien2","images/nothing.png","2","practice","false","2","rare","0","2022-12-11 19:02:03.544"
"two-step-fixation","102","439297","0.0-61.0-2.13","2505","5213","10","Female","false","true","true","true","""event"",""trial"",""time""
""fullscreenenter"",""5"",""38652""
","
","
","""event"",""trial"",""time""
""fullscreenenter"",""5"",""38652""
","
","","images/earth.jpg","","","","","","","","","","","","","","fixation","","","","","",""
"d3-animate-choice","103","441943","0.0-61.0-0.14","2505","5213","10","Female","false","true","true","true","""event"",""trial"",""time""
""fullscreenenter"",""5"",""38652""
","
","
","""event"",""trial"",""time""
""fullscreenenter"",""5"",""38652""
","
","639.7999999970198","","49","","","3000","1","","","images/earth.jpg","images/tutrocket2","images/tutrocket1","null","images/tutrocket1","","1","practice","null","1","","",""
"d3-animate-choice","104","445314","0.0-61.0-1.14","2505","5213","10","Female","false","true","true","true","""event"",""trial"",""time""
""fullscreenenter"",""5"",""38652""
","
","
","""event"",""trial"",""time""
""fullscreenenter"",""5"",""38652""
","
","1368.6999999955297","","49","","","3000","1","","","images/tutgreenplanet.jpg","images/tutalien2","images/tutalien1","images/tutrocket1","images/tutalien1","images/nothing.png","2","practice","true","1","common","0","2022-12-11 19:02:10.565"
"two-step-fixation","105","446317","0.0-61.0-2.14","2505","5213","10","Female","false","true","true","true","""event"",""trial"",""time""
""fullscreenenter"",""5"",""38652""
","
","
","""event"",""trial"",""time""
""fullscreenenter"",""5"",""38652""
","
","","images/earth.jpg","","","","","","","","","","","","","","fixation","","","","","",""
"d3-animate-choice","106","449067","0.0-61.0-0.15","2505","5213","10","Female","false","true","true","true","""event"",""trial"",""time""
""fullscreenenter"",""5"",""38652""
","
","
","""event"",""trial"",""time""
""fullscreenenter"",""5"",""38652""
","
","743.6000000014901","","49","","","3000","1","","","images/earth.jpg","images/tutrocket2","images/tutrocket1","null","images/tutrocket1","","1","practice","null","1","","",""
"d3-animate-choice","107","451631","0.0-61.0-1.15","2505","5213","10","Female","false","true","true","true","""event"",""trial"",""time""
""fullscreenenter"",""5"",""38652""
","
","
","""event"",""trial"",""time""
""fullscreenenter"",""5"",""38652""
","
","559.7999999970198","","49","","","3000","1","","","images/tutyellowplanet.jpg","images/tutalien4","images/tutalien3","images/tutrocket1","images/tutalien3","images/nothing.png","2","practice","false","1","rare","0","2022-12-11 19:02:16.882"
"two-step-fixation","108","452635","0.0-61.0-2.15","2505","5213","10","Female","false","true","true","true","""event"",""trial"",""time""
""fullscreenenter"",""5"",""38652""
","
","
","""event"",""trial"",""time""
""fullscreenenter"",""5"",""38652""
","
","","images/earth.jpg","","","","","","","","","","","","","","fixation","","","","","",""
"d3-animate-choice","109","455214","0.0-61.0-0.16","2505","5213","10","Female","false","true","true","true","""event"",""trial"",""time""
""fullscreenenter"",""5"",""38652""
","
","
","""event"",""trial"",""time""
""fullscreenenter"",""5"",""38652""
","
","577.5","","48","","","3000","1","","","images/earth.jpg","images/tutrocket2","images/tutrocket1","null","images/tutrocket2","","1","practice","null","2","","",""
"d3-animate-choice","110","457704","0.0-61.0-1.16","2505","5213","10","Female","false","true","true","true","""event"",""trial"",""time""
""fullscreenenter"",""5"",""38652""
","
","
","""event"",""trial"",""time""
""fullscreenenter"",""5"",""38652""
","
","487","","48","","","3000","1","","","images/tutyellowplanet.jpg","images/tutalien4","images/tutalien3","images/tutrocket2","images/tutalien4","images/nothing.png","2","practice","true","2","common","0","2022-12-11 19:02:22.955"
"two-step-fixation","111","458708","0.0-61.0-2.16","2505","5213","10","Female","false","true","true","true","""event"",""trial"",""time""
""fullscreenenter"",""5"",""38652""
","
","
","""event"",""trial"",""time""
""fullscreenenter"",""5"",""38652""
","
","","images/earth.jpg","","","","","","","","","","","","","","fixation","","","","","",""
"d3-animate-choice","112","461952","0.0-61.0-0.17","2505","5213","10","Female","false","true","true","true","""event"",""trial"",""time""
""fullscreenenter"",""5"",""38652""
","
","
","""event"",""trial"",""time""
""fullscreenenter"",""5"",""38652""
","
","1238.1000000014901","","49","","","3000","1","","","images/earth.jpg","images/tutrocket2","images/tutrocket1","null","images/tutrocket1","","1","practice","null","1","","",""
"d3-animate-choice","113","464485","0.0-61.0-1.17","2505","5213","10","Female","false","true","true","true","""event"",""trial"",""time""
""fullscreenenter"",""5"",""38652""
","
","
","""event"",""trial"",""time""
""fullscreenenter"",""5"",""38652""
","
","529.2999999970198","","49","","","3000","1","","","images/tutyellowplanet.jpg","images/tutalien4","images/tutalien3","images/tutrocket1","images/tutalien3","images/t.png","2","practice","false","1","rare","1","2022-12-11 19:02:29.736"
"two-step-fixation","114","465489","0.0-61.0-2.17","2505","5213","10","Female","false","true","true","true","""event"",""trial"",""time""
""fullscreenenter"",""5"",""38652""
","
","
","""event"",""trial"",""time""
""fullscreenenter"",""5"",""38652""
","
","","images/earth.jpg","","","","","","","","","","","","","","fixation","","","","","",""
"d3-animate-choice","115","467590","0.0-61.0-0.18","2505","5213","10","Female","false","true","true","true","""event"",""trial"",""time""
""fullscreenenter"",""5"",""38652""
","
","
","""event"",""trial"",""time""
""fullscreenenter"",""5"",""38652""
","
","97.69999999552965","","49","","","3000","1","","","images/earth.jpg","images/tutrocket2","images/tutrocket1","null","images/tutrocket1","","1","practice","null","1","","",""
"d3-animate-choice","116","469976","0.0-61.0-1.18","2505","5213","10","Female","false","true","true","true","""event"",""trial"",""time""
""fullscreenenter"",""5"",""38652""
","
","
","""event"",""trial"",""time""
""fullscreenenter"",""5"",""38652""
","
","381.6000000014901","","48","","","3000","1","","","images/tutgreenplanet.jpg","images/tutalien2","images/tutalien1","images/tutrocket1","images/tutalien2","images/nothing.png","2","practice","true","2","common","0","2022-12-11 19:02:35.227"
"two-step-fixation","117","470978","0.0-61.0-2.18","2505","5213","10","Female","false","true","true","true","""event"",""trial"",""time""
""fullscreenenter"",""5"",""38652""
","
","
","""event"",""trial"",""time""
""fullscreenenter"",""5"",""38652""
","
","","images/earth.jpg","","","","","","","","","","","","","","fixation","","","","","",""
"d3-animate-choice","118","473215","0.0-61.0-0.19","2505","5213","10","Female","false","true","true","true","""event"",""trial"",""time""
""fullscreenenter"",""5"",""38652""
","
","
","""event"",""trial"",""time""
""fullscreenenter"",""5"",""38652""
","
","234.30000000447035","","48","","","3000","1","","","images/earth.jpg","images/tutrocket2","images/tutrocket1","null","images/tutrocket2","","1","practice","null","2","","",""
"d3-animate-choice","119","476784","0.0-61.0-1.19","2505","5213","10","Female","false","true","true","true","""event"",""trial"",""time""
""fullscreenenter"",""5"",""38652""
","
","
","""event"",""trial"",""time""
""fullscreenenter"",""5"",""38652""
","
","1566.8000000044703","","49","","","3000","1","","","images/tutgreenplanet.jpg","images/tutalien2","images/tutalien1","images/tutrocket2","images/tutalien1","images/t.png","2","practice","false","1","rare","1","2022-12-11 19:02:42.035"
"two-step-fixation","120","477787","0.0-61.0-2.19","2505","5213","10","Female","false","true","true","true","""event"",""trial"",""time""
""fullscreenenter"",""5"",""38652""
","
","
","""event"",""trial"",""time""
""fullscreenenter"",""5"",""38652""
","
","","images/earth.jpg","","","","","","","","","","","","","","fixation","","","","","",""
"d3-instructions","121","482613","0.0-62.0","2505","5213","10","Female","false","true","true","true","""event"",""trial"",""time""
""fullscreenenter"",""5"",""38652""
","
","
","""event"",""trial"",""time""
""fullscreenenter"",""5"",""38652""
","
","","","","","","","","","","","","","","","","","","","","","",""
"audio-keyboard-response","122","486813","0.0-63.0","2505","5213","10","Female","false","true","true","true","""event"",""trial"",""time""
""fullscreenenter"",""5"",""38652""
","
","
","""event"",""trial"",""time""
""fullscreenenter"",""5"",""38652""
","
","4197","audio/instructions/treasure_feedback.wav","32","","","","","","","","","","","","","","","","","","",""
"d3-instructions","123","489903","0.0-64.0","2505","5213","10","Female","false","true","true","true","""event"",""trial"",""time""
""fullscreenenter"",""5"",""38652""
","
","
","""event"",""trial"",""time""
""fullscreenenter"",""5"",""38652""
","
","","","","","","","","","","","","","","","","","","","","","",""
"d3-instructions","124","490638","0.0-65.0","2505","5213","10","Female","false","true","true","true","""event"",""trial"",""time""
""fullscreenenter"",""5"",""38652""
","
","
","""event"",""trial"",""time""
""fullscreenenter"",""5"",""38652""
","
","","","","","","","","","","","","","","","","","","","","","",""
"d3-instructions","125","491478","0.0-66.0","2505","5213","10","Female","false","true","true","true","""event"",""trial"",""time""
""fullscreenenter"",""5"",""38652""
","
","
","""event"",""trial"",""time""
""fullscreenenter"",""5"",""38652""
","
","","","","","","","","","","","","","","","","","","","","","",""
"d3-instructions","126","492513","0.0-67.0","2505","5213","10","Female","false","true","true","true","""event"",""trial"",""time""
""fullscreenenter"",""5"",""38652""
","
","
","""event"",""trial"",""time""
""fullscreenenter"",""5"",""38652""
","
","","","","","","","","","","","","","","","","","","","","","",""
"d3-instructions","127","493098","0.0-68.0","2505","5213","10","Female","false","true","true","true","""event"",""trial"",""time""
""fullscreenenter"",""5"",""38652""
","
","
","""event"",""trial"",""time""
""fullscreenenter"",""5"",""38652""
","
","","","","","","","","","","","","","","","","","","","","","",""
"instructions-quiz","128","497951","0.0-69.0","2505","5213","10","Female","false","true","true","true","""event"",""trial"",""time""
""fullscreenenter"",""5"",""38652""
","
","
","""event"",""trial"",""time""
""fullscreenenter"",""5"",""38652""
","
","4827","audio/quiz/Q1_Prompt.wav","","1","","","","","","","","","","","","","","","","","",""
"audio-keyboard-response","129","506089","0.0-70.0","2505","5213","10","Female","false","true","true","true","""event"",""trial"",""time""
""fullscreenenter"",""5"",""38652""
","
","
","""event"",""trial"",""time""
""fullscreenenter"",""5"",""38652""
","
","8139","audio/quiz/Q1_Correct.wav","32","","","","","","","","","","","","","","","","","","",""
"instructions-quiz","130","515588","0.0-71.0","2505","5213","10","Female","false","true","true","true","""event"",""trial"",""time""
""fullscreenenter"",""5"",""38652""
","
","
","""event"",""trial"",""time""
""fullscreenenter"",""5"",""38652""
","
","9498.20000000298","audio/quiz/Q2_Prompt.wav","","1","","","","","","","","","","","","","","","","","",""
"audio-keyboard-response","131","529663","0.0-72.0","2505","5213","10","Female","false","true","true","true","""event"",""trial"",""time""
""fullscreenenter"",""5"",""38652""
","
","
","""event"",""trial"",""time""
""fullscreenenter"",""5"",""38652""
","
","null","audio/quiz/Q2_Incorrect.wav","null","","","","","","","","","","","","","","","","","","",""
"instructions-quiz","132","533920","0.0-73.0","2505","5213","10","Female","false","true","true","true","""event"",""trial"",""time""
""fullscreenenter"",""5"",""38652""
","
","
","""event"",""trial"",""time""
""fullscreenenter"",""5"",""38652""
","
","4256.79999999702","audio/quiz/Q3_Prompt.wav","","1","","","","","","","","","","","","","","","","","",""
"audio-keyboard-response","133","539717","0.0-74.0","2505","5213","10","Female","false","true","true","true","""event"",""trial"",""time""
""fullscreenenter"",""5"",""38652""
","
","
","""event"",""trial"",""time""
""fullscreenenter"",""5"",""38652""
","
","null","audio/quiz/Q3_Correct.wav","null","","","","","","","","","","","","","","","","","","",""
"d3-instructions","134","542584","0.0-75.0","2505","5213","10","Female","false","true","true","true","""event"",""trial"",""time""
""fullscreenenter"",""5"",""38652""
","
","
","""event"",""trial"",""time""
""fullscreenenter"",""5"",""38652""
","
","","","","","","","","","","","","","","","","","","","","","",""
"d3-animate-choice","135","546073","0.0-76.0-0.0","2505","5213","10","Female","false","true","true","true","""event"",""trial"",""time""
""fullscreenenter"",""5"",""38652""
","
","
","""event"",""trial"",""time""
""fullscreenenter"",""5"",""38652""
","
","1484.3999999985099","","49","","","3000","1","","","images/earth.jpg","images/rocket1","images/rocket2","null","images/rocket2","","1","real","null","1","","",""
"d3-animate-choice","136","548608","0.0-76.0-1.0","2505","5213","10","Female","false","true","true","true","""event"",""trial"",""time""
""fullscreenenter"",""5"",""38652""
","
","
","""event"",""trial"",""time""
""fullscreenenter"",""5"",""38652""
","
","530.1000000014901","","48","","","3000","1","","","images/purpleplanet.jpg","images/alien4","images/alien3","images/rocket2","images/alien4","images/t.png","2","real","true","2","common","1","2022-12-11 19:03:53.859"
"two-step-fixation","137","549614","0.0-76.0-2.0","2505","5213","10","Female","false","true","true","true","""event"",""trial"",""time""
""fullscreenenter"",""5"",""38652""
","
","
","""event"",""trial"",""time""
""fullscreenenter"",""5"",""38652""
","
","","images/earth.jpg","","","","","","","","","","","","","","fixation","","","","","",""
"d3-animate-choice","138","552041","0.0-76.0-0.1","2505","5213","10","Female","false","true","true","true","""event"",""trial"",""time""
""fullscreenenter"",""5"",""38652""
","
","
","""event"",""trial"",""time""
""fullscreenenter"",""5"",""38652""
","
","423.8999999985099","","48","","","3000","1","","","images/earth.jpg","images/rocket1","images/rocket2","null","images/rocket1","","1","real","null","2","","",""
"d3-animate-choice","139","554729","0.0-76.0-1.1","2505","5213","10","Female","false","true","true","true","""event"",""trial"",""time""
""fullscreenenter"",""5"",""38652""
","
","
","""event"",""trial"",""time""
""fullscreenenter"",""5"",""38652""
","
","682.5","","48","","","3000","1","","","images/redplanet1.jpg","images/alien2","images/alien1","images/rocket1","images/alien2","images/t.png","2","real","true","2","common","1","2022-12-11 19:03:59.980"
"two-step-fixation","140","555733","0.0-76.0-2.1","2505","5213","10","Female","false","true","true","true","""event"",""trial"",""time""
""fullscreenenter"",""5"",""38652""
","
","
","""event"",""trial"",""time""
""fullscreenenter"",""5"",""38652""
","
","","images/earth.jpg","","","","","","","","","","","","","","fixation","","","","","",""
"d3-animate-choice","141","558074","0.0-76.0-0.2","2505","5213","10","Female","false","true","true","true","""event"",""trial"",""time""
""fullscreenenter"",""5"",""38652""
","
","
","""event"",""trial"",""time""
""fullscreenenter"",""5"",""38652""
","
","335.80000000447035","","49","","","3000","1","","","images/earth.jpg","images/rocket1","images/rocket2","null","images/rocket2","","1","real","null","1","","",""
"d3-animate-choice","142","560667","0.0-76.0-1.2","2505","5213","10","Female","false","true","true","true","""event"",""trial"",""time""
""fullscreenenter"",""5"",""38652""
","
","
","""event"",""trial"",""time""
""fullscreenenter"",""5"",""38652""
","
","589","","49","","","3000","1","","","images/redplanet1.jpg","images/alien2","images/alien1","images/rocket2","images/alien1","images/nothing.png","2","real","false","1","rare","0","2022-12-11 19:04:05.918"
"two-step-fixation","143","561670","0.0-76.0-2.2","2505","5213","10","Female","false","true","true","true","""event"",""trial"",""time""
""fullscreenenter"",""5"",""38652""
","
","
","""event"",""trial"",""time""
""fullscreenenter"",""5"",""38652""
","
","","images/earth.jpg","","","","","","","","","","","","","","fixation","","","","","",""
"d3-animate-choice","144","563773","0.0-76.0-0.3","2505","5213","10","Female","false","true","true","true","""event"",""trial"",""time""
""fullscreenenter"",""5"",""38652""
","
","
","""event"",""trial"",""time""
""fullscreenenter"",""5"",""38652""
","
","98.10000000149012","","48","","","3000","1","","","images/earth.jpg","images/rocket1","images/rocket2","null","images/rocket1","","1","real","null","2","","",""
"d3-animate-choice","145","566665","0.0-76.0-1.3","2505","5213","10","Female","false","true","true","true","""event"",""trial"",""time""
""fullscreenenter"",""5"",""38652""
","
","
","""event"",""trial"",""time""
""fullscreenenter"",""5"",""38652""
","
","890.3000000044703","","48","","","3000","1","","","images/purpleplanet.jpg","images/alien4","images/alien3","images/rocket1","images/alien4","images/t.png","2","real","false","2","rare","1","2022-12-11 19:04:11.916"
"two-step-fixation","146","567667","0.0-76.0-2.3","2505","5213","10","Female","false","true","true","true","""event"",""trial"",""time""
""fullscreenenter"",""5"",""38652""
","
","
","""event"",""trial"",""time""
""fullscreenenter"",""5"",""38652""
","
","","images/earth.jpg","","","","","","","","","","","","","","fixation","","","","","",""
"d3-animate-choice","147","569982","0.0-76.0-0.4","2505","5213","10","Female","false","true","true","true","""event"",""trial"",""time""
""fullscreenenter"",""5"",""38652""
","
","
","""event"",""trial"",""time""
""fullscreenenter"",""5"",""38652""
","
","311.30000000447035","","48","","","3000","1","","","images/earth.jpg","images/rocket1","images/rocket2","null","images/rocket1","","1","real","null","2","","",""
"d3-animate-choice","148","572682","0.0-76.0-1.4","2505","5213","10","Female","false","true","true","true","""event"",""trial"",""time""
""fullscreenenter"",""5"",""38652""
","
","
","""event"",""trial"",""time""
""fullscreenenter"",""5"",""38652""
","
","696.6999999955297","","49","","","3000","1","","","images/redplanet1.jpg","images/alien2","images/alien1","images/rocket1","images/alien1","images/t.png","2","real","true","1","common","1","2022-12-11 19:04:17.933"
"two-step-fixation","149","573684","0.0-76.0-2.4","2505","5213","10","Female","false","true","true","true","""event"",""trial"",""time""
""fullscreenenter"",""5"",""38652""
","
","
","""event"",""trial"",""time""
""fullscreenenter"",""5"",""38652""
","
","","images/earth.jpg","","","","","","","","","","","","","","fixation","","","","","",""
"d3-animate-choice","150","576074","0.0-76.0-0.5","2505","5213","10","Female","false","true","true","true","""event"",""trial"",""time""
""fullscreenenter"",""5"",""38652""
","
","
","""event"",""trial"",""time""
""fullscreenenter"",""5"",""38652""
","
","384.1000000014901","","48","","","3000","1","","","images/earth.jpg","images/rocket1","images/rocket2","null","images/rocket1","","1","real","null","2","","",""
"d3-animate-choice","151","578698","0.0-76.0-1.5","2505","5213","10","Female","false","true","true","true","""event"",""trial"",""time""
""fullscreenenter"",""5"",""38652""
","
","
","""event"",""trial"",""time""
""fullscreenenter"",""5"",""38652""
","
","619","","48","","","3000","1","","","images/redplanet1.jpg","images/alien2","images/alien1","images/rocket1","images/alien2","images/nothing.png","2","real","true","2","common","0","2022-12-11 19:04:23.949"
"two-step-fixation","152","579703","0.0-76.0-2.5","2505","5213","10","Female","false","true","true","true","""event"",""trial"",""time""
""fullscreenenter"",""5"",""38652""
","
","
","""event"",""trial"",""time""
""fullscreenenter"",""5"",""38652""
","
","","images/earth.jpg","","","","","","","","","","","","","","fixation","","","","","",""
"d3-animate-choice","153","581908","0.0-76.0-0.6","2505","5213","10","Female","false","true","true","true","""event"",""trial"",""time""
""fullscreenenter"",""5"",""38652""
","
","
","""event"",""trial"",""time""
""fullscreenenter"",""5"",""38652""
","
","201.5","","48","","","3000","1","","","images/earth.jpg","images/rocket1","images/rocket2","null","images/rocket1","","1","real","null","2","","",""
"d3-animate-choice","154","584473","0.0-76.0-1.6","2505","5213","10","Female","false","true","true","true","""event"",""trial"",""time""
""fullscreenenter"",""5"",""38652""
","
","
","""event"",""trial"",""time""
""fullscreenenter"",""5"",""38652""
","
","560.6000000014901","","49","","","3000","1","","","images/redplanet1.jpg","images/alien2","images/alien1","images/rocket1","images/alien1","images/nothing.png","2","real","true","1","common","0","2022-12-11 19:04:29.724"
"two-step-fixation","155","585478","0.0-76.0-2.6","2505","5213","10","Female","false","true","true","true","""event"",""trial"",""time""
""fullscreenenter"",""5"",""38652""
","
","
","""event"",""trial"",""time""
""fullscreenenter"",""5"",""38652""
","
","","images/earth.jpg","","","","","","","","","","","","","","fixation","","","","","",""
"d3-animate-choice","156","587502","0.0-76.0-0.7","2505","5213","10","Female","false","true","true","true","""event"",""trial"",""time""
""fullscreenenter"",""5"",""38652""
","
","
","""event"",""trial"",""time""
""fullscreenenter"",""5"",""38652""
","
","21.399999998509884","","48","","","3000","1","","","images/earth.jpg","images/rocket1","images/rocket2","null","images/rocket1","","1","real","null","2","","",""
"d3-animate-choice","157","590128","0.0-76.0-1.7","2505","5213","10","Female","false","true","true","true","""event"",""trial"",""time""
""fullscreenenter"",""5"",""38652""
","
","
","""event"",""trial"",""time""
""fullscreenenter"",""5"",""38652""
","
","622","","48","","","3000","1","","","images/redplanet1.jpg","images/alien2","images/alien1","images/rocket1","images/alien2","images/t.png","2","real","true","2","common","1","2022-12-11 19:04:35.379"
"two-step-fixation","158","591130","0.0-76.0-2.7","2505","5213","10","Female","false","true","true","true","""event"",""trial"",""time""
""fullscreenenter"",""5"",""38652""
","
","
","""event"",""trial"",""time""
""fullscreenenter"",""5"",""38652""
","
","","images/earth.jpg","","","","","","","","","","","","","","fixation","","","","","",""
"d3-animate-choice","159","593561","0.0-76.0-0.8","2505","5213","10","Female","false","true","true","true","""event"",""trial"",""time""
""fullscreenenter"",""5"",""38652""
","
","
","""event"",""trial"",""time""
""fullscreenenter"",""5"",""38652""
","
","428.80000000447035","","49","","","3000","1","518.7000000029802,533.2000000029802","40,38","images/earth.jpg","images/rocket1","images/rocket2","null","images/rocket2","","1","real","null","1","","",""
"d3-animate-choice","160","595871","0.0-76.0-1.8","2505","5213","10","Female","false","true","true","true","""event"",""trial"",""time""
""fullscreenenter"",""5"",""38652""
","
","
","""event"",""trial"",""time""
""fullscreenenter"",""5"",""38652""
","
","308","","49","","","3000","1","","","images/redplanet1.jpg","images/alien2","images/alien1","images/rocket2","images/alien1","images/t.png","2","real","false","1","rare","1","2022-12-11 19:04:41.122"
"two-step-fixation","161","596873","0.0-76.0-2.8","2505","5213","10","Female","false","true","true","true","""event"",""trial"",""time""
""fullscreenenter"",""5"",""38652""
","
","
","""event"",""trial"",""time""
""fullscreenenter"",""5"",""38652""
","
","","images/earth.jpg","","","","","","","","","","","","","","fixation","","","","","",""
"d3-animate-choice","162","598977","0.0-76.0-0.9","2505","5213","10","Female","false","true","true","true","""event"",""trial"",""time""
""fullscreenenter"",""5"",""38652""
","
","
","""event"",""trial"",""time""
""fullscreenenter"",""5"",""38652""
","
","101.30000000447035","","49","","","3000","1","","","images/earth.jpg","images/rocket1","images/rocket2","null","images/rocket2","","1","real","null","1","","",""
"d3-animate-choice","163","601826","0.0-76.0-1.9","2505","5213","10","Female","false","true","true","true","""event"",""trial"",""time""
""fullscreenenter"",""5"",""38652""
","
","
","""event"",""trial"",""time""
""fullscreenenter"",""5"",""38652""
","
","847.7999999970198","","48","","","3000","1","","","images/purpleplanet.jpg","images/alien4","images/alien3","images/rocket2","images/alien4","images/t.png","2","real","true","2","common","1","2022-12-11 19:04:47.077"
"two-step-fixation","164","602828","0.0-76.0-2.9","2505","5213","10","Female","false","true","true","true","""event"",""trial"",""time""
""fullscreenenter"",""5"",""38652""
","
","
","""event"",""trial"",""time""
""fullscreenenter"",""5"",""38652""
","
","","images/earth.jpg","","","","","","","","","","","","","","fixation","","","","","",""
"d3-animate-choice","165","605413","0.0-76.0-0.10","2505","5213","10","Female","false","true","true","true","""event"",""trial"",""time""
""fullscreenenter"",""5"",""38652""
","
","
","""event"",""trial"",""time""
""fullscreenenter"",""5"",""38652""
","
","580.7000000029802","","49","","","3000","1","","","images/earth.jpg","images/rocket1","images/rocket2","null","images/rocket2","","1","real","null","1","","",""
"d3-animate-choice","166","607993","0.0-76.0-1.10","2505","5213","10","Female","false","true","true","true","""event"",""trial"",""time""
""fullscreenenter"",""5"",""38652""
","
","
","""event"",""trial"",""time""
""fullscreenenter"",""5"",""38652""
","
","576.5999999940395","","49","","","3000","1","","","images/purpleplanet.jpg","images/alien4","images/alien3","images/rocket2","images/alien3","images/nothing.png","2","real","true","1","common","0","2022-12-11 19:04:53.244"
"two-step-fixation","167","608994","0.0-76.0-2.10","2505","5213","10","Female","false","true","true","true","""event"",""trial"",""time""
""fullscreenenter"",""5"",""38652""
","
","
","""event"",""trial"",""time""
""fullscreenenter"",""5"",""38652""
","
","","images/earth.jpg","","","","","","","","","","","","","","fixation","","","","","",""
"d3-animate-choice","168","611351","0.0-76.0-0.11","2505","5213","10","Female","false","true","true","true","""event"",""trial"",""time""
""fullscreenenter"",""5"",""38652""
","
","
","""event"",""trial"",""time""
""fullscreenenter"",""5"",""38652""
","
","354.3999999985099","","48","","","3000","1","","","images/earth.jpg","images/rocket1","images/rocket2","null","images/rocket1","","1","real","null","2","","",""
"d3-animate-choice","169","614022","0.0-76.0-1.11","2505","5213","10","Female","false","true","true","true","""event"",""trial"",""time""
""fullscreenenter"",""5"",""38652""
","
","
","""event"",""trial"",""time""
""fullscreenenter"",""5"",""38652""
","
","668.2000000029802","","48","","","3000","1","","","images/redplanet1.jpg","images/alien2","images/alien1","images/rocket1","images/alien2","images/nothing.png","2","real","true","2","common","0","2022-12-11 19:04:59.273"
"two-step-fixation","170","615025","0.0-76.0-2.11","2505","5213","10","Female","false","true","true","true","""event"",""trial"",""time""
""fullscreenenter"",""5"",""38652""
","
","
","""event"",""trial"",""time""
""fullscreenenter"",""5"",""38652""
","
","","images/earth.jpg","","","","","","","","","","","","","","fixation","","","","","",""
"d3-animate-choice","171","617351","0.0-76.0-0.12","2505","5213","10","Female","false","true","true","true","""event"",""trial"",""time""
""fullscreenenter"",""5"",""38652""
","
","
","""event"",""trial"",""time""
""fullscreenenter"",""5"",""38652""
","
","324","","49","","","3000","1","","","images/earth.jpg","images/rocket1","images/rocket2","null","images/rocket2","","1","real","null","1","","",""
"d3-animate-choice","172","619783","0.0-76.0-1.12","2505","5213","10","Female","false","true","true","true","""event"",""trial"",""time""
""fullscreenenter"",""5"",""38652""
","
","
","""event"",""trial"",""time""
""fullscreenenter"",""5"",""38652""
","
","428.5","","48","","","3000","1","","","images/purpleplanet.jpg","images/alien4","images/alien3","images/rocket2","images/alien4","images/nothing.png","2","real","true","2","common","0","2022-12-11 19:05:05.034"
"two-step-fixation","173","620784","0.0-76.0-2.12","2505","5213","10","Female","false","true","true","true","""event"",""trial"",""time""
""fullscreenenter"",""5"",""38652""
","
","
","""event"",""trial"",""time""
""fullscreenenter"",""5"",""38652""
","
","","images/earth.jpg","","","","","","","","","","","","","","fixation","","","","","",""
"d3-animate-choice","174","623217","0.0-76.0-0.13","2505","5213","10","Female","false","true","true","true","""event"",""trial"",""time""
""fullscreenenter"",""5"",""38652""
","
","
","""event"",""trial"",""time""
""fullscreenenter"",""5"",""38652""
","
","430.1000000014901","","49","","","3000","1","","","images/earth.jpg","images/rocket1","images/rocket2","null","images/rocket2","","1","real","null","1","","",""
"d3-animate-choice","175","625782","0.0-76.0-1.13","2505","5213","10","Female","false","true","true","true","""event"",""trial"",""time""
""fullscreenenter"",""5"",""38652""
","
","
","""event"",""trial"",""time""
""fullscreenenter"",""5"",""38652""
","
","562.7999999970198","","48","","","3000","1","","","images/purpleplanet.jpg","images/alien4","images/alien3","images/rocket2","images/alien4","images/t.png","2","real","true","2","common","1","2022-12-11 19:05:11.033"
"two-step-fixation","176","626786","0.0-76.0-2.13","2505","5213","10","Female","false","true","true","true","""event"",""trial"",""time""
""fullscreenenter"",""5"",""38652""
","
","
","""event"",""trial"",""time""
""fullscreenenter"",""5"",""38652""
","
","","images/earth.jpg","","","","","","","","","","","","","","fixation","","","","","",""
"d3-animate-choice","177","629548","0.0-76.0-0.14","2505","5213","10","Female","false","true","true","true","""event"",""trial"",""time""
""fullscreenenter"",""5"",""38652""
","
","
","""event"",""trial"",""time""
""fullscreenenter"",""5"",""38652""
","
","758.8000000044703","","48","","","3000","1","","","images/earth.jpg","images/rocket1","images/rocket2","null","images/rocket1","","1","real","null","2","","",""
"d3-animate-choice","178","632127","0.0-76.0-1.14","2505","5213","10","Female","false","true","true","true","""event"",""trial"",""time""
""fullscreenenter"",""5"",""38652""
","
","
","""event"",""trial"",""time""
""fullscreenenter"",""5"",""38652""
","
","576.3000000044703","","48","","","3000","1","","","images/redplanet1.jpg","images/alien2","images/alien1","images/rocket1","images/alien2","images/nothing.png","2","real","true","2","common","0","2022-12-11 19:05:17.378"
"two-step-fixation","179","633131","0.0-76.0-2.14","2505","5213","10","Female","false","true","true","true","""event"",""trial"",""time""
""fullscreenenter"",""5"",""38652""
","
","
","""event"",""trial"",""time""
""fullscreenenter"",""5"",""38652""
","
","","images/earth.jpg","","","","","","","","","","","","","","fixation","","","","","",""
"d3-animate-choice","180","635666","0.0-76.0-0.15","2505","5213","10","Female","false","true","true","true","""event"",""trial"",""time""
""fullscreenenter"",""5"",""38652""
","
","
","""event"",""trial"",""time""
""fullscreenenter"",""5"",""38652""
","
","532.7999999970198","","49","","","3000","1","","","images/earth.jpg","images/rocket1","images/rocket2","null","images/rocket2","","1","real","null","1","","",""
"d3-animate-choice","181","638774","0.0-76.0-1.15","2505","5213","10","Female","false","true","true","true","""event"",""trial"",""time""
""fullscreenenter"",""5"",""38652""
","
","
","""event"",""trial"",""time""
""fullscreenenter"",""5"",""38652""
","
","1103.7999999970198","","49","","","3000","1","","","images/redplanet1.jpg","images/alien2","images/alien1","images/rocket2","images/alien1","images/t.png","2","real","false","1","rare","1","2022-12-11 19:05:24.025"
"two-step-fixation","182","639778","0.0-76.0-2.15","2505","5213","10","Female","false","true","true","true","""event"",""trial"",""time""
""fullscreenenter"",""5"",""38652""
","
","
","""event"",""trial"",""time""
""fullscreenenter"",""5"",""38652""
","
","","images/earth.jpg","","","","","","","","","","","","","","fixation","","","","","",""
"d3-animate-choice","183","642900","0.0-76.0-0.16","2505","5213","10","Female","false","true","true","true","""event"",""trial"",""time""
""fullscreenenter"",""5"",""38652""
","
","
","""event"",""trial"",""time""
""fullscreenenter"",""5"",""38652""
","
","1116.8999999985099","","49","","","3000","1","1431.2999999970198","49","images/earth.jpg","images/rocket1","images/rocket2","null","images/rocket2","","1","real","null","1","","",""
"d3-animate-choice","184","645493","0.0-76.0-1.16","2505","5213","10","Female","false","true","true","true","""event"",""trial"",""time""
""fullscreenenter"",""5"",""38652""
","
","
","""event"",""trial"",""time""
""fullscreenenter"",""5"",""38652""
","
","590.0999999940395","","49","","","3000","1","","","images/purpleplanet.jpg","images/alien4","images/alien3","images/rocket2","images/alien3","images/nothing.png","2","real","true","1","common","0","2022-12-11 19:05:30.744"
"two-step-fixation","185","646495","0.0-76.0-2.16","2505","5213","10","Female","false","true","true","true","""event"",""trial"",""time""
""fullscreenenter"",""5"",""38652""
","
","
","""event"",""trial"",""time""
""fullscreenenter"",""5"",""38652""
","
","","images/earth.jpg","","","","","","","","","","","","","","fixation","","","","","",""
"d3-animate-choice","186","648869","0.0-76.0-0.17","2505","5213","10","Female","false","true","true","true","""event"",""trial"",""time""
""fullscreenenter"",""5"",""38652""
","
","
","""event"",""trial"",""time""
""fullscreenenter"",""5"",""38652""
","
","369.90000000596046","","49","","","3000","1","595.2000000029802","49","images/earth.jpg","images/rocket1","images/rocket2","null","images/rocket2","","1","real","null","1","","",""
"d3-animate-choice","187","651928","0.0-76.0-1.17","2505","5213","10","Female","false","true","true","true","""event"",""trial"",""time""
""fullscreenenter"",""5"",""38652""
","
","
","""event"",""trial"",""time""
""fullscreenenter"",""5"",""38652""
","
","1056.1000000014901","","48","","","3000","1","","","images/redplanet1.jpg","images/alien2","images/alien1","images/rocket2","images/alien2","images/t.png","2","real","false","2","rare","1","2022-12-11 19:05:37.179"
"two-step-fixation","188","652930","0.0-76.0-2.17","2505","5213","10","Female","false","true","true","true","""event"",""trial"",""time""
""fullscreenenter"",""5"",""38652""
","
","
","""event"",""trial"",""time""
""fullscreenenter"",""5"",""38652""
","
","","images/earth.jpg","","","","","","","","","","","","","","fixation","","","","","",""
"d3-animate-choice","189","655332","0.0-76.0-0.18","2505","5213","10","Female","false","true","true","true","""event"",""trial"",""time""
""fullscreenenter"",""5"",""38652""
","
","
","""event"",""trial"",""time""
""fullscreenenter"",""5"",""38652""
","
","399.70000000298023","","49","","","3000","1","","","images/earth.jpg","images/rocket1","images/rocket2","null","images/rocket2","","1","real","null","1","","",""
"d3-animate-choice","190","657867","0.0-76.0-1.18","2505","5213","10","Female","false","true","true","true","""event"",""trial"",""time""
""fullscreenenter"",""5"",""38652""
","
","
","""event"",""trial"",""time""
""fullscreenenter"",""5"",""38652""
","
","532.9000000059605","","48","","","3000","1","","","images/purpleplanet.jpg","images/alien4","images/alien3","images/rocket2","images/alien4","images/nothing.png","2","real","true","2","common","0","2022-12-11 19:05:43.118"
"two-step-fixation","191","658869","0.0-76.0-2.18","2505","5213","10","Female","false","true","true","true","""event"",""trial"",""time""
""fullscreenenter"",""5"",""38652""
","
","
","""event"",""trial"",""time""
""fullscreenenter"",""5"",""38652""
","
","","images/earth.jpg","","","","","","","","","","","","","","fixation","","","","","",""
"d3-animate-choice","192","661064","0.0-76.0-0.19","2505","5213","10","Female","false","true","true","true","""event"",""trial"",""time""
""fullscreenenter"",""5"",""38652""
","
","
","""event"",""trial"",""time""
""fullscreenenter"",""5"",""38652""
","
","190.69999999552965","","49","","","3000","1","","","images/earth.jpg","images/rocket1","images/rocket2","null","images/rocket2","","1","real","null","1","","",""
"d3-animate-choice","193","663898","0.0-76.0-1.19","2505","5213","10","Female","false","true","true","true","""event"",""trial"",""time""
""fullscreenenter"",""5"",""38652""
","
","
","""event"",""trial"",""time""
""fullscreenenter"",""5"",""38652""
","
","830.8999999985099","","49","","","3000","1","","","images/purpleplanet.jpg","images/alien4","images/alien3","images/rocket2","images/alien3","images/t.png","2","real","true","1","common","1","2022-12-11 19:05:49.149"
"two-step-fixation","194","664902","0.0-76.0-2.19","2505","5213","10","Female","false","true","true","true","""event"",""trial"",""time""
""fullscreenenter"",""5"",""38652""
","
","
","""event"",""trial"",""time""
""fullscreenenter"",""5"",""38652""
","
","","images/earth.jpg","","","","","","","","","","","","","","fixation","","","","","",""
"d3-animate-choice","195","668249","0.0-76.0-0.20","2505","5213","10","Female","false","true","true","true","""event"",""trial"",""time""
""fullscreenenter"",""5"",""38652""
","
","
","""event"",""trial"",""time""
""fullscreenenter"",""5"",""38652""
","
","1343.2999999970198","","49","","","3000","1","","","images/earth.jpg","images/rocket1","images/rocket2","null","images/rocket2","","1","real","null","1","","",""
"d3-animate-choice","196","670887","0.0-76.0-1.20","2505","5213","10","Female","false","true","true","true","""event"",""trial"",""time""
""fullscreenenter"",""5"",""38652""
","
","
","""event"",""trial"",""time""
""fullscreenenter"",""5"",""38652""
","
","637","","49","","","3000","1","1206.6000000014901","49","images/purpleplanet.jpg","images/alien4","images/alien3","images/rocket2","images/alien3","images/t.png","2","real","true","1","common","1","2022-12-11 19:05:56.138"
"two-step-fixation","197","671889","0.0-76.0-2.20","2505","5213","10","Female","false","true","true","true","""event"",""trial"",""time""
""fullscreenenter"",""5"",""38652""
","
","
","""event"",""trial"",""time""
""fullscreenenter"",""5"",""38652""
","
","","images/earth.jpg","","","","","","","","","","","","","","fixation","","","","","",""
"d3-animate-choice","198","674382","0.0-76.0-0.21","2505","5213","10","Female","false","true","true","true","""event"",""trial"",""time""
""fullscreenenter"",""5"",""38652""
","
","
","""event"",""trial"",""time""
""fullscreenenter"",""5"",""38652""
","
","490.8999999985099","","49","","","3000","1","","","images/earth.jpg","images/rocket1","images/rocket2","null","images/rocket2","","1","real","null","1","","",""
"d3-animate-choice","199","676918","0.0-76.0-1.21","2505","5213","10","Female","false","true","true","true","""event"",""trial"",""time""
""fullscreenenter"",""5"",""38652""
","
","
","""event"",""trial"",""time""
""fullscreenenter"",""5"",""38652""
","
","533.6000000014901","","49","","","3000","1","","","images/redplanet1.jpg","images/alien2","images/alien1","images/rocket2","images/alien1","images/nothing.png","2","real","false","1","rare","0","2022-12-11 19:06:02.170"
"two-step-fixation","200","677921","0.0-76.0-2.21","2505","5213","10","Female","false","true","true","true","""event"",""trial"",""time""
""fullscreenenter"",""5"",""38652""
","
","
","""event"",""trial"",""time""
""fullscreenenter"",""5"",""38652""
","
","","images/earth.jpg","","","","","","","","","","","","","","fixation","","","","","",""
"d3-animate-choice","201","680308","0.0-76.0-0.22","2505","5213","10","Female","false","true","true","true","""event"",""trial"",""time""
""fullscreenenter"",""5"",""38652""
","
","
","""event"",""trial"",""time""
""fullscreenenter"",""5"",""38652""
","
","385.20000000298023","","48","","","3000","1","2035","48","images/earth.jpg","images/rocket1","images/rocket2","null","images/rocket1","","1","real","null","2","","",""
"d3-animate-choice","202","682782","0.0-76.0-1.22","2505","5213","10","Female","false","true","true","true","""event"",""trial"",""time""
""fullscreenenter"",""5"",""38652""
","
","
","""event"",""trial"",""time""
""fullscreenenter"",""5"",""38652""
","
","472","","48","","","3000","1","","","images/purpleplanet.jpg","images/alien4","images/alien3","images/rocket1","images/alien4","images/nothing.png","2","real","false","2","rare","0","2022-12-11 19:06:08.033"
"two-step-fixation","203","683784","0.0-76.0-2.22","2505","5213","10","Female","false","true","true","true","""event"",""trial"",""time""
""fullscreenenter"",""5"",""38652""
","
","
","""event"",""trial"",""time""
""fullscreenenter"",""5"",""38652""
","
","","images/earth.jpg","","","","","","","","","","","","","","fixation","","","","","",""
"d3-animate-choice","204","686458","0.0-76.0-0.23","2505","5213","10","Female","false","true","true","true","""event"",""trial"",""time""
""fullscreenenter"",""5"",""38652""
","
","
","""event"",""trial"",""time""
""fullscreenenter"",""5"",""38652""
","
","671.1000000014901","","48","","","3000","1","971.7999999970198,2306,2666","49,49,49","images/earth.jpg","images/rocket1","images/rocket2","null","images/rocket1","","1","real","null","2","","",""
"d3-animate-choice","205","689132","0.0-76.0-1.23","2505","5213","10","Female","false","true","true","true","""event"",""trial"",""time""
""fullscreenenter"",""5"",""38652""
","
","
","""event"",""trial"",""time""
""fullscreenenter"",""5"",""38652""
","
","667.2999999970198","","48","","","3000","1","","","images/redplanet1.jpg","images/alien2","images/alien1","images/rocket1","images/alien2","images/nothing.png","2","real","true","2","common","0","2022-12-11 19:06:14.383"
"two-step-fixation","206","690136","0.0-76.0-2.23","2505","5213","10","Female","false","true","true","true","""event"",""trial"",""time""
""fullscreenenter"",""5"",""38652""
","
","
","""event"",""trial"",""time""
""fullscreenenter"",""5"",""38652""
","
","","images/earth.jpg","","","","","","","","","","","","","","fixation","","","","","",""
"d3-animate-choice","207","692683","0.0-76.0-0.24","2505","5213","10","Female","false","true","true","true","""event"",""trial"",""time""
""fullscreenenter"",""5"",""38652""
","
","
","""event"",""trial"",""time""
""fullscreenenter"",""5"",""38652""
","
","544.1999999955297","","49","","","3000","1","724.6999999955297,2509.6999999955297","48,48","images/earth.jpg","images/rocket1","images/rocket2","null","images/rocket2","","1","real","null","1","","",""
"d3-animate-choice","208","695744","0.0-76.0-1.24","2505","5213","10","Female","false","true","true","true","""event"",""trial"",""time""
""fullscreenenter"",""5"",""38652""
","
","
","""event"",""trial"",""time""
""fullscreenenter"",""5"",""38652""
","
","1057","","49","","","3000","1","","","images/redplanet1.jpg","images/alien2","images/alien1","images/rocket2","images/alien1","images/t.png","2","real","false","1","rare","1","2022-12-11 19:06:20.995"
"two-step-fixation","209","696748","0.0-76.0-2.24","2505","5213","10","Female","false","true","true","true","""event"",""trial"",""time""
""fullscreenenter"",""5"",""38652""
","
","
","""event"",""trial"",""time""
""fullscreenenter"",""5"",""38652""
","
","","images/earth.jpg","","","","","","","","","","","","","","fixation","","","","","",""
"d3-animate-choice","210","699043","0.0-76.0-0.25","2505","5213","10","Female","false","true","true","true","""event"",""trial"",""time""
""fullscreenenter"",""5"",""38652""
","
","
","""event"",""trial"",""time""
""fullscreenenter"",""5"",""38652""
","
","292.6000000014901","","49","","","3000","1","667.6999999955297,907.3999999985099,1057.3999999985099,1282.6000000014901,1447.2999999970198,1657.6999999955297,1837.5,2032.1999999955297,2227.5","49,48,49,48,49,48,49,48,49","images/earth.jpg","images/rocket1","images/rocket2","null","images/rocket2","","1","real","null","1","","",""
"d3-animate-choice","211","701189","0.0-76.0-1.25","2505","5213","10","Female","false","true","true","true","""event"",""trial"",""time""
""fullscreenenter"",""5"",""38652""
","
","
","""event"",""trial"",""time""
""fullscreenenter"",""5"",""38652""
","
","143.10000000149012","","48","","","3000","1","307.79999999701977,503.1000000014901,667.6000000014901","49,48,49","images/purpleplanet.jpg","images/alien4","images/alien3","images/rocket2","images/alien4","images/nothing.png","2","real","true","2","common","0","2022-12-11 19:06:26.440"
"two-step-fixation","212","702193","0.0-76.0-2.25","2505","5213","10","Female","false","true","true","true","""event"",""trial"",""time""
""fullscreenenter"",""5"",""38652""
","
","
","""event"",""trial"",""time""
""fullscreenenter"",""5"",""38652""
","
","","images/earth.jpg","","","","","","","","","","","","","","fixation","","","","","",""
"d3-animate-choice","213","705014","0.0-76.0-0.26","2505","5213","10","Female","false","true","true","true","""event"",""trial"",""time""
""fullscreenenter"",""5"",""38652""
","
","
","""event"",""trial"",""time""
""fullscreenenter"",""5"",""38652""
","
","202.89999999850988","","39","","","3000","1","817.7000000029802","48","images/earth.jpg","images/rocket1","images/rocket2","null","images/rocket1","","1","real","null","","","",""
"d3-animate-choice","214","707807","0.0-76.0-1.26","2505","5213","10","Female","false","true","true","true","""event"",""trial"",""time""
""fullscreenenter"",""5"",""38652""
","
","
","""event"",""trial"",""time""
""fullscreenenter"",""5"",""38652""
","
","787.1000000014901","","49","","","3000","1","","","images/purpleplanet.jpg","images/alien4","images/alien3","images/rocket1","images/alien3","images/nothing.png","2","real","false","1","rare","0","2022-12-11 19:06:33.058"
"two-step-fixation","215","708811","0.0-76.0-2.26","2505","5213","10","Female","false","true","true","true","""event"",""trial"",""time""
""fullscreenenter"",""5"",""38652""
","
","
","""event"",""trial"",""time""
""fullscreenenter"",""5"",""38652""
","
","","images/earth.jpg","","","","","","","","","","","","","","fixation","","","","","",""
"d3-animate-choice","216","710953","0.0-76.0-0.27","2505","5213","10","Female","false","true","true","true","""event"",""trial"",""time""
""fullscreenenter"",""5"",""38652""
","
","
","""event"",""trial"",""time""
""fullscreenenter"",""5"",""38652""
","
","140.10000000149012","","48","","","3000","1","","","images/earth.jpg","images/rocket1","images/rocket2","null","images/rocket1","","1","real","null","2","","",""
"d3-animate-choice","217","713895","0.0-76.0-1.27","2505","5213","10","Female","false","true","true","true","""event"",""trial"",""time""
""fullscreenenter"",""5"",""38652""
","
","
","""event"",""trial"",""time""
""fullscreenenter"",""5"",""38652""
","
","938.6000000014901","","48","","","3000","1","","","images/purpleplanet.jpg","images/alien4","images/alien3","images/rocket1","images/alien4","images/t.png","2","real","false","2","rare","1","2022-12-11 19:06:39.146"
"two-step-fixation","218","714898","0.0-76.0-2.27","2505","5213","10","Female","false","true","true","true","""event"",""trial"",""time""
""fullscreenenter"",""5"",""38652""
","
","
","""event"",""trial"",""time""
""fullscreenenter"",""5"",""38652""
","
","","images/earth.jpg","","","","","","","","","","","","","","fixation","","","","","",""
"d3-animate-choice","219","717913","0.0-76.0-0.28","2505","5213","10","Female","false","true","true","true","""event"",""trial"",""time""
""fullscreenenter"",""5"",""38652""
","
","
","""event"",""trial"",""time""
""fullscreenenter"",""5"",""38652""
","
","1013.2999999970198","","48","","","3000","1","1028.2999999970198,1567.7999999970198,2708.5999999940395","39,39,39","images/earth.jpg","images/rocket1","images/rocket2","null","images/rocket1","","1","real","null","2","","",""
"d3-animate-choice","220","720778","0.0-76.0-1.28","2505","5213","10","Female","false","true","true","true","""event"",""trial"",""time""
""fullscreenenter"",""5"",""38652""
","
","
","""event"",""trial"",""time""
""fullscreenenter"",""5"",""38652""
","
","23.399999998509884","","39","","","3000","1","863.3000000044703","48","images/redplanet1.jpg","images/alien2","images/alien1","images/rocket1","images/alien2","images/t.png","2","real","true","","common","1","2022-12-11 19:06:46.029"
"two-step-fixation","221","721781","0.0-76.0-2.28","2505","5213","10","Female","false","true","true","true","""event"",""trial"",""time""
""fullscreenenter"",""5"",""38652""
","
","
","""event"",""trial"",""time""
""fullscreenenter"",""5"",""38652""
","
","","images/earth.jpg","","","","","","","","","","","","","","fixation","","","","","",""
"d3-animate-choice","222","724653","0.0-76.0-0.29","2505","5213","10","Female","false","true","true","true","""event"",""trial"",""time""
""fullscreenenter"",""5"",""38652""
","
","
","""event"",""trial"",""time""
""fullscreenenter"",""5"",""38652""
","
","865.5999999940395","","49","","","3000","1","","","images/earth.jpg","images/rocket1","images/rocket2","null","images/rocket2","","1","real","null","1","","",""
"d3-animate-choice","223","727079","0.0-76.0-1.29","2505","5213","10","Female","false","true","true","true","""event"",""trial"",""time""
""fullscreenenter"",""5"",""38652""
","
","
","""event"",""trial"",""time""
""fullscreenenter"",""5"",""38652""
","
","423.6000000014901","","48","","","3000","1","","","images/purpleplanet.jpg","images/alien4","images/alien3","images/rocket2","images/alien4","images/t.png","2","real","true","2","common","1","2022-12-11 19:06:52.330"
"two-step-fixation","224","728081","0.0-76.0-2.29","2505","5213","10","Female","false","true","true","true","""event"",""trial"",""time""
""fullscreenenter"",""5"",""38652""
","
","
","""event"",""trial"",""time""
""fullscreenenter"",""5"",""38652""
","
","","images/earth.jpg","","","","","","","","","","","","","","fixation","","","","","",""
"d3-animate-choice","225","730440","0.0-76.0-0.30","2505","5213","10","Female","false","true","true","true","""event"",""trial"",""time""
""fullscreenenter"",""5"",""38652""
","
","
","""event"",""trial"",""time""
""fullscreenenter"",""5"",""38652""
","
","355.8999999985099","","49","","","3000","1","","","images/earth.jpg","images/rocket1","images/rocket2","null","images/rocket2","","1","real","null","1","","",""
"d3-animate-choice","226","732779","0.0-76.0-1.30","2505","5213","10","Female","false","true","true","true","""event"",""trial"",""time""
""fullscreenenter"",""5"",""38652""
","
","
","""event"",""trial"",""time""
""fullscreenenter"",""5"",""38652""
","
","336.8999999985099","","48","","","3000","1","","","images/purpleplanet.jpg","images/alien4","images/alien3","images/rocket2","images/alien4","images/nothing.png","2","real","true","2","common","0","2022-12-11 19:06:58.030"
"two-step-fixation","227","733781","0.0-76.0-2.30","2505","5213","10","Female","false","true","true","true","""event"",""trial"",""time""
""fullscreenenter"",""5"",""38652""
","
","
","""event"",""trial"",""time""
""fullscreenenter"",""5"",""38652""
","
","","images/earth.jpg","","","","","","","","","","","","","","fixation","","","","","",""
"d3-animate-choice","228","736170","0.0-76.0-0.31","2505","5213","10","Female","false","true","true","true","""event"",""trial"",""time""
""fullscreenenter"",""5"",""38652""
","
","
","""event"",""trial"",""time""
""fullscreenenter"",""5"",""38652""
","
","385.5","","49","","","3000","1","","","images/earth.jpg","images/rocket1","images/rocket2","null","images/rocket2","","1","real","null","1","","",""
"d3-animate-choice","229","738602","0.0-76.0-1.31","2505","5213","10","Female","false","true","true","true","""event"",""trial"",""time""
""fullscreenenter"",""5"",""38652""
","
","
","""event"",""trial"",""time""
""fullscreenenter"",""5"",""38652""
","
","427.3999999985099","","49","","","3000","1","","","images/redplanet1.jpg","images/alien2","images/alien1","images/rocket2","images/alien1","images/t.png","2","real","false","1","rare","1","2022-12-11 19:07:03.853"
"two-step-fixation","230","739606","0.0-76.0-2.31","2505","5213","10","Female","false","true","true","true","""event"",""trial"",""time""
""fullscreenenter"",""5"",""38652""
","
","
","""event"",""trial"",""time""
""fullscreenenter"",""5"",""38652""
","
","","images/earth.jpg","","","","","","","","","","","","","","fixation","","","","","",""
"d3-animate-choice","231","741870","0.0-76.0-0.32","2505","5213","10","Female","false","true","true","true","""event"",""trial"",""time""
""fullscreenenter"",""5"",""38652""
","
","
","""event"",""trial"",""time""
""fullscreenenter"",""5"",""38652""
","
","259.80000000447035","","49","","","3000","1","","","images/earth.jpg","images/rocket1","images/rocket2","null","images/rocket2","","1","real","null","1","","",""
"d3-animate-choice","232","744569","0.0-76.0-1.32","2505","5213","10","Female","false","true","true","true","""event"",""trial"",""time""
""fullscreenenter"",""5"",""38652""
","
","
","""event"",""trial"",""time""
""fullscreenenter"",""5"",""38652""
","
","696.3999999985099","","49","","","3000","1","","","images/purpleplanet.jpg","images/alien4","images/alien3","images/rocket2","images/alien3","images/nothing.png","2","real","true","1","common","0","2022-12-11 19:07:09.821"
"two-step-fixation","233","745574","0.0-76.0-2.32","2505","5213","10","Female","false","true","true","true","""event"",""trial"",""time""
""fullscreenenter"",""5"",""38652""
","
","
","""event"",""trial"",""time""
""fullscreenenter"",""5"",""38652""
","
","","images/earth.jpg","","","","","","","","","","","","","","fixation","","","","","",""
"d3-animate-choice","234","747722","0.0-76.0-0.33","2505","5213","10","Female","false","true","true","true","""event"",""trial"",""time""
""fullscreenenter"",""5"",""38652""
","
","
","""event"",""trial"",""time""
""fullscreenenter"",""5"",""38652""
","
","143.30000000447035","","48","","","3000","1","","","images/earth.jpg","images/rocket1","images/rocket2","null","images/rocket1","","1","real","null","2","","",""
"d3-animate-choice","235","750420","0.0-76.0-1.33","2505","5213","10","Female","false","true","true","true","""event"",""trial"",""time""
""fullscreenenter"",""5"",""38652""
","
","
","""event"",""trial"",""time""
""fullscreenenter"",""5"",""38652""
","
","695.3999999985099","","48","","","3000","1","","","images/redplanet1.jpg","images/alien2","images/alien1","images/rocket1","images/alien2","images/t.png","2","real","true","2","common","1","2022-12-11 19:07:15.671"
"two-step-fixation","236","751423","0.0-76.0-2.33","2505","5213","10","Female","false","true","true","true","""event"",""trial"",""time""
""fullscreenenter"",""5"",""38652""
","
","
","""event"",""trial"",""time""
""fullscreenenter"",""5"",""38652""
","
","","images/earth.jpg","","","","","","","","","","","","","","fixation","","","","","",""
"d3-animate-choice","237","753811","0.0-76.0-0.34","2505","5213","10","Female","false","true","true","true","""event"",""trial"",""time""
""fullscreenenter"",""5"",""38652""
","
","
","""event"",""trial"",""time""
""fullscreenenter"",""5"",""38652""
","
","383.59999999403954","","48","","","3000","1","","","images/earth.jpg","images/rocket1","images/rocket2","null","images/rocket1","","1","real","null","2","","",""
"d3-animate-choice","238","756449","0.0-76.0-1.34","2505","5213","10","Female","false","true","true","true","""event"",""trial"",""time""
""fullscreenenter"",""5"",""38652""
","
","
","""event"",""trial"",""time""
""fullscreenenter"",""5"",""38652""
","
","636","","49","","","3000","1","","","images/redplanet1.jpg","images/alien2","images/alien1","images/rocket1","images/alien1","images/t.png","2","real","true","1","common","1","2022-12-11 19:07:21.700"
"two-step-fixation","239","757450","0.0-76.0-2.34","2505","5213","10","Female","false","true","true","true","""event"",""trial"",""time""
""fullscreenenter"",""5"",""38652""
","
","
","""event"",""trial"",""time""
""fullscreenenter"",""5"",""38652""
","
","","images/earth.jpg","","","","","","","","","","","","","","fixation","","","","","",""
"d3-animate-choice","240","759900","0.0-76.0-0.35","2505","5213","10","Female","false","true","true","true","""event"",""trial"",""time""
""fullscreenenter"",""5"",""38652""
","
","
","""event"",""trial"",""time""
""fullscreenenter"",""5"",""38652""
","
","447.19999999552965","","48","","","3000","1","","","images/earth.jpg","images/rocket1","images/rocket2","null","images/rocket1","","1","real","null","2","","",""
"d3-animate-choice","241","762751","0.0-76.0-1.35","2505","5213","10","Female","false","true","true","true","""event"",""trial"",""time""
""fullscreenenter"",""5"",""38652""
","
","
","""event"",""trial"",""time""
""fullscreenenter"",""5"",""38652""
","
","846.9000000059605","","49","","","3000","1","","","images/redplanet1.jpg","images/alien2","images/alien1","images/rocket1","images/alien1","images/nothing.png","2","real","true","1","common","0","2022-12-11 19:07:28.002"
"two-step-fixation","242","763755","0.0-76.0-2.35","2505","5213","10","Female","false","true","true","true","""event"",""trial"",""time""
""fullscreenenter"",""5"",""38652""
","
","
","""event"",""trial"",""time""
""fullscreenenter"",""5"",""38652""
","
","","images/earth.jpg","","","","","","","","","","","","","","fixation","","","","","",""
