"trial_type","trial_index","time_elapsed","internal_node_id","participant_id","subject_id","age","gender","rocket_sides","red_planet_first_rocket","red_display_order","purple_display_order","interactions","blur_events","focus_events","fullscreenenter_events","fullscreenexit_events","rt","stimulus","key_press","button_pressed","success","duration","valid_pressed","rts","keys","planet_text","right_text","left_text","center_text","chosen_text","reward_text","trial_stage","practice_trial","transition_type","choice","transition","reward","timestamp"
"pavlovia","0","6","0.0-0.0","22","683","9","Male","false","false","true","false","
","
","
","
","
","","","","","","","","","","","","","","","","","","","","","",""
"html-keyboard-response","1","37052","0.0-1.0","22","683","9","Male","false","false","true","false","
","
","
","
","
","37044.80000000005","Welcome! Press the space bar to begin.","32","","","","","","","","","","","","","","","","","","",""
"audio-keyboard-response","2","42486","0.0-2.0","22","683","9","Male","false","false","true","false","
","
","
","
","
","4680","audio/beep_loop.wav","32","","","","","","","","","","","","","","","","","","",""
"audio-button-response","3","45452","0.0-3.0","22","683","9","Male","false","false","true","false","
","
","
","
","
","NaN","audio/fish.mp3","","1","","","","","","","","","","","","","","","","","",""
"audio-button-response","4","48449","0.0-4.0","22","683","9","Male","false","false","true","false","""event"",""trial"",""time""
""fullscreenenter"",""5"",""51442""
","
","
","""event"",""trial"",""time""
""fullscreenenter"",""5"",""51442""
","
","NaN","audio/tiger.mp3","","4","","","","","","","","","","","","","","","","","",""
"fullscreen","5","52425","0.0-5.0","22","683","9","Male","false","false","true","false","""event"",""trial"",""time""
""fullscreenenter"",""5"",""51442""
","
","
","""event"",""trial"",""time""
""fullscreenenter"",""5"",""51442""
","
","","","","","true","","","","","","","","","","","","","","","","",""
"d3-instructions","6","66443","0.0-6.0","22","683","9","Male","false","false","true","false","""event"",""trial"",""time""
""fullscreenenter"",""5"",""51442""
","
","
","""event"",""trial"",""time""
""fullscreenenter"",""5"",""51442""
","
","","","","","","","","","","","","","","","","","","","","","",""
"d3-instructions","7","75001","0.0-7.0","22","683","9","Male","false","false","true","false","""event"",""trial"",""time""
""fullscreenenter"",""5"",""51442""
","
","
","""event"",""trial"",""time""
""fullscreenenter"",""5"",""51442""
","
","","","","","","","","","","","","","","","","","","","","","",""
"d3-instructions","8","82052","0.0-8.0","22","683","9","Male","false","false","true","false","""event"",""trial"",""time""
""fullscreenenter"",""5"",""51442""
","
","
","""event"",""trial"",""time""
""fullscreenenter"",""5"",""51442""
","
","","","","","","","","","","","","","","","","","","","","","",""
"d3-instructions","9","94193","0.0-9.0","22","683","9","Male","false","false","true","false","""event"",""trial"",""time""
""fullscreenenter"",""5"",""51442""
","
","
","""event"",""trial"",""time""
""fullscreenenter"",""5"",""51442""
","
","","","","","","","","","","","","","","","","","","","","","",""
"d3-instructions","10","118788","0.0-10.0","22","683","9","Male","false","false","true","false","""event"",""trial"",""time""
""fullscreenenter"",""5"",""51442""
","
","
","""event"",""trial"",""time""
""fullscreenenter"",""5"",""51442""
","
","","","","","","","","","","","","","","","","","","","","","",""
"d3-animate-choice","11","121520","0.0-11.0","22","683","9","Male","false","false","true","false","""event"",""trial"",""time""
""fullscreenenter"",""5"",""51442""
","
","
","""event"",""trial"",""time""
""fullscreenenter"",""5"",""51442""
","
","727.6000000000931","","49","","","3000","1","","","images/tutgreenplanet.jpg","images/tutalien1","images/tutalien2","null","images/tutalien2","","NA","practice","null","","","",""
"d3-animate-choice","12","124117","0.0-12.0","22","683","9","Male","false","false","true","false","""event"",""trial"",""time""
""fullscreenenter"",""5"",""51442""
","
","
","""event"",""trial"",""time""
""fullscreenenter"",""5"",""51442""
","
","588.0999999999767","","48","","","3000","1","","","images/tutgreenplanet.jpg","images/tutalien1","images/tutalien2","null","images/tutalien1","","NA","practice","null","","","",""
"d3-animate-choice","13","126740","0.0-13.0","22","683","9","Male","false","false","true","false","""event"",""trial"",""time""
""fullscreenenter"",""5"",""51442""
","
","
","""event"",""trial"",""time""
""fullscreenenter"",""5"",""51442""
","
","601.2999999999302","","48","","","3000","1","","","images/tutgreenplanet.jpg","images/tutalien1","images/tutalien2","null","images/tutalien1","","NA","practice","null","","","",""
"d3-animate-choice","14","129260","0.0-14.0","22","683","9","Male","false","false","true","false","""event"",""trial"",""time""
""fullscreenenter"",""5"",""51442""
","
","
","""event"",""trial"",""time""
""fullscreenenter"",""5"",""51442""
","
","503.79999999993015","","49","","","3000","1","","","images/tutgreenplanet.jpg","images/tutalien1","images/tutalien2","null","images/tutalien2","","NA","practice","null","","","",""
"d3-instructions","15","136879","0.0-15.0","22","683","9","Male","false","false","true","false","""event"",""trial"",""time""
""fullscreenenter"",""5"",""51442""
","
","
","""event"",""trial"",""time""
""fullscreenenter"",""5"",""51442""
","
","","","","","","","","","","","","","","","","","","","","","",""
"d3-instructions","16","147276","0.0-16.0","22","683","9","Male","false","false","true","false","""event"",""trial"",""time""
""fullscreenenter"",""5"",""51442""
","
","
","""event"",""trial"",""time""
""fullscreenenter"",""5"",""51442""
","
","","","","","","","","","","","","","","","","","","","","","",""
"d3-instructions","17","156673","0.0-17.0","22","683","9","Male","false","false","true","false","""event"",""trial"",""time""
""fullscreenenter"",""5"",""51442""
","
","
","""event"",""trial"",""time""
""fullscreenenter"",""5"",""51442""
","
","","","","","","","","","","","","","","","","","","","","","",""
"d3-instructions","18","172669","0.0-18.0","22","683","9","Male","false","false","true","false","""event"",""trial"",""time""
""fullscreenenter"",""5"",""51442""
","
","
","""event"",""trial"",""time""
""fullscreenenter"",""5"",""51442""
","
","","","","","","","","","","","","","","","","","","","","","",""
"d3-instructions","19","187154","0.0-19.0","22","683","9","Male","false","false","true","false","""event"",""trial"",""time""
""fullscreenenter"",""5"",""51442""
","
","
","""event"",""trial"",""time""
""fullscreenenter"",""5"",""51442""
","
","","","","","","","","","","","","","","","","","","","","","",""
"d3-animate-choice","20","189545","0.0-20.0","22","683","9","Male","false","false","true","false","""event"",""trial"",""time""
""fullscreenenter"",""5"",""51442""
","
","
","""event"",""trial"",""time""
""fullscreenenter"",""5"",""51442""
","
","381.70000000006985","","49","","","3000","1","","","images/tutyellowplanet.jpg","null","images/tutalien3","null","images/tutalien3","images/t.png","NA","practice","null","","","",""
"d3-animate-choice","21","191835","0.0-21.0","22","683","9","Male","false","false","true","false","""event"",""trial"",""time""
""fullscreenenter"",""5"",""51442""
","
","
","""event"",""trial"",""time""
""fullscreenenter"",""5"",""51442""
","
","274.4000000000233","","49","","","3000","1","","","images/tutyellowplanet.jpg","null","images/tutalien3","null","images/tutalien3","images/nothing.png","NA","practice","null","","","",""
"d3-animate-choice","22","194274","0.0-22.0","22","683","9","Male","false","false","true","false","""event"",""trial"",""time""
""fullscreenenter"",""5"",""51442""
","
","
","""event"",""trial"",""time""
""fullscreenenter"",""5"",""51442""
","
","420.69999999995343","","49","","","3000","1","2248.5999999999767","49","images/tutyellowplanet.jpg","null","images/tutalien3","null","images/tutalien3","images/nothing.png","NA","practice","null","","","",""
"d3-animate-choice","23","196626","0.0-23.0","22","683","9","Male","false","false","true","false","""event"",""trial"",""time""
""fullscreenenter"",""5"",""51442""
","
","
","""event"",""trial"",""time""
""fullscreenenter"",""5"",""51442""
","
","339","","49","","","3000","1","","","images/tutyellowplanet.jpg","null","images/tutalien3","null","images/tutalien3","images/nothing.png","NA","practice","null","","","",""
"d3-animate-choice","24","198950","0.0-24.0","22","683","9","Male","false","false","true","false","""event"",""trial"",""time""
""fullscreenenter"",""5"",""51442""
","
","
","""event"",""trial"",""time""
""fullscreenenter"",""5"",""51442""
","
","308.4000000000233","","49","","","3000","1","2226.0999999999767","49","images/tutyellowplanet.jpg","null","images/tutalien3","null","images/tutalien3","images/t.png","NA","practice","null","","","",""
"d3-animate-choice","25","201465","0.0-25.0","22","683","9","Male","false","false","true","false","""event"",""trial"",""time""
""fullscreenenter"",""5"",""51442""
","
","
","""event"",""trial"",""time""
""fullscreenenter"",""5"",""51442""
","
","489.60000000009313","","49","","","3000","1","","","images/tutyellowplanet.jpg","null","images/tutalien3","null","images/tutalien3","images/t.png","NA","practice","null","","","",""
"d3-animate-choice","26","204320","0.0-26.0","22","683","9","Male","false","false","true","false","""event"",""trial"",""time""
""fullscreenenter"",""5"",""51442""
","
","
","""event"",""trial"",""time""
""fullscreenenter"",""5"",""51442""
","
","835.9000000000233","","49","","","3000","1","","","images/tutyellowplanet.jpg","null","images/tutalien3","null","images/tutalien3","images/t.png","NA","practice","null","","","",""
"d3-animate-choice","27","206725","0.0-27.0","22","683","9","Male","false","false","true","false","""event"",""trial"",""time""
""fullscreenenter"",""5"",""51442""
","
","
","""event"",""trial"",""time""
""fullscreenenter"",""5"",""51442""
","
","397.4000000000233","","49","","","3000","1","","","images/tutyellowplanet.jpg","null","images/tutalien3","null","images/tutalien3","images/t.png","NA","practice","null","","","",""
"d3-animate-choice","28","209074","0.0-28.0","22","683","9","Male","false","false","true","false","""event"",""trial"",""time""
""fullscreenenter"",""5"",""51442""
","
","
","""event"",""trial"",""time""
""fullscreenenter"",""5"",""51442""
","
","325","","49","","","3000","1","","","images/tutyellowplanet.jpg","null","images/tutalien3","null","images/tutalien3","images/t.png","NA","practice","null","","","",""
"d3-animate-choice","29","211265","0.0-29.0","22","683","9","Male","false","false","true","false","""event"",""trial"",""time""
""fullscreenenter"",""5"",""51442""
","
","
","""event"",""trial"",""time""
""fullscreenenter"",""5"",""51442""
","
","165.09999999997672","","49","","","3000","1","","","images/tutyellowplanet.jpg","null","images/tutalien3","null","images/tutalien3","images/nothing.png","NA","practice","null","","","",""
"d3-instructions","30","218332","0.0-30.0","22","683","9","Male","false","false","true","false","""event"",""trial"",""time""
""fullscreenenter"",""5"",""51442""
","
","
","""event"",""trial"",""time""
""fullscreenenter"",""5"",""51442""
","
","","","","","","","","","","","","","","","","","","","","","",""
"d3-instructions","31","228926","0.0-31.0","22","683","9","Male","false","false","true","false","""event"",""trial"",""time""
""fullscreenenter"",""5"",""51442""
","
","
","""event"",""trial"",""time""
""fullscreenenter"",""5"",""51442""
","
","","","","","","","","","","","","","","","","","","","","","",""
"d3-instructions","32","236431","0.0-32.0","22","683","9","Male","false","false","true","false","""event"",""trial"",""time""
""fullscreenenter"",""5"",""51442""
","
","
","""event"",""trial"",""time""
""fullscreenenter"",""5"",""51442""
","
","","","","","","","","","","","","","","","","","","","","","",""
"d3-instructions","33","248032","0.0-33.0","22","683","9","Male","false","false","true","false","""event"",""trial"",""time""
""fullscreenenter"",""5"",""51442""
","
","
","""event"",""trial"",""time""
""fullscreenenter"",""5"",""51442""
","
","","","","","","","","","","","","","","","","","","","","","",""
"d3-animate-choice","34","250854","0.0-34.0","22","683","9","Male","false","false","true","false","""event"",""trial"",""time""
""fullscreenenter"",""5"",""51442""
","
","
","""event"",""trial"",""time""
""fullscreenenter"",""5"",""51442""
","
","800.1999999999534","","49","","","3000","1","","","images/tutgreenplanet.jpg","images/tutalien1","images/tutalien2","null","images/tutalien2","images/t.png","NA","practice","null","","","",""
"d3-animate-choice","35","253403","0.0-35.0","22","683","9","Male","false","false","true","false","""event"",""trial"",""time""
""fullscreenenter"",""5"",""51442""
","
","
","""event"",""trial"",""time""
""fullscreenenter"",""5"",""51442""
","
","539.4000000000233","","49","","","3000","1","","","images/tutgreenplanet.jpg","images/tutalien1","images/tutalien2","null","images/tutalien2","images/t.png","NA","practice","null","","","",""
"d3-animate-choice","36","255743","0.0-36.0","22","683","9","Male","false","false","true","false","""event"",""trial"",""time""
""fullscreenenter"",""5"",""51442""
","
","
","""event"",""trial"",""time""
""fullscreenenter"",""5"",""51442""
","
","329.60000000009313","","49","","","3000","1","","","images/tutgreenplanet.jpg","images/tutalien1","images/tutalien2","null","images/tutalien2","images/t.png","NA","practice","null","","","",""
"d3-animate-choice","37","257944","0.0-37.0","22","683","9","Male","false","false","true","false","""event"",""trial"",""time""
""fullscreenenter"",""5"",""51442""
","
","
","""event"",""trial"",""time""
""fullscreenenter"",""5"",""51442""
","
","183","","49","","","3000","1","","","images/tutgreenplanet.jpg","images/tutalien1","images/tutalien2","null","images/tutalien2","images/t.png","NA","practice","null","","","",""
"d3-animate-choice","38","260271","0.0-38.0","22","683","9","Male","false","false","true","false","""event"",""trial"",""time""
""fullscreenenter"",""5"",""51442""
","
","
","""event"",""trial"",""time""
""fullscreenenter"",""5"",""51442""
","
","302.69999999995343","","49","","","3000","1","","","images/tutgreenplanet.jpg","images/tutalien1","images/tutalien2","null","images/tutalien2","images/t.png","NA","practice","null","","","",""
"d3-animate-choice","39","262324","0.0-39.0","22","683","9","Male","false","false","true","false","""event"",""trial"",""time""
""fullscreenenter"",""5"",""51442""
","
","
","""event"",""trial"",""time""
""fullscreenenter"",""5"",""51442""
","
","39.90000000002328","","49","","","3000","1","","","images/tutgreenplanet.jpg","images/tutalien1","images/tutalien2","null","images/tutalien2","images/t.png","NA","practice","null","","","",""
"d3-animate-choice","40","264402","0.0-40.0","22","683","9","Male","false","false","true","false","""event"",""trial"",""time""
""fullscreenenter"",""5"",""51442""
","
","
","""event"",""trial"",""time""
""fullscreenenter"",""5"",""51442""
","
","69.39999999990687","","49","","","3000","1","","","images/tutgreenplanet.jpg","images/tutalien1","images/tutalien2","null","images/tutalien2","images/t.png","NA","practice","null","","","",""
"d3-animate-choice","41","266779","0.0-41.0","22","683","9","Male","false","false","true","false","""event"",""trial"",""time""
""fullscreenenter"",""5"",""51442""
","
","
","""event"",""trial"",""time""
""fullscreenenter"",""5"",""51442""
","
","363.4000000000233","","49","","","3000","1","","","images/tutgreenplanet.jpg","images/tutalien1","images/tutalien2","null","images/tutalien2","images/t.png","NA","practice","null","","","",""
"d3-animate-choice","42","268864","0.0-42.0","22","683","9","Male","false","false","true","false","""event"",""trial"",""time""
""fullscreenenter"",""5"",""51442""
","
","
","""event"",""trial"",""time""
""fullscreenenter"",""5"",""51442""
","
","78.80000000004657","","49","","","3000","1","1716.8000000000466","49","images/tutgreenplanet.jpg","images/tutalien1","images/tutalien2","null","images/tutalien2","images/t.png","NA","practice","null","","","",""
"d3-animate-choice","43","271264","0.0-43.0","22","683","9","Male","false","false","true","false","""event"",""trial"",""time""
""fullscreenenter"",""5"",""51442""
","
","
","""event"",""trial"",""time""
""fullscreenenter"",""5"",""51442""
","
","392","","49","","","3000","1","","","images/tutgreenplanet.jpg","images/tutalien1","images/tutalien2","null","images/tutalien2","images/t.png","NA","practice","null","","","",""
"d3-instructions","44","285223","0.0-44.0","22","683","9","Male","false","false","true","false","""event"",""trial"",""time""
""fullscreenenter"",""5"",""51442""
","
","
","""event"",""trial"",""time""
""fullscreenenter"",""5"",""51442""
","
","","","","","","","","","","","","","","","","","","","","","",""
"d3-instructions","45","292201","0.0-45.0","22","683","9","Male","false","false","true","false","""event"",""trial"",""time""
""fullscreenenter"",""5"",""51442""
","
","
","""event"",""trial"",""time""
""fullscreenenter"",""5"",""51442""
","
","","","","","","","","","","","","","","","","","","","","","",""
"d3-instructions","46","298133","0.0-46.0","22","683","9","Male","false","false","true","false","""event"",""trial"",""time""
""fullscreenenter"",""5"",""51442""
","
","
","""event"",""trial"",""time""
""fullscreenenter"",""5"",""51442""
","
","","","","","","","","","","","","","","","","","","","","","",""
"d3-instructions","47","315017","0.0-47.0","22","683","9","Male","false","false","true","false","""event"",""trial"",""time""
""fullscreenenter"",""5"",""51442""
","
","
","""event"",""trial"",""time""
""fullscreenenter"",""5"",""51442""
","
","","","","","","","","","","","","","","","","","","","","","",""
"d3-instructions","48","322344","0.0-48.0","22","683","9","Male","false","false","true","false","""event"",""trial"",""time""
""fullscreenenter"",""5"",""51442""
","
","
","""event"",""trial"",""time""
""fullscreenenter"",""5"",""51442""
","
","","","","","","","","","","","","","","","","","","","","","",""
"d3-instructions","49","333478","0.0-49.0","22","683","9","Male","false","false","true","false","""event"",""trial"",""time""
""fullscreenenter"",""5"",""51442""
","
","
","""event"",""trial"",""time""
""fullscreenenter"",""5"",""51442""
","
","","","","","","","","","","","","","","","","","","","","","",""
"d3-instructions","50","342907","0.0-50.0","22","683","9","Male","false","false","true","false","""event"",""trial"",""time""
""fullscreenenter"",""5"",""51442""
","
","
","""event"",""trial"",""time""
""fullscreenenter"",""5"",""51442""
","
","","","","","","","","","","","","","","","","","","","","","",""
"d3-instructions","51","346530","0.0-51.0","22","683","9","Male","false","false","true","false","""event"",""trial"",""time""
""fullscreenenter"",""5"",""51442""
","
","
","""event"",""trial"",""time""
""fullscreenenter"",""5"",""51442""
","
","","","","","","","","","","","","","","","","","","","","","",""
"d3-instructions","52","350127","0.0-52.0","22","683","9","Male","false","false","true","false","""event"",""trial"",""time""
""fullscreenenter"",""5"",""51442""
","
","
","""event"",""trial"",""time""
""fullscreenenter"",""5"",""51442""
","
","","","","","","","","","","","","","","","","","","","","","",""
"d3-instructions","53","362066","0.0-53.0","22","683","9","Male","false","false","true","false","""event"",""trial"",""time""
""fullscreenenter"",""5"",""51442""
","
","
","""event"",""trial"",""time""
""fullscreenenter"",""5"",""51442""
","
","","","","","","","","","","","","","","","","","","","","","",""
"d3-instructions","54","374879","0.0-54.0","22","683","9","Male","false","false","true","false","""event"",""trial"",""time""
""fullscreenenter"",""5"",""51442""
","
","
","""event"",""trial"",""time""
""fullscreenenter"",""5"",""51442""
","
","","","","","","","","","","","","","","","","","","","","","",""
"d3-instructions","55","385693","0.0-55.0","22","683","9","Male","false","false","true","false","""event"",""trial"",""time""
""fullscreenenter"",""5"",""51442""
","
","
","""event"",""trial"",""time""
""fullscreenenter"",""5"",""51442""
","
","","","","","","","","","","","","","","","","","","","","","",""
"d3-instructions","56","394465","0.0-56.0","22","683","9","Male","false","false","true","false","""event"",""trial"",""time""
""fullscreenenter"",""5"",""51442""
","
","
","""event"",""trial"",""time""
""fullscreenenter"",""5"",""51442""
","
","","","","","","","","","","","","","","","","","","","","","",""
"d3-instructions","57","406470","0.0-57.0","22","683","9","Male","false","false","true","false","""event"",""trial"",""time""
""fullscreenenter"",""5"",""51442""
","
","
","""event"",""trial"",""time""
""fullscreenenter"",""5"",""51442""
","
","","","","","","","","","","","","","","","","","","","","","",""
"d3-instructions","58","418801","0.0-58.0","22","683","9","Male","false","false","true","false","""event"",""trial"",""time""
""fullscreenenter"",""5"",""51442""
","
","
","""event"",""trial"",""time""
""fullscreenenter"",""5"",""51442""
","
","","","","","","","","","","","","","","","","","","","","","",""
"d3-instructions","59","424657","0.0-59.0","22","683","9","Male","false","false","true","false","""event"",""trial"",""time""
""fullscreenenter"",""5"",""51442""
","
","
","""event"",""trial"",""time""
""fullscreenenter"",""5"",""51442""
","
","","","","","","","","","","","","","","","","","","","","","",""
"d3-instructions","60","431796","0.0-60.0","22","683","9","Male","false","false","true","false","""event"",""trial"",""time""
""fullscreenenter"",""5"",""51442""
","
","
","""event"",""trial"",""time""
""fullscreenenter"",""5"",""51442""
","
","","","","","","","","","","","","","","","","","","","","","",""
"d3-animate-choice","61","434604","0.0-61.0-0.0","22","683","9","Male","false","false","true","false","""event"",""trial"",""time""
""fullscreenenter"",""5"",""51442""
","
","
","""event"",""trial"",""time""
""fullscreenenter"",""5"",""51442""
","
","787.8000000000466","","49","","","3000","1","","","images/earth.jpg","images/tutrocket2","images/tutrocket1","null","images/tutrocket1","","1","practice","null","1","","",""
"d3-animate-choice","62","437604","0.0-61.0-1.0","22","683","9","Male","false","false","true","false","""event"",""trial"",""time""
""fullscreenenter"",""5"",""51442""
","
","
","""event"",""trial"",""time""
""fullscreenenter"",""5"",""51442""
","
","981.1000000000931","","49","","","3000","1","","","images/tutyellowplanet.jpg","images/tutalien4","images/tutalien3","images/tutrocket1","images/tutalien3","images/t.png","2","practice","true","1","common","1","2022-02-06 23:25:10.932"
"two-step-fixation","63","438624","0.0-61.0-2.0","22","683","9","Male","false","false","true","false","""event"",""trial"",""time""
""fullscreenenter"",""5"",""51442""
","
","
","""event"",""trial"",""time""
""fullscreenenter"",""5"",""51442""
","
","","images/earth.jpg","","","","","","","","","","","","","","fixation","","","","","",""
"d3-animate-choice","64","441073","0.0-61.0-0.1","22","683","9","Male","false","false","true","false","""event"",""trial"",""time""
""fullscreenenter"",""5"",""51442""
","
","
","""event"",""trial"",""time""
""fullscreenenter"",""5"",""51442""
","
","441.9000000001397","","48","","","3000","1","","","images/earth.jpg","images/tutrocket2","images/tutrocket1","null","images/tutrocket2","","1","practice","null","2","","",""
"d3-animate-choice","65","443744","0.0-61.0-1.1","22","683","9","Male","false","false","true","false","""event"",""trial"",""time""
""fullscreenenter"",""5"",""51442""
","
","
","""event"",""trial"",""time""
""fullscreenenter"",""5"",""51442""
","
","648.6999999999534","","49","","","3000","1","","","images/tutgreenplanet.jpg","images/tutalien2","images/tutalien1","images/tutrocket2","images/tutalien1","images/nothing.png","2","practice","true","1","common","0","2022-02-06 23:25:17.071"
"two-step-fixation","66","444764","0.0-61.0-2.1","22","683","9","Male","false","false","true","false","""event"",""trial"",""time""
""fullscreenenter"",""5"",""51442""
","
","
","""event"",""trial"",""time""
""fullscreenenter"",""5"",""51442""
","
","","images/earth.jpg","","","","","","","","","","","","","","fixation","","","","","",""
"d3-animate-choice","67","446857","0.0-61.0-0.2","22","683","9","Male","false","false","true","false","""event"",""trial"",""time""
""fullscreenenter"",""5"",""51442""
","
","
","""event"",""trial"",""time""
""fullscreenenter"",""5"",""51442""
","
","81.10000000009313","","48","","","3000","1","","","images/earth.jpg","images/tutrocket2","images/tutrocket1","null","images/tutrocket2","","1","practice","null","2","","",""
"d3-animate-choice","68","449834","0.0-61.0-1.2","22","683","9","Male","false","false","true","false","""event"",""trial"",""time""
""fullscreenenter"",""5"",""51442""
","
","
","""event"",""trial"",""time""
""fullscreenenter"",""5"",""51442""
","
","958.0999999998603","","48","","","3000","1","","","images/tutgreenplanet.jpg","images/tutalien2","images/tutalien1","images/tutrocket2","images/tutalien2","images/nothing.png","2","practice","true","2","common","0","2022-02-06 23:25:23.161"
"two-step-fixation","69","450844","0.0-61.0-2.2","22","683","9","Male","false","false","true","false","""event"",""trial"",""time""
""fullscreenenter"",""5"",""51442""
","
","
","""event"",""trial"",""time""
""fullscreenenter"",""5"",""51442""
","
","","images/earth.jpg","","","","","","","","","","","","","","fixation","","","","","",""
"d3-animate-choice","70","453364","0.0-61.0-0.3","22","683","9","Male","false","false","true","false","""event"",""trial"",""time""
""fullscreenenter"",""5"",""51442""
","
","
","""event"",""trial"",""time""
""fullscreenenter"",""5"",""51442""
","
","509.89999999990687","","49","","","3000","1","","","images/earth.jpg","images/tutrocket2","images/tutrocket1","null","images/tutrocket1","","1","practice","null","1","","",""
"d3-animate-choice","71","455744","0.0-61.0-1.3","22","683","9","Male","false","false","true","false","""event"",""trial"",""time""
""fullscreenenter"",""5"",""51442""
","
","
","""event"",""trial"",""time""
""fullscreenenter"",""5"",""51442""
","
","369.89999999990687","","49","","","3000","1","","","images/tutgreenplanet.jpg","images/tutalien2","images/tutalien1","images/tutrocket1","images/tutalien1","images/nothing.png","2","practice","false","1","rare","0","2022-02-06 23:25:29.071"
"two-step-fixation","72","456764","0.0-61.0-2.3","22","683","9","Male","false","false","true","false","""event"",""trial"",""time""
""fullscreenenter"",""5"",""51442""
","
","
","""event"",""trial"",""time""
""fullscreenenter"",""5"",""51442""
","
","","images/earth.jpg","","","","","","","","","","","","","","fixation","","","","","",""
"d3-animate-choice","73","459213","0.0-61.0-0.4","22","683","9","Male","false","false","true","false","""event"",""trial"",""time""
""fullscreenenter"",""5"",""51442""
","
","
","""event"",""trial"",""time""
""fullscreenenter"",""5"",""51442""
","
","444.39999999990687","","48","","","3000","1","","","images/earth.jpg","images/tutrocket2","images/tutrocket1","null","images/tutrocket2","","1","practice","null","2","","",""
"d3-animate-choice","74","461795","0.0-61.0-1.4","22","683","9","Male","false","false","true","false","""event"",""trial"",""time""
""fullscreenenter"",""5"",""51442""
","
","
","""event"",""trial"",""time""
""fullscreenenter"",""5"",""51442""
","
","574.6000000000931","","49","","","3000","1","","","images/tutyellowplanet.jpg","images/tutalien4","images/tutalien3","images/tutrocket2","images/tutalien3","images/nothing.png","2","practice","false","1","rare","0","2022-02-06 23:25:35.122"
"two-step-fixation","75","462806","0.0-61.0-2.4","22","683","9","Male","false","false","true","false","""event"",""trial"",""time""
""fullscreenenter"",""5"",""51442""
","
","
","""event"",""trial"",""time""
""fullscreenenter"",""5"",""51442""
","
","","images/earth.jpg","","","","","","","","","","","","","","fixation","","","","","",""
"d3-animate-choice","76","465144","0.0-61.0-0.5","22","683","9","Male","false","false","true","false","""event"",""trial"",""time""
""fullscreenenter"",""5"",""51442""
","
","
","""event"",""trial"",""time""
""fullscreenenter"",""5"",""51442""
","
","327.0999999998603","","48","","","3000","1","","","images/earth.jpg","images/tutrocket2","images/tutrocket1","null","images/tutrocket2","","1","practice","null","2","","",""
"d3-animate-choice","77","467636","0.0-61.0-1.5","22","683","9","Male","false","false","true","false","""event"",""trial"",""time""
""fullscreenenter"",""5"",""51442""
","
","
","""event"",""trial"",""time""
""fullscreenenter"",""5"",""51442""
","
","480.60000000009313","","48","","","3000","1","","","images/tutgreenplanet.jpg","images/tutalien2","images/tutalien1","images/tutrocket2","images/tutalien2","images/nothing.png","2","practice","true","2","common","0","2022-02-06 23:25:40.963"
"two-step-fixation","78","468647","0.0-61.0-2.5","22","683","9","Male","false","false","true","false","""event"",""trial"",""time""
""fullscreenenter"",""5"",""51442""
","
","
","""event"",""trial"",""time""
""fullscreenenter"",""5"",""51442""
","
","","images/earth.jpg","","","","","","","","","","","","","","fixation","","","","","",""
"d3-animate-choice","79","470822","0.0-61.0-0.6","22","683","9","Male","false","false","true","false","""event"",""trial"",""time""
""fullscreenenter"",""5"",""51442""
","
","
","""event"",""trial"",""time""
""fullscreenenter"",""5"",""51442""
","
","166.5","","49","","","3000","1","","","images/earth.jpg","images/tutrocket2","images/tutrocket1","null","images/tutrocket1","","1","practice","null","1","","",""
"d3-animate-choice","80","473397","0.0-61.0-1.6","22","683","9","Male","false","false","true","false","""event"",""trial"",""time""
""fullscreenenter"",""5"",""51442""
","
","
","""event"",""trial"",""time""
""fullscreenenter"",""5"",""51442""
","
","566","","49","","","3000","1","","","images/tutyellowplanet.jpg","images/tutalien4","images/tutalien3","images/tutrocket1","images/tutalien3","images/nothing.png","2","practice","true","1","common","0","2022-02-06 23:25:46.724"
"two-step-fixation","81","474405","0.0-61.0-2.6","22","683","9","Male","false","false","true","false","""event"",""trial"",""time""
""fullscreenenter"",""5"",""51442""
","
","
","""event"",""trial"",""time""
""fullscreenenter"",""5"",""51442""
","
","","images/earth.jpg","","","","","","","","","","","","","","fixation","","","","","",""
"d3-animate-choice","82","476796","0.0-61.0-0.7","22","683","9","Male","false","false","true","false","""event"",""trial"",""time""
""fullscreenenter"",""5"",""51442""
","
","
","""event"",""trial"",""time""
""fullscreenenter"",""5"",""51442""
","
","381.0999999998603","","48","","","3000","1","","","images/earth.jpg","images/tutrocket2","images/tutrocket1","null","images/tutrocket2","","1","practice","null","2","","",""
"d3-animate-choice","83","479338","0.0-61.0-1.7","22","683","9","Male","false","false","true","false","""event"",""trial"",""time""
""fullscreenenter"",""5"",""51442""
","
","
","""event"",""trial"",""time""
""fullscreenenter"",""5"",""51442""
","
","529","","48","","","3000","1","","","images/tutyellowplanet.jpg","images/tutalien4","images/tutalien3","images/tutrocket2","images/tutalien4","images/t.png","2","practice","false","2","rare","1","2022-02-06 23:25:52.666"
"two-step-fixation","84","480349","0.0-61.0-2.7","22","683","9","Male","false","false","true","false","""event"",""trial"",""time""
""fullscreenenter"",""5"",""51442""
","
","
","""event"",""trial"",""time""
""fullscreenenter"",""5"",""51442""
","
","","images/earth.jpg","","","","","","","","","","","","","","fixation","","","","","",""
"d3-animate-choice","85","482774","0.0-61.0-0.8","22","683","9","Male","false","false","true","false","""event"",""trial"",""time""
""fullscreenenter"",""5"",""51442""
","
","
","""event"",""trial"",""time""
""fullscreenenter"",""5"",""51442""
","
","412.5","","49","","","3000","1","","","images/earth.jpg","images/tutrocket2","images/tutrocket1","null","images/tutrocket1","","1","practice","null","1","","",""
"d3-animate-choice","86","485341","0.0-61.0-1.8","22","683","9","Male","false","false","true","false","""event"",""trial"",""time""
""fullscreenenter"",""5"",""51442""
","
","
","""event"",""trial"",""time""
""fullscreenenter"",""5"",""51442""
","
","562.3000000000466","","48","","","3000","1","","","images/tutgreenplanet.jpg","images/tutalien2","images/tutalien1","images/tutrocket1","images/tutalien2","images/t.png","2","practice","false","2","rare","1","2022-02-06 23:25:58.668"
"two-step-fixation","87","486353","0.0-61.0-2.8","22","683","9","Male","false","false","true","false","""event"",""trial"",""time""
""fullscreenenter"",""5"",""51442""
","
","
","""event"",""trial"",""time""
""fullscreenenter"",""5"",""51442""
","
","","images/earth.jpg","","","","","","","","","","","","","","fixation","","","","","",""
"d3-animate-choice","88","488702","0.0-61.0-0.9","22","683","9","Male","false","false","true","false","""event"",""trial"",""time""
""fullscreenenter"",""5"",""51442""
","
","
","""event"",""trial"",""time""
""fullscreenenter"",""5"",""51442""
","
","337.0999999998603","","49","","","3000","1","","","images/earth.jpg","images/tutrocket2","images/tutrocket1","null","images/tutrocket1","","1","practice","null","1","","",""
"d3-animate-choice","89","491287","0.0-61.0-1.9","22","683","9","Male","false","false","true","false","""event"",""trial"",""time""
""fullscreenenter"",""5"",""51442""
","
","
","""event"",""trial"",""time""
""fullscreenenter"",""5"",""51442""
","
","573.2999999998137","","48","","","3000","1","","","images/tutgreenplanet.jpg","images/tutalien2","images/tutalien1","images/tutrocket1","images/tutalien2","images/nothing.png","2","practice","false","2","rare","0","2022-02-06 23:26:04.614"
"two-step-fixation","90","492299","0.0-61.0-2.9","22","683","9","Male","false","false","true","false","""event"",""trial"",""time""
""fullscreenenter"",""5"",""51442""
","
","
","""event"",""trial"",""time""
""fullscreenenter"",""5"",""51442""
","
","","images/earth.jpg","","","","","","","","","","","","","","fixation","","","","","",""
"d3-animate-choice","91","494614","0.0-61.0-0.10","22","683","9","Male","false","false","true","false","""event"",""trial"",""time""
""fullscreenenter"",""5"",""51442""
","
","
","""event"",""trial"",""time""
""fullscreenenter"",""5"",""51442""
","
","305.10000000009313","","49","","","3000","1","","","images/earth.jpg","images/tutrocket2","images/tutrocket1","null","images/tutrocket1","","1","practice","null","1","","",""
"d3-animate-choice","92","497899","0.0-61.0-1.10","22","683","9","Male","false","false","true","false","""event"",""trial"",""time""
""fullscreenenter"",""5"",""51442""
","
","
","""event"",""trial"",""time""
""fullscreenenter"",""5"",""51442""
","
","1278.1999999999534","","48","","","3000","1","","","images/tutyellowplanet.jpg","images/tutalien4","images/tutalien3","images/tutrocket1","images/tutalien4","images/nothing.png","2","practice","true","2","common","0","2022-02-06 23:26:11.227"
"two-step-fixation","93","498905","0.0-61.0-2.10","22","683","9","Male","false","false","true","false","""event"",""trial"",""time""
""fullscreenenter"",""5"",""51442""
","
","
","""event"",""trial"",""time""
""fullscreenenter"",""5"",""51442""
","
","","images/earth.jpg","","","","","","","","","","","","","","fixation","","","","","",""
"d3-animate-choice","94","501215","0.0-61.0-0.11","22","683","9","Male","false","false","true","false","""event"",""trial"",""time""
""fullscreenenter"",""5"",""51442""
","
","
","""event"",""trial"",""time""
""fullscreenenter"",""5"",""51442""
","
","306.5","","49","","","3000","1","","","images/earth.jpg","images/tutrocket2","images/tutrocket1","null","images/tutrocket1","","1","practice","null","1","","",""
"d3-animate-choice","95","503888","0.0-61.0-1.11","22","683","9","Male","false","false","true","false","""event"",""trial"",""time""
""fullscreenenter"",""5"",""51442""
","
","
","""event"",""trial"",""time""
""fullscreenenter"",""5"",""51442""
","
","664.6999999999534","","48","","","3000","1","","","images/tutyellowplanet.jpg","images/tutalien4","images/tutalien3","images/tutrocket1","images/tutalien4","images/t.png","2","practice","true","2","common","1","2022-02-06 23:26:17.215"
"two-step-fixation","96","504891","0.0-61.0-2.11","22","683","9","Male","false","false","true","false","""event"",""trial"",""time""
""fullscreenenter"",""5"",""51442""
","
","
","""event"",""trial"",""time""
""fullscreenenter"",""5"",""51442""
","
","","images/earth.jpg","","","","","","","","","","","","","","fixation","","","","","",""
"d3-animate-choice","97","507266","0.0-61.0-0.12","22","683","9","Male","false","false","true","false","""event"",""trial"",""time""
""fullscreenenter"",""5"",""51442""
","
","
","""event"",""trial"",""time""
""fullscreenenter"",""5"",""51442""
","
","366.5","","49","","","3000","1","","","images/earth.jpg","images/tutrocket2","images/tutrocket1","null","images/tutrocket1","","1","practice","null","1","","",""
"d3-animate-choice","98","510097","0.0-61.0-1.12","22","683","9","Male","false","false","true","false","""event"",""trial"",""time""
""fullscreenenter"",""5"",""51442""
","
","
","""event"",""trial"",""time""
""fullscreenenter"",""5"",""51442""
","
","823.1999999999534","","49","","","3000","1","","","images/tutyellowplanet.jpg","images/tutalien4","images/tutalien3","images/tutrocket1","images/tutalien3","images/t.png","2","practice","true","1","common","1","2022-02-06 23:26:23.424"
"two-step-fixation","99","511109","0.0-61.0-2.12","22","683","9","Male","false","false","true","false","""event"",""trial"",""time""
""fullscreenenter"",""5"",""51442""
","
","
","""event"",""trial"",""time""
""fullscreenenter"",""5"",""51442""
","
","","images/earth.jpg","","","","","","","","","","","","","","fixation","","","","","",""
"d3-animate-choice","100","513458","0.0-61.0-0.13","22","683","9","Male","false","false","true","false","""event"",""trial"",""time""
""fullscreenenter"",""5"",""51442""
","
","
","""event"",""trial"",""time""
""fullscreenenter"",""5"",""51442""
","
","340.5","","48","","","3000","1","","","images/earth.jpg","images/tutrocket2","images/tutrocket1","null","images/tutrocket2","","1","practice","null","2","","",""
"d3-animate-choice","101","516156","0.0-61.0-1.13","22","683","9","Male","false","false","true","false","""event"",""trial"",""time""
""fullscreenenter"",""5"",""51442""
","
","
","""event"",""trial"",""time""
""fullscreenenter"",""5"",""51442""
","
","687.5","","48","","","3000","1","","","images/tutgreenplanet.jpg","images/tutalien2","images/tutalien1","images/tutrocket2","images/tutalien2","images/nothing.png","2","practice","true","2","common","0","2022-02-06 23:26:29.483"
"two-step-fixation","102","517164","0.0-61.0-2.13","22","683","9","Male","false","false","true","false","""event"",""trial"",""time""
""fullscreenenter"",""5"",""51442""
","
","
","""event"",""trial"",""time""
""fullscreenenter"",""5"",""51442""
","
","","images/earth.jpg","","","","","","","","","","","","","","fixation","","","","","",""
"d3-animate-choice","103","519608","0.0-61.0-0.14","22","683","9","Male","false","false","true","false","""event"",""trial"",""time""
""fullscreenenter"",""5"",""51442""
","
","
","""event"",""trial"",""time""
""fullscreenenter"",""5"",""51442""
","
","439.89999999990687","","49","","","3000","1","","","images/earth.jpg","images/tutrocket2","images/tutrocket1","null","images/tutrocket1","","1","practice","null","1","","",""
"d3-animate-choice","104","521961","0.0-61.0-1.14","22","683","9","Male","false","false","true","false","""event"",""trial"",""time""
""fullscreenenter"",""5"",""51442""
","
","
","""event"",""trial"",""time""
""fullscreenenter"",""5"",""51442""
","
","347.5999999998603","","49","","","3000","1","","","images/tutyellowplanet.jpg","images/tutalien4","images/tutalien3","images/tutrocket1","images/tutalien3","images/nothing.png","2","practice","true","1","common","0","2022-02-06 23:26:35.288"
"two-step-fixation","105","522965","0.0-61.0-2.14","22","683","9","Male","false","false","true","false","""event"",""trial"",""time""
""fullscreenenter"",""5"",""51442""
","
","
","""event"",""trial"",""time""
""fullscreenenter"",""5"",""51442""
","
","","images/earth.jpg","","","","","","","","","","","","","","fixation","","","","","",""
"d3-animate-choice","106","525112","0.0-61.0-0.15","22","683","9","Male","false","false","true","false","""event"",""trial"",""time""
""fullscreenenter"",""5"",""51442""
","
","
","""event"",""trial"",""time""
""fullscreenenter"",""5"",""51442""
","
","140.10000000009313","","48","","","3000","1","1915.5","48","images/earth.jpg","images/tutrocket2","images/tutrocket1","null","images/tutrocket2","","1","practice","null","2","","",""
"d3-animate-choice","107","527282","0.0-61.0-1.15","22","683","9","Male","false","false","true","false","""event"",""trial"",""time""
""fullscreenenter"",""5"",""51442""
","
","
","""event"",""trial"",""time""
""fullscreenenter"",""5"",""51442""
","
","164.5","","48","","","3000","1","417.30000000004657","48","images/tutgreenplanet.jpg","images/tutalien2","images/tutalien1","images/tutrocket2","images/tutalien2","images/nothing.png","2","practice","true","2","common","0","2022-02-06 23:26:40.609"
"two-step-fixation","108","528285","0.0-61.0-2.15","22","683","9","Male","false","false","true","false","""event"",""trial"",""time""
""fullscreenenter"",""5"",""51442""
","
","
","""event"",""trial"",""time""
""fullscreenenter"",""5"",""51442""
","
","","images/earth.jpg","","","","","","","","","","","","","","fixation","","","","","",""
"d3-animate-choice","109","530486","0.0-61.0-0.16","22","683","9","Male","false","false","true","false","""event"",""trial"",""time""
""fullscreenenter"",""5"",""51442""
","
","
","""event"",""trial"",""time""
""fullscreenenter"",""5"",""51442""
","
","191.39999999990687","","49","","","3000","1","1222.1000000000931,1628.6999999999534,2066.100000000093","48,49,48","images/earth.jpg","images/tutrocket2","images/tutrocket1","null","images/tutrocket1","","1","practice","null","1","","",""
"d3-animate-choice","110","532719","0.0-61.0-1.16","22","683","9","Male","false","false","true","false","""event"",""trial"",""time""
""fullscreenenter"",""5"",""51442""
","
","
","""event"",""trial"",""time""
""fullscreenenter"",""5"",""51442""
","
","224.20000000018626","","49","","","3000","1","","","images/tutyellowplanet.jpg","images/tutalien4","images/tutalien3","images/tutrocket1","images/tutalien3","images/nothing.png","2","practice","true","1","common","0","2022-02-06 23:26:46.046"
"two-step-fixation","111","533725","0.0-61.0-2.16","22","683","9","Male","false","false","true","false","""event"",""trial"",""time""
""fullscreenenter"",""5"",""51442""
","
","
","""event"",""trial"",""time""
""fullscreenenter"",""5"",""51442""
","
","","images/earth.jpg","","","","","","","","","","","","","","fixation","","","","","",""
"d3-animate-choice","112","535969","0.0-61.0-0.17","22","683","9","Male","false","false","true","false","""event"",""trial"",""time""
""fullscreenenter"",""5"",""51442""
","
","
","""event"",""trial"",""time""
""fullscreenenter"",""5"",""51442""
","
","240.19999999995343","","48","","","3000","1","421,842.1999999999534","49,48","images/earth.jpg","images/tutrocket2","images/tutrocket1","null","images/tutrocket2","","1","practice","null","2","","",""
"d3-animate-choice","113","538405","0.0-61.0-1.17","22","683","9","Male","false","false","true","false","""event"",""trial"",""time""
""fullscreenenter"",""5"",""51442""
","
","
","""event"",""trial"",""time""
""fullscreenenter"",""5"",""51442""
","
","430.5","","49","","","3000","1","","","images/tutgreenplanet.jpg","images/tutalien2","images/tutalien1","images/tutrocket2","images/tutalien1","images/nothing.png","2","practice","true","1","common","0","2022-02-06 23:26:51.732"
"two-step-fixation","114","539415","0.0-61.0-2.17","22","683","9","Male","false","false","true","false","""event"",""trial"",""time""
""fullscreenenter"",""5"",""51442""
","
","
","""event"",""trial"",""time""
""fullscreenenter"",""5"",""51442""
","
","","images/earth.jpg","","","","","","","","","","","","","","fixation","","","","","",""
"d3-animate-choice","115","541750","0.0-61.0-0.18","22","683","9","Male","false","false","true","false","""event"",""trial"",""time""
""fullscreenenter"",""5"",""51442""
","
","
","""event"",""trial"",""time""
""fullscreenenter"",""5"",""51442""
","
","328.20000000018626","","48","","","3000","1","339.60000000009313","49","images/earth.jpg","images/tutrocket2","images/tutrocket1","null","images/tutrocket2","","1","practice","null","2","","",""
"d3-animate-choice","116","544569","0.0-61.0-1.18","22","683","9","Male","false","false","true","false","""event"",""trial"",""time""
""fullscreenenter"",""5"",""51442""
","
","
","""event"",""trial"",""time""
""fullscreenenter"",""5"",""51442""
","
","811.2999999998137","","49","","","3000","1","822.5999999998603","48","images/tutgreenplanet.jpg","images/tutalien2","images/tutalien1","images/tutrocket2","images/tutalien1","images/nothing.png","2","practice","true","1","common","0","2022-02-06 23:26:57.896"
"two-step-fixation","117","545578","0.0-61.0-2.18","22","683","9","Male","false","false","true","false","""event"",""trial"",""time""
""fullscreenenter"",""5"",""51442""
","
","
","""event"",""trial"",""time""
""fullscreenenter"",""5"",""51442""
","
","","images/earth.jpg","","","","","","","","","","","","","","fixation","","","","","",""
"d3-animate-choice","118","547889","0.0-61.0-0.19","22","683","9","Male","false","false","true","false","""event"",""trial"",""time""
""fullscreenenter"",""5"",""51442""
","
","
","""event"",""trial"",""time""
""fullscreenenter"",""5"",""51442""
","
","307","","49","","","3000","1","318.29999999981374","48","images/earth.jpg","images/tutrocket2","images/tutrocket1","null","images/tutrocket1","","1","practice","null","1","","",""
"d3-animate-choice","119","550410","0.0-61.0-1.19","22","683","9","Male","false","false","true","false","""event"",""trial"",""time""
""fullscreenenter"",""5"",""51442""
","
","
","""event"",""trial"",""time""
""fullscreenenter"",""5"",""51442""
","
","512.1000000000931","","49","","","3000","1","638.3000000000466","48","images/tutyellowplanet.jpg","images/tutalien4","images/tutalien3","images/tutrocket1","images/tutalien3","images/t.png","2","practice","true","1","common","1","2022-02-06 23:27:03.737"
"two-step-fixation","120","551417","0.0-61.0-2.19","22","683","9","Male","false","false","true","false","""event"",""trial"",""time""
""fullscreenenter"",""5"",""51442""
","
","
","""event"",""trial"",""time""
""fullscreenenter"",""5"",""51442""
","
","","images/earth.jpg","","","","","","","","","","","","","","fixation","","","","","",""
"d3-instructions","121","559540","0.0-62.0","22","683","9","Male","false","false","true","false","""event"",""trial"",""time""
""fullscreenenter"",""5"",""51442""
","
","
","""event"",""trial"",""time""
""fullscreenenter"",""5"",""51442""
","
","","","","","","","","","","","","","","","","","","","","","",""
"audio-keyboard-response","122","564978","0.0-63.0","22","683","9","Male","false","false","true","false","""event"",""trial"",""time""
""fullscreenenter"",""5"",""51442""
","
","
","""event"",""trial"",""time""
""fullscreenenter"",""5"",""51442""
","
","5440","audio/instructions/treasure_feedback.wav","32","","","","","","","","","","","","","","","","","","",""
"d3-instructions","123","584781","0.0-64.0","22","683","9","Male","false","false","true","false","""event"",""trial"",""time""
""fullscreenenter"",""5"",""51442""
","
","
","""event"",""trial"",""time""
""fullscreenenter"",""5"",""51442""
","
","","","","","","","","","","","","","","","","","","","","","",""
"d3-instructions","124","600646","0.0-65.0","22","683","9","Male","false","false","true","false","""event"",""trial"",""time""
""fullscreenenter"",""5"",""51442""
","
","
","""event"",""trial"",""time""
""fullscreenenter"",""5"",""51442""
","
","","","","","","","","","","","","","","","","","","","","","",""
"d3-instructions","125","626028","0.0-66.0","22","683","9","Male","false","false","true","false","""event"",""trial"",""time""
""fullscreenenter"",""5"",""51442""
","
","
","""event"",""trial"",""time""
""fullscreenenter"",""5"",""51442""
","
","","","","","","","","","","","","","","","","","","","","","",""
"d3-instructions","126","642400","0.0-67.0","22","683","9","Male","false","false","true","false","""event"",""trial"",""time""
""fullscreenenter"",""5"",""51442""
","
","
","""event"",""trial"",""time""
""fullscreenenter"",""5"",""51442""
","
","","","","","","","","","","","","","","","","","","","","","",""
"d3-instructions","127","655436","0.0-68.0","22","683","9","Male","false","false","true","false","""event"",""trial"",""time""
""fullscreenenter"",""5"",""51442""
","
","
","""event"",""trial"",""time""
""fullscreenenter"",""5"",""51442""
","
","","","","","","","","","","","","","","","","","","","","","",""
"instructions-quiz","128","660864","0.0-69.0","22","683","9","Male","false","false","true","false","""event"",""trial"",""time""
""fullscreenenter"",""5"",""51442""
","
","
","""event"",""trial"",""time""
""fullscreenenter"",""5"",""51442""
","
","5424","audio/quiz/Q1_Prompt.wav","","1","","","","","","","","","","","","","","","","","",""
"audio-keyboard-response","129","670034","0.0-70.0","22","683","9","Male","false","false","true","false","""event"",""trial"",""time""
""fullscreenenter"",""5"",""51442""
","
","
","""event"",""trial"",""time""
""fullscreenenter"",""5"",""51442""
","
","null","audio/quiz/Q1_Correct.wav","null","","","","","","","","","","","","","","","","","","",""
"instructions-quiz","130","679816","0.0-71.0","22","683","9","Male","false","false","true","false","""event"",""trial"",""time""
""fullscreenenter"",""5"",""51442""
","
","
","""event"",""trial"",""time""
""fullscreenenter"",""5"",""51442""
","
","9779.09999999986","audio/quiz/Q2_Prompt.wav","","0","","","","","","","","","","","","","","","","","",""
"audio-keyboard-response","131","692684","0.0-72.0","22","683","9","Male","false","false","true","false","""event"",""trial"",""time""
""fullscreenenter"",""5"",""51442""
","
","
","""event"",""trial"",""time""
""fullscreenenter"",""5"",""51442""
","
","null","audio/quiz/Q2_Correct.wav","null","","","","","","","","","","","","","","","","","","",""
"instructions-quiz","132","697155","0.0-73.0","22","683","9","Male","false","false","true","false","""event"",""trial"",""time""
""fullscreenenter"",""5"",""51442""
","
","
","""event"",""trial"",""time""
""fullscreenenter"",""5"",""51442""
","
","4465.09999999986","audio/quiz/Q3_Prompt.wav","","1","","","","","","","","","","","","","","","","","",""
"audio-keyboard-response","133","702954","0.0-74.0","22","683","9","Male","false","false","true","false","""event"",""trial"",""time""
""fullscreenenter"",""5"",""51442""
","
","
","""event"",""trial"",""time""
""fullscreenenter"",""5"",""51442""
","
","null","audio/quiz/Q3_Correct.wav","null","","","","","","","","","","","","","","","","","","",""
"d3-instructions","134","717025","0.0-75.0","22","683","9","Male","false","false","true","false","""event"",""trial"",""time""
""fullscreenenter"",""5"",""51442""
","
","
","""event"",""trial"",""time""
""fullscreenenter"",""5"",""51442""
","
","","","","","","","","","","","","","","","","","","","","","",""
"d3-animate-choice","135","719593","0.0-76.0-0.0","22","683","9","Male","false","false","true","false","""event"",""trial"",""time""
""fullscreenenter"",""5"",""51442""
","
","
","""event"",""trial"",""time""
""fullscreenenter"",""5"",""51442""
","
","560.6999999999534","","48","","","3000","1","","","images/earth.jpg","images/rocket1","images/rocket2","null","images/rocket1","","1","real","null","2","","",""
"d3-animate-choice","136","722612","0.0-76.0-1.0","22","683","9","Male","false","false","true","false","""event"",""trial"",""time""
""fullscreenenter"",""5"",""51442""
","
","
","""event"",""trial"",""time""
""fullscreenenter"",""5"",""51442""
","
","1011.5999999998603","","49","","","3000","1","","","images/purpleplanet.jpg","images/alien4","images/alien3","images/rocket1","images/alien3","images/nothing.png","2","real","true","1","common","0","2022-02-06 23:29:55.940"
"two-step-fixation","137","723632","0.0-76.0-2.0","22","683","9","Male","false","false","true","false","""event"",""trial"",""time""
""fullscreenenter"",""5"",""51442""
","
","
","""event"",""trial"",""time""
""fullscreenenter"",""5"",""51442""
","
","","images/earth.jpg","","","","","","","","","","","","","","fixation","","","","","",""
"d3-animate-choice","138","726072","0.0-76.0-0.1","22","683","9","Male","false","false","true","false","""event"",""trial"",""time""
""fullscreenenter"",""5"",""51442""
","
","
","""event"",""trial"",""time""
""fullscreenenter"",""5"",""51442""
","
","430.89999999990687","","48","","","3000","1","","","images/earth.jpg","images/rocket1","images/rocket2","null","images/rocket1","","1","real","null","2","","",""
"d3-animate-choice","139","728643","0.0-76.0-1.1","22","683","9","Male","false","false","true","false","""event"",""trial"",""time""
""fullscreenenter"",""5"",""51442""
","
","
","""event"",""trial"",""time""
""fullscreenenter"",""5"",""51442""
","
","564.1999999999534","","48","","","3000","1","","","images/purpleplanet.jpg","images/alien4","images/alien3","images/rocket1","images/alien4","images/t.png","2","real","true","2","common","1","2022-02-06 23:30:01.970"
"two-step-fixation","140","729653","0.0-76.0-2.1","22","683","9","Male","false","false","true","false","""event"",""trial"",""time""
""fullscreenenter"",""5"",""51442""
","
","
","""event"",""trial"",""time""
""fullscreenenter"",""5"",""51442""
","
","","images/earth.jpg","","","","","","","","","","","","","","fixation","","","","","",""
"d3-animate-choice","141","732020","0.0-76.0-0.2","22","683","9","Male","false","false","true","false","""event"",""trial"",""time""
""fullscreenenter"",""5"",""51442""
","
","
","""event"",""trial"",""time""
""fullscreenenter"",""5"",""51442""
","
","357.70000000018626","","48","","","3000","1","","","images/earth.jpg","images/rocket1","images/rocket2","null","images/rocket1","","1","real","null","2","","",""
"d3-animate-choice","142","734604","0.0-76.0-1.2","22","683","9","Male","false","false","true","false","""event"",""trial"",""time""
""fullscreenenter"",""5"",""51442""
","
","
","""event"",""trial"",""time""
""fullscreenenter"",""5"",""51442""
","
","565.8000000000466","","48","","","3000","1","","","images/purpleplanet.jpg","images/alien4","images/alien3","images/rocket1","images/alien4","images/t.png","2","real","true","2","common","1","2022-02-06 23:30:07.931"
"two-step-fixation","143","735619","0.0-76.0-2.2","22","683","9","Male","false","false","true","false","""event"",""trial"",""time""
""fullscreenenter"",""5"",""51442""
","
","
","""event"",""trial"",""time""
""fullscreenenter"",""5"",""51442""
","
","","images/earth.jpg","","","","","","","","","","","","","","fixation","","","","","",""
"d3-animate-choice","144","737888","0.0-76.0-0.3","22","683","9","Male","false","false","true","false","""event"",""trial"",""time""
""fullscreenenter"",""5"",""51442""
","
","
","""event"",""trial"",""time""
""fullscreenenter"",""5"",""51442""
","
","257.30000000004657","","48","","","3000","1","","","images/earth.jpg","images/rocket1","images/rocket2","null","images/rocket1","","1","real","null","2","","",""
"d3-animate-choice","145","740353","0.0-76.0-1.3","22","683","9","Male","false","false","true","false","""event"",""trial"",""time""
""fullscreenenter"",""5"",""51442""
","
","
","""event"",""trial"",""time""
""fullscreenenter"",""5"",""51442""
","
","458.39999999990687","","48","","","3000","1","","","images/purpleplanet.jpg","images/alien4","images/alien3","images/rocket1","images/alien4","images/nothing.png","2","real","true","2","common","0","2022-02-06 23:30:13.681"
"two-step-fixation","146","741363","0.0-76.0-2.3","22","683","9","Male","false","false","true","false","""event"",""trial"",""time""
""fullscreenenter"",""5"",""51442""
","
","
","""event"",""trial"",""time""
""fullscreenenter"",""5"",""51442""
","
","","images/earth.jpg","","","","","","","","","","","","","","fixation","","","","","",""
"d3-animate-choice","147","744304","0.0-76.0-0.4","22","683","9","Male","false","false","true","false","""event"",""trial"",""time""
""fullscreenenter"",""5"",""51442""
","
","
","""event"",""trial"",""time""
""fullscreenenter"",""5"",""51442""
","
","926.6000000000931","","49","","","3000","1","","","images/earth.jpg","images/rocket1","images/rocket2","null","images/rocket2","","1","real","null","1","","",""
"d3-animate-choice","148","746849","0.0-76.0-1.4","22","683","9","Male","false","false","true","false","""event"",""trial"",""time""
""fullscreenenter"",""5"",""51442""
","
","
","""event"",""trial"",""time""
""fullscreenenter"",""5"",""51442""
","
","534.6000000000931","","49","","","3000","1","","","images/redplanet1.jpg","images/alien2","images/alien1","images/rocket2","images/alien1","images/nothing.png","2","real","true","1","common","0","2022-02-06 23:30:20.176"
"two-step-fixation","149","747852","0.0-76.0-2.4","22","683","9","Male","false","false","true","false","""event"",""trial"",""time""
""fullscreenenter"",""5"",""51442""
","
","
","""event"",""trial"",""time""
""fullscreenenter"",""5"",""51442""
","
","","images/earth.jpg","","","","","","","","","","","","","","fixation","","","","","",""
"d3-animate-choice","150","750261","0.0-76.0-0.5","22","683","9","Male","false","false","true","false","""event"",""trial"",""time""
""fullscreenenter"",""5"",""51442""
","
","
","""event"",""trial"",""time""
""fullscreenenter"",""5"",""51442""
","
","402.69999999995343","","49","","","3000","1","","","images/earth.jpg","images/rocket1","images/rocket2","null","images/rocket2","","1","real","null","1","","",""
"d3-animate-choice","151","753240","0.0-76.0-1.5","22","683","9","Male","false","false","true","false","""event"",""trial"",""time""
""fullscreenenter"",""5"",""51442""
","
","
","""event"",""trial"",""time""
""fullscreenenter"",""5"",""51442""
","
","972.7999999998137","","48","","","3000","1","","","images/redplanet1.jpg","images/alien2","images/alien1","images/rocket2","images/alien2","images/t.png","2","real","true","2","common","1","2022-02-06 23:30:26.568"
"two-step-fixation","152","754244","0.0-76.0-2.5","22","683","9","Male","false","false","true","false","""event"",""trial"",""time""
""fullscreenenter"",""5"",""51442""
","
","
","""event"",""trial"",""time""
""fullscreenenter"",""5"",""51442""
","
","","images/earth.jpg","","","","","","","","","","","","","","fixation","","","","","",""
"d3-animate-choice","153","756754","0.0-76.0-0.6","22","683","9","Male","false","false","true","false","""event"",""trial"",""time""
""fullscreenenter"",""5"",""51442""
","
","
","""event"",""trial"",""time""
""fullscreenenter"",""5"",""51442""
","
","499.30000000004657","","49","","","3000","1","","","images/earth.jpg","images/rocket1","images/rocket2","null","images/rocket2","","1","real","null","1","","",""
"d3-animate-choice","154","759265","0.0-76.0-1.6","22","683","9","Male","false","false","true","false","""event"",""trial"",""time""
""fullscreenenter"",""5"",""51442""
","
","
","""event"",""trial"",""time""
""fullscreenenter"",""5"",""51442""
","
","505","","48","","","3000","1","","","images/redplanet1.jpg","images/alien2","images/alien1","images/rocket2","images/alien2","images/nothing.png","2","real","true","2","common","0","2022-02-06 23:30:32.593"
"two-step-fixation","155","760279","0.0-76.0-2.6","22","683","9","Male","false","false","true","false","""event"",""trial"",""time""
""fullscreenenter"",""5"",""51442""
","
","
","""event"",""trial"",""time""
""fullscreenenter"",""5"",""51442""
","
","","images/earth.jpg","","","","","","","","","","","","","","fixation","","","","","",""
"d3-animate-choice","156","762684","0.0-76.0-0.7","22","683","9","Male","false","false","true","false","""event"",""trial"",""time""
""fullscreenenter"",""5"",""51442""
","
","
","""event"",""trial"",""time""
""fullscreenenter"",""5"",""51442""
","
","399.5","","48","","","3000","1","1638.1000000000931,2001.6000000000931,2357.100000000093","48,48,48","images/earth.jpg","images/rocket1","images/rocket2","null","images/rocket1","","1","real","null","2","","",""
"d3-animate-choice","157","764928","0.0-76.0-1.7","22","683","9","Male","false","false","true","false","""event"",""trial"",""time""
""fullscreenenter"",""5"",""51442""
","
","
","""event"",""trial"",""time""
""fullscreenenter"",""5"",""51442""
","
","238.5","","48","","","3000","1","","","images/purpleplanet.jpg","images/alien4","images/alien3","images/rocket1","images/alien4","images/nothing.png","2","real","true","2","common","0","2022-02-06 23:30:38.255"
"two-step-fixation","158","765939","0.0-76.0-2.7","22","683","9","Male","false","false","true","false","""event"",""trial"",""time""
""fullscreenenter"",""5"",""51442""
","
","
","""event"",""trial"",""time""
""fullscreenenter"",""5"",""51442""
","
","","images/earth.jpg","","","","","","","","","","","","","","fixation","","","","","",""
"d3-animate-choice","159","768098","0.0-76.0-0.8","22","683","9","Male","false","false","true","false","""event"",""trial"",""time""
""fullscreenenter"",""5"",""51442""
","
","
","""event"",""trial"",""time""
""fullscreenenter"",""5"",""51442""
","
","155.10000000009313","","49","","","3000","1","1120.5,1863.4000000001397","16,49","images/earth.jpg","images/rocket1","images/rocket2","null","images/rocket2","","1","real","null","1","","",""
"d3-animate-choice","160","770235","0.0-76.0-1.8","22","683","9","Male","false","false","true","false","""event"",""trial"",""time""
""fullscreenenter"",""5"",""51442""
","
","
","""event"",""trial"",""time""
""fullscreenenter"",""5"",""51442""
","
","127.79999999981374","","49","","","3000","1","496.89999999990687","49","images/purpleplanet.jpg","images/alien4","images/alien3","images/rocket2","images/alien3","images/nothing.png","2","real","false","1","rare","0","2022-02-06 23:30:43.562"
"two-step-fixation","161","771243","0.0-76.0-2.8","22","683","9","Male","false","false","true","false","""event"",""trial"",""time""
""fullscreenenter"",""5"",""51442""
","
","
","""event"",""trial"",""time""
""fullscreenenter"",""5"",""51442""
","
","","images/earth.jpg","","","","","","","","","","","","","","fixation","","","","","",""
"d3-animate-choice","162","773543","0.0-76.0-0.9","22","683","9","Male","false","false","true","false","""event"",""trial"",""time""
""fullscreenenter"",""5"",""51442""
","
","
","""event"",""trial"",""time""
""fullscreenenter"",""5"",""51442""
","
","291.80000000004657","","48","","","3000","1","1524.3000000000466","48","images/earth.jpg","images/rocket1","images/rocket2","null","images/rocket1","","1","real","null","2","","",""
"d3-animate-choice","163","775973","0.0-76.0-1.9","22","683","9","Male","false","false","true","false","""event"",""trial"",""time""
""fullscreenenter"",""5"",""51442""
","
","
","""event"",""trial"",""time""
""fullscreenenter"",""5"",""51442""
","
","419.39999999990687","","48","","","3000","1","","","images/purpleplanet.jpg","images/alien4","images/alien3","images/rocket1","images/alien4","images/t.png","2","real","true","2","common","1","2022-02-06 23:30:49.300"
"two-step-fixation","164","776976","0.0-76.0-2.9","22","683","9","Male","false","false","true","false","""event"",""trial"",""time""
""fullscreenenter"",""5"",""51442""
","
","
","""event"",""trial"",""time""
""fullscreenenter"",""5"",""51442""
","
","","images/earth.jpg","","","","","","","","","","","","","","fixation","","","","","",""
"d3-animate-choice","165","779070","0.0-76.0-0.10","22","683","9","Male","false","false","true","false","""event"",""trial"",""time""
""fullscreenenter"",""5"",""51442""
","
","
","""event"",""trial"",""time""
""fullscreenenter"",""5"",""51442""
","
","87.5","","49","","","3000","1","","","images/earth.jpg","images/rocket1","images/rocket2","null","images/rocket2","","1","real","null","1","","",""
"d3-animate-choice","166","781682","0.0-76.0-1.10","22","683","9","Male","false","false","true","false","""event"",""trial"",""time""
""fullscreenenter"",""5"",""51442""
","
","
","""event"",""trial"",""time""
""fullscreenenter"",""5"",""51442""
","
","601.9000000001397","","49","","","3000","1","","","images/purpleplanet.jpg","images/alien4","images/alien3","images/rocket2","images/alien3","images/t.png","2","real","false","1","rare","1","2022-02-06 23:30:55.009"
"two-step-fixation","167","782688","0.0-76.0-2.10","22","683","9","Male","false","false","true","false","""event"",""trial"",""time""
""fullscreenenter"",""5"",""51442""
","
","
","""event"",""trial"",""time""
""fullscreenenter"",""5"",""51442""
","
","","images/earth.jpg","","","","","","","","","","","","","","fixation","","","","","",""
"d3-animate-choice","168","785019","0.0-76.0-0.11","22","683","9","Male","false","false","true","false","""event"",""trial"",""time""
""fullscreenenter"",""5"",""51442""
","
","
","""event"",""trial"",""time""
""fullscreenenter"",""5"",""51442""
","
","326.19999999995343","","48","","","3000","1","","","images/earth.jpg","images/rocket1","images/rocket2","null","images/rocket1","","1","real","null","2","","",""
"d3-animate-choice","169","787710","0.0-76.0-1.11","22","683","9","Male","false","false","true","false","""event"",""trial"",""time""
""fullscreenenter"",""5"",""51442""
","
","
","""event"",""trial"",""time""
""fullscreenenter"",""5"",""51442""
","
","687.6999999999534","","49","","","3000","1","","","images/purpleplanet.jpg","images/alien4","images/alien3","images/rocket1","images/alien3","images/t.png","2","real","true","1","common","1","2022-02-06 23:31:01.037"
"two-step-fixation","170","788716","0.0-76.0-2.11","22","683","9","Male","false","false","true","false","""event"",""trial"",""time""
""fullscreenenter"",""5"",""51442""
","
","
","""event"",""trial"",""time""
""fullscreenenter"",""5"",""51442""
","
","","images/earth.jpg","","","","","","","","","","","","","","fixation","","","","","",""
"d3-animate-choice","171","791033","0.0-76.0-0.12","22","683","9","Male","false","false","true","false","""event"",""trial"",""time""
""fullscreenenter"",""5"",""51442""
","
","
","""event"",""trial"",""time""
""fullscreenenter"",""5"",""51442""
","
","313.19999999995343","","49","","","3000","1","1587.1999999999534","48","images/earth.jpg","images/rocket1","images/rocket2","null","images/rocket2","","1","real","null","1","","",""
"d3-animate-choice","172","793636","0.0-76.0-1.12","22","683","9","Male","false","false","true","false","""event"",""trial"",""time""
""fullscreenenter"",""5"",""51442""
","
","
","""event"",""trial"",""time""
""fullscreenenter"",""5"",""51442""
","
","589.6999999999534","","48","","","3000","1","","","images/purpleplanet.jpg","images/alien4","images/alien3","images/rocket2","images/alien4","images/t.png","2","real","false","2","rare","1","2022-02-06 23:31:06.963"
"two-step-fixation","173","794639","0.0-76.0-2.12","22","683","9","Male","false","false","true","false","""event"",""trial"",""time""
""fullscreenenter"",""5"",""51442""
","
","
","""event"",""trial"",""time""
""fullscreenenter"",""5"",""51442""
","
","","images/earth.jpg","","","","","","","","","","","","","","fixation","","","","","",""
"d3-animate-choice","174","797041","0.0-76.0-0.13","22","683","9","Male","false","false","true","false","""event"",""trial"",""time""
""fullscreenenter"",""5"",""51442""
","
","
","""event"",""trial"",""time""
""fullscreenenter"",""5"",""51442""
","
","396.79999999981374","","49","","","3000","1","","","images/earth.jpg","images/rocket1","images/rocket2","null","images/rocket2","","1","real","null","1","","",""
"d3-animate-choice","175","799422","0.0-76.0-1.13","22","683","9","Male","false","false","true","false","""event"",""trial"",""time""
""fullscreenenter"",""5"",""51442""
","
","
","""event"",""trial"",""time""
""fullscreenenter"",""5"",""51442""
","
","370.19999999995343","","49","","","3000","1","","","images/redplanet1.jpg","images/alien2","images/alien1","images/rocket2","images/alien1","images/t.png","2","real","true","1","common","1","2022-02-06 23:31:12.749"
"two-step-fixation","176","800431","0.0-76.0-2.13","22","683","9","Male","false","false","true","false","""event"",""trial"",""time""
""fullscreenenter"",""5"",""51442""
","
","
","""event"",""trial"",""time""
""fullscreenenter"",""5"",""51442""
","
","","images/earth.jpg","","","","","","","","","","","","","","fixation","","","","","",""
"d3-animate-choice","177","802727","0.0-76.0-0.14","22","683","9","Male","false","false","true","false","""event"",""trial"",""time""
""fullscreenenter"",""5"",""51442""
","
","
","""event"",""trial"",""time""
""fullscreenenter"",""5"",""51442""
","
","287.5","","48","","","3000","1","402.5","48","images/earth.jpg","images/rocket1","images/rocket2","null","images/rocket1","","1","real","null","2","","",""
"d3-animate-choice","178","805629","0.0-76.0-1.14","22","683","9","Male","false","false","true","false","""event"",""trial"",""time""
""fullscreenenter"",""5"",""51442""
","
","
","""event"",""trial"",""time""
""fullscreenenter"",""5"",""51442""
","
","894.1999999999534","","48","","","3000","1","","","images/redplanet1.jpg","images/alien2","images/alien1","images/rocket1","images/alien2","images/t.png","2","real","false","2","rare","1","2022-02-06 23:31:18.956"
"two-step-fixation","179","806632","0.0-76.0-2.14","22","683","9","Male","false","false","true","false","""event"",""trial"",""time""
""fullscreenenter"",""5"",""51442""
","
","
","""event"",""trial"",""time""
""fullscreenenter"",""5"",""51442""
","
","","images/earth.jpg","","","","","","","","","","","","","","fixation","","","","","",""
"d3-animate-choice","180","808954","0.0-76.0-0.15","22","683","9","Male","false","false","true","false","""event"",""trial"",""time""
""fullscreenenter"",""5"",""51442""
","
","
","""event"",""trial"",""time""
""fullscreenenter"",""5"",""51442""
","
","316.80000000004657","","49","","","3000","1","","","images/earth.jpg","images/rocket1","images/rocket2","null","images/rocket2","","1","real","null","1","","",""
"d3-animate-choice","181","811484","0.0-76.0-1.15","22","683","9","Male","false","false","true","false","""event"",""trial"",""time""
""fullscreenenter"",""5"",""51442""
","
","
","""event"",""trial"",""time""
""fullscreenenter"",""5"",""51442""
","
","520.7000000001863","","49","","","3000","1","","","images/purpleplanet.jpg","images/alien4","images/alien3","images/rocket2","images/alien3","images/t.png","2","real","false","1","rare","1","2022-02-06 23:31:24.811"
"two-step-fixation","182","812489","0.0-76.0-2.15","22","683","9","Male","false","false","true","false","""event"",""trial"",""time""
""fullscreenenter"",""5"",""51442""
","
","
","""event"",""trial"",""time""
""fullscreenenter"",""5"",""51442""
","
","","images/earth.jpg","","","","","","","","","","","","","","fixation","","","","","",""
"d3-animate-choice","183","814781","0.0-76.0-0.16","22","683","9","Male","false","false","true","false","""event"",""trial"",""time""
""fullscreenenter"",""5"",""51442""
","
","
","""event"",""trial"",""time""
""fullscreenenter"",""5"",""51442""
","
","281.69999999995343","","48","","","3000","1","","","images/earth.jpg","images/rocket1","images/rocket2","null","images/rocket1","","1","real","null","2","","",""
"d3-animate-choice","184","817222","0.0-76.0-1.16","22","683","9","Male","false","false","true","false","""event"",""trial"",""time""
""fullscreenenter"",""5"",""51442""
","
","
","""event"",""trial"",""time""
""fullscreenenter"",""5"",""51442""
","
","432.19999999995343","","48","","","3000","1","","","images/purpleplanet.jpg","images/alien4","images/alien3","images/rocket1","images/alien4","images/t.png","2","real","true","2","common","1","2022-02-06 23:31:30.550"
"two-step-fixation","185","818230","0.0-76.0-2.16","22","683","9","Male","false","false","true","false","""event"",""trial"",""time""
""fullscreenenter"",""5"",""51442""
","
","
","""event"",""trial"",""time""
""fullscreenenter"",""5"",""51442""
","
","","images/earth.jpg","","","","","","","","","","","","","","fixation","","","","","",""
"d3-animate-choice","186","820566","0.0-76.0-0.17","22","683","9","Male","false","false","true","false","""event"",""trial"",""time""
""fullscreenenter"",""5"",""51442""
","
","
","""event"",""trial"",""time""
""fullscreenenter"",""5"",""51442""
","
","330.30000000004657","","49","","","3000","1","","","images/earth.jpg","images/rocket1","images/rocket2","null","images/rocket2","","1","real","null","1","","",""
"d3-animate-choice","187","823540","0.0-76.0-1.17","22","683","9","Male","false","false","true","false","""event"",""trial"",""time""
""fullscreenenter"",""5"",""51442""
","
","
","""event"",""trial"",""time""
""fullscreenenter"",""5"",""51442""
","
","968.6999999999534","","49","","","3000","1","","","images/redplanet1.jpg","images/alien2","images/alien1","images/rocket2","images/alien1","images/t.png","2","real","true","1","common","1","2022-02-06 23:31:36.867"
"two-step-fixation","188","824550","0.0-76.0-2.17","22","683","9","Male","false","false","true","false","""event"",""trial"",""time""
""fullscreenenter"",""5"",""51442""
","
","
","""event"",""trial"",""time""
""fullscreenenter"",""5"",""51442""
","
","","images/earth.jpg","","","","","","","","","","","","","","fixation","","","","","",""
"d3-animate-choice","189","826963","0.0-76.0-0.18","22","683","9","Male","false","false","true","false","""event"",""trial"",""time""
""fullscreenenter"",""5"",""51442""
","
","
","""event"",""trial"",""time""
""fullscreenenter"",""5"",""51442""
","
","397.30000000004657","","48","","","3000","1","","","images/earth.jpg","images/rocket1","images/rocket2","null","images/rocket1","","1","real","null","2","","",""
"d3-animate-choice","190","829480","0.0-76.0-1.18","22","683","9","Male","false","false","true","false","""event"",""trial"",""time""
""fullscreenenter"",""5"",""51442""
","
","
","""event"",""trial"",""time""
""fullscreenenter"",""5"",""51442""
","
","501.80000000004657","","48","","","3000","1","","","images/purpleplanet.jpg","images/alien4","images/alien3","images/rocket1","images/alien4","images/t.png","2","real","true","2","common","1","2022-02-06 23:31:42.807"
"two-step-fixation","191","830490","0.0-76.0-2.18","22","683","9","Male","false","false","true","false","""event"",""trial"",""time""
""fullscreenenter"",""5"",""51442""
","
","
","""event"",""trial"",""time""
""fullscreenenter"",""5"",""51442""
","
","","images/earth.jpg","","","","","","","","","","","","","","fixation","","","","","",""
"d3-animate-choice","192","832523","0.0-76.0-0.19","22","683","9","Male","false","false","true","false","""event"",""trial"",""time""
""fullscreenenter"",""5"",""51442""
","
","
","""event"",""trial"",""time""
""fullscreenenter"",""5"",""51442""
","
","24.300000000046566","","49","","","3000","1","1530.9000000001397","49","images/earth.jpg","images/rocket1","images/rocket2","null","images/rocket2","","1","real","null","1","","",""
"d3-animate-choice","193","834884","0.0-76.0-1.19","22","683","9","Male","false","false","true","false","""event"",""trial"",""time""
""fullscreenenter"",""5"",""51442""
","
","
","""event"",""trial"",""time""
""fullscreenenter"",""5"",""51442""
","
","354.30000000004657","","49","","","3000","1","","","images/redplanet1.jpg","images/alien2","images/alien1","images/rocket2","images/alien1","images/nothing.png","2","real","true","1","common","0","2022-02-06 23:31:48.211"
"two-step-fixation","194","835896","0.0-76.0-2.19","22","683","9","Male","false","false","true","false","""event"",""trial"",""time""
""fullscreenenter"",""5"",""51442""
","
","
","""event"",""trial"",""time""
""fullscreenenter"",""5"",""51442""
","
","","images/earth.jpg","","","","","","","","","","","","","","fixation","","","","","",""
"d3-animate-choice","195","838882","0.0-76.0-0.20","22","683","9","Male","false","false","true","false","""event"",""trial"",""time""
""fullscreenenter"",""5"",""51442""
","
","
","""event"",""trial"",""time""
""fullscreenenter"",""5"",""51442""
","
","981.7000000001863","","49","","","3000","1","","","images/earth.jpg","images/rocket1","images/rocket2","null","images/rocket2","","1","real","null","1","","",""
"d3-animate-choice","196","841514","0.0-76.0-1.20","22","683","9","Male","false","false","true","false","""event"",""trial"",""time""
""fullscreenenter"",""5"",""51442""
","
","
","""event"",""trial"",""time""
""fullscreenenter"",""5"",""51442""
","
","623","","49","","","3000","1","","","images/redplanet1.jpg","images/alien2","images/alien1","images/rocket2","images/alien1","images/t.png","2","real","true","1","common","1","2022-02-06 23:31:54.841"
"two-step-fixation","197","842522","0.0-76.0-2.20","22","683","9","Male","false","false","true","false","""event"",""trial"",""time""
""fullscreenenter"",""5"",""51442""
","
","
","""event"",""trial"",""time""
""fullscreenenter"",""5"",""51442""
","
","","images/earth.jpg","","","","","","","","","","","","","","fixation","","","","","",""
"d3-animate-choice","198","844830","0.0-76.0-0.21","22","683","9","Male","false","false","true","false","""event"",""trial"",""time""
""fullscreenenter"",""5"",""51442""
","
","
","""event"",""trial"",""time""
""fullscreenenter"",""5"",""51442""
","
","299.4000000001397","","48","","","3000","1","","","images/earth.jpg","images/rocket1","images/rocket2","null","images/rocket1","","1","real","null","2","","",""
"d3-animate-choice","199","847418","0.0-76.0-1.21","22","683","9","Male","false","false","true","false","""event"",""trial"",""time""
""fullscreenenter"",""5"",""51442""
","
","
","""event"",""trial"",""time""
""fullscreenenter"",""5"",""51442""
","
","571.5999999998603","","48","","","3000","1","","","images/redplanet1.jpg","images/alien2","images/alien1","images/rocket1","images/alien2","images/t.png","2","real","false","2","rare","1","2022-02-06 23:32:00.745"
"two-step-fixation","200","848424","0.0-76.0-2.21","22","683","9","Male","false","false","true","false","""event"",""trial"",""time""
""fullscreenenter"",""5"",""51442""
","
","
","""event"",""trial"",""time""
""fullscreenenter"",""5"",""51442""
","
","","images/earth.jpg","","","","","","","","","","","","","","fixation","","","","","",""
"d3-animate-choice","201","851013","0.0-76.0-0.22","22","683","9","Male","false","false","true","false","""event"",""trial"",""time""
""fullscreenenter"",""5"",""51442""
","
","
","""event"",""trial"",""time""
""fullscreenenter"",""5"",""51442""
","
","582.5","","49","","","3000","1","","","images/earth.jpg","images/rocket1","images/rocket2","null","images/rocket2","","1","real","null","1","","",""
"d3-animate-choice","202","853626","0.0-76.0-1.22","22","683","9","Male","false","false","true","false","""event"",""trial"",""time""
""fullscreenenter"",""5"",""51442""
","
","
","""event"",""trial"",""time""
""fullscreenenter"",""5"",""51442""
","
","607.6999999999534","","49","","","3000","1","","","images/redplanet1.jpg","images/alien2","images/alien1","images/rocket2","images/alien1","images/t.png","2","real","true","1","common","1","2022-02-06 23:32:06.953"
"two-step-fixation","203","854631","0.0-76.0-2.22","22","683","9","Male","false","false","true","false","""event"",""trial"",""time""
""fullscreenenter"",""5"",""51442""
","
","
","""event"",""trial"",""time""
""fullscreenenter"",""5"",""51442""
","
","","images/earth.jpg","","","","","","","","","","","","","","fixation","","","","","",""
"d3-animate-choice","204","856899","0.0-76.0-0.23","22","683","9","Male","false","false","true","false","""event"",""trial"",""time""
""fullscreenenter"",""5"",""51442""
","
","
","""event"",""trial"",""time""
""fullscreenenter"",""5"",""51442""
","
","260.60000000009313","","48","","","3000","1","","","images/earth.jpg","images/rocket1","images/rocket2","null","images/rocket1","","1","real","null","2","","",""
"d3-animate-choice","205","859625","0.0-76.0-1.23","22","683","9","Male","false","false","true","false","""event"",""trial"",""time""
""fullscreenenter"",""5"",""51442""
","
","
","""event"",""trial"",""time""
""fullscreenenter"",""5"",""51442""
","
","716.6999999999534","","48","","","3000","1","","","images/redplanet1.jpg","images/alien2","images/alien1","images/rocket1","images/alien2","images/nothing.png","2","real","false","2","rare","0","2022-02-06 23:32:12.952"
"two-step-fixation","206","860640","0.0-76.0-2.23","22","683","9","Male","false","false","true","false","""event"",""trial"",""time""
""fullscreenenter"",""5"",""51442""
","
","
","""event"",""trial"",""time""
""fullscreenenter"",""5"",""51442""
","
","","images/earth.jpg","","","","","","","","","","","","","","fixation","","","","","",""
"d3-animate-choice","207","863011","0.0-76.0-0.24","22","683","9","Male","false","false","true","false","""event"",""trial"",""time""
""fullscreenenter"",""5"",""51442""
","
","
","""event"",""trial"",""time""
""fullscreenenter"",""5"",""51442""
","
","365.10000000009313","","49","","","3000","1","","","images/earth.jpg","images/rocket1","images/rocket2","null","images/rocket2","","1","real","null","1","","",""
"d3-animate-choice","208","866041","0.0-76.0-1.24","22","683","9","Male","false","false","true","false","""event"",""trial"",""time""
""fullscreenenter"",""5"",""51442""
","
","
","""event"",""trial"",""time""
""fullscreenenter"",""5"",""51442""
","
","1016.5999999998603","","49","","","3000","1","","","images/redplanet1.jpg","images/alien2","images/alien1","images/rocket2","images/alien1","images/t.png","2","real","true","1","common","1","2022-02-06 23:32:19.368"
"two-step-fixation","209","867049","0.0-76.0-2.24","22","683","9","Male","false","false","true","false","""event"",""trial"",""time""
""fullscreenenter"",""5"",""51442""
","
","
","""event"",""trial"",""time""
""fullscreenenter"",""5"",""51442""
","
","","images/earth.jpg","","","","","","","","","","","","","","fixation","","","","","",""
"d3-animate-choice","210","869781","0.0-76.0-0.25","22","683","9","Male","false","false","true","false","""event"",""trial"",""time""
""fullscreenenter"",""5"",""51442""
","
","
","""event"",""trial"",""time""
""fullscreenenter"",""5"",""51442""
","
","727.5999999998603","","48","","","3000","1","","","images/earth.jpg","images/rocket1","images/rocket2","null","images/rocket1","","1","real","null","2","","",""
"d3-animate-choice","211","872401","0.0-76.0-1.25","22","683","9","Male","false","false","true","false","""event"",""trial"",""time""
""fullscreenenter"",""5"",""51442""
","
","
","""event"",""trial"",""time""
""fullscreenenter"",""5"",""51442""
","
","612.8999999999069","","48","","","3000","1","","","images/purpleplanet.jpg","images/alien4","images/alien3","images/rocket1","images/alien4","images/t.png","2","real","true","2","common","1","2022-02-06 23:32:25.728"
"two-step-fixation","212","873415","0.0-76.0-2.25","22","683","9","Male","false","false","true","false","""event"",""trial"",""time""
""fullscreenenter"",""5"",""51442""
","
","
","""event"",""trial"",""time""
""fullscreenenter"",""5"",""51442""
","
","","images/earth.jpg","","","","","","","","","","","","","","fixation","","","","","",""
"d3-animate-choice","213","875774","0.0-76.0-0.26","22","683","9","Male","false","false","true","false","""event"",""trial"",""time""
""fullscreenenter"",""5"",""51442""
","
","
","""event"",""trial"",""time""
""fullscreenenter"",""5"",""51442""
","
","350.80000000004657","","49","","","3000","1","1590.1000000000931","49","images/earth.jpg","images/rocket1","images/rocket2","null","images/rocket2","","1","real","null","1","","",""
"d3-animate-choice","214","878195","0.0-76.0-1.26","22","683","9","Male","false","false","true","false","""event"",""trial"",""time""
""fullscreenenter"",""5"",""51442""
","
","
","""event"",""trial"",""time""
""fullscreenenter"",""5"",""51442""
","
","409.80000000004657","","49","","","3000","1","","","images/purpleplanet.jpg","images/alien4","images/alien3","images/rocket2","images/alien3","images/nothing.png","2","real","false","1","rare","0","2022-02-06 23:32:31.522"
"two-step-fixation","215","879200","0.0-76.0-2.26","22","683","9","Male","false","false","true","false","""event"",""trial"",""time""
""fullscreenenter"",""5"",""51442""
","
","
","""event"",""trial"",""time""
""fullscreenenter"",""5"",""51442""
","
","","images/earth.jpg","","","","","","","","","","","","","","fixation","","","","","",""
"d3-animate-choice","216","881744","0.0-76.0-0.27","22","683","9","Male","false","false","true","false","""event"",""trial"",""time""
""fullscreenenter"",""5"",""51442""
","
","
","""event"",""trial"",""time""
""fullscreenenter"",""5"",""51442""
","
","535.4000000001397","","48","","","3000","1","","","images/earth.jpg","images/rocket1","images/rocket2","null","images/rocket1","","1","real","null","2","","",""
"d3-animate-choice","217","884126","0.0-76.0-1.27","22","683","9","Male","false","false","true","false","""event"",""trial"",""time""
""fullscreenenter"",""5"",""51442""
","
","
","""event"",""trial"",""time""
""fullscreenenter"",""5"",""51442""
","
","377.79999999981374","","48","","","3000","1","","","images/redplanet1.jpg","images/alien2","images/alien1","images/rocket1","images/alien2","images/nothing.png","2","real","false","2","rare","0","2022-02-06 23:32:37.453"
"two-step-fixation","218","885130","0.0-76.0-2.27","22","683","9","Male","false","false","true","false","""event"",""trial"",""time""
""fullscreenenter"",""5"",""51442""
","
","
","""event"",""trial"",""time""
""fullscreenenter"",""5"",""51442""
","
","","images/earth.jpg","","","","","","","","","","","","","","fixation","","","","","",""
"d3-animate-choice","219","887473","0.0-76.0-0.28","22","683","9","Male","false","false","true","false","""event"",""trial"",""time""
""fullscreenenter"",""5"",""51442""
","
","
","""event"",""trial"",""time""
""fullscreenenter"",""5"",""51442""
","
","331.20000000018626","","49","","","3000","1","","","images/earth.jpg","images/rocket1","images/rocket2","null","images/rocket2","","1","real","null","1","","",""
"d3-animate-choice","220","890317","0.0-76.0-1.28","22","683","9","Male","false","false","true","false","""event"",""trial"",""time""
""fullscreenenter"",""5"",""51442""
","
","
","""event"",""trial"",""time""
""fullscreenenter"",""5"",""51442""
","
","835.3000000000466","","49","","","3000","1","","","images/redplanet1.jpg","images/alien2","images/alien1","images/rocket2","images/alien1","images/t.png","2","real","true","1","common","1","2022-02-06 23:32:43.645"
"two-step-fixation","221","891321","0.0-76.0-2.28","22","683","9","Male","false","false","true","false","""event"",""trial"",""time""
""fullscreenenter"",""5"",""51442""
","
","
","""event"",""trial"",""time""
""fullscreenenter"",""5"",""51442""
","
","","images/earth.jpg","","","","","","","","","","","","","","fixation","","","","","",""
"d3-animate-choice","222","893621","0.0-76.0-0.29","22","683","9","Male","false","false","true","false","""event"",""trial"",""time""
""fullscreenenter"",""5"",""51442""
","
","
","""event"",""trial"",""time""
""fullscreenenter"",""5"",""51442""
","
","292.69999999995343","","48","","","3000","1","1851.8999999999069","48","images/earth.jpg","images/rocket1","images/rocket2","null","images/rocket1","","1","real","null","2","","",""
"d3-animate-choice","223","896217","0.0-76.0-1.29","22","683","9","Male","false","false","true","false","""event"",""trial"",""time""
""fullscreenenter"",""5"",""51442""
","
","
","""event"",""trial"",""time""
""fullscreenenter"",""5"",""51442""
","
","584.1999999999534","","48","","","3000","1","","","images/purpleplanet.jpg","images/alien4","images/alien3","images/rocket1","images/alien4","images/t.png","2","real","true","2","common","1","2022-02-06 23:32:49.544"
"two-step-fixation","224","897221","0.0-76.0-2.29","22","683","9","Male","false","false","true","false","""event"",""trial"",""time""
""fullscreenenter"",""5"",""51442""
","
","
","""event"",""trial"",""time""
""fullscreenenter"",""5"",""51442""
","
","","images/earth.jpg","","","","","","","","","","","","","","fixation","","","","","",""
"d3-animate-choice","225","899682","0.0-76.0-0.30","22","683","9","Male","false","false","true","false","""event"",""trial"",""time""
""fullscreenenter"",""5"",""51442""
","
","
","""event"",""trial"",""time""
""fullscreenenter"",""5"",""51442""
","
","457.0999999998603","","49","","","3000","1","","","images/earth.jpg","images/rocket1","images/rocket2","null","images/rocket2","","1","real","null","1","","",""
"d3-animate-choice","226","902281","0.0-76.0-1.30","22","683","9","Male","false","false","true","false","""event"",""trial"",""time""
""fullscreenenter"",""5"",""51442""
","
","
","""event"",""trial"",""time""
""fullscreenenter"",""5"",""51442""
","
","594.0999999998603","","49","","","3000","1","","","images/redplanet1.jpg","images/alien2","images/alien1","images/rocket2","images/alien1","images/t.png","2","real","true","1","common","1","2022-02-06 23:32:55.608"
"two-step-fixation","227","903295","0.0-76.0-2.30","22","683","9","Male","false","false","true","false","""event"",""trial"",""time""
""fullscreenenter"",""5"",""51442""
","
","
","""event"",""trial"",""time""
""fullscreenenter"",""5"",""51442""
","
","","images/earth.jpg","","","","","","","","","","","","","","fixation","","","","","",""
"d3-animate-choice","228","905677","0.0-76.0-0.31","22","683","9","Male","false","false","true","false","""event"",""trial"",""time""
""fullscreenenter"",""5"",""51442""
","
","
","""event"",""trial"",""time""
""fullscreenenter"",""5"",""51442""
","
","369.5","","48","","","3000","1","","","images/earth.jpg","images/rocket1","images/rocket2","null","images/rocket1","","1","real","null","2","","",""
"d3-animate-choice","229","907875","0.0-76.0-1.31","22","683","9","Male","false","false","true","false","""event"",""trial"",""time""
""fullscreenenter"",""5"",""51442""
","
","
","""event"",""trial"",""time""
""fullscreenenter"",""5"",""51442""
","
","188.39999999990687","","48","","","3000","1","","","images/purpleplanet.jpg","images/alien4","images/alien3","images/rocket1","images/alien4","images/nothing.png","2","real","true","2","common","0","2022-02-06 23:33:01.202"
"two-step-fixation","230","908886","0.0-76.0-2.31","22","683","9","Male","false","false","true","false","""event"",""trial"",""time""
""fullscreenenter"",""5"",""51442""
","
","
","""event"",""trial"",""time""
""fullscreenenter"",""5"",""51442""
","
","","images/earth.jpg","","","","","","","","","","","","","","fixation","","","","","",""
"d3-animate-choice","231","911257","0.0-76.0-0.32","22","683","9","Male","false","false","true","false","""event"",""trial"",""time""
""fullscreenenter"",""5"",""51442""
","
","
","""event"",""trial"",""time""
""fullscreenenter"",""5"",""51442""
","
","362.80000000004657","","49","","","3000","1","","","images/earth.jpg","images/rocket1","images/rocket2","null","images/rocket2","","1","real","null","1","","",""
"d3-animate-choice","232","913588","0.0-76.0-1.32","22","683","9","Male","false","false","true","false","""event"",""trial"",""time""
""fullscreenenter"",""5"",""51442""
","
","
","""event"",""trial"",""time""
""fullscreenenter"",""5"",""51442""
","
","323.5","","49","","","3000","1","","","images/purpleplanet.jpg","images/alien4","images/alien3","images/rocket2","images/alien3","images/nothing.png","2","real","false","1","rare","0","2022-02-06 23:33:06.915"
"two-step-fixation","233","914593","0.0-76.0-2.32","22","683","9","Male","false","false","true","false","""event"",""trial"",""time""
""fullscreenenter"",""5"",""51442""
","
","
","""event"",""trial"",""time""
""fullscreenenter"",""5"",""51442""
","
","","images/earth.jpg","","","","","","","","","","","","","","fixation","","","","","",""
"d3-animate-choice","234","916909","0.0-76.0-0.33","22","683","9","Male","false","false","true","false","""event"",""trial"",""time""
""fullscreenenter"",""5"",""51442""
","
","
","""event"",""trial"",""time""
""fullscreenenter"",""5"",""51442""
","
","303","","49","","","3000","1","","","images/earth.jpg","images/rocket1","images/rocket2","null","images/rocket2","","1","real","null","1","","",""
"d3-animate-choice","235","919376","0.0-76.0-1.33","22","683","9","Male","false","false","true","false","""event"",""trial"",""time""
""fullscreenenter"",""5"",""51442""
","
","
","""event"",""trial"",""time""
""fullscreenenter"",""5"",""51442""
","
","459.5999999998603","","49","","","3000","1","","","images/purpleplanet.jpg","images/alien4","images/alien3","images/rocket2","images/alien3","images/nothing.png","2","real","false","1","rare","0","2022-02-06 23:33:12.703"
"two-step-fixation","236","920381","0.0-76.0-2.33","22","683","9","Male","false","false","true","false","""event"",""trial"",""time""
""fullscreenenter"",""5"",""51442""
","
","
","""event"",""trial"",""time""
""fullscreenenter"",""5"",""51442""
","
","","images/earth.jpg","","","","","","","","","","","","","","fixation","","","","","",""
"d3-animate-choice","237","923118","0.0-76.0-0.34","22","683","9","Male","false","false","true","false","""event"",""trial"",""time""
""fullscreenenter"",""5"",""51442""
","
","
","""event"",""trial"",""time""
""fullscreenenter"",""5"",""51442""
","
","723.5999999998603","","49","","","3000","1","","","images/earth.jpg","images/rocket1","images/rocket2","null","images/rocket2","","1","real","null","1","","",""
"d3-animate-choice","238","925634","0.0-76.0-1.34","22","683","9","Male","false","false","true","false","""event"",""trial"",""time""
""fullscreenenter"",""5"",""51442""
","
","
","""event"",""trial"",""time""
""fullscreenenter"",""5"",""51442""
","
","507.5","","48","","","3000","1","","","images/purpleplanet.jpg","images/alien4","images/alien3","images/rocket2","images/alien4","images/t.png","2","real","false","2","rare","1","2022-02-06 23:33:18.961"
"two-step-fixation","239","926638","0.0-76.0-2.34","22","683","9","Male","false","false","true","false","""event"",""trial"",""time""
""fullscreenenter"",""5"",""51442""
","
","
","""event"",""trial"",""time""
""fullscreenenter"",""5"",""51442""
","
","","images/earth.jpg","","","","","","","","","","","","","","fixation","","","","","",""
"d3-animate-choice","240","929119","0.0-76.0-0.35","22","683","9","Male","false","false","true","false","""event"",""trial"",""time""
""fullscreenenter"",""5"",""51442""
","
","
","""event"",""trial"",""time""
""fullscreenenter"",""5"",""51442""
","
","476.29999999981374","","49","","","3000","1","","","images/earth.jpg","images/rocket1","images/rocket2","null","images/rocket2","","1","real","null","1","","",""
"d3-animate-choice","241","931915","0.0-76.0-1.35","22","683","9","Male","false","false","true","false","""event"",""trial"",""time""
""fullscreenenter"",""5"",""51442""
","
","
","""event"",""trial"",""time""
""fullscreenenter"",""5"",""51442""
","
","787.6999999999534","","49","","","3000","1","","","images/redplanet1.jpg","images/alien2","images/alien1","images/rocket2","images/alien1","images/nothing.png","2","real","true","1","common","0","2022-02-06 23:33:25.242"
"two-step-fixation","242","932926","0.0-76.0-2.35","22","683","9","Male","false","false","true","false","""event"",""trial"",""time""
""fullscreenenter"",""5"",""51442""
","
","
","""event"",""trial"",""time""
""fullscreenenter"",""5"",""51442""
","
","","images/earth.jpg","","","","","","","","","","","","","","fixation","","","","","",""
"d3-animate-choice","243","935374","0.0-76.0-0.36","22","683","9","Male","false","false","true","false","""event"",""trial"",""time""
""fullscreenenter"",""5"",""51442""
","
","
","""event"",""trial"",""time""
""fullscreenenter"",""5"",""51442""
","
","439.69999999995343","","49","","","3000","1","","","images/earth.jpg","images/rocket1","images/rocket2","null","images/rocket2","","1","real","null","1","","",""
"d3-animate-choice","244","937865","0.0-76.0-1.36","22","683","9","Male","false","false","true","false","""event"",""trial"",""time""
""fullscreenenter"",""5"",""51442""
","
","
","""event"",""trial"",""time""
""fullscreenenter"",""5"",""51442""
","
","483.19999999995343","","48","","","3000","1","","","images/purpleplanet.jpg","images/alien4","images/alien3","images/rocket2","images/alien4","images/t.png","2","real","false","2","rare","1","2022-02-06 23:33:31.192"
"two-step-fixation","245","938875","0.0-76.0-2.36","22","683","9","Male","false","false","true","false","""event"",""trial"",""time""
""fullscreenenter"",""5"",""51442""
","
","
","""event"",""trial"",""time""
""fullscreenenter"",""5"",""51442""
","
","","images/earth.jpg","","","","","","","","","","","","","","fixation","","","","","",""
"d3-animate-choice","246","941608","0.0-76.0-0.37","22","683","9","Male","false","false","true","false","""event"",""trial"",""time""
""fullscreenenter"",""5"",""51442""
","
","
","""event"",""trial"",""time""
""fullscreenenter"",""5"",""51442""
","
","729","","48","","","3000","1","","","images/earth.jpg","images/rocket1","images/rocket2","null","images/rocket1","","1","real","null","2","","",""
"d3-animate-choice","247","944204","0.0-76.0-1.37","22","683","9","Male","false","false","true","false","""event"",""trial"",""time""
""fullscreenenter"",""5"",""51442""
","
","
","""event"",""trial"",""time""
