"trial_type","trial_index","time_elapsed","internal_node_id","participant_id","subject_id","age","gender","rocket_sides","red_planet_first_rocket","red_display_order","purple_display_order","interactions","blur_events","focus_events","fullscreenenter_events","fullscreenexit_events","rt","stimulus","key_press","button_pressed","success","duration","valid_pressed","rts","keys","planet_text","right_text","left_text","center_text","chosen_text","reward_text","trial_stage","practice_trial","transition_type","choice","transition","reward","timestamp"
"pavlovia","0","3","0.0-0.0","601","1044","9","Female","false","false","false","true","
","
","
","
","
","","","","","","","","","","","","","","","","","","","","","",""
"html-keyboard-response","1","3381","0.0-1.0","601","1044","9","Female","false","false","false","true","
","
","
","
","
","3376.800000011921","Welcome! Press the space bar to begin.","32","","","","","","","","","","","","","","","","","","",""
"audio-keyboard-response","2","7088","0.0-2.0","601","1044","9","Female","false","false","false","true","
","
","
","
","
","3051","audio/beep_loop.wav","32","","","","","","","","","","","","","","","","","","",""
"audio-button-response","3","14950","0.0-3.0","601","1044","9","Female","false","false","false","true","
","
","
","
","
","NaN","audio/fish.mp3","","1","","","","","","","","","","","","","","","","","",""
"audio-button-response","4","17628","0.0-4.0","601","1044","9","Female","false","false","false","true","""event"",""trial"",""time""
""fullscreenenter"",""5"",""22139""
","
","
","""event"",""trial"",""time""
""fullscreenenter"",""5"",""22139""
","
","NaN","audio/tiger.mp3","","4","","","","","","","","","","","","","","","","","",""
"fullscreen","5","23122","0.0-5.0","601","1044","9","Female","false","false","false","true","""event"",""trial"",""time""
""fullscreenenter"",""5"",""22139""
","
","
","""event"",""trial"",""time""
""fullscreenenter"",""5"",""22139""
","
","","","","","true","","","","","","","","","","","","","","","","",""
"d3-instructions","6","37226","0.0-6.0","601","1044","9","Female","false","false","false","true","""event"",""trial"",""time""
""fullscreenenter"",""5"",""22139""
","
","
","""event"",""trial"",""time""
""fullscreenenter"",""5"",""22139""
","
","","","","","","","","","","","","","","","","","","","","","",""
"d3-instructions","7","45439","0.0-7.0","601","1044","9","Female","false","false","false","true","""event"",""trial"",""time""
""fullscreenenter"",""5"",""22139""
","
","
","""event"",""trial"",""time""
""fullscreenenter"",""5"",""22139""
","
","","","","","","","","","","","","","","","","","","","","","",""
"d3-instructions","8","52013","0.0-8.0","601","1044","9","Female","false","false","false","true","""event"",""trial"",""time""
""fullscreenenter"",""5"",""22139""
","
","
","""event"",""trial"",""time""
""fullscreenenter"",""5"",""22139""
","
","","","","","","","","","","","","","","","","","","","","","",""
"d3-instructions","9","62258","0.0-9.0","601","1044","9","Female","false","false","false","true","""event"",""trial"",""time""
""fullscreenenter"",""5"",""22139""
","
","
","""event"",""trial"",""time""
""fullscreenenter"",""5"",""22139""
","
","","","","","","","","","","","","","","","","","","","","","",""
"d3-instructions","10","82179","0.0-10.0","601","1044","9","Female","false","false","false","true","""event"",""trial"",""time""
""fullscreenenter"",""5"",""22139""
","
","
","""event"",""trial"",""time""
""fullscreenenter"",""5"",""22139""
","
","","","","","","","","","","","","","","","","","","","","","",""
"d3-animate-choice","11","84756","0.0-11.0","601","1044","9","Female","false","false","false","true","""event"",""trial"",""time""
""fullscreenenter"",""5"",""22139""
","
","
","""event"",""trial"",""time""
""fullscreenenter"",""5"",""22139""
","
","550","","49","","","3000","1","1142.1000000238419,2433.7000000178814","48,48","images/tutgreenplanet.jpg","images/tutalien1","images/tutalien2","null","images/tutalien2","","NA","practice","null","","","",""
"d3-animate-choice","12","87350","0.0-12.0","601","1044","9","Female","false","false","false","true","""event"",""trial"",""time""
""fullscreenenter"",""5"",""22139""
","
","
","""event"",""trial"",""time""
""fullscreenenter"",""5"",""22139""
","
","577.9000000059605","","48","","","3000","1","","","images/tutgreenplanet.jpg","images/tutalien1","images/tutalien2","null","images/tutalien1","","NA","practice","null","","","",""
"d3-animate-choice","13","89588","0.0-13.0","601","1044","9","Female","false","false","false","true","""event"",""trial"",""time""
""fullscreenenter"",""5"",""22139""
","
","
","""event"",""trial"",""time""
""fullscreenenter"",""5"",""22139""
","
","229.40000000596046","","48","","","3000","1","","","images/tutgreenplanet.jpg","images/tutalien1","images/tutalien2","null","images/tutalien1","","NA","practice","null","","","",""
"d3-animate-choice","14","91835","0.0-14.0","601","1044","9","Female","false","false","false","true","""event"",""trial"",""time""
""fullscreenenter"",""5"",""22139""
","
","
","""event"",""trial"",""time""
""fullscreenenter"",""5"",""22139""
","
","236.2999999821186","","49","","","3000","1","","","images/tutgreenplanet.jpg","images/tutalien1","images/tutalien2","null","images/tutalien2","","NA","practice","null","","","",""
"d3-instructions","15","99128","0.0-15.0","601","1044","9","Female","false","false","false","true","""event"",""trial"",""time""
""fullscreenenter"",""5"",""22139""
","
","
","""event"",""trial"",""time""
""fullscreenenter"",""5"",""22139""
","
","","","","","","","","","","","","","","","","","","","","","",""
"d3-instructions","16","107006","0.0-16.0","601","1044","9","Female","false","false","false","true","""event"",""trial"",""time""
""fullscreenenter"",""5"",""22139""
","
","
","""event"",""trial"",""time""
""fullscreenenter"",""5"",""22139""
","
","","","","","","","","","","","","","","","","","","","","","",""
"d3-instructions","17","116679","0.0-17.0","601","1044","9","Female","false","false","false","true","""event"",""trial"",""time""
""fullscreenenter"",""5"",""22139""
","
","
","""event"",""trial"",""time""
""fullscreenenter"",""5"",""22139""
","
","","","","","","","","","","","","","","","","","","","","","",""
"d3-instructions","18","130785","0.0-18.0","601","1044","9","Female","false","false","false","true","""event"",""trial"",""time""
""fullscreenenter"",""5"",""22139""
","
","
","""event"",""trial"",""time""
""fullscreenenter"",""5"",""22139""
","
","","","","","","","","","","","","","","","","","","","","","",""
"d3-instructions","19","144389","0.0-19.0","601","1044","9","Female","false","false","false","true","""event"",""trial"",""time""
""fullscreenenter"",""5"",""22139""
","
","
","""event"",""trial"",""time""
""fullscreenenter"",""5"",""22139""
","
","","","","","","","","","","","","","","","","","","","","","",""
"d3-animate-choice","20","147382","0.0-20.0","601","1044","9","Female","false","false","false","true","""event"",""trial"",""time""
""fullscreenenter"",""5"",""22139""
","
","
","""event"",""trial"",""time""
""fullscreenenter"",""5"",""22139""
","
","981.3000000119209","","49","","","3000","1","2413.699999988079","49","images/tutyellowplanet.jpg","null","images/tutalien3","null","images/tutalien3","images/t.png","NA","practice","null","","","",""
"d3-animate-choice","21","149746","0.0-21.0","601","1044","9","Female","false","false","false","true","""event"",""trial"",""time""
""fullscreenenter"",""5"",""22139""
","
","
","""event"",""trial"",""time""
""fullscreenenter"",""5"",""22139""
","
","345.2999999821186","","49","","","3000","1","","","images/tutyellowplanet.jpg","null","images/tutalien3","null","images/tutalien3","images/t.png","NA","practice","null","","","",""
"d3-animate-choice","22","152076","0.0-22.0","601","1044","9","Female","false","false","false","true","""event"",""trial"",""time""
""fullscreenenter"",""5"",""22139""
","
","
","""event"",""trial"",""time""
""fullscreenenter"",""5"",""22139""
","
","311.59999999403954","","49","","","3000","1","","","images/tutyellowplanet.jpg","null","images/tutalien3","null","images/tutalien3","images/t.png","NA","practice","null","","","",""
"d3-animate-choice","23","154356","0.0-23.0","601","1044","9","Female","false","false","false","true","""event"",""trial"",""time""
""fullscreenenter"",""5"",""22139""
","
","
","""event"",""trial"",""time""
""fullscreenenter"",""5"",""22139""
","
","273.09999999403954","","49","","","3000","1","","","images/tutyellowplanet.jpg","null","images/tutalien3","null","images/tutalien3","images/t.png","NA","practice","null","","","",""
"d3-animate-choice","24","156616","0.0-24.0","601","1044","9","Female","false","false","false","true","""event"",""trial"",""time""
""fullscreenenter"",""5"",""22139""
","
","
","""event"",""trial"",""time""
""fullscreenenter"",""5"",""22139""
","
","256.2999999821186","","49","","","3000","1","","","images/tutyellowplanet.jpg","null","images/tutalien3","null","images/tutalien3","images/t.png","NA","practice","null","","","",""
"d3-animate-choice","25","158886","0.0-25.0","601","1044","9","Female","false","false","false","true","""event"",""trial"",""time""
""fullscreenenter"",""5"",""22139""
","
","
","""event"",""trial"",""time""
""fullscreenenter"",""5"",""22139""
","
","261.69999998807907","","49","","","3000","1","","","images/tutyellowplanet.jpg","null","images/tutalien3","null","images/tutalien3","images/t.png","NA","practice","null","","","",""
"d3-animate-choice","26","161176","0.0-26.0","601","1044","9","Female","false","false","false","true","""event"",""trial"",""time""
""fullscreenenter"",""5"",""22139""
","
","
","""event"",""trial"",""time""
""fullscreenenter"",""5"",""22139""
","
","268.7000000178814","","49","","","3000","1","","","images/tutyellowplanet.jpg","null","images/tutalien3","null","images/tutalien3","images/nothing.png","NA","practice","null","","","",""
"d3-animate-choice","27","163506","0.0-27.0","601","1044","9","Female","false","false","false","true","""event"",""trial"",""time""
""fullscreenenter"",""5"",""22139""
","
","
","""event"",""trial"",""time""
""fullscreenenter"",""5"",""22139""
","
","321.09999999403954","","49","","","3000","1","","","images/tutyellowplanet.jpg","null","images/tutalien3","null","images/tutalien3","images/t.png","NA","practice","null","","","",""
"d3-animate-choice","28","165936","0.0-28.0","601","1044","9","Female","false","false","false","true","""event"",""trial"",""time""
""fullscreenenter"",""5"",""22139""
","
","
","""event"",""trial"",""time""
""fullscreenenter"",""5"",""22139""
","
","425.10000002384186","","49","","","3000","1","","","images/tutyellowplanet.jpg","null","images/tutalien3","null","images/tutalien3","images/t.png","NA","practice","null","","","",""
"d3-animate-choice","29","168466","0.0-29.0","601","1044","9","Female","false","false","false","true","""event"",""trial"",""time""
""fullscreenenter"",""5"",""22139""
","
","
","""event"",""trial"",""time""
""fullscreenenter"",""5"",""22139""
","
","517.8000000119209","","49","","","3000","1","","","images/tutyellowplanet.jpg","null","images/tutalien3","null","images/tutalien3","images/t.png","NA","practice","null","","","",""
"d3-instructions","30","175987","0.0-30.0","601","1044","9","Female","false","false","false","true","""event"",""trial"",""time""
""fullscreenenter"",""5"",""22139""
","
","
","""event"",""trial"",""time""
""fullscreenenter"",""5"",""22139""
","
","","","","","","","","","","","","","","","","","","","","","",""
"d3-instructions","31","186091","0.0-31.0","601","1044","9","Female","false","false","false","true","""event"",""trial"",""time""
""fullscreenenter"",""5"",""22139""
","
","
","""event"",""trial"",""time""
""fullscreenenter"",""5"",""22139""
","
","","","","","","","","","","","","","","","","","","","","","",""
"d3-instructions","32","193713","0.0-32.0","601","1044","9","Female","false","false","false","true","""event"",""trial"",""time""
""fullscreenenter"",""5"",""22139""
","
","
","""event"",""trial"",""time""
""fullscreenenter"",""5"",""22139""
","
","","","","","","","","","","","","","","","","","","","","","",""
"d3-instructions","33","205149","0.0-33.0","601","1044","9","Female","false","false","false","true","""event"",""trial"",""time""
""fullscreenenter"",""5"",""22139""
","
","
","""event"",""trial"",""time""
""fullscreenenter"",""5"",""22139""
","
","","","","","","","","","","","","","","","","","","","","","",""
"d3-animate-choice","34","208417","0.0-34.0","601","1044","9","Female","false","false","false","true","""event"",""trial"",""time""
""fullscreenenter"",""5"",""22139""
","
","
","""event"",""trial"",""time""
""fullscreenenter"",""5"",""22139""
","
","1261.800000011921","","49","","","3000","1","2862.100000023842","48","images/tutgreenplanet.jpg","images/tutalien1","images/tutalien2","null","images/tutalien2","images/nothing.png","NA","practice","null","","","",""
"d3-animate-choice","35","210847","0.0-35.0","601","1044","9","Female","false","false","false","true","""event"",""trial"",""time""
""fullscreenenter"",""5"",""22139""
","
","
","""event"",""trial"",""time""
""fullscreenenter"",""5"",""22139""
","
","423","","48","","","3000","1","","","images/tutgreenplanet.jpg","images/tutalien1","images/tutalien2","null","images/tutalien1","images/nothing.png","NA","practice","null","","","",""
"d3-animate-choice","36","213747","0.0-36.0","601","1044","9","Female","false","false","false","true","""event"",""trial"",""time""
""fullscreenenter"",""5"",""22139""
","
","
","""event"",""trial"",""time""
""fullscreenenter"",""5"",""22139""
","
","877.2000000178814","","48","","","3000","1","","","images/tutgreenplanet.jpg","images/tutalien1","images/tutalien2","null","images/tutalien1","images/nothing.png","NA","practice","null","","","",""
"d3-animate-choice","37","216047","0.0-37.0","601","1044","9","Female","false","false","false","true","""event"",""trial"",""time""
""fullscreenenter"",""5"",""22139""
","
","
","""event"",""trial"",""time""
""fullscreenenter"",""5"",""22139""
","
","290.90000000596046","","49","","","3000","1","","","images/tutgreenplanet.jpg","images/tutalien1","images/tutalien2","null","images/tutalien2","images/t.png","NA","practice","null","","","",""
"d3-animate-choice","38","218397","0.0-38.0","601","1044","9","Female","false","false","false","true","""event"",""trial"",""time""
""fullscreenenter"",""5"",""22139""
","
","
","""event"",""trial"",""time""
""fullscreenenter"",""5"",""22139""
","
","327","","48","","","3000","1","","","images/tutgreenplanet.jpg","images/tutalien1","images/tutalien2","null","images/tutalien1","images/nothing.png","NA","practice","null","","","",""
"d3-animate-choice","39","220677","0.0-39.0","601","1044","9","Female","false","false","false","true","""event"",""trial"",""time""
""fullscreenenter"",""5"",""22139""
","
","
","""event"",""trial"",""time""
""fullscreenenter"",""5"",""22139""
","
","267.59999999403954","","49","","","3000","1","","","images/tutgreenplanet.jpg","images/tutalien1","images/tutalien2","null","images/tutalien2","images/t.png","NA","practice","null","","","",""
"d3-animate-choice","40","223267","0.0-40.0","601","1044","9","Female","false","false","false","true","""event"",""trial"",""time""
""fullscreenenter"",""5"",""22139""
","
","
","""event"",""trial"",""time""
""fullscreenenter"",""5"",""22139""
","
","577.9000000059605","","48","","","3000","1","","","images/tutgreenplanet.jpg","images/tutalien1","images/tutalien2","null","images/tutalien1","images/nothing.png","NA","practice","null","","","",""
"d3-animate-choice","41","225677","0.0-41.0","601","1044","9","Female","false","false","false","true","""event"",""trial"",""time""
""fullscreenenter"",""5"",""22139""
","
","
","""event"",""trial"",""time""
""fullscreenenter"",""5"",""22139""
","
","400.80000001192093","","49","","","3000","1","","","images/tutgreenplanet.jpg","images/tutalien1","images/tutalien2","null","images/tutalien2","images/t.png","NA","practice","null","","","",""
"d3-animate-choice","42","227957","0.0-42.0","601","1044","9","Female","false","false","false","true","""event"",""trial"",""time""
""fullscreenenter"",""5"",""22139""
","
","
","""event"",""trial"",""time""
""fullscreenenter"",""5"",""22139""
","
","272.59999999403954","","48","","","3000","1","","","images/tutgreenplanet.jpg","images/tutalien1","images/tutalien2","null","images/tutalien1","images/nothing.png","NA","practice","null","","","",""
"d3-animate-choice","43","230137","0.0-43.0","601","1044","9","Female","false","false","false","true","""event"",""trial"",""time""
""fullscreenenter"",""5"",""22139""
","
","
","""event"",""trial"",""time""
""fullscreenenter"",""5"",""22139""
","
","168.90000000596046","","49","","","3000","1","","","images/tutgreenplanet.jpg","images/tutalien1","images/tutalien2","null","images/tutalien2","images/t.png","NA","practice","null","","","",""
"d3-instructions","44","243996","0.0-44.0","601","1044","9","Female","false","false","false","true","""event"",""trial"",""time""
""fullscreenenter"",""5"",""22139""
","
","
","""event"",""trial"",""time""
""fullscreenenter"",""5"",""22139""
","
","","","","","","","","","","","","","","","","","","","","","",""
"d3-instructions","45","250809","0.0-45.0","601","1044","9","Female","false","false","false","true","""event"",""trial"",""time""
""fullscreenenter"",""5"",""22139""
","
","
","""event"",""trial"",""time""
""fullscreenenter"",""5"",""22139""
","
","","","","","","","","","","","","","","","","","","","","","",""
"d3-instructions","46","255717","0.0-46.0","601","1044","9","Female","false","false","false","true","""event"",""trial"",""time""
""fullscreenenter"",""5"",""22139""
","
","
","""event"",""trial"",""time""
""fullscreenenter"",""5"",""22139""
","
","","","","","","","","","","","","","","","","","","","","","",""
"d3-instructions","47","273304","0.0-47.0","601","1044","9","Female","false","false","false","true","""event"",""trial"",""time""
""fullscreenenter"",""5"",""22139""
","
","
","""event"",""trial"",""time""
""fullscreenenter"",""5"",""22139""
","
","","","","","","","","","","","","","","","","","","","","","",""
"d3-instructions","48","280319","0.0-48.0","601","1044","9","Female","false","false","false","true","""event"",""trial"",""time""
""fullscreenenter"",""5"",""22139""
","
","
","""event"",""trial"",""time""
""fullscreenenter"",""5"",""22139""
","
","","","","","","","","","","","","","","","","","","","","","",""
"d3-instructions","49","292599","0.0-49.0","601","1044","9","Female","false","false","false","true","""event"",""trial"",""time""
""fullscreenenter"",""5"",""22139""
","
","
","""event"",""trial"",""time""
""fullscreenenter"",""5"",""22139""
","
","","","","","","","","","","","","","","","","","","","","","",""
"d3-instructions","50","301992","0.0-50.0","601","1044","9","Female","false","false","false","true","""event"",""trial"",""time""
""fullscreenenter"",""5"",""22139""
","
","
","""event"",""trial"",""time""
""fullscreenenter"",""5"",""22139""
","
","","","","","","","","","","","","","","","","","","","","","",""
"d3-instructions","51","304673","0.0-51.0","601","1044","9","Female","false","false","false","true","""event"",""trial"",""time""
""fullscreenenter"",""5"",""22139""
","
","
","""event"",""trial"",""time""
""fullscreenenter"",""5"",""22139""
","
","","","","","","","","","","","","","","","","","","","","","",""
"d3-instructions","52","307443","0.0-52.0","601","1044","9","Female","false","false","false","true","""event"",""trial"",""time""
""fullscreenenter"",""5"",""22139""
","
","
","""event"",""trial"",""time""
""fullscreenenter"",""5"",""22139""
","
","","","","","","","","","","","","","","","","","","","","","",""
"d3-instructions","53","319508","0.0-53.0","601","1044","9","Female","false","false","false","true","""event"",""trial"",""time""
""fullscreenenter"",""5"",""22139""
","
","
","""event"",""trial"",""time""
""fullscreenenter"",""5"",""22139""
","
","","","","","","","","","","","","","","","","","","","","","",""
"d3-instructions","54","332524","0.0-54.0","601","1044","9","Female","false","false","false","true","""event"",""trial"",""time""
""fullscreenenter"",""5"",""22139""
","
","
","""event"",""trial"",""time""
""fullscreenenter"",""5"",""22139""
","
","","","","","","","","","","","","","","","","","","","","","",""
"d3-instructions","55","343145","0.0-55.0","601","1044","9","Female","false","false","false","true","""event"",""trial"",""time""
""fullscreenenter"",""5"",""22139""
","
","
","""event"",""trial"",""time""
""fullscreenenter"",""5"",""22139""
","
","","","","","","","","","","","","","","","","","","","","","",""
"d3-instructions","56","351497","0.0-56.0","601","1044","9","Female","false","false","false","true","""event"",""trial"",""time""
""fullscreenenter"",""5"",""22139""
","
","
","""event"",""trial"",""time""
""fullscreenenter"",""5"",""22139""
","
","","","","","","","","","","","","","","","","","","","","","",""
"d3-instructions","57","361761","0.0-57.0","601","1044","9","Female","false","false","false","true","""event"",""trial"",""time""
""fullscreenenter"",""5"",""22139""
","
","
","""event"",""trial"",""time""
""fullscreenenter"",""5"",""22139""
","
","","","","","","","","","","","","","","","","","","","","","",""
"d3-instructions","58","372288","0.0-58.0","601","1044","9","Female","false","false","false","true","""event"",""trial"",""time""
""fullscreenenter"",""5"",""22139""
","
","
","""event"",""trial"",""time""
""fullscreenenter"",""5"",""22139""
","
","","","","","","","","","","","","","","","","","","","","","",""
"d3-instructions","59","377183","0.0-59.0","601","1044","9","Female","false","false","false","true","""event"",""trial"",""time""
""fullscreenenter"",""5"",""22139""
","
","
","""event"",""trial"",""time""
""fullscreenenter"",""5"",""22139""
","
","","","","","","","","","","","","","","","","","","","","","",""
"d3-instructions","60","384207","0.0-60.0","601","1044","9","Female","false","false","false","true","""event"",""trial"",""time""
""fullscreenenter"",""5"",""22139""
","
","
","""event"",""trial"",""time""
""fullscreenenter"",""5"",""22139""
","
","","","","","","","","","","","","","","","","","","","","","",""
"d3-animate-choice","61","387718","0.0-61.0-0.0","601","1044","9","Female","false","false","false","true","""event"",""trial"",""time""
""fullscreenenter"",""5"",""22139""
","
","
","""event"",""trial"",""time""
""fullscreenenter"",""5"",""22139""
","
","1489.199999988079","","48","","","3000","1","","","images/earth.jpg","images/tutrocket1","images/tutrocket2","null","images/tutrocket1","","1","practice","null","2","","",""
"d3-animate-choice","62","390867","0.0-61.0-1.0","601","1044","9","Female","false","false","false","true","""event"",""trial"",""time""
""fullscreenenter"",""5"",""22139""
","
","
","""event"",""trial"",""time""
""fullscreenenter"",""5"",""22139""
","
","1142.0999999940395","","49","","","3000","1","","","images/tutgreenplanet.jpg","images/tutalien2","images/tutalien1","images/tutrocket1","images/tutalien1","images/t.png","2","practice","false","1","rare","1","2022-03-18 02:43:00.412"
"two-step-fixation","63","391874","0.0-61.0-2.0","601","1044","9","Female","false","false","false","true","""event"",""trial"",""time""
""fullscreenenter"",""5"",""22139""
","
","
","""event"",""trial"",""time""
""fullscreenenter"",""5"",""22139""
","
","","images/earth.jpg","","","","","","","","","","","","","","fixation","","","","","",""
"d3-animate-choice","64","394418","0.0-61.0-0.1","601","1044","9","Female","false","false","false","true","""event"",""trial"",""time""
""fullscreenenter"",""5"",""22139""
","
","
","""event"",""trial"",""time""
""fullscreenenter"",""5"",""22139""
","
","534.6999999880791","","49","","","3000","1","","","images/earth.jpg","images/tutrocket1","images/tutrocket2","null","images/tutrocket2","","1","practice","null","1","","",""
"d3-animate-choice","65","397108","0.0-61.0-1.1","601","1044","9","Female","false","false","false","true","""event"",""trial"",""time""
""fullscreenenter"",""5"",""22139""
","
","
","""event"",""trial"",""time""
""fullscreenenter"",""5"",""22139""
","
","685.0999999940395","","48","","","3000","1","","","images/tutgreenplanet.jpg","images/tutalien2","images/tutalien1","images/tutrocket2","images/tutalien2","images/t.png","2","practice","true","2","common","1","2022-03-18 02:43:06.652"
"two-step-fixation","66","398118","0.0-61.0-2.1","601","1044","9","Female","false","false","false","true","""event"",""trial"",""time""
""fullscreenenter"",""5"",""22139""
","
","
","""event"",""trial"",""time""
""fullscreenenter"",""5"",""22139""
","
","","images/earth.jpg","","","","","","","","","","","","","","fixation","","","","","",""
"d3-animate-choice","67","400408","0.0-61.0-0.2","601","1044","9","Female","false","false","false","true","""event"",""trial"",""time""
""fullscreenenter"",""5"",""22139""
","
","
","""event"",""trial"",""time""
""fullscreenenter"",""5"",""22139""
","
","274.7999999821186","","48","","","3000","1","","","images/earth.jpg","images/tutrocket1","images/tutrocket2","null","images/tutrocket1","","1","practice","null","2","","",""
"d3-animate-choice","68","402908","0.0-61.0-1.2","601","1044","9","Female","false","false","false","true","""event"",""trial"",""time""
""fullscreenenter"",""5"",""22139""
","
","
","""event"",""trial"",""time""
""fullscreenenter"",""5"",""22139""
","
","486.30000001192093","","49","","","3000","1","","","images/tutgreenplanet.jpg","images/tutalien2","images/tutalien1","images/tutrocket1","images/tutalien1","images/nothing.png","2","practice","false","1","rare","0","2022-03-18 02:43:12.452"
"two-step-fixation","69","403928","0.0-61.0-2.2","601","1044","9","Female","false","false","false","true","""event"",""trial"",""time""
""fullscreenenter"",""5"",""22139""
","
","
","""event"",""trial"",""time""
""fullscreenenter"",""5"",""22139""
","
","","images/earth.jpg","","","","","","","","","","","","","","fixation","","","","","",""
"d3-animate-choice","70","406398","0.0-61.0-0.3","601","1044","9","Female","false","false","false","true","""event"",""trial"",""time""
""fullscreenenter"",""5"",""22139""
","
","
","""event"",""trial"",""time""
""fullscreenenter"",""5"",""22139""
","
","459.69999998807907","","48","","","3000","1","","","images/earth.jpg","images/tutrocket1","images/tutrocket2","null","images/tutrocket1","","1","practice","null","2","","",""
"d3-animate-choice","71","409043","0.0-61.0-1.3","601","1044","9","Female","false","false","false","true","""event"",""trial"",""time""
""fullscreenenter"",""5"",""22139""
","
","
","""event"",""trial"",""time""
""fullscreenenter"",""5"",""22139""
","
","640","","49","","","3000","1","","","images/tutyellowplanet.jpg","images/tutalien4","images/tutalien3","images/tutrocket1","images/tutalien3","images/nothing.png","2","practice","true","1","common","0","2022-03-18 02:43:18.588"
"two-step-fixation","72","410048","0.0-61.0-2.3","601","1044","9","Female","false","false","false","true","""event"",""trial"",""time""
""fullscreenenter"",""5"",""22139""
","
","
","""event"",""trial"",""time""
""fullscreenenter"",""5"",""22139""
","
","","images/earth.jpg","","","","","","","","","","","","","","fixation","","","","","",""
"d3-animate-choice","73","412638","0.0-61.0-0.4","601","1044","9","Female","false","false","false","true","""event"",""trial"",""time""
""fullscreenenter"",""5"",""22139""
","
","
","""event"",""trial"",""time""
""fullscreenenter"",""5"",""22139""
","
","571.5999999940395","","48","","","3000","1","","","images/earth.jpg","images/tutrocket1","images/tutrocket2","null","images/tutrocket1","","1","practice","null","2","","",""
"d3-animate-choice","74","415512","0.0-61.0-1.4","601","1044","9","Female","false","false","false","true","""event"",""trial"",""time""
""fullscreenenter"",""5"",""22139""
","
","
","""event"",""trial"",""time""
""fullscreenenter"",""5"",""22139""
","
","868.9000000059605","","48","","","3000","1","","","images/tutyellowplanet.jpg","images/tutalien4","images/tutalien3","images/tutrocket1","images/tutalien4","images/nothing.png","2","practice","true","2","common","0","2022-03-18 02:43:25.056"
"two-step-fixation","75","416515","0.0-61.0-2.4","601","1044","9","Female","false","false","false","true","""event"",""trial"",""time""
""fullscreenenter"",""5"",""22139""
","
","
","""event"",""trial"",""time""
""fullscreenenter"",""5"",""22139""
","
","","images/earth.jpg","","","","","","","","","","","","","","fixation","","","","","",""
"d3-animate-choice","76","418954","0.0-61.0-0.5","601","1044","9","Female","false","false","false","true","""event"",""trial"",""time""
""fullscreenenter"",""5"",""22139""
","
","
","""event"",""trial"",""time""
""fullscreenenter"",""5"",""22139""
","
","434.40000000596046","","49","","","3000","1","","","images/earth.jpg","images/tutrocket1","images/tutrocket2","null","images/tutrocket2","","1","practice","null","1","","",""
"d3-animate-choice","77","421426","0.0-61.0-1.5","601","1044","9","Female","false","false","false","true","""event"",""trial"",""time""
""fullscreenenter"",""5"",""22139""
","
","
","""event"",""trial"",""time""
""fullscreenenter"",""5"",""22139""
","
","468.19999998807907","","48","","","3000","1","","","images/tutyellowplanet.jpg","images/tutalien4","images/tutalien3","images/tutrocket2","images/tutalien4","images/t.png","2","practice","false","2","rare","1","2022-03-18 02:43:30.970"
"two-step-fixation","78","422429","0.0-61.0-2.5","601","1044","9","Female","false","false","false","true","""event"",""trial"",""time""
""fullscreenenter"",""5"",""22139""
","
","
","""event"",""trial"",""time""
""fullscreenenter"",""5"",""22139""
","
","","images/earth.jpg","","","","","","","","","","","","","","fixation","","","","","",""
"d3-animate-choice","79","424780","0.0-61.0-0.6","601","1044","9","Female","false","false","false","true","""event"",""trial"",""time""
""fullscreenenter"",""5"",""22139""
","
","
","""event"",""trial"",""time""
""fullscreenenter"",""5"",""22139""
","
","347.19999998807907","","49","","","3000","1","","","images/earth.jpg","images/tutrocket1","images/tutrocket2","null","images/tutrocket2","","1","practice","null","1","","",""
"d3-animate-choice","80","427164","0.0-61.0-1.6","601","1044","9","Female","false","false","false","true","""event"",""trial"",""time""
""fullscreenenter"",""5"",""22139""
","
","
","""event"",""trial"",""time""
""fullscreenenter"",""5"",""22139""
","
","380.69999998807907","","48","","","3000","1","","","images/tutgreenplanet.jpg","images/tutalien2","images/tutalien1","images/tutrocket2","images/tutalien2","images/nothing.png","2","practice","true","2","common","0","2022-03-18 02:43:36.708"
"two-step-fixation","81","428169","0.0-61.0-2.6","601","1044","9","Female","false","false","false","true","""event"",""trial"",""time""
""fullscreenenter"",""5"",""22139""
","
","
","""event"",""trial"",""time""
""fullscreenenter"",""5"",""22139""
","
","","images/earth.jpg","","","","","","","","","","","","","","fixation","","","","","",""
"d3-animate-choice","82","430281","0.0-61.0-0.7","601","1044","9","Female","false","false","false","true","""event"",""trial"",""time""
""fullscreenenter"",""5"",""22139""
","
","
","""event"",""trial"",""time""
""fullscreenenter"",""5"",""22139""
","
","107.30000001192093","","49","","","3000","1","","","images/earth.jpg","images/tutrocket1","images/tutrocket2","null","images/tutrocket2","","1","practice","null","1","","",""
"d3-animate-choice","83","432726","0.0-61.0-1.7","601","1044","9","Female","false","false","false","true","""event"",""trial"",""time""
""fullscreenenter"",""5"",""22139""
","
","
","""event"",""trial"",""time""
""fullscreenenter"",""5"",""22139""
","
","440.5","","48","","","3000","1","","","images/tutyellowplanet.jpg","images/tutalien4","images/tutalien3","images/tutrocket2","images/tutalien4","images/nothing.png","2","practice","false","2","rare","0","2022-03-18 02:43:42.270"
"two-step-fixation","84","433730","0.0-61.0-2.7","601","1044","9","Female","false","false","false","true","""event"",""trial"",""time""
""fullscreenenter"",""5"",""22139""
","
","
","""event"",""trial"",""time""
""fullscreenenter"",""5"",""22139""
","
","","images/earth.jpg","","","","","","","","","","","","","","fixation","","","","","",""
"d3-animate-choice","85","436120","0.0-61.0-0.8","601","1044","9","Female","false","false","false","true","""event"",""trial"",""time""
""fullscreenenter"",""5"",""22139""
","
","
","""event"",""trial"",""time""
""fullscreenenter"",""5"",""22139""
","
","374.90000000596046","","49","","","3000","1","","","images/earth.jpg","images/tutrocket1","images/tutrocket2","null","images/tutrocket2","","1","practice","null","1","","",""
"d3-animate-choice","86","438452","0.0-61.0-1.8","601","1044","9","Female","false","false","false","true","""event"",""trial"",""time""
""fullscreenenter"",""5"",""22139""
","
","
","""event"",""trial"",""time""
""fullscreenenter"",""5"",""22139""
","
","327.7999999821186","","49","","","3000","1","","","images/tutgreenplanet.jpg","images/tutalien2","images/tutalien1","images/tutrocket2","images/tutalien1","images/nothing.png","2","practice","true","1","common","0","2022-03-18 02:43:47.996"
"two-step-fixation","87","439456","0.0-61.0-2.8","601","1044","9","Female","false","false","false","true","""event"",""trial"",""time""
""fullscreenenter"",""5"",""22139""
","
","
","""event"",""trial"",""time""
""fullscreenenter"",""5"",""22139""
","
","","images/earth.jpg","","","","","","","","","","","","","","fixation","","","","","",""
"d3-animate-choice","88","441833","0.0-61.0-0.9","601","1044","9","Female","false","false","false","true","""event"",""trial"",""time""
""fullscreenenter"",""5"",""22139""
","
","
","""event"",""trial"",""time""
""fullscreenenter"",""5"",""22139""
","
","372.5","","49","","","3000","1","","","images/earth.jpg","images/tutrocket1","images/tutrocket2","null","images/tutrocket2","","1","practice","null","1","","",""
"d3-animate-choice","89","444341","0.0-61.0-1.9","601","1044","9","Female","false","false","false","true","""event"",""trial"",""time""
""fullscreenenter"",""5"",""22139""
","
","
","""event"",""trial"",""time""
""fullscreenenter"",""5"",""22139""
","
","503.80000001192093","","48","","","3000","1","","","images/tutyellowplanet.jpg","images/tutalien4","images/tutalien3","images/tutrocket2","images/tutalien4","images/t.png","2","practice","false","2","rare","1","2022-03-18 02:43:53.885"
"two-step-fixation","90","445346","0.0-61.0-2.9","601","1044","9","Female","false","false","false","true","""event"",""trial"",""time""
""fullscreenenter"",""5"",""22139""
","
","
","""event"",""trial"",""time""
""fullscreenenter"",""5"",""22139""
","
","","images/earth.jpg","","","","","","","","","","","","","","fixation","","","","","",""
"d3-animate-choice","91","447583","0.0-61.0-0.10","601","1044","9","Female","false","false","false","true","""event"",""trial"",""time""
""fullscreenenter"",""5"",""22139""
","
","
","""event"",""trial"",""time""
""fullscreenenter"",""5"",""22139""
","
","231.09999999403954","","49","","","3000","1","","","images/earth.jpg","images/tutrocket1","images/tutrocket2","null","images/tutrocket2","","1","practice","null","1","","",""
"d3-animate-choice","92","450137","0.0-61.0-1.10","601","1044","9","Female","false","false","false","true","""event"",""trial"",""time""
""fullscreenenter"",""5"",""22139""
","
","
","""event"",""trial"",""time""
""fullscreenenter"",""5"",""22139""
","
","548.9000000059605","","48","","","3000","1","","","images/tutgreenplanet.jpg","images/tutalien2","images/tutalien1","images/tutrocket2","images/tutalien2","images/nothing.png","2","practice","true","2","common","0","2022-03-18 02:43:59.681"
"two-step-fixation","93","451146","0.0-61.0-2.10","601","1044","9","Female","false","false","false","true","""event"",""trial"",""time""
""fullscreenenter"",""5"",""22139""
","
","
","""event"",""trial"",""time""
""fullscreenenter"",""5"",""22139""
","
","","images/earth.jpg","","","","","","","","","","","","","","fixation","","","","","",""
"d3-animate-choice","94","453584","0.0-61.0-0.11","601","1044","9","Female","false","false","false","true","""event"",""trial"",""time""
""fullscreenenter"",""5"",""22139""
","
","
","""event"",""trial"",""time""
""fullscreenenter"",""5"",""22139""
","
","432.90000000596046","","49","","","3000","1","","","images/earth.jpg","images/tutrocket1","images/tutrocket2","null","images/tutrocket2","","1","practice","null","1","","",""
"d3-animate-choice","95","456552","0.0-61.0-1.11","601","1044","9","Female","false","false","false","true","""event"",""trial"",""time""
""fullscreenenter"",""5"",""22139""
","
","
","""event"",""trial"",""time""
""fullscreenenter"",""5"",""22139""
","
","963.8000000119209","","49","","","3000","1","","","images/tutyellowplanet.jpg","images/tutalien4","images/tutalien3","images/tutrocket2","images/tutalien3","images/nothing.png","2","practice","false","1","rare","0","2022-03-18 02:44:06.096"
"two-step-fixation","96","457556","0.0-61.0-2.11","601","1044","9","Female","false","false","false","true","""event"",""trial"",""time""
""fullscreenenter"",""5"",""22139""
","
","
","""event"",""trial"",""time""
""fullscreenenter"",""5"",""22139""
","
","","images/earth.jpg","","","","","","","","","","","","","","fixation","","","","","",""
"d3-animate-choice","97","460714","0.0-61.0-0.12","601","1044","9","Female","false","false","false","true","""event"",""trial"",""time""
""fullscreenenter"",""5"",""22139""
","
","
","""event"",""trial"",""time""
""fullscreenenter"",""5"",""22139""
","
","1153.800000011921","","48","","","3000","1","","","images/earth.jpg","images/tutrocket1","images/tutrocket2","null","images/tutrocket1","","1","practice","null","2","","",""
"d3-animate-choice","98","463957","0.0-61.0-1.12","601","1044","9","Female","false","false","false","true","""event"",""trial"",""time""
""fullscreenenter"",""5"",""22139""
","
","
","""event"",""trial"",""time""
""fullscreenenter"",""5"",""22139""
","
","1238.5","","49","","","3000","1","","","images/tutyellowplanet.jpg","images/tutalien4","images/tutalien3","images/tutrocket1","images/tutalien3","images/nothing.png","2","practice","true","1","common","0","2022-03-18 02:44:13.501"
"two-step-fixation","99","464961","0.0-61.0-2.12","601","1044","9","Female","false","false","false","true","""event"",""trial"",""time""
""fullscreenenter"",""5"",""22139""
","
","
","""event"",""trial"",""time""
""fullscreenenter"",""5"",""22139""
","
","","images/earth.jpg","","","","","","","","","","","","","","fixation","","","","","",""
"d3-animate-choice","100","467287","0.0-61.0-0.13","601","1044","9","Female","false","false","false","true","""event"",""trial"",""time""
""fullscreenenter"",""5"",""22139""
","
","
","""event"",""trial"",""time""
""fullscreenenter"",""5"",""22139""
","
","321.39999997615814","","49","","","3000","1","","","images/earth.jpg","images/tutrocket1","images/tutrocket2","null","images/tutrocket2","","1","practice","null","1","","",""
"d3-animate-choice","101","469843","0.0-61.0-1.13","601","1044","9","Female","false","false","false","true","""event"",""trial"",""time""
""fullscreenenter"",""5"",""22139""
","
","
","""event"",""trial"",""time""
""fullscreenenter"",""5"",""22139""
","
","551.2000000178814","","48","","","3000","1","","","images/tutgreenplanet.jpg","images/tutalien2","images/tutalien1","images/tutrocket2","images/tutalien2","images/nothing.png","2","practice","true","2","common","0","2022-03-18 02:44:19.387"
"two-step-fixation","102","470847","0.0-61.0-2.13","601","1044","9","Female","false","false","false","true","""event"",""trial"",""time""
""fullscreenenter"",""5"",""22139""
","
","
","""event"",""trial"",""time""
""fullscreenenter"",""5"",""22139""
","
","","images/earth.jpg","","","","","","","","","","","","","","fixation","","","","","",""
"d3-animate-choice","103","473186","0.0-61.0-0.14","601","1044","9","Female","false","false","false","true","""event"",""trial"",""time""
""fullscreenenter"",""5"",""22139""
","
","
","""event"",""trial"",""time""
""fullscreenenter"",""5"",""22139""
","
","334.19999998807907","","48","","","3000","1","","","images/earth.jpg","images/tutrocket1","images/tutrocket2","null","images/tutrocket1","","1","practice","null","2","","",""
"d3-animate-choice","104","475555","0.0-61.0-1.14","601","1044","9","Female","false","false","false","true","""event"",""trial"",""time""
""fullscreenenter"",""5"",""22139""
","
","
","""event"",""trial"",""time""
""fullscreenenter"",""5"",""22139""
","
","365.40000000596046","","49","","","3000","1","","","images/tutyellowplanet.jpg","images/tutalien4","images/tutalien3","images/tutrocket1","images/tutalien3","images/nothing.png","2","practice","true","1","common","0","2022-03-18 02:44:25.099"
"two-step-fixation","105","476559","0.0-61.0-2.14","601","1044","9","Female","false","false","false","true","""event"",""trial"",""time""
""fullscreenenter"",""5"",""22139""
","
","
","""event"",""trial"",""time""
""fullscreenenter"",""5"",""22139""
","
","","images/earth.jpg","","","","","","","","","","","","","","fixation","","","","","",""
"d3-animate-choice","106","479247","0.0-61.0-0.15","601","1044","9","Female","false","false","false","true","""event"",""trial"",""time""
""fullscreenenter"",""5"",""22139""
","
","
","""event"",""trial"",""time""
""fullscreenenter"",""5"",""22139""
","
","684.2999999821186","","48","","","3000","1","","","images/earth.jpg","images/tutrocket1","images/tutrocket2","null","images/tutrocket1","","1","practice","null","2","","",""
"d3-animate-choice","107","481891","0.0-61.0-1.15","601","1044","9","Female","false","false","false","true","""event"",""trial"",""time""
""fullscreenenter"",""5"",""22139""
","
","
","""event"",""trial"",""time""
""fullscreenenter"",""5"",""22139""
","
","639.9000000059605","","48","","","3000","1","","","images/tutgreenplanet.jpg","images/tutalien2","images/tutalien1","images/tutrocket1","images/tutalien2","images/t.png","2","practice","false","2","rare","1","2022-03-18 02:44:31.435"
"two-step-fixation","108","482895","0.0-61.0-2.15","601","1044","9","Female","false","false","false","true","""event"",""trial"",""time""
""fullscreenenter"",""5"",""22139""
","
","
","""event"",""trial"",""time""
""fullscreenenter"",""5"",""22139""
","
","","images/earth.jpg","","","","","","","","","","","","","","fixation","","","","","",""
"d3-animate-choice","109","485573","0.0-61.0-0.16","601","1044","9","Female","false","false","false","true","""event"",""trial"",""time""
""fullscreenenter"",""5"",""22139""
","
","
","""event"",""trial"",""time""
""fullscreenenter"",""5"",""22139""
","
","674.2000000178814","","48","","","3000","1","","","images/earth.jpg","images/tutrocket1","images/tutrocket2","null","images/tutrocket1","","1","practice","null","2","","",""
"d3-animate-choice","110","488134","0.0-61.0-1.16","601","1044","9","Female","false","false","false","true","""event"",""trial"",""time""
""fullscreenenter"",""5"",""22139""
","
","
","""event"",""trial"",""time""
""fullscreenenter"",""5"",""22139""
","
","556.2000000178814","","49","","","3000","1","","","images/tutgreenplanet.jpg","images/tutalien2","images/tutalien1","images/tutrocket1","images/tutalien1","images/nothing.png","2","practice","false","1","rare","0","2022-03-18 02:44:37.678"
"two-step-fixation","111","489138","0.0-61.0-2.16","601","1044","9","Female","false","false","false","true","""event"",""trial"",""time""
""fullscreenenter"",""5"",""22139""
","
","
","""event"",""trial"",""time""
""fullscreenenter"",""5"",""22139""
","
","","images/earth.jpg","","","","","","","","","","","","","","fixation","","","","","",""
"d3-animate-choice","112","492170","0.0-61.0-0.17","601","1044","9","Female","false","false","false","true","""event"",""trial"",""time""
""fullscreenenter"",""5"",""22139""
","
","
","""event"",""trial"",""time""
""fullscreenenter"",""5"",""22139""
","
","1026.7999999821186","","48","","","3000","1","","","images/earth.jpg","images/tutrocket1","images/tutrocket2","null","images/tutrocket1","","1","practice","null","2","","",""
"d3-animate-choice","113","494675","0.0-61.0-1.17","601","1044","9","Female","false","false","false","true","""event"",""trial"",""time""
""fullscreenenter"",""5"",""22139""
","
","
","""event"",""trial"",""time""
""fullscreenenter"",""5"",""22139""
","
","500.09999999403954","","48","","","3000","1","","","images/tutyellowplanet.jpg","images/tutalien4","images/tutalien3","images/tutrocket1","images/tutalien4","images/nothing.png","2","practice","true","2","common","0","2022-03-18 02:44:44.219"
"two-step-fixation","114","495677","0.0-61.0-2.17","601","1044","9","Female","false","false","false","true","""event"",""trial"",""time""
""fullscreenenter"",""5"",""22139""
","
","
","""event"",""trial"",""time""
""fullscreenenter"",""5"",""22139""
","
","","images/earth.jpg","","","","","","","","","","","","","","fixation","","","","","",""
"d3-animate-choice","115","498093","0.0-61.0-0.18","601","1044","9","Female","false","false","false","true","""event"",""trial"",""time""
""fullscreenenter"",""5"",""22139""
","
","
","""event"",""trial"",""time""
""fullscreenenter"",""5"",""22139""
","
","410.10000002384186","","48","","","3000","1","","","images/earth.jpg","images/tutrocket1","images/tutrocket2","null","images/tutrocket1","","1","practice","null","2","","",""
"d3-animate-choice","116","500365","0.0-61.0-1.18","601","1044","9","Female","false","false","false","true","""event"",""trial"",""time""
""fullscreenenter"",""5"",""22139""
","
","
","""event"",""trial"",""time""
""fullscreenenter"",""5"",""22139""
","
","268.09999999403954","","49","","","3000","1","","","images/tutgreenplanet.jpg","images/tutalien2","images/tutalien1","images/tutrocket1","images/tutalien1","images/nothing.png","2","practice","false","1","rare","0","2022-03-18 02:44:49.909"
"two-step-fixation","117","501369","0.0-61.0-2.18","601","1044","9","Female","false","false","false","true","""event"",""trial"",""time""
""fullscreenenter"",""5"",""22139""
","
","
","""event"",""trial"",""time""
""fullscreenenter"",""5"",""22139""
","
","","images/earth.jpg","","","","","","","","","","","","","","fixation","","","","","",""
"d3-animate-choice","118","503965","0.0-61.0-0.19","601","1044","9","Female","false","false","false","true","""event"",""trial"",""time""
""fullscreenenter"",""5"",""22139""
","
","
","""event"",""trial"",""time""
""fullscreenenter"",""5"",""22139""
","
","590.5","","49","","","3000","1","","","images/earth.jpg","images/tutrocket1","images/tutrocket2","null","images/tutrocket2","","1","practice","null","1","","",""
"d3-animate-choice","119","507236","0.0-61.0-1.19","601","1044","9","Female","false","false","false","true","""event"",""trial"",""time""
""fullscreenenter"",""5"",""22139""
","
","
","""event"",""trial"",""time""
""fullscreenenter"",""5"",""22139""
","
","1267.4000000059605","","49","","","3000","1","","","images/tutgreenplanet.jpg","images/tutalien2","images/tutalien1","images/tutrocket2","images/tutalien1","images/nothing.png","2","practice","true","1","common","0","2022-03-18 02:44:56.780"
"two-step-fixation","120","508241","0.0-61.0-2.19","601","1044","9","Female","false","false","false","true","""event"",""trial"",""time""
""fullscreenenter"",""5"",""22139""
","
","
","""event"",""trial"",""time""
""fullscreenenter"",""5"",""22139""
","
","","images/earth.jpg","","","","","","","","","","","","","","fixation","","","","","",""
"d3-instructions","121","516142","0.0-62.0","601","1044","9","Female","false","false","false","true","""event"",""trial"",""time""
""fullscreenenter"",""5"",""22139""
","
","
","""event"",""trial"",""time""
""fullscreenenter"",""5"",""22139""
","
","","","","","","","","","","","","","","","","","","","","","",""
"audio-keyboard-response","122","521516","0.0-63.0","601","1044","9","Female","false","false","false","true","""event"",""trial"",""time""
""fullscreenenter"",""5"",""22139""
","
","
","""event"",""trial"",""time""
""fullscreenenter"",""5"",""22139""
","
","5371","audio/instructions/treasure_feedback.wav","32","","","","","","","","","","","","","","","","","","",""
"d3-instructions","123","541219","0.0-64.0","601","1044","9","Female","false","false","false","true","""event"",""trial"",""time""
""fullscreenenter"",""5"",""22139""
","
","
","""event"",""trial"",""time""
""fullscreenenter"",""5"",""22139""
","
","","","","","","","","","","","","","","","","","","","","","",""
"d3-instructions","124","556707","0.0-65.0","601","1044","9","Female","false","false","false","true","""event"",""trial"",""time""
""fullscreenenter"",""5"",""22139""
","
","
","""event"",""trial"",""time""
""fullscreenenter"",""5"",""22139""
","
","","","","","","","","","","","","","","","","","","","","","",""
"d3-instructions","125","582291","0.0-66.0","601","1044","9","Female","false","false","false","true","""event"",""trial"",""time""
""fullscreenenter"",""5"",""22139""
","
","
","""event"",""trial"",""time""
""fullscreenenter"",""5"",""22139""
","
","","","","","","","","","","","","","","","","","","","","","",""
"d3-instructions","126","601595","0.0-67.0","601","1044","9","Female","false","false","false","true","""event"",""trial"",""time""
""fullscreenenter"",""5"",""22139""
","
","
","""event"",""trial"",""time""
""fullscreenenter"",""5"",""22139""
","
","","","","","","","","","","","","","","","","","","","","","",""
"d3-instructions","127","610582","0.0-68.0","601","1044","9","Female","false","false","false","true","""event"",""trial"",""time""
""fullscreenenter"",""5"",""22139""
","
","
","""event"",""trial"",""time""
""fullscreenenter"",""5"",""22139""
","
","","","","","","","","","","","","","","","","","","","","","",""
"instructions-quiz","128","615649","0.0-69.0","601","1044","9","Female","false","false","false","true","""event"",""trial"",""time""
""fullscreenenter"",""5"",""22139""
","
","
","""event"",""trial"",""time""
""fullscreenenter"",""5"",""22139""
","
","5064.200000017881","audio/quiz/Q1_Prompt.wav","","1","","","","","","","","","","","","","","","","","",""
"audio-keyboard-response","129","624822","0.0-70.0","601","1044","9","Female","false","false","false","true","""event"",""trial"",""time""
""fullscreenenter"",""5"",""22139""
","
","
","""event"",""trial"",""time""
""fullscreenenter"",""5"",""22139""
","
","null","audio/quiz/Q1_Correct.wav","null","","","","","","","","","","","","","","","","","","",""
"instructions-quiz","130","631118","0.0-71.0","601","1044","9","Female","false","false","false","true","""event"",""trial"",""time""
""fullscreenenter"",""5"",""22139""
","
","
","""event"",""trial"",""time""
""fullscreenenter"",""5"",""22139""
","
","6293.699999988079","audio/quiz/Q2_Prompt.wav","","0","","","","","","","","","","","","","","","","","",""
"audio-keyboard-response","131","643982","0.0-72.0","601","1044","9","Female","false","false","false","true","""event"",""trial"",""time""
""fullscreenenter"",""5"",""22139""
","
","
","""event"",""trial"",""time""
""fullscreenenter"",""5"",""22139""
","
","null","audio/quiz/Q2_Correct.wav","null","","","","","","","","","","","","","","","","","","",""
"instructions-quiz","132","649944","0.0-73.0","601","1044","9","Female","false","false","false","true","""event"",""trial"",""time""
""fullscreenenter"",""5"",""22139""
","
","
","""event"",""trial"",""time""
""fullscreenenter"",""5"",""22139""
","
","5959.899999976158","audio/quiz/Q3_Prompt.wav","","1","","","","","","","","","","","","","","","","","",""
"audio-keyboard-response","133","655742","0.0-74.0","601","1044","9","Female","false","false","false","true","""event"",""trial"",""time""
""fullscreenenter"",""5"",""22139""
","
","
","""event"",""trial"",""time""
""fullscreenenter"",""5"",""22139""
","
","null","audio/quiz/Q3_Correct.wav","null","","","","","","","","","","","","","","","","","","",""
"d3-instructions","134","658213","0.0-75.0","601","1044","9","Female","false","false","false","true","""event"",""trial"",""time""
""fullscreenenter"",""5"",""22139""
","
","
","""event"",""trial"",""time""
""fullscreenenter"",""5"",""22139""
","
","","","","","","","","","","","","","","","","","","","","","",""
"d3-animate-choice","135","661658","0.0-76.0-0.0","601","1044","9","Female","false","false","false","true","""event"",""trial"",""time""
""fullscreenenter"",""5"",""22139""
","
","
","""event"",""trial"",""time""
""fullscreenenter"",""5"",""22139""
","
","1428.5999999940395","","49","","","3000","1","","","images/earth.jpg","images/rocket1","images/rocket2","null","images/rocket2","","1","real","null","1","","",""
"d3-animate-choice","136","663958","0.0-76.0-1.0","601","1044","9","Female","false","false","false","true","""event"",""trial"",""time""
""fullscreenenter"",""5"",""22139""
","
","
","""event"",""trial"",""time""
""fullscreenenter"",""5"",""22139""
","
","295.59999999403954","","48","","","3000","1","","","images/purpleplanet.jpg","images/alien4","images/alien3","images/rocket2","images/alien4","images/t.png","2","real","false","2","rare","1","2022-03-18 02:47:33.502"
"two-step-fixation","137","664963","0.0-76.0-2.0","601","1044","9","Female","false","false","false","true","""event"",""trial"",""time""
""fullscreenenter"",""5"",""22139""
","
","
","""event"",""trial"",""time""
""fullscreenenter"",""5"",""22139""
","
","","images/earth.jpg","","","","","","","","","","","","","","fixation","","","","","",""
"d3-animate-choice","138","667256","0.0-76.0-0.1","601","1044","9","Female","false","false","false","true","""event"",""trial"",""time""
""fullscreenenter"",""5"",""22139""
","
","
","""event"",""trial"",""time""
""fullscreenenter"",""5"",""22139""
","
","289.19999998807907","","49","","","3000","1","","","images/earth.jpg","images/rocket1","images/rocket2","null","images/rocket2","","1","real","null","1","","",""
"d3-animate-choice","139","669745","0.0-76.0-1.1","601","1044","9","Female","false","false","false","true","""event"",""trial"",""time""
""fullscreenenter"",""5"",""22139""
","
","
","""event"",""trial"",""time""
""fullscreenenter"",""5"",""22139""
","
","484.40000000596046","","48","","","3000","1","","","images/purpleplanet.jpg","images/alien4","images/alien3","images/rocket2","images/alien4","images/t.png","2","real","false","2","rare","1","2022-03-18 02:47:39.289"
"two-step-fixation","140","670749","0.0-76.0-2.1","601","1044","9","Female","false","false","false","true","""event"",""trial"",""time""
""fullscreenenter"",""5"",""22139""
","
","
","""event"",""trial"",""time""
""fullscreenenter"",""5"",""22139""
","
","","images/earth.jpg","","","","","","","","","","","","","","fixation","","","","","",""
"d3-animate-choice","141","673971","0.0-76.0-0.2","601","1044","9","Female","false","false","false","true","""event"",""trial"",""time""
""fullscreenenter"",""5"",""22139""
","
","
","""event"",""trial"",""time""
""fullscreenenter"",""5"",""22139""
","
","1216.8999999761581","","48","","","3000","1","","","images/earth.jpg","images/rocket1","images/rocket2","null","images/rocket1","","1","real","null","2","","",""
"d3-animate-choice","142","676342","0.0-76.0-1.2","601","1044","9","Female","false","false","false","true","""event"",""trial"",""time""
""fullscreenenter"",""5"",""22139""
","
","
","""event"",""trial"",""time""
""fullscreenenter"",""5"",""22139""
","
","366.30000001192093","","49","","","3000","1","","","images/redplanet1.jpg","images/alien2","images/alien1","images/rocket1","images/alien1","images/nothing.png","2","real","false","1","rare","0","2022-03-18 02:47:45.886"
"two-step-fixation","143","677347","0.0-76.0-2.2","601","1044","9","Female","false","false","false","true","""event"",""trial"",""time""
""fullscreenenter"",""5"",""22139""
","
","
","""event"",""trial"",""time""
""fullscreenenter"",""5"",""22139""
","
","","images/earth.jpg","","","","","","","","","","","","","","fixation","","","","","",""
"d3-animate-choice","144","679699","0.0-76.0-0.3","601","1044","9","Female","false","false","false","true","""event"",""trial"",""time""
""fullscreenenter"",""5"",""22139""
","
","
","""event"",""trial"",""time""
""fullscreenenter"",""5"",""22139""
","
","347.60000002384186","","48","","","3000","1","","","images/earth.jpg","images/rocket1","images/rocket2","null","images/rocket1","","1","real","null","2","","",""
"d3-animate-choice","145","682605","0.0-76.0-1.3","601","1044","9","Female","false","false","false","true","""event"",""trial"",""time""
""fullscreenenter"",""5"",""22139""
","
","
","""event"",""trial"",""time""
""fullscreenenter"",""5"",""22139""
","
","901.7000000178814","","49","","","3000","1","","","images/purpleplanet.jpg","images/alien4","images/alien3","images/rocket1","images/alien3","images/nothing.png","2","real","true","1","common","0","2022-03-18 02:47:52.149"
"two-step-fixation","146","683608","0.0-76.0-2.3","601","1044","9","Female","false","false","false","true","""event"",""trial"",""time""
""fullscreenenter"",""5"",""22139""
","
","
","""event"",""trial"",""time""
""fullscreenenter"",""5"",""22139""
","
","","images/earth.jpg","","","","","","","","","","","","","","fixation","","","","","",""
"d3-animate-choice","147","686037","0.0-76.0-0.4","601","1044","9","Female","false","false","false","true","""event"",""trial"",""time""
""fullscreenenter"",""5"",""22139""
","
","
","""event"",""trial"",""time""
""fullscreenenter"",""5"",""22139""
","
","425","","48","","","3000","1","","","images/earth.jpg","images/rocket1","images/rocket2","null","images/rocket1","","1","real","null","2","","",""
"d3-animate-choice","148","688236","0.0-76.0-1.4","601","1044","9","Female","false","false","false","true","""event"",""trial"",""time""
""fullscreenenter"",""5"",""22139""
","
","
","""event"",""trial"",""time""
""fullscreenenter"",""5"",""22139""
","
","194.5","","49","","","3000","1","","","images/purpleplanet.jpg","images/alien4","images/alien3","images/rocket1","images/alien3","images/t.png","2","real","true","1","common","1","2022-03-18 02:47:57.780"
"two-step-fixation","149","689240","0.0-76.0-2.4","601","1044","9","Female","false","false","false","true","""event"",""trial"",""time""
""fullscreenenter"",""5"",""22139""
","
","
","""event"",""trial"",""time""
""fullscreenenter"",""5"",""22139""
","
","","images/earth.jpg","","","","","","","","","","","","","","fixation","","","","","",""
"d3-animate-choice","150","691575","0.0-76.0-0.5","601","1044","9","Female","false","false","false","true","""event"",""trial"",""time""
""fullscreenenter"",""5"",""22139""
","
","
","""event"",""trial"",""time""
""fullscreenenter"",""5"",""22139""
","
","330","","48","","","3000","1","","","images/earth.jpg","images/rocket1","images/rocket2","null","images/rocket1","","1","real","null","2","","",""
"d3-animate-choice","151","694061","0.0-76.0-1.5","601","1044","9","Female","false","false","false","true","""event"",""trial"",""time""
""fullscreenenter"",""5"",""22139""
","
","
","""event"",""trial"",""time""
""fullscreenenter"",""5"",""22139""
","
","482.2000000178814","","49","","","3000","1","","","images/purpleplanet.jpg","images/alien4","images/alien3","images/rocket1","images/alien3","images/nothing.png","2","real","true","1","common","0","2022-03-18 02:48:03.605"
"two-step-fixation","152","695066","0.0-76.0-2.5","601","1044","9","Female","false","false","false","true","""event"",""trial"",""time""
""fullscreenenter"",""5"",""22139""
","
","
","""event"",""trial"",""time""
""fullscreenenter"",""5"",""22139""
","
","","images/earth.jpg","","","","","","","","","","","","","","fixation","","","","","",""
"d3-animate-choice","153","697868","0.0-76.0-0.6","601","1044","9","Female","false","false","false","true","""event"",""trial"",""time""
""fullscreenenter"",""5"",""22139""
","
","
","""event"",""trial"",""time""
""fullscreenenter"",""5"",""22139""
","
","797.5","","49","","","3000","1","","","images/earth.jpg","images/rocket1","images/rocket2","null","images/rocket2","","1","real","null","1","","",""
"d3-animate-choice","154","700711","0.0-76.0-1.6","601","1044","9","Female","false","false","false","true","""event"",""trial"",""time""
""fullscreenenter"",""5"",""22139""
","
","
","""event"",""trial"",""time""
""fullscreenenter"",""5"",""22139""
","
","838.5","","48","","","3000","1","","","images/redplanet1.jpg","images/alien2","images/alien1","images/rocket2","images/alien2","images/t.png","2","real","true","2","common","1","2022-03-18 02:48:10.255"
"two-step-fixation","155","701716","0.0-76.0-2.6","601","1044","9","Female","false","false","false","true","""event"",""trial"",""time""
""fullscreenenter"",""5"",""22139""
","
","
","""event"",""trial"",""time""
""fullscreenenter"",""5"",""22139""
","
","","images/earth.jpg","","","","","","","","","","","","","","fixation","","","","","",""
"d3-animate-choice","156","704331","0.0-76.0-0.7","601","1044","9","Female","false","false","false","true","""event"",""trial"",""time""
""fullscreenenter"",""5"",""22139""
","
","
","""event"",""trial"",""time""
""fullscreenenter"",""5"",""22139""
","
","609.8999999761581","","49","","","3000","1","","","images/earth.jpg","images/rocket1","images/rocket2","null","images/rocket2","","1","real","null","1","","",""
"d3-animate-choice","157","706792","0.0-76.0-1.7","601","1044","9","Female","false","false","false","true","""event"",""trial"",""time""
""fullscreenenter"",""5"",""22139""
","
","
","""event"",""trial"",""time""
""fullscreenenter"",""5"",""22139""
","
","457.30000001192093","","48","","","3000","1","","","images/purpleplanet.jpg","images/alien4","images/alien3","images/rocket2","images/alien4","images/t.png","2","real","false","2","rare","1","2022-03-18 02:48:16.336"
"two-step-fixation","158","707796","0.0-76.0-2.7","601","1044","9","Female","false","false","false","true","""event"",""trial"",""time""
""fullscreenenter"",""5"",""22139""
","
","
","""event"",""trial"",""time""
""fullscreenenter"",""5"",""22139""
","
","","images/earth.jpg","","","","","","","","","","","","","","fixation","","","","","",""
"d3-animate-choice","159","710535","0.0-76.0-0.8","601","1044","9","Female","false","false","false","true","""event"",""trial"",""time""
""fullscreenenter"",""5"",""22139""
","
","
","""event"",""trial"",""time""
""fullscreenenter"",""5"",""22139""
","
","733.7000000178814","","48","","","3000","1","","","images/earth.jpg","images/rocket1","images/rocket2","null","images/rocket1","","1","real","null","2","","",""
"d3-animate-choice","160","713095","0.0-76.0-1.8","601","1044","9","Female","false","false","false","true","""event"",""trial"",""time""
""fullscreenenter"",""5"",""22139""
","
","
","""event"",""trial"",""time""
""fullscreenenter"",""5"",""22139""
","
","556.0999999940395","","48","","","3000","1","","","images/purpleplanet.jpg","images/alien4","images/alien3","images/rocket1","images/alien4","images/t.png","2","real","true","2","common","1","2022-03-18 02:48:22.640"
"two-step-fixation","161","714101","0.0-76.0-2.8","601","1044","9","Female","false","false","false","true","""event"",""trial"",""time""
""fullscreenenter"",""5"",""22139""
","
","
","""event"",""trial"",""time""
""fullscreenenter"",""5"",""22139""
","
","","images/earth.jpg","","","","","","","","","","","","","","fixation","","","","","",""
"d3-animate-choice","162","716461","0.0-76.0-0.9","601","1044","9","Female","false","false","false","true","""event"",""trial"",""time""
""fullscreenenter"",""5"",""22139""
","
","
","""event"",""trial"",""time""
""fullscreenenter"",""5"",""22139""
","
","355.80000001192093","","49","","","3000","1","","","images/earth.jpg","images/rocket1","images/rocket2","null","images/rocket2","","1","real","null","1","","",""
"d3-animate-choice","163","718945","0.0-76.0-1.9","601","1044","9","Female","false","false","false","true","""event"",""trial"",""time""
""fullscreenenter"",""5"",""22139""
","
","
","""event"",""trial"",""time""
""fullscreenenter"",""5"",""22139""
","
","479.2999999821186","","48","","","3000","1","","","images/purpleplanet.jpg","images/alien4","images/alien3","images/rocket2","images/alien4","images/t.png","2","real","false","2","rare","1","2022-03-18 02:48:28.489"
"two-step-fixation","164","719948","0.0-76.0-2.9","601","1044","9","Female","false","false","false","true","""event"",""trial"",""time""
""fullscreenenter"",""5"",""22139""
","
","
","""event"",""trial"",""time""
""fullscreenenter"",""5"",""22139""
","
","","images/earth.jpg","","","","","","","","","","","","","","fixation","","","","","",""
"d3-animate-choice","165","722030","0.0-76.0-0.10","601","1044","9","Female","false","false","false","true","""event"",""trial"",""time""
""fullscreenenter"",""5"",""22139""
","
","
","""event"",""trial"",""time""
""fullscreenenter"",""5"",""22139""
","
","76.2999999821186","","49","","","3000","1","","","images/earth.jpg","images/rocket1","images/rocket2","null","images/rocket2","","1","real","null","1","","",""
"d3-animate-choice","166","724556","0.0-76.0-1.10","601","1044","9","Female","false","false","false","true","""event"",""trial"",""time""
""fullscreenenter"",""5"",""22139""
","
","
","""event"",""trial"",""time""
""fullscreenenter"",""5"",""22139""
","
","522.0999999940395","","48","","","3000","1","","","images/redplanet1.jpg","images/alien2","images/alien1","images/rocket2","images/alien2","images/t.png","2","real","true","2","common","1","2022-03-18 02:48:34.100"
"two-step-fixation","167","725561","0.0-76.0-2.10","601","1044","9","Female","false","false","false","true","""event"",""trial"",""time""
""fullscreenenter"",""5"",""22139""
","
","
","""event"",""trial"",""time""
""fullscreenenter"",""5"",""22139""
","
","","images/earth.jpg","","","","","","","","","","","","","","fixation","","","","","",""
"d3-animate-choice","168","727819","0.0-76.0-0.11","601","1044","9","Female","false","false","false","true","""event"",""trial"",""time""
""fullscreenenter"",""5"",""22139""
","
","
","""event"",""trial"",""time""
""fullscreenenter"",""5"",""22139""
","
","254","","49","","","3000","1","","","images/earth.jpg","images/rocket1","images/rocket2","null","images/rocket2","","1","real","null","1","","",""
"d3-animate-choice","169","730341","0.0-76.0-1.11","601","1044","9","Female","false","false","false","true","""event"",""trial"",""time""
""fullscreenenter"",""5"",""22139""
","
","
","""event"",""trial"",""time""
""fullscreenenter"",""5"",""22139""
","
","517.9000000059605","","48","","","3000","1","","","images/redplanet1.jpg","images/alien2","images/alien1","images/rocket2","images/alien2","images/nothing.png","2","real","true","2","common","0","2022-03-18 02:48:39.885"
"two-step-fixation","170","731345","0.0-76.0-2.11","601","1044","9","Female","false","false","false","true","""event"",""trial"",""time""
""fullscreenenter"",""5"",""22139""
","
","
","""event"",""trial"",""time""
""fullscreenenter"",""5"",""22139""
","
","","images/earth.jpg","","","","","","","","","","","","","","fixation","","","","","",""
"d3-animate-choice","171","733623","0.0-76.0-0.12","601","1044","9","Female","false","false","false","true","""event"",""trial"",""time""
""fullscreenenter"",""5"",""22139""
","
","
","""event"",""trial"",""time""
""fullscreenenter"",""5"",""22139""
","
","272.09999999403954","","49","","","3000","1","","","images/earth.jpg","images/rocket1","images/rocket2","null","images/rocket2","","1","real","null","1","","",""
"d3-animate-choice","172","736371","0.0-76.0-1.12","601","1044","9","Female","false","false","false","true","""event"",""trial"",""time""
""fullscreenenter"",""5"",""22139""
","
","
","""event"",""trial"",""time""
""fullscreenenter"",""5"",""22139""
","
","744.6000000238419","","49","","","3000","1","","","images/redplanet1.jpg","images/alien2","images/alien1","images/rocket2","images/alien1","images/t.png","2","real","true","1","common","1","2022-03-18 02:48:45.915"
"two-step-fixation","173","737376","0.0-76.0-2.12","601","1044","9","Female","false","false","false","true","""event"",""trial"",""time""
""fullscreenenter"",""5"",""22139""
","
","
","""event"",""trial"",""time""
""fullscreenenter"",""5"",""22139""
","
","","images/earth.jpg","","","","","","","","","","","","","","fixation","","","","","",""
"d3-animate-choice","174","739509","0.0-76.0-0.13","601","1044","9","Female","false","false","false","true","""event"",""trial"",""time""
""fullscreenenter"",""5"",""22139""
","
","
","""event"",""trial"",""time""
""fullscreenenter"",""5"",""22139""
","
","125.5","","48","","","3000","1","","","images/earth.jpg","images/rocket1","images/rocket2","null","images/rocket1","","1","real","null","2","","",""
"d3-animate-choice","175","741975","0.0-76.0-1.13","601","1044","9","Female","false","false","false","true","""event"",""trial"",""time""
""fullscreenenter"",""5"",""22139""
","
","
","""event"",""trial"",""time""
""fullscreenenter"",""5"",""22139""
","
","462.19999998807907","","49","","","3000","1","","","images/redplanet1.jpg","images/alien2","images/alien1","images/rocket1","images/alien1","images/t.png","2","real","false","1","rare","1","2022-03-18 02:48:51.520"
"two-step-fixation","176","742978","0.0-76.0-2.13","601","1044","9","Female","false","false","false","true","""event"",""trial"",""time""
""fullscreenenter"",""5"",""22139""
","
","
","""event"",""trial"",""time""
""fullscreenenter"",""5"",""22139""
","
","","images/earth.jpg","","","","","","","","","","","","","","fixation","","","","","",""
"d3-animate-choice","177","745231","0.0-76.0-0.14","601","1044","9","Female","false","false","false","true","""event"",""trial"",""time""
""fullscreenenter"",""5"",""22139""
","
","
","""event"",""trial"",""time""
""fullscreenenter"",""5"",""22139""
","
","248.09999999403954","","48","","","3000","1","","","images/earth.jpg","images/rocket1","images/rocket2","null","images/rocket1","","1","real","null","2","","",""
"d3-animate-choice","178","747686","0.0-76.0-1.14","601","1044","9","Female","false","false","false","true","""event"",""trial"",""time""
""fullscreenenter"",""5"",""22139""
","
","
","""event"",""trial"",""time""
""fullscreenenter"",""5"",""22139""
","
","450","","49","","","3000","1","","","images/purpleplanet.jpg","images/alien4","images/alien3","images/rocket1","images/alien3","images/nothing.png","2","real","true","1","common","0","2022-03-18 02:48:57.230"
"two-step-fixation","179","748691","0.0-76.0-2.14","601","1044","9","Female","false","false","false","true","""event"",""trial"",""time""
""fullscreenenter"",""5"",""22139""
","
","
","""event"",""trial"",""time""
""fullscreenenter"",""5"",""22139""
","
","","images/earth.jpg","","","","","","","","","","","","","","fixation","","","","","",""
"d3-animate-choice","180","750852","0.0-76.0-0.15","601","1044","9","Female","false","false","false","true","""event"",""trial"",""time""
""fullscreenenter"",""5"",""22139""
","
","
","""event"",""trial"",""time""
""fullscreenenter"",""5"",""22139""
","
","155.90000000596046","","48","","","3000","1","","","images/earth.jpg","images/rocket1","images/rocket2","null","images/rocket1","","1","real","null","2","","",""
"d3-animate-choice","181","753204","0.0-76.0-1.15","601","1044","9","Female","false","false","false","true","""event"",""trial"",""time""
""fullscreenenter"",""5"",""22139""
","
","
","""event"",""trial"",""time""
""fullscreenenter"",""5"",""22139""
","
","347","","48","","","3000","1","","","images/purpleplanet.jpg","images/alien4","images/alien3","images/rocket1","images/alien4","images/t.png","2","real","true","2","common","1","2022-03-18 02:49:02.748"
"two-step-fixation","182","754209","0.0-76.0-2.15","601","1044","9","Female","false","false","false","true","""event"",""trial"",""time""
""fullscreenenter"",""5"",""22139""
","
","
","""event"",""trial"",""time""
""fullscreenenter"",""5"",""22139""
","
","","images/earth.jpg","","","","","","","","","","","","","","fixation","","","","","",""
"d3-animate-choice","183","756529","0.0-76.0-0.16","601","1044","9","Female","false","false","false","true","""event"",""trial"",""time""
""fullscreenenter"",""5"",""22139""
","
","
","""event"",""trial"",""time""
""fullscreenenter"",""5"",""22139""
","
","315.69999998807907","","49","","","3000","1","","","images/earth.jpg","images/rocket1","images/rocket2","null","images/rocket2","","1","real","null","1","","",""
"d3-animate-choice","184","758839","0.0-76.0-1.16","601","1044","9","Female","false","false","false","true","""event"",""trial"",""time""
""fullscreenenter"",""5"",""22139""
","
","
","""event"",""trial"",""time""
""fullscreenenter"",""5"",""22139""
","
","305.89999997615814","","48","","","3000","1","","","images/purpleplanet.jpg","images/alien4","images/alien3","images/rocket2","images/alien4","images/t.png","2","real","false","2","rare","1","2022-03-18 02:49:08.383"
"two-step-fixation","185","759843","0.0-76.0-2.16","601","1044","9","Female","false","false","false","true","""event"",""trial"",""time""
""fullscreenenter"",""5"",""22139""
","
","
","""event"",""trial"",""time""
""fullscreenenter"",""5"",""22139""
","
","","images/earth.jpg","","","","","","","","","","","","","","fixation","","","","","",""
"d3-animate-choice","186","762064","0.0-76.0-0.17","601","1044","9","Female","false","false","false","true","""event"",""trial"",""time""
""fullscreenenter"",""5"",""22139""
","
","
","""event"",""trial"",""time""
""fullscreenenter"",""5"",""22139""
","
","216.10000002384186","","49","","","3000","1","","","images/earth.jpg","images/rocket1","images/rocket2","null","images/rocket2","","1","real","null","1","","",""
"d3-animate-choice","187","764917","0.0-76.0-1.17","601","1044","9","Female","false","false","false","true","""event"",""trial"",""time""
""fullscreenenter"",""5"",""22139""
","
","
","""event"",""trial"",""time""
""fullscreenenter"",""5"",""22139""
","
","850","","48","","","3000","1","","","images/redplanet1.jpg","images/alien2","images/alien1","images/rocket2","images/alien2","images/t.png","2","real","true","2","common","1","2022-03-18 02:49:14.461"
"two-step-fixation","188","765922","0.0-76.0-2.17","601","1044","9","Female","false","false","false","true","""event"",""trial"",""time""
""fullscreenenter"",""5"",""22139""
","
","
","""event"",""trial"",""time""
""fullscreenenter"",""5"",""22139""
","
","","images/earth.jpg","","","","","","","","","","","","","","fixation","","","","","",""
"d3-animate-choice","189","768239","0.0-76.0-0.18","601","1044","9","Female","false","false","false","true","""event"",""trial"",""time""
""fullscreenenter"",""5"",""22139""
","
","
","""event"",""trial"",""time""
""fullscreenenter"",""5"",""22139""
","
","313.09999999403954","","49","","","3000","1","","","images/earth.jpg","images/rocket1","images/rocket2","null","images/rocket2","","1","real","null","1","","",""
"d3-animate-choice","190","770593","0.0-76.0-1.18","601","1044","9","Female","false","false","false","true","""event"",""trial"",""time""
""fullscreenenter"",""5"",""22139""
","
","
","""event"",""trial"",""time""
""fullscreenenter"",""5"",""22139""
","
","350","","48","","","3000","1","","","images/redplanet1.jpg","images/alien2","images/alien1","images/rocket2","images/alien2","images/t.png","2","real","true","2","common","1","2022-03-18 02:49:20.137"
"two-step-fixation","191","771596","0.0-76.0-2.18","601","1044","9","Female","false","false","false","true","""event"",""trial"",""time""
""fullscreenenter"",""5"",""22139""
","
","
","""event"",""trial"",""time""
""fullscreenenter"",""5"",""22139""
","
","","images/earth.jpg","","","","","","","","","","","","","","fixation","","","","","",""
"d3-animate-choice","192","773762","0.0-76.0-0.19","601","1044","9","Female","false","false","false","true","""event"",""trial"",""time""
""fullscreenenter"",""5"",""22139""
","
","
","""event"",""trial"",""time""
""fullscreenenter"",""5"",""22139""
","
","162.09999999403954","","49","","","3000","1","","","images/earth.jpg","images/rocket1","images/rocket2","null","images/rocket2","","1","real","null","1","","",""
"d3-animate-choice","193","776495","0.0-76.0-1.19","601","1044","9","Female","false","false","false","true","""event"",""trial"",""time""
""fullscreenenter"",""5"",""22139""
","
","
","""event"",""trial"",""time""
""fullscreenenter"",""5"",""22139""
","
","728.1999999880791","","48","","","3000","1","","","images/redplanet1.jpg","images/alien2","images/alien1","images/rocket2","images/alien2","images/t.png","2","real","true","2","common","1","2022-03-18 02:49:26.039"
"two-step-fixation","194","777499","0.0-76.0-2.19","601","1044","9","Female","false","false","false","true","""event"",""trial"",""time""
""fullscreenenter"",""5"",""22139""
","
","
","""event"",""trial"",""time""
""fullscreenenter"",""5"",""22139""
","
","","images/earth.jpg","","","","","","","","","","","","","","fixation","","","","","",""
"d3-animate-choice","195","779980","0.0-76.0-0.20","601","1044","9","Female","false","false","false","true","""event"",""trial"",""time""
""fullscreenenter"",""5"",""22139""
","
","
","""event"",""trial"",""time""
""fullscreenenter"",""5"",""22139""
","
","476.7000000178814","","49","","","3000","1","","","images/earth.jpg","images/rocket1","images/rocket2","null","images/rocket2","","1","real","null","1","","",""
"d3-animate-choice","196","782587","0.0-76.0-1.20","601","1044","9","Female","false","false","false","true","""event"",""trial"",""time""
""fullscreenenter"",""5"",""22139""
","
","
","""event"",""trial"",""time""
""fullscreenenter"",""5"",""22139""
","
","602.8999999761581","","49","","","3000","1","","","images/redplanet1.jpg","images/alien2","images/alien1","images/rocket2","images/alien1","images/t.png","2","real","true","1","common","1","2022-03-18 02:49:32.131"
"two-step-fixation","197","783591","0.0-76.0-2.20","601","1044","9","Female","false","false","false","true","""event"",""trial"",""time""
""fullscreenenter"",""5"",""22139""
","
","
","""event"",""trial"",""time""
""fullscreenenter"",""5"",""22139""
","
","","images/earth.jpg","","","","","","","","","","","","","","fixation","","","","","",""
"d3-animate-choice","198","785788","0.0-76.0-0.21","601","1044","9","Female","false","false","false","true","""event"",""trial"",""time""
""fullscreenenter"",""5"",""22139""
","
","
","""event"",""trial"",""time""
""fullscreenenter"",""5"",""22139""
","
","193.90000000596046","","49","","","3000","1","","","images/earth.jpg","images/rocket1","images/rocket2","null","images/rocket2","","1","real","null","1","","",""
"d3-animate-choice","199","788416","0.0-76.0-1.21","601","1044","9","Female","false","false","false","true","""event"",""trial"",""time""
""fullscreenenter"",""5"",""22139""
","
","
","""event"",""trial"",""time""
""fullscreenenter"",""5"",""22139""
","
","623.5","","48","","","3000","1","","","images/purpleplanet.jpg","images/alien4","images/alien3","images/rocket2","images/alien4","images/t.png","2","real","false","2","rare","1","2022-03-18 02:49:37.960"
"two-step-fixation","200","789419","0.0-76.0-2.21","601","1044","9","Female","false","false","false","true","""event"",""trial"",""time""
""fullscreenenter"",""5"",""22139""
","
","
","""event"",""trial"",""time""
""fullscreenenter"",""5"",""22139""
","
","","images/earth.jpg","","","","","","","","","","","","","","fixation","","","","","",""
"d3-animate-choice","201","792210","0.0-76.0-0.22","601","1044","9","Female","false","false","false","true","""event"",""trial"",""time""
""fullscreenenter"",""5"",""22139""
","
","
","""event"",""trial"",""time""
""fullscreenenter"",""5"",""22139""
","
","786.7000000178814","","49","","","3000","1","","","images/earth.jpg","images/rocket1","images/rocket2","null","images/rocket2","","1","real","null","1","","",""
"d3-animate-choice","202","794519","0.0-76.0-1.22","601","1044","9","Female","false","false","false","true","""event"",""trial"",""time""
""fullscreenenter"",""5"",""22139""
","
","
","""event"",""trial"",""time""
""fullscreenenter"",""5"",""22139""
","
","304.2000000178814","","48","","","3000","1","","","images/redplanet1.jpg","images/alien2","images/alien1","images/rocket2","images/alien2","images/t.png","2","real","true","2","common","1","2022-03-18 02:49:44.063"
"two-step-fixation","203","795523","0.0-76.0-2.22","601","1044","9","Female","false","false","false","true","""event"",""trial"",""time""
""fullscreenenter"",""5"",""22139""
","
","
","""event"",""trial"",""time""
""fullscreenenter"",""5"",""22139""
","
","","images/earth.jpg","","","","","","","","","","","","","","fixation","","","","","",""
"d3-animate-choice","204","797855","0.0-76.0-0.23","601","1044","9","Female","false","false","false","true","""event"",""trial"",""time""
""fullscreenenter"",""5"",""22139""
","
","
","""event"",""trial"",""time""
""fullscreenenter"",""5"",""22139""
","
","326.7999999821186","","49","","","3000","1","","","images/earth.jpg","images/rocket1","images/rocket2","null","images/rocket2","","1","real","null","1","","",""
"d3-animate-choice","205","800254","0.0-76.0-1.23","601","1044","9","Female","false","false","false","true","""event"",""trial"",""time""
""fullscreenenter"",""5"",""22139""
","
","
","""event"",""trial"",""time""
""fullscreenenter"",""5"",""22139""
","
","397.2999999821186","","49","","","3000","1","","","images/redplanet1.jpg","images/alien2","images/alien1","images/rocket2","images/alien1","images/t.png","2","real","true","1","common","1","2022-03-18 02:49:49.799"
"two-step-fixation","206","801258","0.0-76.0-2.23","601","1044","9","Female","false","false","false","true","""event"",""trial"",""time""
""fullscreenenter"",""5"",""22139""
","
","
","""event"",""trial"",""time""
""fullscreenenter"",""5"",""22139""
","
","","images/earth.jpg","","","","","","","","","","","","","","fixation","","","","","",""
"d3-animate-choice","207","803558","0.0-76.0-0.24","601","1044","9","Female","false","false","false","true","""event"",""trial"",""time""
""fullscreenenter"",""5"",""22139""
","
","
","""event"",""trial"",""time""
""fullscreenenter"",""5"",""22139""
","
","295.59999999403954","","49","","","3000","1","","","images/earth.jpg","images/rocket1","images/rocket2","null","images/rocket2","","1","real","null","1","","",""
"d3-animate-choice","208","805794","0.0-76.0-1.24","601","1044","9","Female","false","false","false","true","""event"",""trial"",""time""
""fullscreenenter"",""5"",""22139""
","
","
","""event"",""trial"",""time""
""fullscreenenter"",""5"",""22139""
","
","230","","48","","","3000","1","","","images/purpleplanet.jpg","images/alien4","images/alien3","images/rocket2","images/alien4","images/t.png","2","real","false","2","rare","1","2022-03-18 02:49:55.338"
"two-step-fixation","209","806797","0.0-76.0-2.24","601","1044","9","Female","false","false","false","true","""event"",""trial"",""time""
""fullscreenenter"",""5"",""22139""
","
","
","""event"",""trial"",""time""
""fullscreenenter"",""5"",""22139""
","
","","images/earth.jpg","","","","","","","","","","","","","","fixation","","","","","",""
"d3-animate-choice","210","809106","0.0-76.0-0.25","601","1044","9","Female","false","false","false","true","""event"",""trial"",""time""
""fullscreenenter"",""5"",""22139""
","
","
","""event"",""trial"",""time""
""fullscreenenter"",""5"",""22139""
","
","304.40000000596046","","49","","","3000","1","","","images/earth.jpg","images/rocket1","images/rocket2","null","images/rocket2","","1","real","null","1","","",""
"d3-animate-choice","211","811462","0.0-76.0-1.25","601","1044","9","Female","false","false","false","true","""event"",""trial"",""time""
""fullscreenenter"",""5"",""22139""
","
","
","""event"",""trial"",""time""
""fullscreenenter"",""5"",""22139""
","
","352.59999999403954","","48","","","3000","1","","","images/purpleplanet.jpg","images/alien4","images/alien3","images/rocket2","images/alien4","images/t.png","2","real","false","2","rare","1","2022-03-18 02:50:01.006"
"two-step-fixation","212","812466","0.0-76.0-2.25","601","1044","9","Female","false","false","false","true","""event"",""trial"",""time""
""fullscreenenter"",""5"",""22139""
","
","
","""event"",""trial"",""time""
""fullscreenenter"",""5"",""22139""
","
","","images/earth.jpg","","","","","","","","","","","","","","fixation","","","","","",""
"d3-animate-choice","213","814813","0.0-76.0-0.26","601","1044","9","Female","false","false","false","true","""event"",""trial"",""time""
""fullscreenenter"",""5"",""22139""
","
","
","""event"",""trial"",""time""
""fullscreenenter"",""5"",""22139""
","
","342","","49","","","3000","1","","","images/earth.jpg","images/rocket1","images/rocket2","null","images/rocket2","","1","real","null","1","","",""
"d3-animate-choice","214","818333","0.0-76.0-1.26","601","1044","9","Female","false","false","false","true","""event"",""trial"",""time""
""fullscreenenter"",""5"",""22139""
","
","
","""event"",""trial"",""time""
""fullscreenenter"",""5"",""22139""
","
","1022.0999999940395","","57","","","3000","1","1515.7999999821186","48","images/redplanet1.jpg","images/alien2","images/alien1","images/rocket2","images/alien2","images/nothing.png","2","real","true","","common","0","2022-03-18 02:50:07.877"
"two-step-fixation","215","819338","0.0-76.0-2.26","601","1044","9","Female","false","false","false","true","""event"",""trial"",""time""
""fullscreenenter"",""5"",""22139""
","
","
","""event"",""trial"",""time""
""fullscreenenter"",""5"",""22139""
","
","","images/earth.jpg","","","","","","","","","","","","","","fixation","","","","","",""
"d3-animate-choice","216","821960","0.0-76.0-0.27","601","1044","9","Female","false","false","false","true","""event"",""trial"",""time""
""fullscreenenter"",""5"",""22139""
","
","
","""event"",""trial"",""time""
""fullscreenenter"",""5"",""22139""
","
","618","","49","","","3000","1","","","images/earth.jpg","images/rocket1","images/rocket2","null","images/rocket2","","1","real","null","1","","",""
"d3-animate-choice","217","824539","0.0-76.0-1.27","601","1044","9","Female","false","false","false","true","""event"",""trial"",""time""
""fullscreenenter"",""5"",""22139""
","
","
","""event"",""trial"",""time""
""fullscreenenter"",""5"",""22139""
","
","575.5999999940395","","49","","","3000","1","","","images/redplanet1.jpg","images/alien2","images/alien1","images/rocket2","images/alien1","images/t.png","2","real","true","1","common","1","2022-03-18 02:50:14.083"
"two-step-fixation","218","825543","0.0-76.0-2.27","601","1044","9","Female","false","false","false","true","""event"",""trial"",""time""
""fullscreenenter"",""5"",""22139""
","
","
","""event"",""trial"",""time""
""fullscreenenter"",""5"",""22139""
","
","","images/earth.jpg","","","","","","","","","","","","","","fixation","","","","","",""
"d3-animate-choice","219","827931","0.0-76.0-0.28","601","1044","9","Female","false","false","false","true","""event"",""trial"",""time""
""fullscreenenter"",""5"",""22139""
","
","
","""event"",""trial"",""time""
""fullscreenenter"",""5"",""22139""
","
","384.40000000596046","","49","","","3000","1","","","images/earth.jpg","images/rocket1","images/rocket2","null","images/rocket2","","1","real","null","1","","",""
"d3-animate-choice","220","830263","0.0-76.0-1.28","601","1044","9","Female","false","false","false","true","""event"",""trial"",""time""
""fullscreenenter"",""5"",""22139""
","
","
","""event"",""trial"",""time""
""fullscreenenter"",""5"",""22139""
","
","327.90000000596046","","48","","","3000","1","","","images/redplanet1.jpg","images/alien2","images/alien1","images/rocket2","images/alien2","images/t.png","2","real","true","2","common","1","2022-03-18 02:50:19.807"
"two-step-fixation","221","831268","0.0-76.0-2.28","601","1044","9","Female","false","false","false","true","""event"",""trial"",""time""
""fullscreenenter"",""5"",""22139""
","
","
","""event"",""trial"",""time""
""fullscreenenter"",""5"",""22139""
","
","","images/earth.jpg","","","","","","","","","","","","","","fixation","","","","","",""
"d3-animate-choice","222","833434","0.0-76.0-0.29","601","1044","9","Female","false","false","false","true","""event"",""trial"",""time""
""fullscreenenter"",""5"",""22139""
","
","
","""event"",""trial"",""time""
""fullscreenenter"",""5"",""22139""
","
","161.69999998807907","","49","","","3000","1","","","images/earth.jpg","images/rocket1","images/rocket2","null","images/rocket2","","1","real","null","1","","",""
"d3-animate-choice","223","835826","0.0-76.0-1.29","601","1044","9","Female","false","false","false","true","""event"",""trial"",""time""
""fullscreenenter"",""5"",""22139""
","
","
","""event"",""trial"",""time""
""fullscreenenter"",""5"",""22139""
","
","386.80000001192093","","48","","","3000","1","","","images/purpleplanet.jpg","images/alien4","images/alien3","images/rocket2","images/alien4","images/nothing.png","2","real","false","2","rare","0","2022-03-18 02:50:25.370"
"two-step-fixation","224","836830","0.0-76.0-2.29","601","1044","9","Female","false","false","false","true","""event"",""trial"",""time""
""fullscreenenter"",""5"",""22139""
","
","
","""event"",""trial"",""time""
""fullscreenenter"",""5"",""22139""
","
","","images/earth.jpg","","","","","","","","","","","","","","fixation","","","","","",""
"d3-animate-choice","225","838946","0.0-76.0-0.30","601","1044","9","Female","false","false","false","true","""event"",""trial"",""time""
""fullscreenenter"",""5"",""22139""
","
","
","""event"",""trial"",""time""
""fullscreenenter"",""5"",""22139""
","
","112.09999999403954","","49","","","3000","1","","","images/earth.jpg","images/rocket1","images/rocket2","null","images/rocket2","","1","real","null","1","","",""
"d3-animate-choice","226","841695","0.0-76.0-1.30","601","1044","9","Female","false","false","false","true","""event"",""trial"",""time""
""fullscreenenter"",""5"",""22139""
","
","
","""event"",""trial"",""time""
""fullscreenenter"",""5"",""22139""
","
","745.1000000238419","","49","","","3000","1","","","images/redplanet1.jpg","images/alien2","images/alien1","images/rocket2","images/alien1","images/nothing.png","2","real","true","1","common","0","2022-03-18 02:50:31.240"
"two-step-fixation","227","842700","0.0-76.0-2.30","601","1044","9","Female","false","false","false","true","""event"",""trial"",""time""
""fullscreenenter"",""5"",""22139""
","
","
","""event"",""trial"",""time""
""fullscreenenter"",""5"",""22139""
","
","","images/earth.jpg","","","","","","","","","","","","","","fixation","","","","","",""
"d3-animate-choice","228","845029","0.0-76.0-0.31","601","1044","9","Female","false","false","false","true","""event"",""trial"",""time""
""fullscreenenter"",""5"",""22139""
","
","
","""event"",""trial"",""time""
""fullscreenenter"",""5"",""22139""
","
","324.90000000596046","","48","","","3000","1","","","images/earth.jpg","images/rocket1","images/rocket2","null","images/rocket1","","1","real","null","2","","",""
"d3-animate-choice","229","847332","0.0-76.0-1.31","601","1044","9","Female","false","false","false","true","""event"",""trial"",""time""
""fullscreenenter"",""5"",""22139""
","
","
","""event"",""trial"",""time""
""fullscreenenter"",""5"",""22139""
","
","299.89999997615814","","48","","","3000","1","","","images/purpleplanet.jpg","images/alien4","images/alien3","images/rocket1","images/alien4","images/t.png","2","real","true","2","common","1","2022-03-18 02:50:36.876"
"two-step-fixation","230","848337","0.0-76.0-2.31","601","1044","9","Female","false","false","false","true","""event"",""trial"",""time""
""fullscreenenter"",""5"",""22139""
","
","
","""event"",""trial"",""time""
""fullscreenenter"",""5"",""22139""
","
","","images/earth.jpg","","","","","","","","","","","","","","fixation","","","","","",""
"d3-animate-choice","231","850473","0.0-76.0-0.32","601","1044","9","Female","false","false","false","true","""event"",""trial"",""time""
""fullscreenenter"",""5"",""22139""
","
","
","""event"",""trial"",""time""
""fullscreenenter"",""5"",""22139""
","
","132.5","","48","","","3000","1","","","images/earth.jpg","images/rocket1","images/rocket2","null","images/rocket1","","1","real","null","2","","",""
"d3-animate-choice","232","853597","0.0-76.0-1.32","601","1044","9","Female","false","false","false","true","""event"",""trial"",""time""
""fullscreenenter"",""5"",""22139""
","
","
","""event"",""trial"",""time""
""fullscreenenter"",""5"",""22139""
","
","1119.7000000178814","","49","","","3000","1","","","images/purpleplanet.jpg","images/alien4","images/alien3","images/rocket1","images/alien3","images/t.png","2","real","true","1","common","1","2022-03-18 02:50:43.141"
"two-step-fixation","233","854602","0.0-76.0-2.32","601","1044","9","Female","false","false","false","true","""event"",""trial"",""time""
""fullscreenenter"",""5"",""22139""
","
","
","""event"",""trial"",""time""
""fullscreenenter"",""5"",""22139""
","
","","images/earth.jpg","","","","","","","","","","","","","","fixation","","","","","",""
"d3-animate-choice","234","857049","0.0-76.0-0.33","601","1044","9","Female","false","false","false","true","""event"",""trial"",""time""
""fullscreenenter"",""5"",""22139""
","
","
","""event"",""trial"",""time""
""fullscreenenter"",""5"",""22139""
","
","444.2000000178814","","48","","","3000","1","2042","52","images/earth.jpg","images/rocket1","images/rocket2","null","images/rocket1","","1","real","null","2","","",""
"d3-animate-choice","235","860046","0.0-76.0-1.33","601","1044","9","Female","false","false","false","true","""event"",""trial"",""time""
""fullscreenenter"",""5"",""22139""
","
","
","""event"",""trial"",""time""
""fullscreenenter"",""5"",""22139""
","
","633.7999999821186","","50","","","3000","1","993.1999999880791","49","images/redplanet1.jpg","images/alien2","images/alien1","images/rocket1","images/alien1","images/nothing.png","2","real","false","","rare","0","2022-03-18 02:50:49.590"
"two-step-fixation","236","861050","0.0-76.0-2.33","601","1044","9","Female","false","false","false","true","""event"",""trial"",""time""
""fullscreenenter"",""5"",""22139""
","
","
","""event"",""trial"",""time""
""fullscreenenter"",""5"",""22139""
","
","","images/earth.jpg","","","","","","","","","","","","","","fixation","","","","","",""
"d3-animate-choice","237","863426","0.0-76.0-0.34","601","1044","9","Female","false","false","false","true","""event"",""trial"",""time""
""fullscreenenter"",""5"",""22139""
","
","
","""event"",""trial"",""time""
""fullscreenenter"",""5"",""22139""
","
","371","","48","","","3000","1","","","images/earth.jpg","images/rocket1","images/rocket2","null","images/rocket1","","1","real","null","2","","",""
"d3-animate-choice","238","866576","0.0-76.0-1.34","601","1044","9","Female","false","false","false","true","""event"",""trial"",""time""
""fullscreenenter"",""5"",""22139""
","
","
","""event"",""trial"",""time""
""fullscreenenter"",""5"",""22139""
","
","1146","","48","","","3000","1","","","images/purpleplanet.jpg","images/alien4","images/alien3","images/rocket1","images/alien4","images/t.png","2","real","true","2","common","1","2022-03-18 02:50:56.120"
"two-step-fixation","239","867580","0.0-76.0-2.34","601","1044","9","Female","false","false","false","true","""event"",""trial"",""time""
""fullscreenenter"",""5"",""22139""
","
","
","""event"",""trial"",""time""
""fullscreenenter"",""5"",""22139""
","
","","images/earth.jpg","","","","","","","","","","","","","","fixation","","","","","",""
"d3-animate-choice","240","869885","0.0-76.0-0.35","601","1044","9","Female","false","false","false","true","""event"",""trial"",""time""
""fullscreenenter"",""5"",""22139""
","
","
","""event"",""trial"",""time""
""fullscreenenter"",""5"",""22139""
","
","300","","48","","","3000","1","","","images/earth.jpg","images/rocket1","images/rocket2","null","images/rocket1","","1","real","null","2","","",""
"d3-animate-choice","241","872903","0.0-76.0-1.35","601","1044","9","Female","false","false","false","true","""event"",""trial"",""time""
""fullscreenenter"",""5"",""22139""
","
","
","""event"",""trial"",""time""
""fullscreenenter"",""5"",""22139""
","
","1014.9000000059605","","49","","","3000","1","","","images/redplanet1.jpg","images/alien2","images/alien1","images/rocket1","images/alien1","images/t.png","2","real","false","1","rare","1","2022-03-18 02:51:02.447"
"two-step-fixation","242","873908","0.0-76.0-2.35","601","1044","9","Female","false","false","false","true","""event"",""trial"",""time""
""fullscreenenter"",""5"",""22139""
","
","
","""event"",""trial"",""time""
""fullscreenenter"",""5"",""22139""
","
","","images/earth.jpg","","","","","","","","","","","","","","fixation","","","","","",""
"d3-animate-choice","243","876102","0.0-76.0-0.36","601","1044","9","Female","false","false","false","true","""event"",""trial"",""time""
""fullscreenenter"",""5"",""22139""
","
","
","""event"",""trial"",""time""
""fullscreenenter"",""5"",""22139""
","
","190.59999999403954","","48","","","3000","1","","","images/earth.jpg","images/rocket1","images/rocket2","null","images/rocket1","","1","real","null","2","","",""
"d3-animate-choice","244","878970","0.0-76.0-1.36","601","1044","9","Female","false","false","false","true","""event"",""trial"",""time""
""fullscreenenter"",""5"",""22139""
","
","
","""event"",""trial"",""time""
""fullscreenenter"",""5"",""22139""
","
","863.5","","49","","","3000","1","","","images/redplanet1.jpg","images/alien2","images/alien1","images/rocket1","images/alien1","images/t.png","2","real","false","1","rare","1","2022-03-18 02:51:08.514"
"two-step-fixation","245","879973","0.0-76.0-2.36","601","1044","9","Female","false","false","false","true","""event"",""trial"",""time""
""fullscreenenter"",""5"",""22139""
","
","
","""event"",""trial"",""time""
""fullscreenenter"",""5"",""22139""
","
","","images/earth.jpg","","","","","","","","","","","","","","fixation","","","","","",""
