"trial_type","trial_index","time_elapsed","internal_node_id","participant_id","subject_id","age","gender","rocket_sides","red_planet_first_rocket","red_display_order","purple_display_order","interactions","blur_events","focus_events","fullscreenenter_events","fullscreenexit_events","rt","stimulus","key_press","button_pressed","success","duration","valid_pressed","rts","keys","planet_text","right_text","left_text","center_text","chosen_text","reward_text","trial_stage","practice_trial","transition_type","choice","transition","reward","timestamp"
"pavlovia","0","3","0.0-0.0","1818","5019","21","Female","false","true","true","true","
","
","
","
","
","","","","","","","","","","","","","","","","","","","","","",""
"html-keyboard-response","1","901","0.0-1.0","1818","5019","21","Female","false","true","true","true","
","
","
","
","
","896.6999999284744","Welcome! Press the space bar to begin.","32","","","","","","","","","","","","","","","","","","",""
"audio-keyboard-response","2","3282","0.0-2.0","1818","5019","21","Female","false","true","true","true","
","
","
","
","
","2368","audio/beep_loop.wav","32","","","","","","","","","","","","","","","","","","",""
"audio-button-response","3","5863","0.0-3.0","1818","5019","21","Female","false","true","true","true","
","
","
","
","
","NaN","audio/fish.mp3","","1","","","","","","","","","","","","","","","","","",""
"audio-button-response","4","8288","0.0-4.0","1818","5019","21","Female","false","true","true","true","""event"",""trial"",""time""
""fullscreenenter"",""5"",""10509""
","
","
","""event"",""trial"",""time""
""fullscreenenter"",""5"",""10509""
","
","NaN","audio/tiger.mp3","","4","","","","","","","","","","","","","","","","","",""
"fullscreen","5","11489","0.0-5.0","1818","5019","21","Female","false","true","true","true","""event"",""trial"",""time""
""fullscreenenter"",""5"",""10509""
","
","
","""event"",""trial"",""time""
""fullscreenenter"",""5"",""10509""
","
","","","","","true","","","","","","","","","","","","","","","","",""
"d3-instructions","6","20759","0.0-6.0","1818","5019","21","Female","false","true","true","true","""event"",""trial"",""time""
""fullscreenenter"",""5"",""10509""
","
","
","""event"",""trial"",""time""
""fullscreenenter"",""5"",""10509""
","
","","","","","","","","","","","","","","","","","","","","","",""
"d3-instructions","7","30316","0.0-7.0","1818","5019","21","Female","false","true","true","true","""event"",""trial"",""time""
""fullscreenenter"",""5"",""10509""
","
","
","""event"",""trial"",""time""
""fullscreenenter"",""5"",""10509""
","
","","","","","","","","","","","","","","","","","","","","","",""
"d3-instructions","8","36413","0.0-8.0","1818","5019","21","Female","false","true","true","true","""event"",""trial"",""time""
""fullscreenenter"",""5"",""10509""
","
","
","""event"",""trial"",""time""
""fullscreenenter"",""5"",""10509""
","
","","","","","","","","","","","","","","","","","","","","","",""
"d3-instructions","9","47362","0.0-9.0","1818","5019","21","Female","false","true","true","true","""event"",""trial"",""time""
""fullscreenenter"",""5"",""10509""
","
","
","""event"",""trial"",""time""
""fullscreenenter"",""5"",""10509""
","
","","","","","","","","","","","","","","","","","","","","","",""
"d3-instructions","10","62670","0.0-10.0","1818","5019","21","Female","false","true","true","true","""event"",""trial"",""time""
""fullscreenenter"",""5"",""10509""
","
","
","""event"",""trial"",""time""
""fullscreenenter"",""5"",""10509""
","
","","","","","","","","","","","","","","","","","","","","","",""
"d3-animate-choice","11","65657","0.0-11.0","1818","5019","21","Female","false","true","true","true","""event"",""trial"",""time""
""fullscreenenter"",""5"",""10509""
","
","
","""event"",""trial"",""time""
""fullscreenenter"",""5"",""10509""
","
","974.6999999284744","","49","","","3000","1","2325.7999999523163","49","images/tutgreenplanet.jpg","images/tutalien1","images/tutalien2","null","images/tutalien2","","NA","practice","null","","","",""
"d3-animate-choice","12","68078","0.0-12.0","1818","5019","21","Female","false","true","true","true","""event"",""trial"",""time""
""fullscreenenter"",""5"",""10509""
","
","
","""event"",""trial"",""time""
""fullscreenenter"",""5"",""10509""
","
","414.7000000476837","","48","","","3000","1","","","images/tutgreenplanet.jpg","images/tutalien1","images/tutalien2","null","images/tutalien1","","NA","practice","null","","","",""
"d3-animate-choice","13","70974","0.0-13.0","1818","5019","21","Female","false","true","true","true","""event"",""trial"",""time""
""fullscreenenter"",""5"",""10509""
","
","
","""event"",""trial"",""time""
""fullscreenenter"",""5"",""10509""
","
","892","","49","","","3000","1","","","images/tutgreenplanet.jpg","images/tutalien1","images/tutalien2","null","images/tutalien2","","NA","practice","null","","","",""
"d3-animate-choice","14","73503","0.0-14.0","1818","5019","21","Female","false","true","true","true","""event"",""trial"",""time""
""fullscreenenter"",""5"",""10509""
","
","
","""event"",""trial"",""time""
""fullscreenenter"",""5"",""10509""
","
","520.8999999761581","","48","","","3000","1","","","images/tutgreenplanet.jpg","images/tutalien1","images/tutalien2","null","images/tutalien1","","NA","practice","null","","","",""
"d3-instructions","15","79515","0.0-15.0","1818","5019","21","Female","false","true","true","true","""event"",""trial"",""time""
""fullscreenenter"",""5"",""10509""
","
","
","""event"",""trial"",""time""
""fullscreenenter"",""5"",""10509""
","
","","","","","","","","","","","","","","","","","","","","","",""
"d3-instructions","16","87218","0.0-16.0","1818","5019","21","Female","false","true","true","true","""event"",""trial"",""time""
""fullscreenenter"",""5"",""10509""
","
","
","""event"",""trial"",""time""
""fullscreenenter"",""5"",""10509""
","
","","","","","","","","","","","","","","","","","","","","","",""
"d3-instructions","17","95148","0.0-17.0","1818","5019","21","Female","false","true","true","true","""event"",""trial"",""time""
""fullscreenenter"",""5"",""10509""
","
","
","""event"",""trial"",""time""
""fullscreenenter"",""5"",""10509""
","
","","","","","","","","","","","","","","","","","","","","","",""
"d3-instructions","18","103440","0.0-18.0","1818","5019","21","Female","false","true","true","true","""event"",""trial"",""time""
""fullscreenenter"",""5"",""10509""
","
","
","""event"",""trial"",""time""
""fullscreenenter"",""5"",""10509""
","
","","","","","","","","","","","","","","","","","","","","","",""
"d3-instructions","19","113197","0.0-19.0","1818","5019","21","Female","false","true","true","true","""event"",""trial"",""time""
""fullscreenenter"",""5"",""10509""
","
","
","""event"",""trial"",""time""
""fullscreenenter"",""5"",""10509""
","
","","","","","","","","","","","","","","","","","","","","","",""
"d3-animate-choice","20","116074","0.0-20.0","1818","5019","21","Female","false","true","true","true","""event"",""trial"",""time""
""fullscreenenter"",""5"",""10509""
","
","
","""event"",""trial"",""time""
""fullscreenenter"",""5"",""10509""
","
","871.3999999761581","","49","","","3000","1","","","images/tutyellowplanet.jpg","null","images/tutalien3","null","images/tutalien3","images/t.png","NA","practice","null","","","",""
"d3-animate-choice","21","118465","0.0-21.0","1818","5019","21","Female","false","true","true","true","""event"",""trial"",""time""
""fullscreenenter"",""5"",""10509""
","
","
","""event"",""trial"",""time""
""fullscreenenter"",""5"",""10509""
","
","387","","49","","","3000","1","","","images/tutyellowplanet.jpg","null","images/tutalien3","null","images/tutalien3","images/t.png","NA","practice","null","","","",""
"d3-animate-choice","22","120817","0.0-22.0","1818","5019","21","Female","false","true","true","true","""event"",""trial"",""time""
""fullscreenenter"",""5"",""10509""
","
","
","""event"",""trial"",""time""
""fullscreenenter"",""5"",""10509""
","
","347.2000000476837","","49","","","3000","1","","","images/tutyellowplanet.jpg","null","images/tutalien3","null","images/tutalien3","images/t.png","NA","practice","null","","","",""
"d3-animate-choice","23","123164","0.0-23.0","1818","5019","21","Female","false","true","true","true","""event"",""trial"",""time""
""fullscreenenter"",""5"",""10509""
","
","
","""event"",""trial"",""time""
""fullscreenenter"",""5"",""10509""
","
","342","","49","","","3000","1","","","images/tutyellowplanet.jpg","null","images/tutalien3","null","images/tutalien3","images/t.png","NA","practice","null","","","",""
"d3-animate-choice","24","125543","0.0-24.0","1818","5019","21","Female","false","true","true","true","""event"",""trial"",""time""
""fullscreenenter"",""5"",""10509""
","
","
","""event"",""trial"",""time""
""fullscreenenter"",""5"",""10509""
","
","374.6999999284744","","49","","","3000","1","","","images/tutyellowplanet.jpg","null","images/tutalien3","null","images/tutalien3","images/t.png","NA","practice","null","","","",""
"d3-animate-choice","25","127805","0.0-25.0","1818","5019","21","Female","false","true","true","true","""event"",""trial"",""time""
""fullscreenenter"",""5"",""10509""
","
","
","""event"",""trial"",""time""
""fullscreenenter"",""5"",""10509""
","
","257.2999999523163","","49","","","3000","1","","","images/tutyellowplanet.jpg","null","images/tutalien3","null","images/tutalien3","images/t.png","NA","practice","null","","","",""
"d3-animate-choice","26","130156","0.0-26.0","1818","5019","21","Female","false","true","true","true","""event"",""trial"",""time""
""fullscreenenter"",""5"",""10509""
","
","
","""event"",""trial"",""time""
""fullscreenenter"",""5"",""10509""
","
","346.60000002384186","","49","","","3000","1","","","images/tutyellowplanet.jpg","null","images/tutalien3","null","images/tutalien3","images/t.png","NA","practice","null","","","",""
"d3-animate-choice","27","132469","0.0-27.0","1818","5019","21","Female","false","true","true","true","""event"",""trial"",""time""
""fullscreenenter"",""5"",""10509""
","
","
","""event"",""trial"",""time""
""fullscreenenter"",""5"",""10509""
","
","307.5","","49","","","3000","1","","","images/tutyellowplanet.jpg","null","images/tutalien3","null","images/tutalien3","images/t.png","NA","practice","null","","","",""
"d3-animate-choice","28","134758","0.0-28.0","1818","5019","21","Female","false","true","true","true","""event"",""trial"",""time""
""fullscreenenter"",""5"",""10509""
","
","
","""event"",""trial"",""time""
""fullscreenenter"",""5"",""10509""
","
","280.2000000476837","","49","","","3000","1","","","images/tutyellowplanet.jpg","null","images/tutalien3","null","images/tutalien3","images/t.png","NA","practice","null","","","",""
"d3-animate-choice","29","137099","0.0-29.0","1818","5019","21","Female","false","true","true","true","""event"",""trial"",""time""
""fullscreenenter"",""5"",""10509""
","
","
","""event"",""trial"",""time""
""fullscreenenter"",""5"",""10509""
","
","334.7000000476837","","49","","","3000","1","","","images/tutyellowplanet.jpg","null","images/tutalien3","null","images/tutalien3","images/t.png","NA","practice","null","","","",""
"d3-instructions","30","141329","0.0-30.0","1818","5019","21","Female","false","true","true","true","""event"",""trial"",""time""
""fullscreenenter"",""5"",""10509""
","
","
","""event"",""trial"",""time""
""fullscreenenter"",""5"",""10509""
","
","","","","","","","","","","","","","","","","","","","","","",""
"d3-instructions","31","149293","0.0-31.0","1818","5019","21","Female","false","true","true","true","""event"",""trial"",""time""
""fullscreenenter"",""5"",""10509""
","
","
","""event"",""trial"",""time""
""fullscreenenter"",""5"",""10509""
","
","","","","","","","","","","","","","","","","","","","","","",""
"d3-instructions","32","157283","0.0-32.0","1818","5019","21","Female","false","true","true","true","""event"",""trial"",""time""
""fullscreenenter"",""5"",""10509""
","
","
","""event"",""trial"",""time""
""fullscreenenter"",""5"",""10509""
","
","","","","","","","","","","","","","","","","","","","","","",""
"d3-instructions","33","161729","0.0-33.0","1818","5019","21","Female","false","true","true","true","""event"",""trial"",""time""
""fullscreenenter"",""5"",""10509""
","
","
","""event"",""trial"",""time""
""fullscreenenter"",""5"",""10509""
","
","","","","","","","","","","","","","","","","","","","","","",""
"d3-animate-choice","34","164618","0.0-34.0","1818","5019","21","Female","false","true","true","true","""event"",""trial"",""time""
""fullscreenenter"",""5"",""10509""
","
","
","""event"",""trial"",""time""
""fullscreenenter"",""5"",""10509""
","
","884.5","","49","","","3000","1","","","images/tutgreenplanet.jpg","images/tutalien1","images/tutalien2","null","images/tutalien2","images/t.png","NA","practice","null","","","",""
"d3-animate-choice","35","167034","0.0-35.0","1818","5019","21","Female","false","true","true","true","""event"",""trial"",""time""
""fullscreenenter"",""5"",""10509""
","
","
","""event"",""trial"",""time""
""fullscreenenter"",""5"",""10509""
","
","408","","49","","","3000","1","","","images/tutgreenplanet.jpg","images/tutalien1","images/tutalien2","null","images/tutalien2","images/t.png","NA","practice","null","","","",""
"d3-animate-choice","36","169487","0.0-36.0","1818","5019","21","Female","false","true","true","true","""event"",""trial"",""time""
""fullscreenenter"",""5"",""10509""
","
","
","""event"",""trial"",""time""
""fullscreenenter"",""5"",""10509""
","
","445.1999999284744","","49","","","3000","1","","","images/tutgreenplanet.jpg","images/tutalien1","images/tutalien2","null","images/tutalien2","images/t.png","NA","practice","null","","","",""
"d3-animate-choice","37","171790","0.0-37.0","1818","5019","21","Female","false","true","true","true","""event"",""trial"",""time""
""fullscreenenter"",""5"",""10509""
","
","
","""event"",""trial"",""time""
""fullscreenenter"",""5"",""10509""
","
","299.7000000476837","","49","","","3000","1","","","images/tutgreenplanet.jpg","images/tutalien1","images/tutalien2","null","images/tutalien2","images/t.png","NA","practice","null","","","",""
"d3-animate-choice","38","174100","0.0-38.0","1818","5019","21","Female","false","true","true","true","""event"",""trial"",""time""
""fullscreenenter"",""5"",""10509""
","
","
","""event"",""trial"",""time""
""fullscreenenter"",""5"",""10509""
","
","305.5","","49","","","3000","1","","","images/tutgreenplanet.jpg","images/tutalien1","images/tutalien2","null","images/tutalien2","images/t.png","NA","practice","null","","","",""
"d3-animate-choice","39","176451","0.0-39.0","1818","5019","21","Female","false","true","true","true","""event"",""trial"",""time""
""fullscreenenter"",""5"",""10509""
","
","
","""event"",""trial"",""time""
""fullscreenenter"",""5"",""10509""
","
","346.39999997615814","","49","","","3000","1","","","images/tutgreenplanet.jpg","images/tutalien1","images/tutalien2","null","images/tutalien2","images/t.png","NA","practice","null","","","",""
"d3-animate-choice","40","178740","0.0-40.0","1818","5019","21","Female","false","true","true","true","""event"",""trial"",""time""
""fullscreenenter"",""5"",""10509""
","
","
","""event"",""trial"",""time""
""fullscreenenter"",""5"",""10509""
","
","282.3000000715256","","49","","","3000","1","","","images/tutgreenplanet.jpg","images/tutalien1","images/tutalien2","null","images/tutalien2","images/t.png","NA","practice","null","","","",""
"d3-animate-choice","41","181070","0.0-41.0","1818","5019","21","Female","false","true","true","true","""event"",""trial"",""time""
""fullscreenenter"",""5"",""10509""
","
","
","""event"",""trial"",""time""
""fullscreenenter"",""5"",""10509""
","
","323.7999999523163","","49","","","3000","1","","","images/tutgreenplanet.jpg","images/tutalien1","images/tutalien2","null","images/tutalien2","images/t.png","NA","practice","null","","","",""
"d3-animate-choice","42","183406","0.0-42.0","1818","5019","21","Female","false","true","true","true","""event"",""trial"",""time""
""fullscreenenter"",""5"",""10509""
","
","
","""event"",""trial"",""time""
""fullscreenenter"",""5"",""10509""
","
","328.2000000476837","","49","","","3000","1","","","images/tutgreenplanet.jpg","images/tutalien1","images/tutalien2","null","images/tutalien2","images/t.png","NA","practice","null","","","",""
"d3-animate-choice","43","185715","0.0-43.0","1818","5019","21","Female","false","true","true","true","""event"",""trial"",""time""
""fullscreenenter"",""5"",""10509""
","
","
","""event"",""trial"",""time""
""fullscreenenter"",""5"",""10509""
","
","305.1999999284744","","49","","","3000","1","","","images/tutgreenplanet.jpg","images/tutalien1","images/tutalien2","null","images/tutalien2","images/t.png","NA","practice","null","","","",""
"d3-instructions","44","196500","0.0-44.0","1818","5019","21","Female","false","true","true","true","""event"",""trial"",""time""
""fullscreenenter"",""5"",""10509""
","
","
","""event"",""trial"",""time""
""fullscreenenter"",""5"",""10509""
","
","","","","","","","","","","","","","","","","","","","","","",""
"d3-instructions","45","200383","0.0-45.0","1818","5019","21","Female","false","true","true","true","""event"",""trial"",""time""
""fullscreenenter"",""5"",""10509""
","
","
","""event"",""trial"",""time""
""fullscreenenter"",""5"",""10509""
","
","","","","","","","","","","","","","","","","","","","","","",""
"d3-instructions","46","205328","0.0-46.0","1818","5019","21","Female","false","true","true","true","""event"",""trial"",""time""
""fullscreenenter"",""5"",""10509""
","
","
","""event"",""trial"",""time""
""fullscreenenter"",""5"",""10509""
","
","","","","","","","","","","","","","","","","","","","","","",""
"d3-instructions","47","221643","0.0-47.0","1818","5019","21","Female","false","true","true","true","""event"",""trial"",""time""
""fullscreenenter"",""5"",""10509""
","
","
","""event"",""trial"",""time""
""fullscreenenter"",""5"",""10509""
","
","","","","","","","","","","","","","","","","","","","","","",""
"d3-instructions","48","229402","0.0-48.0","1818","5019","21","Female","false","true","true","true","""event"",""trial"",""time""
""fullscreenenter"",""5"",""10509""
","
","
","""event"",""trial"",""time""
""fullscreenenter"",""5"",""10509""
","
","","","","","","","","","","","","","","","","","","","","","",""
"d3-instructions","49","237849","0.0-49.0","1818","5019","21","Female","false","true","true","true","""event"",""trial"",""time""
""fullscreenenter"",""5"",""10509""
","
","
","""event"",""trial"",""time""
""fullscreenenter"",""5"",""10509""
","
","","","","","","","","","","","","","","","","","","","","","",""
"d3-instructions","50","243816","0.0-50.0","1818","5019","21","Female","false","true","true","true","""event"",""trial"",""time""
""fullscreenenter"",""5"",""10509""
","
","
","""event"",""trial"",""time""
""fullscreenenter"",""5"",""10509""
","
","","","","","","","","","","","","","","","","","","","","","",""
"d3-instructions","51","245762","0.0-51.0","1818","5019","21","Female","false","true","true","true","""event"",""trial"",""time""
""fullscreenenter"",""5"",""10509""
","
","
","""event"",""trial"",""time""
""fullscreenenter"",""5"",""10509""
","
","","","","","","","","","","","","","","","","","","","","","",""
"d3-instructions","52","247674","0.0-52.0","1818","5019","21","Female","false","true","true","true","""event"",""trial"",""time""
""fullscreenenter"",""5"",""10509""
","
","
","""event"",""trial"",""time""
""fullscreenenter"",""5"",""10509""
","
","","","","","","","","","","","","","","","","","","","","","",""
"d3-instructions","53","254251","0.0-53.0","1818","5019","21","Female","false","true","true","true","""event"",""trial"",""time""
""fullscreenenter"",""5"",""10509""
","
","
","""event"",""trial"",""time""
""fullscreenenter"",""5"",""10509""
","
","","","","","","","","","","","","","","","","","","","","","",""
"d3-instructions","54","263667","0.0-54.0","1818","5019","21","Female","false","true","true","true","""event"",""trial"",""time""
""fullscreenenter"",""5"",""10509""
","
","
","""event"",""trial"",""time""
""fullscreenenter"",""5"",""10509""
","
","","","","","","","","","","","","","","","","","","","","","",""
"d3-instructions","55","267052","0.0-55.0","1818","5019","21","Female","false","true","true","true","""event"",""trial"",""time""
""fullscreenenter"",""5"",""10509""
","
","
","""event"",""trial"",""time""
""fullscreenenter"",""5"",""10509""
","
","","","","","","","","","","","","","","","","","","","","","",""
"d3-instructions","56","271765","0.0-56.0","1818","5019","21","Female","false","true","true","true","""event"",""trial"",""time""
""fullscreenenter"",""5"",""10509""
","
","
","""event"",""trial"",""time""
""fullscreenenter"",""5"",""10509""
","
","","","","","","","","","","","","","","","","","","","","","",""
"d3-instructions","57","278968","0.0-57.0","1818","5019","21","Female","false","true","true","true","""event"",""trial"",""time""
""fullscreenenter"",""5"",""10509""
","
","
","""event"",""trial"",""time""
""fullscreenenter"",""5"",""10509""
","
","","","","","","","","","","","","","","","","","","","","","",""
"d3-instructions","58","284092","0.0-58.0","1818","5019","21","Female","false","true","true","true","""event"",""trial"",""time""
""fullscreenenter"",""5"",""10509""
","
","
","""event"",""trial"",""time""
""fullscreenenter"",""5"",""10509""
","
","","","","","","","","","","","","","","","","","","","","","",""
"d3-instructions","59","286610","0.0-59.0","1818","5019","21","Female","false","true","true","true","""event"",""trial"",""time""
""fullscreenenter"",""5"",""10509""
","
","
","""event"",""trial"",""time""
""fullscreenenter"",""5"",""10509""
","
","","","","","","","","","","","","","","","","","","","","","",""
"d3-instructions","60","288441","0.0-60.0","1818","5019","21","Female","false","true","true","true","""event"",""trial"",""time""
""fullscreenenter"",""5"",""10509""
","
","
","""event"",""trial"",""time""
""fullscreenenter"",""5"",""10509""
","
","","","","","","","","","","","","","","","","","","","","","",""
"d3-animate-choice","61","291166","0.0-61.0-0.0","1818","5019","21","Female","false","true","true","true","""event"",""trial"",""time""
""fullscreenenter"",""5"",""10509""
","
","
","""event"",""trial"",""time""
""fullscreenenter"",""5"",""10509""
","
","718.0999999046326","","49","","","3000","1","","","images/earth.jpg","images/tutrocket1","images/tutrocket2","null","images/tutrocket2","","1","practice","null","1","","",""
"d3-animate-choice","62","294316","0.0-61.0-1.0","1818","5019","21","Female","false","true","true","true","""event"",""trial"",""time""
""fullscreenenter"",""5"",""10509""
","
","
","""event"",""trial"",""time""
""fullscreenenter"",""5"",""10509""
","
","1143.1000000238419","","49","","","3000","1","","","images/tutyellowplanet.jpg","images/tutalien4","images/tutalien3","images/tutrocket2","images/tutalien3","images/nothing.png","2","practice","true","1","common","0","2022-12-17 16:36:33.010"
"two-step-fixation","63","295326","0.0-61.0-2.0","1818","5019","21","Female","false","true","true","true","""event"",""trial"",""time""
""fullscreenenter"",""5"",""10509""
","
","
","""event"",""trial"",""time""
""fullscreenenter"",""5"",""10509""
","
","","images/earth.jpg","","","","","","","","","","","","","","fixation","","","","","",""
"d3-animate-choice","64","299103","0.0-61.0-0.1","1818","5019","21","Female","false","true","true","true","""event"",""trial"",""time""
""fullscreenenter"",""5"",""10509""
","
","
","""event"",""trial"",""time""
""fullscreenenter"",""5"",""10509""
","
","1772","","49","","","3000","1","","","images/earth.jpg","images/tutrocket1","images/tutrocket2","null","images/tutrocket2","","1","practice","null","1","","",""
"d3-animate-choice","65","302115","0.0-61.0-1.1","1818","5019","21","Female","false","true","true","true","""event"",""trial"",""time""
""fullscreenenter"",""5"",""10509""
","
","
","""event"",""trial"",""time""
""fullscreenenter"",""5"",""10509""
","
","1006.2000000476837","","49","","","3000","1","","","images/tutgreenplanet.jpg","images/tutalien2","images/tutalien1","images/tutrocket2","images/tutalien1","images/nothing.png","2","practice","false","1","rare","0","2022-12-17 16:36:40.808"
"two-step-fixation","66","303120","0.0-61.0-2.1","1818","5019","21","Female","false","true","true","true","""event"",""trial"",""time""
""fullscreenenter"",""5"",""10509""
","
","
","""event"",""trial"",""time""
""fullscreenenter"",""5"",""10509""
","
","","images/earth.jpg","","","","","","","","","","","","","","fixation","","","","","",""
"d3-animate-choice","67","305472","0.0-61.0-0.2","1818","5019","21","Female","false","true","true","true","""event"",""trial"",""time""
""fullscreenenter"",""5"",""10509""
","
","
","""event"",""trial"",""time""
""fullscreenenter"",""5"",""10509""
","
","347.40000009536743","","49","","","3000","1","","","images/earth.jpg","images/tutrocket1","images/tutrocket2","null","images/tutrocket2","","1","practice","null","1","","",""
"d3-animate-choice","68","308440","0.0-61.0-1.2","1818","5019","21","Female","false","true","true","true","""event"",""trial"",""time""
""fullscreenenter"",""5"",""10509""
","
","
","""event"",""trial"",""time""
""fullscreenenter"",""5"",""10509""
","
","959.3999999761581","","48","","","3000","1","","","images/tutgreenplanet.jpg","images/tutalien2","images/tutalien1","images/tutrocket2","images/tutalien2","images/t.png","2","practice","false","2","rare","1","2022-12-17 16:36:47.133"
"two-step-fixation","69","309448","0.0-61.0-2.2","1818","5019","21","Female","false","true","true","true","""event"",""trial"",""time""
""fullscreenenter"",""5"",""10509""
","
","
","""event"",""trial"",""time""
""fullscreenenter"",""5"",""10509""
","
","","images/earth.jpg","","","","","","","","","","","","","","fixation","","","","","",""
"d3-animate-choice","70","311758","0.0-61.0-0.3","1818","5019","21","Female","false","true","true","true","""event"",""trial"",""time""
""fullscreenenter"",""5"",""10509""
","
","
","""event"",""trial"",""time""
""fullscreenenter"",""5"",""10509""
","
","302.5","","49","","","3000","1","","","images/earth.jpg","images/tutrocket1","images/tutrocket2","null","images/tutrocket2","","1","practice","null","1","","",""
"d3-animate-choice","71","314312","0.0-61.0-1.3","1818","5019","21","Female","false","true","true","true","""event"",""trial"",""time""
""fullscreenenter"",""5"",""10509""
","
","
","""event"",""trial"",""time""
""fullscreenenter"",""5"",""10509""
","
","546.6000000238419","","48","","","3000","1","","","images/tutyellowplanet.jpg","images/tutalien4","images/tutalien3","images/tutrocket2","images/tutalien4","images/nothing.png","2","practice","true","2","common","0","2022-12-17 16:36:53.005"
"two-step-fixation","72","315319","0.0-61.0-2.3","1818","5019","21","Female","false","true","true","true","""event"",""trial"",""time""
""fullscreenenter"",""5"",""10509""
","
","
","""event"",""trial"",""time""
""fullscreenenter"",""5"",""10509""
","
","","images/earth.jpg","","","","","","","","","","","","","","fixation","","","","","",""
"d3-animate-choice","73","317795","0.0-61.0-0.4","1818","5019","21","Female","false","true","true","true","""event"",""trial"",""time""
""fullscreenenter"",""5"",""10509""
","
","
","""event"",""trial"",""time""
""fullscreenenter"",""5"",""10509""
","
","466.7999999523163","","49","","","3000","1","","","images/earth.jpg","images/tutrocket1","images/tutrocket2","null","images/tutrocket2","","1","practice","null","1","","",""
"d3-animate-choice","74","320793","0.0-61.0-1.4","1818","5019","21","Female","false","true","true","true","""event"",""trial"",""time""
""fullscreenenter"",""5"",""10509""
","
","
","""event"",""trial"",""time""
""fullscreenenter"",""5"",""10509""
","
","991.1000000238419","","49","","","3000","1","","","images/tutyellowplanet.jpg","images/tutalien4","images/tutalien3","images/tutrocket2","images/tutalien3","images/nothing.png","2","practice","true","1","common","0","2022-12-17 16:36:59.486"
"two-step-fixation","75","321797","0.0-61.0-2.4","1818","5019","21","Female","false","true","true","true","""event"",""trial"",""time""
""fullscreenenter"",""5"",""10509""
","
","
","""event"",""trial"",""time""
""fullscreenenter"",""5"",""10509""
","
","","images/earth.jpg","","","","","","","","","","","","","","fixation","","","","","",""
"d3-animate-choice","76","324094","0.0-61.0-0.5","1818","5019","21","Female","false","true","true","true","""event"",""trial"",""time""
""fullscreenenter"",""5"",""10509""
","
","
","""event"",""trial"",""time""
""fullscreenenter"",""5"",""10509""
","
","289","","48","","","3000","1","","","images/earth.jpg","images/tutrocket1","images/tutrocket2","null","images/tutrocket1","","1","practice","null","2","","",""
"d3-animate-choice","77","326725","0.0-61.0-1.5","1818","5019","21","Female","false","true","true","true","""event"",""trial"",""time""
""fullscreenenter"",""5"",""10509""
","
","
","""event"",""trial"",""time""
""fullscreenenter"",""5"",""10509""
","
","627.2000000476837","","48","","","3000","1","","","images/tutgreenplanet.jpg","images/tutalien2","images/tutalien1","images/tutrocket1","images/tutalien2","images/t.png","2","practice","true","2","common","1","2022-12-17 16:37:05.418"
"two-step-fixation","78","327731","0.0-61.0-2.5","1818","5019","21","Female","false","true","true","true","""event"",""trial"",""time""
""fullscreenenter"",""5"",""10509""
","
","
","""event"",""trial"",""time""
""fullscreenenter"",""5"",""10509""
","
","","images/earth.jpg","","","","","","","","","","","","","","fixation","","","","","",""
"d3-animate-choice","79","330024","0.0-61.0-0.6","1818","5019","21","Female","false","true","true","true","""event"",""trial"",""time""
""fullscreenenter"",""5"",""10509""
","
","
","""event"",""trial"",""time""
""fullscreenenter"",""5"",""10509""
","
","286.10000002384186","","48","","","3000","1","","","images/earth.jpg","images/tutrocket1","images/tutrocket2","null","images/tutrocket1","","1","practice","null","2","","",""
"d3-animate-choice","80","332818","0.0-61.0-1.6","1818","5019","21","Female","false","true","true","true","""event"",""trial"",""time""
""fullscreenenter"",""5"",""10509""
","
","
","""event"",""trial"",""time""
""fullscreenenter"",""5"",""10509""
","
","786.2999999523163","","49","","","3000","1","","","images/tutyellowplanet.jpg","images/tutalien4","images/tutalien3","images/tutrocket1","images/tutalien3","images/nothing.png","2","practice","false","1","rare","0","2022-12-17 16:37:11.512"
"two-step-fixation","81","333824","0.0-61.0-2.6","1818","5019","21","Female","false","true","true","true","""event"",""trial"",""time""
""fullscreenenter"",""5"",""10509""
","
","
","""event"",""trial"",""time""
""fullscreenenter"",""5"",""10509""
","
","","images/earth.jpg","","","","","","","","","","","","","","fixation","","","","","",""
"d3-animate-choice","82","336415","0.0-61.0-0.7","1818","5019","21","Female","false","true","true","true","""event"",""trial"",""time""
""fullscreenenter"",""5"",""10509""
","
","
","""event"",""trial"",""time""
""fullscreenenter"",""5"",""10509""
","
","579.9000000953674","","48","","","3000","1","","","images/earth.jpg","images/tutrocket1","images/tutrocket2","null","images/tutrocket1","","1","practice","null","2","","",""
"d3-animate-choice","83","339108","0.0-61.0-1.7","1818","5019","21","Female","false","true","true","true","""event"",""trial"",""time""
""fullscreenenter"",""5"",""10509""
","
","
","""event"",""trial"",""time""
""fullscreenenter"",""5"",""10509""
","
","682.7999999523163","","48","","","3000","1","","","images/tutyellowplanet.jpg","images/tutalien4","images/tutalien3","images/tutrocket1","images/tutalien4","images/t.png","2","practice","false","2","rare","1","2022-12-17 16:37:17.802"
"two-step-fixation","84","340115","0.0-61.0-2.7","1818","5019","21","Female","false","true","true","true","""event"",""trial"",""time""
""fullscreenenter"",""5"",""10509""
","
","
","""event"",""trial"",""time""
""fullscreenenter"",""5"",""10509""
","
","","images/earth.jpg","","","","","","","","","","","","","","fixation","","","","","",""
"d3-animate-choice","85","342424","0.0-61.0-0.8","1818","5019","21","Female","false","true","true","true","""event"",""trial"",""time""
""fullscreenenter"",""5"",""10509""
","
","
","""event"",""trial"",""time""
""fullscreenenter"",""5"",""10509""
","
","304","","48","","","3000","1","","","images/earth.jpg","images/tutrocket1","images/tutrocket2","null","images/tutrocket1","","1","practice","null","2","","",""
"d3-animate-choice","86","344916","0.0-61.0-1.8","1818","5019","21","Female","false","true","true","true","""event"",""trial"",""time""
""fullscreenenter"",""5"",""10509""
","
","
","""event"",""trial"",""time""
""fullscreenenter"",""5"",""10509""
","
","488","","48","","","3000","1","","","images/tutgreenplanet.jpg","images/tutalien2","images/tutalien1","images/tutrocket1","images/tutalien2","images/t.png","2","practice","true","2","common","1","2022-12-17 16:37:23.609"
"two-step-fixation","87","345921","0.0-61.0-2.8","1818","5019","21","Female","false","true","true","true","""event"",""trial"",""time""
""fullscreenenter"",""5"",""10509""
","
","
","""event"",""trial"",""time""
""fullscreenenter"",""5"",""10509""
","
","","images/earth.jpg","","","","","","","","","","","","","","fixation","","","","","",""
"d3-animate-choice","88","348266","0.0-61.0-0.9","1818","5019","21","Female","false","true","true","true","""event"",""trial"",""time""
""fullscreenenter"",""5"",""10509""
","
","
","""event"",""trial"",""time""
""fullscreenenter"",""5"",""10509""
","
","339.2999999523163","","48","","","3000","1","","","images/earth.jpg","images/tutrocket1","images/tutrocket2","null","images/tutrocket1","","1","practice","null","2","","",""
"d3-animate-choice","89","350696","0.0-61.0-1.9","1818","5019","21","Female","false","true","true","true","""event"",""trial"",""time""
""fullscreenenter"",""5"",""10509""
","
","
","""event"",""trial"",""time""
""fullscreenenter"",""5"",""10509""
","
","425.89999997615814","","48","","","3000","1","","","images/tutgreenplanet.jpg","images/tutalien2","images/tutalien1","images/tutrocket1","images/tutalien2","images/nothing.png","2","practice","true","2","common","0","2022-12-17 16:37:29.389"
"two-step-fixation","90","351703","0.0-61.0-2.9","1818","5019","21","Female","false","true","true","true","""event"",""trial"",""time""
""fullscreenenter"",""5"",""10509""
","
","
","""event"",""trial"",""time""
""fullscreenenter"",""5"",""10509""
","
","","images/earth.jpg","","","","","","","","","","","","","","fixation","","","","","",""
"d3-animate-choice","91","354002","0.0-61.0-0.10","1818","5019","21","Female","false","true","true","true","""event"",""trial"",""time""
""fullscreenenter"",""5"",""10509""
","
","
","""event"",""trial"",""time""
""fullscreenenter"",""5"",""10509""
","
","291.7000000476837","","48","","","3000","1","","","images/earth.jpg","images/tutrocket1","images/tutrocket2","null","images/tutrocket1","","1","practice","null","2","","",""
"d3-animate-choice","92","356428","0.0-61.0-1.10","1818","5019","21","Female","false","true","true","true","""event"",""trial"",""time""
""fullscreenenter"",""5"",""10509""
","
","
","""event"",""trial"",""time""
""fullscreenenter"",""5"",""10509""
","
","421.3000000715256","","48","","","3000","1","","","images/tutgreenplanet.jpg","images/tutalien2","images/tutalien1","images/tutrocket1","images/tutalien2","images/nothing.png","2","practice","true","2","common","0","2022-12-17 16:37:35.122"
"two-step-fixation","93","357439","0.0-61.0-2.10","1818","5019","21","Female","false","true","true","true","""event"",""trial"",""time""
""fullscreenenter"",""5"",""10509""
","
","
","""event"",""trial"",""time""
""fullscreenenter"",""5"",""10509""
","
","","images/earth.jpg","","","","","","","","","","","","","","fixation","","","","","",""
"d3-animate-choice","94","359926","0.0-61.0-0.11","1818","5019","21","Female","false","true","true","true","""event"",""trial"",""time""
""fullscreenenter"",""5"",""10509""
","
","
","""event"",""trial"",""time""
""fullscreenenter"",""5"",""10509""
","
","480.2999999523163","","49","","","3000","1","","","images/earth.jpg","images/tutrocket1","images/tutrocket2","null","images/tutrocket2","","1","practice","null","1","","",""
"d3-animate-choice","95","362299","0.0-61.0-1.11","1818","5019","21","Female","false","true","true","true","""event"",""trial"",""time""
""fullscreenenter"",""5"",""10509""
","
","
","""event"",""trial"",""time""
""fullscreenenter"",""5"",""10509""
","
","368.39999997615814","","48","","","3000","1","","","images/tutyellowplanet.jpg","images/tutalien4","images/tutalien3","images/tutrocket2","images/tutalien4","images/t.png","2","practice","true","2","common","1","2022-12-17 16:37:40.992"
"two-step-fixation","96","363305","0.0-61.0-2.11","1818","5019","21","Female","false","true","true","true","""event"",""trial"",""time""
""fullscreenenter"",""5"",""10509""
","
","
","""event"",""trial"",""time""
""fullscreenenter"",""5"",""10509""
","
","","images/earth.jpg","","","","","","","","","","","","","","fixation","","","","","",""
"d3-animate-choice","97","365660","0.0-61.0-0.12","1818","5019","21","Female","false","true","true","true","""event"",""trial"",""time""
""fullscreenenter"",""5"",""10509""
","
","
","""event"",""trial"",""time""
""fullscreenenter"",""5"",""10509""
","
","349.89999997615814","","49","","","3000","1","","","images/earth.jpg","images/tutrocket1","images/tutrocket2","null","images/tutrocket2","","1","practice","null","1","","",""
"d3-animate-choice","98","368150","0.0-61.0-1.12","1818","5019","21","Female","false","true","true","true","""event"",""trial"",""time""
""fullscreenenter"",""5"",""10509""
","
","
","""event"",""trial"",""time""
""fullscreenenter"",""5"",""10509""
","
","484.39999997615814","","48","","","3000","1","","","images/tutyellowplanet.jpg","images/tutalien4","images/tutalien3","images/tutrocket2","images/tutalien4","images/t.png","2","practice","true","2","common","1","2022-12-17 16:37:46.844"
"two-step-fixation","99","369156","0.0-61.0-2.12","1818","5019","21","Female","false","true","true","true","""event"",""trial"",""time""
""fullscreenenter"",""5"",""10509""
","
","
","""event"",""trial"",""time""
""fullscreenenter"",""5"",""10509""
","
","","images/earth.jpg","","","","","","","","","","","","","","fixation","","","","","",""
"d3-animate-choice","100","371430","0.0-61.0-0.13","1818","5019","21","Female","false","true","true","true","""event"",""trial"",""time""
""fullscreenenter"",""5"",""10509""
","
","
","""event"",""trial"",""time""
""fullscreenenter"",""5"",""10509""
","
","265.2000000476837","","49","","","3000","1","","","images/earth.jpg","images/tutrocket1","images/tutrocket2","null","images/tutrocket2","","1","practice","null","1","","",""
"d3-animate-choice","101","373785","0.0-61.0-1.13","1818","5019","21","Female","false","true","true","true","""event"",""trial"",""time""
""fullscreenenter"",""5"",""10509""
","
","
","""event"",""trial"",""time""
""fullscreenenter"",""5"",""10509""
","
","350.10000002384186","","48","","","3000","1","","","images/tutyellowplanet.jpg","images/tutalien4","images/tutalien3","images/tutrocket2","images/tutalien4","images/nothing.png","2","practice","true","2","common","0","2022-12-17 16:37:52.478"
"two-step-fixation","102","374789","0.0-61.0-2.13","1818","5019","21","Female","false","true","true","true","""event"",""trial"",""time""
""fullscreenenter"",""5"",""10509""
","
","
","""event"",""trial"",""time""
""fullscreenenter"",""5"",""10509""
","
","","images/earth.jpg","","","","","","","","","","","","","","fixation","","","","","",""
"d3-animate-choice","103","377159","0.0-61.0-0.14","1818","5019","21","Female","false","true","true","true","""event"",""trial"",""time""
""fullscreenenter"",""5"",""10509""
","
","
","""event"",""trial"",""time""
""fullscreenenter"",""5"",""10509""
","
","364.1999999284744","","48","","","3000","1","","","images/earth.jpg","images/tutrocket1","images/tutrocket2","null","images/tutrocket1","","1","practice","null","2","","",""
"d3-animate-choice","104","379589","0.0-61.0-1.14","1818","5019","21","Female","false","true","true","true","""event"",""trial"",""time""
""fullscreenenter"",""5"",""10509""
","
","
","""event"",""trial"",""time""
""fullscreenenter"",""5"",""10509""
","
","425.60000002384186","","48","","","3000","1","","","images/tutgreenplanet.jpg","images/tutalien2","images/tutalien1","images/tutrocket1","images/tutalien2","images/nothing.png","2","practice","true","2","common","0","2022-12-17 16:37:58.283"
"two-step-fixation","105","380597","0.0-61.0-2.14","1818","5019","21","Female","false","true","true","true","""event"",""trial"",""time""
""fullscreenenter"",""5"",""10509""
","
","
","""event"",""trial"",""time""
""fullscreenenter"",""5"",""10509""
","
","","images/earth.jpg","","","","","","","","","","","","","","fixation","","","","","",""
"d3-animate-choice","106","382924","0.0-61.0-0.15","1818","5019","21","Female","false","true","true","true","""event"",""trial"",""time""
""fullscreenenter"",""5"",""10509""
","
","
","""event"",""trial"",""time""
""fullscreenenter"",""5"",""10509""
","
","319.10000002384186","","48","","","3000","1","","","images/earth.jpg","images/tutrocket1","images/tutrocket2","null","images/tutrocket1","","1","practice","null","2","","",""
"d3-animate-choice","107","385295","0.0-61.0-1.15","1818","5019","21","Female","false","true","true","true","""event"",""trial"",""time""
""fullscreenenter"",""5"",""10509""
","
","
","""event"",""trial"",""time""
""fullscreenenter"",""5"",""10509""
","
","364","","49","","","3000","1","","","images/tutgreenplanet.jpg","images/tutalien2","images/tutalien1","images/tutrocket1","images/tutalien1","images/nothing.png","2","practice","true","1","common","0","2022-12-17 16:38:03.988"
"two-step-fixation","108","386300","0.0-61.0-2.15","1818","5019","21","Female","false","true","true","true","""event"",""trial"",""time""
""fullscreenenter"",""5"",""10509""
","
","
","""event"",""trial"",""time""
""fullscreenenter"",""5"",""10509""
","
","","images/earth.jpg","","","","","","","","","","","","","","fixation","","","","","",""
"d3-animate-choice","109","388664","0.0-61.0-0.16","1818","5019","21","Female","false","true","true","true","""event"",""trial"",""time""
""fullscreenenter"",""5"",""10509""
","
","
","""event"",""trial"",""time""
""fullscreenenter"",""5"",""10509""
","
","357.5","","49","","","3000","1","","","images/earth.jpg","images/tutrocket1","images/tutrocket2","null","images/tutrocket2","","1","practice","null","1","","",""
"d3-animate-choice","110","390982","0.0-61.0-1.16","1818","5019","21","Female","false","true","true","true","""event"",""trial"",""time""
""fullscreenenter"",""5"",""10509""
","
","
","""event"",""trial"",""time""
""fullscreenenter"",""5"",""10509""
","
","311.40000009536743","","49","","","3000","1","","","images/tutgreenplanet.jpg","images/tutalien2","images/tutalien1","images/tutrocket2","images/tutalien1","images/t.png","2","practice","false","1","rare","1","2022-12-17 16:38:09.675"
"two-step-fixation","111","391987","0.0-61.0-2.16","1818","5019","21","Female","false","true","true","true","""event"",""trial"",""time""
""fullscreenenter"",""5"",""10509""
","
","
","""event"",""trial"",""time""
""fullscreenenter"",""5"",""10509""
","
","","images/earth.jpg","","","","","","","","","","","","","","fixation","","","","","",""
"d3-animate-choice","112","394289","0.0-61.0-0.17","1818","5019","21","Female","false","true","true","true","""event"",""trial"",""time""
""fullscreenenter"",""5"",""10509""
","
","
","""event"",""trial"",""time""
""fullscreenenter"",""5"",""10509""
","
","294","","49","","","3000","1","","","images/earth.jpg","images/tutrocket1","images/tutrocket2","null","images/tutrocket2","","1","practice","null","1","","",""
"d3-animate-choice","113","396624","0.0-61.0-1.17","1818","5019","21","Female","false","true","true","true","""event"",""trial"",""time""
""fullscreenenter"",""5"",""10509""
","
","
","""event"",""trial"",""time""
""fullscreenenter"",""5"",""10509""
","
","331.60000002384186","","49","","","3000","1","","","images/tutyellowplanet.jpg","images/tutalien4","images/tutalien3","images/tutrocket2","images/tutalien3","images/nothing.png","2","practice","true","1","common","0","2022-12-17 16:38:15.318"
"two-step-fixation","114","397635","0.0-61.0-2.17","1818","5019","21","Female","false","true","true","true","""event"",""trial"",""time""
""fullscreenenter"",""5"",""10509""
","
","
","""event"",""trial"",""time""
""fullscreenenter"",""5"",""10509""
","
","","images/earth.jpg","","","","","","","","","","","","","","fixation","","","","","",""
"d3-animate-choice","115","399931","0.0-61.0-0.18","1818","5019","21","Female","false","true","true","true","""event"",""trial"",""time""
""fullscreenenter"",""5"",""10509""
","
","
","""event"",""trial"",""time""
""fullscreenenter"",""5"",""10509""
","
","288.40000009536743","","49","","","3000","1","","","images/earth.jpg","images/tutrocket1","images/tutrocket2","null","images/tutrocket2","","1","practice","null","1","","",""
"d3-animate-choice","116","402422","0.0-61.0-1.18","1818","5019","21","Female","false","true","true","true","""event"",""trial"",""time""
""fullscreenenter"",""5"",""10509""
","
","
","""event"",""trial"",""time""
""fullscreenenter"",""5"",""10509""
","
","484.09999990463257","","49","","","3000","1","","","images/tutyellowplanet.jpg","images/tutalien4","images/tutalien3","images/tutrocket2","images/tutalien3","images/nothing.png","2","practice","true","1","common","0","2022-12-17 16:38:21.115"
"two-step-fixation","117","403429","0.0-61.0-2.18","1818","5019","21","Female","false","true","true","true","""event"",""trial"",""time""
""fullscreenenter"",""5"",""10509""
","
","
","""event"",""trial"",""time""
""fullscreenenter"",""5"",""10509""
","
","","images/earth.jpg","","","","","","","","","","","","","","fixation","","","","","",""
"d3-animate-choice","118","405794","0.0-61.0-0.19","1818","5019","21","Female","false","true","true","true","""event"",""trial"",""time""
""fullscreenenter"",""5"",""10509""
","
","
","""event"",""trial"",""time""
""fullscreenenter"",""5"",""10509""
","
","359","","49","","","3000","1","","","images/earth.jpg","images/tutrocket1","images/tutrocket2","null","images/tutrocket2","","1","practice","null","1","","",""
"d3-animate-choice","119","408834","0.0-61.0-1.19","1818","5019","21","Female","false","true","true","true","""event"",""trial"",""time""
""fullscreenenter"",""5"",""10509""
","
","
","""event"",""trial"",""time""
""fullscreenenter"",""5"",""10509""
","
","1034.3999999761581","","48","","","3000","1","","","images/tutyellowplanet.jpg","images/tutalien4","images/tutalien3","images/tutrocket2","images/tutalien4","images/nothing.png","2","practice","true","2","common","0","2022-12-17 16:38:27.527"
"two-step-fixation","120","409840","0.0-61.0-2.19","1818","5019","21","Female","false","true","true","true","""event"",""trial"",""time""
""fullscreenenter"",""5"",""10509""
","
","
","""event"",""trial"",""time""
""fullscreenenter"",""5"",""10509""
","
","","images/earth.jpg","","","","","","","","","","","","","","fixation","","","","","",""
"d3-instructions","121","412574","0.0-62.0","1818","5019","21","Female","false","true","true","true","""event"",""trial"",""time""
""fullscreenenter"",""5"",""10509""
","
","
","""event"",""trial"",""time""
""fullscreenenter"",""5"",""10509""
","
","","","","","","","","","","","","","","","","","","","","","",""
"audio-keyboard-response","122","414355","0.0-63.0","1818","5019","21","Female","false","true","true","true","""event"",""trial"",""time""
""fullscreenenter"",""5"",""10509""
","
","
","""event"",""trial"",""time""
""fullscreenenter"",""5"",""10509""
","
","1781","audio/instructions/treasure_feedback.wav","32","","","","","","","","","","","","","","","","","","",""
"d3-instructions","123","418942","0.0-64.0","1818","5019","21","Female","false","true","true","true","""event"",""trial"",""time""
""fullscreenenter"",""5"",""10509""
","
","
","""event"",""trial"",""time""
""fullscreenenter"",""5"",""10509""
","
","","","","","","","","","","","","","","","","","","","","","",""
"d3-instructions","124","430637","0.0-65.0","1818","5019","21","Female","false","true","true","true","""event"",""trial"",""time""
""fullscreenenter"",""5"",""10509""
","
","
","""event"",""trial"",""time""
""fullscreenenter"",""5"",""10509""
","
","","","","","","","","","","","","","","","","","","","","","",""
"d3-instructions","125","449807","0.0-66.0","1818","5019","21","Female","false","true","true","true","""event"",""trial"",""time""
""fullscreenenter"",""5"",""10509""
","
","
","""event"",""trial"",""time""
""fullscreenenter"",""5"",""10509""
","
","","","","","","","","","","","","","","","","","","","","","",""
"d3-instructions","126","457403","0.0-67.0","1818","5019","21","Female","false","true","true","true","""event"",""trial"",""time""
""fullscreenenter"",""5"",""10509""
","
","
","""event"",""trial"",""time""
""fullscreenenter"",""5"",""10509""
","
","","","","","","","","","","","","","","","","","","","","","",""
"d3-instructions","127","459266","0.0-68.0","1818","5019","21","Female","false","true","true","true","""event"",""trial"",""time""
""fullscreenenter"",""5"",""10509""
","
","
","""event"",""trial"",""time""
""fullscreenenter"",""5"",""10509""
","
","","","","","","","","","","","","","","","","","","","","","",""
"instructions-quiz","128","461403","0.0-69.0","1818","5019","21","Female","false","true","true","true","""event"",""trial"",""time""
""fullscreenenter"",""5"",""10509""
","
","
","""event"",""trial"",""time""
""fullscreenenter"",""5"",""10509""
","
","2134.6999999284744","audio/quiz/Q1_Prompt.wav","","1","","","","","","","","","","","","","","","","","",""
"audio-keyboard-response","129","470575","0.0-70.0","1818","5019","21","Female","false","true","true","true","""event"",""trial"",""time""
""fullscreenenter"",""5"",""10509""
","
","
","""event"",""trial"",""time""
""fullscreenenter"",""5"",""10509""
","
","null","audio/quiz/Q1_Correct.wav","null","","","","","","","","","","","","","","","","","","",""
"instructions-quiz","130","472817","0.0-71.0","1818","5019","21","Female","false","true","true","true","""event"",""trial"",""time""
""fullscreenenter"",""5"",""10509""
","
","
","""event"",""trial"",""time""
""fullscreenenter"",""5"",""10509""
","
","2239.8000000715256","audio/quiz/Q2_Prompt.wav","","0","","","","","","","","","","","","","","","","","",""
"audio-keyboard-response","131","475038","0.0-72.0","1818","5019","21","Female","false","true","true","true","""event"",""trial"",""time""
""fullscreenenter"",""5"",""10509""
","
","
","""event"",""trial"",""time""
""fullscreenenter"",""5"",""10509""
","
","2219","audio/quiz/Q2_Correct.wav","32","","","","","","","","","","","","","","","","","","",""
"instructions-quiz","132","477712","0.0-73.0","1818","5019","21","Female","false","true","true","true","""event"",""trial"",""time""
""fullscreenenter"",""5"",""10509""
","
","
","""event"",""trial"",""time""
""fullscreenenter"",""5"",""10509""
","
","2670.2999999523163","audio/quiz/Q3_Prompt.wav","","1","","","","","","","","","","","","","","","","","",""
"audio-keyboard-response","133","478443","0.0-74.0","1818","5019","21","Female","false","true","true","true","""event"",""trial"",""time""
""fullscreenenter"",""5"",""10509""
","
","
","""event"",""trial"",""time""
""fullscreenenter"",""5"",""10509""
","
","731","audio/quiz/Q3_Correct.wav","32","","","","","","","","","","","","","","","","","","",""
"d3-instructions","134","484271","0.0-75.0","1818","5019","21","Female","false","true","true","true","""event"",""trial"",""time""
""fullscreenenter"",""5"",""10509""
","
","
","""event"",""trial"",""time""
""fullscreenenter"",""5"",""10509""
","
","","","","","","","","","","","","","","","","","","","","","",""
"d3-animate-choice","135","487585","0.0-76.0-0.0","1818","5019","21","Female","false","true","true","true","""event"",""trial"",""time""
""fullscreenenter"",""5"",""10509""
","
","
","""event"",""trial"",""time""
""fullscreenenter"",""5"",""10509""
","
","1308.6000000238419","","49","","","3000","1","","","images/earth.jpg","images/rocket1","images/rocket2","null","images/rocket2","","1","real","null","1","","",""
"d3-animate-choice","136","490232","0.0-76.0-1.0","1818","5019","21","Female","false","true","true","true","""event"",""trial"",""time""
""fullscreenenter"",""5"",""10509""
","
","
","""event"",""trial"",""time""
""fullscreenenter"",""5"",""10509""
","
","642.1000000238419","","49","","","3000","1","","","images/purpleplanet.jpg","images/alien4","images/alien3","images/rocket2","images/alien3","images/t.png","2","real","true","1","common","1","2022-12-17 16:39:48.926"
"two-step-fixation","137","491241","0.0-76.0-2.0","1818","5019","21","Female","false","true","true","true","""event"",""trial"",""time""
""fullscreenenter"",""5"",""10509""
","
","
","""event"",""trial"",""time""
""fullscreenenter"",""5"",""10509""
","
","","images/earth.jpg","","","","","","","","","","","","","","fixation","","","","","",""
"d3-animate-choice","138","493554","0.0-76.0-0.1","1818","5019","21","Female","false","true","true","true","""event"",""trial"",""time""
""fullscreenenter"",""5"",""10509""
","
","
","""event"",""trial"",""time""
""fullscreenenter"",""5"",""10509""
","
","306.3000000715256","","49","","","3000","1","","","images/earth.jpg","images/rocket1","images/rocket2","null","images/rocket2","","1","real","null","1","","",""
"d3-animate-choice","139","496025","0.0-76.0-1.1","1818","5019","21","Female","false","true","true","true","""event"",""trial"",""time""
""fullscreenenter"",""5"",""10509""
","
","
","""event"",""trial"",""time""
""fullscreenenter"",""5"",""10509""
","
","463.7999999523163","","49","","","3000","1","","","images/purpleplanet.jpg","images/alien4","images/alien3","images/rocket2","images/alien3","images/t.png","2","real","true","1","common","1","2022-12-17 16:39:54.718"
"two-step-fixation","140","497034","0.0-76.0-2.1","1818","5019","21","Female","false","true","true","true","""event"",""trial"",""time""
""fullscreenenter"",""5"",""10509""
","
","
","""event"",""trial"",""time""
""fullscreenenter"",""5"",""10509""
","
","","images/earth.jpg","","","","","","","","","","","","","","fixation","","","","","",""
"d3-animate-choice","141","499316","0.0-76.0-0.2","1818","5019","21","Female","false","true","true","true","""event"",""trial"",""time""
""fullscreenenter"",""5"",""10509""
","
","
","""event"",""trial"",""time""
""fullscreenenter"",""5"",""10509""
","
","272","","49","","","3000","1","","","images/earth.jpg","images/rocket1","images/rocket2","null","images/rocket2","","1","real","null","1","","",""
"d3-animate-choice","142","501725","0.0-76.0-1.2","1818","5019","21","Female","false","true","true","true","""event"",""trial"",""time""
""fullscreenenter"",""5"",""10509""
","
","
","""event"",""trial"",""time""
""fullscreenenter"",""5"",""10509""
","
","402.89999997615814","","49","","","3000","1","","","images/purpleplanet.jpg","images/alien4","images/alien3","images/rocket2","images/alien3","images/t.png","2","real","true","1","common","1","2022-12-17 16:40:00.418"
"two-step-fixation","143","502733","0.0-76.0-2.2","1818","5019","21","Female","false","true","true","true","""event"",""trial"",""time""
""fullscreenenter"",""5"",""10509""
","
","
","""event"",""trial"",""time""
""fullscreenenter"",""5"",""10509""
","
","","images/earth.jpg","","","","","","","","","","","","","","fixation","","","","","",""
"d3-animate-choice","144","505101","0.0-76.0-0.3","1818","5019","21","Female","false","true","true","true","""event"",""trial"",""time""
""fullscreenenter"",""5"",""10509""
","
","
","""event"",""trial"",""time""
""fullscreenenter"",""5"",""10509""
","
","362.5","","49","","","3000","1","","","images/earth.jpg","images/rocket1","images/rocket2","null","images/rocket2","","1","real","null","1","","",""
"d3-animate-choice","145","507554","0.0-76.0-1.3","1818","5019","21","Female","false","true","true","true","""event"",""trial"",""time""
""fullscreenenter"",""5"",""10509""
","
","
","""event"",""trial"",""time""
""fullscreenenter"",""5"",""10509""
","
","448.10000002384186","","49","","","3000","1","","","images/purpleplanet.jpg","images/alien4","images/alien3","images/rocket2","images/alien3","images/t.png","2","real","true","1","common","1","2022-12-17 16:40:06.247"
"two-step-fixation","146","508559","0.0-76.0-2.3","1818","5019","21","Female","false","true","true","true","""event"",""trial"",""time""
""fullscreenenter"",""5"",""10509""
","
","
","""event"",""trial"",""time""
""fullscreenenter"",""5"",""10509""
","
","","images/earth.jpg","","","","","","","","","","","","","","fixation","","","","","",""
"d3-animate-choice","147","510937","0.0-76.0-0.4","1818","5019","21","Female","false","true","true","true","""event"",""trial"",""time""
""fullscreenenter"",""5"",""10509""
","
","
","""event"",""trial"",""time""
""fullscreenenter"",""5"",""10509""
","
","371.39999997615814","","49","","","3000","1","","","images/earth.jpg","images/rocket1","images/rocket2","null","images/rocket2","","1","real","null","1","","",""
"d3-animate-choice","148","513884","0.0-76.0-1.4","1818","5019","21","Female","false","true","true","true","""event"",""trial"",""time""
""fullscreenenter"",""5"",""10509""
","
","
","""event"",""trial"",""time""
""fullscreenenter"",""5"",""10509""
","
","942.5999999046326","","49","","","3000","1","","","images/redplanet1.jpg","images/alien2","images/alien1","images/rocket2","images/alien1","images/nothing.png","2","real","false","1","rare","0","2022-12-17 16:40:12.577"
"two-step-fixation","149","514889","0.0-76.0-2.4","1818","5019","21","Female","false","true","true","true","""event"",""trial"",""time""
""fullscreenenter"",""5"",""10509""
","
","
","""event"",""trial"",""time""
""fullscreenenter"",""5"",""10509""
","
","","images/earth.jpg","","","","","","","","","","","","","","fixation","","","","","",""
"d3-animate-choice","150","517346","0.0-76.0-0.5","1818","5019","21","Female","false","true","true","true","""event"",""trial"",""time""
""fullscreenenter"",""5"",""10509""
","
","
","""event"",""trial"",""time""
""fullscreenenter"",""5"",""10509""
","
","451.90000009536743","","49","","","3000","1","","","images/earth.jpg","images/rocket1","images/rocket2","null","images/rocket2","","1","real","null","1","","",""
"d3-animate-choice","151","520826","0.0-76.0-1.5","1818","5019","21","Female","false","true","true","true","""event"",""trial"",""time""
""fullscreenenter"",""5"",""10509""
","
","
","""event"",""trial"",""time""
""fullscreenenter"",""5"",""10509""
","
","1474.1000000238419","","48","","","3000","1","","","images/redplanet1.jpg","images/alien2","images/alien1","images/rocket2","images/alien2","images/nothing.png","2","real","false","2","rare","0","2022-12-17 16:40:19.519"
"two-step-fixation","152","521832","0.0-76.0-2.5","1818","5019","21","Female","false","true","true","true","""event"",""trial"",""time""
""fullscreenenter"",""5"",""10509""
","
","
","""event"",""trial"",""time""
""fullscreenenter"",""5"",""10509""
","
","","images/earth.jpg","","","","","","","","","","","","","","fixation","","","","","",""
"d3-animate-choice","153","524182","0.0-76.0-0.6","1818","5019","21","Female","false","true","true","true","""event"",""trial"",""time""
""fullscreenenter"",""5"",""10509""
","
","
","""event"",""trial"",""time""
""fullscreenenter"",""5"",""10509""
","
","345.60000002384186","","49","","","3000","1","","","images/earth.jpg","images/rocket1","images/rocket2","null","images/rocket2","","1","real","null","1","","",""
"d3-animate-choice","154","526701","0.0-76.0-1.6","1818","5019","21","Female","false","true","true","true","""event"",""trial"",""time""
""fullscreenenter"",""5"",""10509""
","
","
","""event"",""trial"",""time""
""fullscreenenter"",""5"",""10509""
","
","511.5","","49","","","3000","1","","","images/purpleplanet.jpg","images/alien4","images/alien3","images/rocket2","images/alien3","images/t.png","2","real","true","1","common","1","2022-12-17 16:40:25.394"
"two-step-fixation","155","527709","0.0-76.0-2.6","1818","5019","21","Female","false","true","true","true","""event"",""trial"",""time""
""fullscreenenter"",""5"",""10509""
","
","
","""event"",""trial"",""time""
""fullscreenenter"",""5"",""10509""
","
","","images/earth.jpg","","","","","","","","","","","","","","fixation","","","","","",""
"d3-animate-choice","156","529975","0.0-76.0-0.7","1818","5019","21","Female","false","true","true","true","""event"",""trial"",""time""
""fullscreenenter"",""5"",""10509""
","
","
","""event"",""trial"",""time""
""fullscreenenter"",""5"",""10509""
","
","260.2000000476837","","49","","","3000","1","","","images/earth.jpg","images/rocket1","images/rocket2","null","images/rocket2","","1","real","null","1","","",""
"d3-animate-choice","157","532431","0.0-76.0-1.7","1818","5019","21","Female","false","true","true","true","""event"",""trial"",""time""
""fullscreenenter"",""5"",""10509""
","
","
","""event"",""trial"",""time""
""fullscreenenter"",""5"",""10509""
","
","445.60000002384186","","49","","","3000","1","","","images/purpleplanet.jpg","images/alien4","images/alien3","images/rocket2","images/alien3","images/t.png","2","real","true","1","common","1","2022-12-17 16:40:31.124"
"two-step-fixation","158","533437","0.0-76.0-2.7","1818","5019","21","Female","false","true","true","true","""event"",""trial"",""time""
""fullscreenenter"",""5"",""10509""
","
","
","""event"",""trial"",""time""
""fullscreenenter"",""5"",""10509""
","
","","images/earth.jpg","","","","","","","","","","","","","","fixation","","","","","",""
"d3-animate-choice","159","535735","0.0-76.0-0.8","1818","5019","21","Female","false","true","true","true","""event"",""trial"",""time""
""fullscreenenter"",""5"",""10509""
","
","
","""event"",""trial"",""time""
""fullscreenenter"",""5"",""10509""
","
","290.60000002384186","","49","","","3000","1","","","images/earth.jpg","images/rocket1","images/rocket2","null","images/rocket2","","1","real","null","1","","",""
"d3-animate-choice","160","538228","0.0-76.0-1.8","1818","5019","21","Female","false","true","true","true","""event"",""trial"",""time""
""fullscreenenter"",""5"",""10509""
","
","
","""event"",""trial"",""time""
""fullscreenenter"",""5"",""10509""
","
","484.89999997615814","","49","","","3000","1","","","images/purpleplanet.jpg","images/alien4","images/alien3","images/rocket2","images/alien3","images/t.png","2","real","true","1","common","1","2022-12-17 16:40:36.921"
"two-step-fixation","161","539233","0.0-76.0-2.8","1818","5019","21","Female","false","true","true","true","""event"",""trial"",""time""
""fullscreenenter"",""5"",""10509""
","
","
","""event"",""trial"",""time""
""fullscreenenter"",""5"",""10509""
","
","","images/earth.jpg","","","","","","","","","","","","","","fixation","","","","","",""
"d3-animate-choice","162","541541","0.0-76.0-0.9","1818","5019","21","Female","false","true","true","true","""event"",""trial"",""time""
""fullscreenenter"",""5"",""10509""
","
","
","""event"",""trial"",""time""
""fullscreenenter"",""5"",""10509""
","
","303","","49","","","3000","1","","","images/earth.jpg","images/rocket1","images/rocket2","null","images/rocket2","","1","real","null","1","","",""
"d3-animate-choice","163","543900","0.0-76.0-1.9","1818","5019","21","Female","false","true","true","true","""event"",""trial"",""time""
""fullscreenenter"",""5"",""10509""
","
","
","""event"",""trial"",""time""
""fullscreenenter"",""5"",""10509""
","
","354.7999999523163","","49","","","3000","1","","","images/purpleplanet.jpg","images/alien4","images/alien3","images/rocket2","images/alien3","images/t.png","2","real","true","1","common","1","2022-12-17 16:40:42.594"
"two-step-fixation","164","544906","0.0-76.0-2.9","1818","5019","21","Female","false","true","true","true","""event"",""trial"",""time""
""fullscreenenter"",""5"",""10509""
","
","
","""event"",""trial"",""time""
""fullscreenenter"",""5"",""10509""
","
","","images/earth.jpg","","","","","","","","","","","","","","fixation","","","","","",""
"d3-animate-choice","165","547218","0.0-76.0-0.10","1818","5019","21","Female","false","true","true","true","""event"",""trial"",""time""
""fullscreenenter"",""5"",""10509""
","
","
","""event"",""trial"",""time""
""fullscreenenter"",""5"",""10509""
","
","308.5","","49","","","3000","1","","","images/earth.jpg","images/rocket1","images/rocket2","null","images/rocket2","","1","real","null","1","","",""
"d3-animate-choice","166","549669","0.0-76.0-1.10","1818","5019","21","Female","false","true","true","true","""event"",""trial"",""time""
""fullscreenenter"",""5"",""10509""
","
","
","""event"",""trial"",""time""
""fullscreenenter"",""5"",""10509""
","
","443","","49","","","3000","1","","","images/purpleplanet.jpg","images/alien4","images/alien3","images/rocket2","images/alien3","images/nothing.png","2","real","true","1","common","0","2022-12-17 16:40:48.362"
"two-step-fixation","167","550674","0.0-76.0-2.10","1818","5019","21","Female","false","true","true","true","""event"",""trial"",""time""
""fullscreenenter"",""5"",""10509""
","
","
","""event"",""trial"",""time""
""fullscreenenter"",""5"",""10509""
","
","","images/earth.jpg","","","","","","","","","","","","","","fixation","","","","","",""
"d3-animate-choice","168","553009","0.0-76.0-0.11","1818","5019","21","Female","false","true","true","true","""event"",""trial"",""time""
""fullscreenenter"",""5"",""10509""
","
","
","""event"",""trial"",""time""
""fullscreenenter"",""5"",""10509""
","
","330.5","","49","","","3000","1","","","images/earth.jpg","images/rocket1","images/rocket2","null","images/rocket2","","1","real","null","1","","",""
"d3-animate-choice","169","555324","0.0-76.0-1.11","1818","5019","21","Female","false","true","true","true","""event"",""trial"",""time""
""fullscreenenter"",""5"",""10509""
","
","
","""event"",""trial"",""time""
""fullscreenenter"",""5"",""10509""
","
","308.7999999523163","","49","","","3000","1","","","images/purpleplanet.jpg","images/alien4","images/alien3","images/rocket2","images/alien3","images/t.png","2","real","true","1","common","1","2022-12-17 16:40:54.017"
"two-step-fixation","170","556332","0.0-76.0-2.11","1818","5019","21","Female","false","true","true","true","""event"",""trial"",""time""
""fullscreenenter"",""5"",""10509""
","
","
","""event"",""trial"",""time""
""fullscreenenter"",""5"",""10509""
","
","","images/earth.jpg","","","","","","","","","","","","","","fixation","","","","","",""
"d3-animate-choice","171","558649","0.0-76.0-0.12","1818","5019","21","Female","false","true","true","true","""event"",""trial"",""time""
""fullscreenenter"",""5"",""10509""
","
","
","""event"",""trial"",""time""
""fullscreenenter"",""5"",""10509""
","
","310.5","","49","","","3000","1","","","images/earth.jpg","images/rocket1","images/rocket2","null","images/rocket2","","1","real","null","1","","",""
"d3-animate-choice","172","561105","0.0-76.0-1.12","1818","5019","21","Female","false","true","true","true","""event"",""trial"",""time""
""fullscreenenter"",""5"",""10509""
","
","
","""event"",""trial"",""time""
""fullscreenenter"",""5"",""10509""
","
","451.89999997615814","","49","","","3000","1","","","images/redplanet1.jpg","images/alien2","images/alien1","images/rocket2","images/alien1","images/nothing.png","2","real","false","1","rare","0","2022-12-17 16:40:59.798"
"two-step-fixation","173","562110","0.0-76.0-2.12","1818","5019","21","Female","false","true","true","true","""event"",""trial"",""time""
""fullscreenenter"",""5"",""10509""
","
","
","""event"",""trial"",""time""
""fullscreenenter"",""5"",""10509""
","
","","images/earth.jpg","","","","","","","","","","","","","","fixation","","","","","",""
"d3-animate-choice","174","564379","0.0-76.0-0.13","1818","5019","21","Female","false","true","true","true","""event"",""trial"",""time""
""fullscreenenter"",""5"",""10509""
","
","
","""event"",""trial"",""time""
""fullscreenenter"",""5"",""10509""
","
","262.7999999523163","","49","","","3000","1","","","images/earth.jpg","images/rocket1","images/rocket2","null","images/rocket2","","1","real","null","1","","",""
"d3-animate-choice","175","566858","0.0-76.0-1.13","1818","5019","21","Female","false","true","true","true","""event"",""trial"",""time""
""fullscreenenter"",""5"",""10509""
","
","
","""event"",""trial"",""time""
""fullscreenenter"",""5"",""10509""
","
","473.7999999523163","","49","","","3000","1","","","images/purpleplanet.jpg","images/alien4","images/alien3","images/rocket2","images/alien3","images/nothing.png","2","real","true","1","common","0","2022-12-17 16:41:05.551"
"two-step-fixation","176","567864","0.0-76.0-2.13","1818","5019","21","Female","false","true","true","true","""event"",""trial"",""time""
""fullscreenenter"",""5"",""10509""
","
","
","""event"",""trial"",""time""
""fullscreenenter"",""5"",""10509""
","
","","images/earth.jpg","","","","","","","","","","","","","","fixation","","","","","",""
"d3-animate-choice","177","570635","0.0-76.0-0.14","1818","5019","21","Female","false","true","true","true","""event"",""trial"",""time""
""fullscreenenter"",""5"",""10509""
","
","
","""event"",""trial"",""time""
""fullscreenenter"",""5"",""10509""
","
","766.5","","49","","","3000","1","","","images/earth.jpg","images/rocket1","images/rocket2","null","images/rocket2","","1","real","null","1","","",""
"d3-animate-choice","178","573340","0.0-76.0-1.14","1818","5019","21","Female","false","true","true","true","""event"",""trial"",""time""
""fullscreenenter"",""5"",""10509""
","
","
","""event"",""trial"",""time""
""fullscreenenter"",""5"",""10509""
","
","696.3000000715256","","49","","","3000","1","","","images/purpleplanet.jpg","images/alien4","images/alien3","images/rocket2","images/alien3","images/t.png","2","real","true","1","common","1","2022-12-17 16:41:12.033"
"two-step-fixation","179","574344","0.0-76.0-2.14","1818","5019","21","Female","false","true","true","true","""event"",""trial"",""time""
""fullscreenenter"",""5"",""10509""
","
","
","""event"",""trial"",""time""
""fullscreenenter"",""5"",""10509""
","
","","images/earth.jpg","","","","","","","","","","","","","","fixation","","","","","",""
"d3-animate-choice","180","576616","0.0-76.0-0.15","1818","5019","21","Female","false","true","true","true","""event"",""trial"",""time""
""fullscreenenter"",""5"",""10509""
","
","
","""event"",""trial"",""time""
""fullscreenenter"",""5"",""10509""
","
","265.8000000715256","","49","","","3000","1","","","images/earth.jpg","images/rocket1","images/rocket2","null","images/rocket2","","1","real","null","1","","",""
"d3-animate-choice","181","579091","0.0-76.0-1.15","1818","5019","21","Female","false","true","true","true","""event"",""trial"",""time""
""fullscreenenter"",""5"",""10509""
","
","
","""event"",""trial"",""time""
""fullscreenenter"",""5"",""10509""
","
","469.2999999523163","","49","","","3000","1","","","images/purpleplanet.jpg","images/alien4","images/alien3","images/rocket2","images/alien3","images/nothing.png","2","real","true","1","common","0","2022-12-17 16:41:17.784"
"two-step-fixation","182","580097","0.0-76.0-2.15","1818","5019","21","Female","false","true","true","true","""event"",""trial"",""time""
""fullscreenenter"",""5"",""10509""
","
","
","""event"",""trial"",""time""
""fullscreenenter"",""5"",""10509""
","
","","images/earth.jpg","","","","","","","","","","","","","","fixation","","","","","",""
"d3-animate-choice","183","582384","0.0-76.0-0.16","1818","5019","21","Female","false","true","true","true","""event"",""trial"",""time""
""fullscreenenter"",""5"",""10509""
","
","
","""event"",""trial"",""time""
""fullscreenenter"",""5"",""10509""
","
","281.8000000715256","","49","","","3000","1","","","images/earth.jpg","images/rocket1","images/rocket2","null","images/rocket2","","1","real","null","1","","",""
"d3-animate-choice","184","584789","0.0-76.0-1.16","1818","5019","21","Female","false","true","true","true","""event"",""trial"",""time""
""fullscreenenter"",""5"",""10509""
","
","
","""event"",""trial"",""time""
""fullscreenenter"",""5"",""10509""
","
","398.7000000476837","","49","","","3000","1","","","images/purpleplanet.jpg","images/alien4","images/alien3","images/rocket2","images/alien3","images/t.png","2","real","true","1","common","1","2022-12-17 16:41:23.482"
"two-step-fixation","185","585797","0.0-76.0-2.16","1818","5019","21","Female","false","true","true","true","""event"",""trial"",""time""
""fullscreenenter"",""5"",""10509""
","
","
","""event"",""trial"",""time""
""fullscreenenter"",""5"",""10509""
","
","","images/earth.jpg","","","","","","","","","","","","","","fixation","","","","","",""
"d3-animate-choice","186","588085","0.0-76.0-0.17","1818","5019","21","Female","false","true","true","true","""event"",""trial"",""time""
""fullscreenenter"",""5"",""10509""
","
","
","""event"",""trial"",""time""
""fullscreenenter"",""5"",""10509""
","
","281","","48","","","3000","1","","","images/earth.jpg","images/rocket1","images/rocket2","null","images/rocket1","","1","real","null","2","","",""
"d3-animate-choice","187","591157","0.0-76.0-1.17","1818","5019","21","Female","false","true","true","true","""event"",""trial"",""time""
""fullscreenenter"",""5"",""10509""
","
","
","""event"",""trial"",""time""
""fullscreenenter"",""5"",""10509""
","
","1068.2000000476837","","49","","","3000","1","","","images/redplanet1.jpg","images/alien2","images/alien1","images/rocket1","images/alien1","images/t.png","2","real","true","1","common","1","2022-12-17 16:41:29.851"
"two-step-fixation","188","592163","0.0-76.0-2.17","1818","5019","21","Female","false","true","true","true","""event"",""trial"",""time""
""fullscreenenter"",""5"",""10509""
","
","
","""event"",""trial"",""time""
""fullscreenenter"",""5"",""10509""
","
","","images/earth.jpg","","","","","","","","","","","","","","fixation","","","","","",""
"d3-animate-choice","189","594489","0.0-76.0-0.18","1818","5019","21","Female","false","true","true","true","""event"",""trial"",""time""
""fullscreenenter"",""5"",""10509""
","
","
","""event"",""trial"",""time""
""fullscreenenter"",""5"",""10509""
","
","321","","49","","","3000","1","","","images/earth.jpg","images/rocket1","images/rocket2","null","images/rocket2","","1","real","null","1","","",""
"d3-animate-choice","190","596795","0.0-76.0-1.18","1818","5019","21","Female","false","true","true","true","""event"",""trial"",""time""
""fullscreenenter"",""5"",""10509""
","
","
","""event"",""trial"",""time""
""fullscreenenter"",""5"",""10509""
","
","299","","49","","","3000","1","","","images/purpleplanet.jpg","images/alien4","images/alien3","images/rocket2","images/alien3","images/t.png","2","real","true","1","common","1","2022-12-17 16:41:35.488"
"two-step-fixation","191","597801","0.0-76.0-2.18","1818","5019","21","Female","false","true","true","true","""event"",""trial"",""time""
""fullscreenenter"",""5"",""10509""
","
","
","""event"",""trial"",""time""
""fullscreenenter"",""5"",""10509""
","
","","images/earth.jpg","","","","","","","","","","","","","","fixation","","","","","",""
"d3-animate-choice","192","600180","0.0-76.0-0.19","1818","5019","21","Female","false","true","true","true","""event"",""trial"",""time""
""fullscreenenter"",""5"",""10509""
","
","
","""event"",""trial"",""time""
""fullscreenenter"",""5"",""10509""
","
","374.6999999284744","","49","","","3000","1","","","images/earth.jpg","images/rocket1","images/rocket2","null","images/rocket2","","1","real","null","1","","",""
"d3-animate-choice","193","602791","0.0-76.0-1.19","1818","5019","21","Female","false","true","true","true","""event"",""trial"",""time""
""fullscreenenter"",""5"",""10509""
","
","
","""event"",""trial"",""time""
""fullscreenenter"",""5"",""10509""
","
","603.3999999761581","","49","","","3000","1","","","images/redplanet1.jpg","images/alien2","images/alien1","images/rocket2","images/alien1","images/t.png","2","real","false","1","rare","1","2022-12-17 16:41:41.484"
"two-step-fixation","194","603799","0.0-76.0-2.19","1818","5019","21","Female","false","true","true","true","""event"",""trial"",""time""
""fullscreenenter"",""5"",""10509""
","
","
","""event"",""trial"",""time""
""fullscreenenter"",""5"",""10509""
","
","","images/earth.jpg","","","","","","","","","","","","","","fixation","","","","","",""
"d3-animate-choice","195","606106","0.0-76.0-0.20","1818","5019","21","Female","false","true","true","true","""event"",""trial"",""time""
""fullscreenenter"",""5"",""10509""
","
","
","""event"",""trial"",""time""
""fullscreenenter"",""5"",""10509""
","
","302.1999999284744","","49","","","3000","1","","","images/earth.jpg","images/rocket1","images/rocket2","null","images/rocket2","","1","real","null","1","","",""
"d3-animate-choice","196","608455","0.0-76.0-1.20","1818","5019","21","Female","false","true","true","true","""event"",""trial"",""time""
""fullscreenenter"",""5"",""10509""
","
","
","""event"",""trial"",""time""
""fullscreenenter"",""5"",""10509""
","
","338.2000000476837","","49","","","3000","1","","","images/purpleplanet.jpg","images/alien4","images/alien3","images/rocket2","images/alien3","images/nothing.png","2","real","true","1","common","0","2022-12-17 16:41:47.148"
"two-step-fixation","197","609461","0.0-76.0-2.20","1818","5019","21","Female","false","true","true","true","""event"",""trial"",""time""
""fullscreenenter"",""5"",""10509""
","
","
","""event"",""trial"",""time""
""fullscreenenter"",""5"",""10509""
","
","","images/earth.jpg","","","","","","","","","","","","","","fixation","","","","","",""
"d3-animate-choice","198","611740","0.0-76.0-0.21","1818","5019","21","Female","false","true","true","true","""event"",""trial"",""time""
""fullscreenenter"",""5"",""10509""
","
","
","""event"",""trial"",""time""
""fullscreenenter"",""5"",""10509""
","
","271.3000000715256","","49","","","3000","1","","","images/earth.jpg","images/rocket1","images/rocket2","null","images/rocket2","","1","real","null","1","","",""
"d3-animate-choice","199","614561","0.0-76.0-1.21","1818","5019","21","Female","false","true","true","true","""event"",""trial"",""time""
""fullscreenenter"",""5"",""10509""
","
","
","""event"",""trial"",""time""
""fullscreenenter"",""5"",""10509""
","
","812.8999999761581","","48","","","3000","1","","","images/purpleplanet.jpg","images/alien4","images/alien3","images/rocket2","images/alien4","images/t.png","2","real","true","2","common","1","2022-12-17 16:41:53.255"
"two-step-fixation","200","615567","0.0-76.0-2.21","1818","5019","21","Female","false","true","true","true","""event"",""trial"",""time""
""fullscreenenter"",""5"",""10509""
","
","
","""event"",""trial"",""time""
""fullscreenenter"",""5"",""10509""
","
","","images/earth.jpg","","","","","","","","","","","","","","fixation","","","","","",""
"d3-animate-choice","201","618071","0.0-76.0-0.22","1818","5019","21","Female","false","true","true","true","""event"",""trial"",""time""
""fullscreenenter"",""5"",""10509""
","
","
","""event"",""trial"",""time""
""fullscreenenter"",""5"",""10509""
","
","497.5","","48","","","3000","1","","","images/earth.jpg","images/rocket1","images/rocket2","null","images/rocket1","","1","real","null","2","","",""
"d3-animate-choice","202","620532","0.0-76.0-1.22","1818","5019","21","Female","false","true","true","true","""event"",""trial"",""time""
""fullscreenenter"",""5"",""10509""
","
","
","""event"",""trial"",""time""
""fullscreenenter"",""5"",""10509""
","
","457.5","","49","","","3000","1","","","images/redplanet1.jpg","images/alien2","images/alien1","images/rocket1","images/alien1","images/t.png","2","real","true","1","common","1","2022-12-17 16:41:59.226"
"two-step-fixation","203","621538","0.0-76.0-2.22","1818","5019","21","Female","false","true","true","true","""event"",""trial"",""time""
""fullscreenenter"",""5"",""10509""
","
","
","""event"",""trial"",""time""
""fullscreenenter"",""5"",""10509""
","
","","images/earth.jpg","","","","","","","","","","","","","","fixation","","","","","",""
"d3-animate-choice","204","624108","0.0-76.0-0.23","1818","5019","21","Female","false","true","true","true","""event"",""trial"",""time""
""fullscreenenter"",""5"",""10509""
","
","
","""event"",""trial"",""time""
""fullscreenenter"",""5"",""10509""
","
","564.3999999761581","","49","","","3000","1","","","images/earth.jpg","images/rocket1","images/rocket2","null","images/rocket2","","1","real","null","1","","",""
"d3-animate-choice","205","626570","0.0-76.0-1.23","1818","5019","21","Female","false","true","true","true","""event"",""trial"",""time""
""fullscreenenter"",""5"",""10509""
","
","
","""event"",""trial"",""time""
""fullscreenenter"",""5"",""10509""
","
","457.3000000715256","","48","","","3000","1","","","images/purpleplanet.jpg","images/alien4","images/alien3","images/rocket2","images/alien4","images/t.png","2","real","true","2","common","1","2022-12-17 16:42:05.263"
"two-step-fixation","206","627575","0.0-76.0-2.23","1818","5019","21","Female","false","true","true","true","""event"",""trial"",""time""
""fullscreenenter"",""5"",""10509""
","
","
","""event"",""trial"",""time""
""fullscreenenter"",""5"",""10509""
","
","","images/earth.jpg","","","","","","","","","","","","","","fixation","","","","","",""
"d3-animate-choice","207","629999","0.0-76.0-0.24","1818","5019","21","Female","false","true","true","true","""event"",""trial"",""time""
""fullscreenenter"",""5"",""10509""
","
","
","""event"",""trial"",""time""
""fullscreenenter"",""5"",""10509""
","
","416.5","","48","","","3000","1","","","images/earth.jpg","images/rocket1","images/rocket2","null","images/rocket1","","1","real","null","2","","",""
"d3-animate-choice","208","632521","0.0-76.0-1.24","1818","5019","21","Female","false","true","true","true","""event"",""trial"",""time""
""fullscreenenter"",""5"",""10509""
","
","
","""event"",""trial"",""time""
""fullscreenenter"",""5"",""10509""
","
","517","","49","","","3000","1","","","images/redplanet1.jpg","images/alien2","images/alien1","images/rocket1","images/alien1","images/nothing.png","2","real","true","1","common","0","2022-12-17 16:42:11.215"
"two-step-fixation","209","633526","0.0-76.0-2.24","1818","5019","21","Female","false","true","true","true","""event"",""trial"",""time""
""fullscreenenter"",""5"",""10509""
","
","
","""event"",""trial"",""time""
""fullscreenenter"",""5"",""10509""
","
","","images/earth.jpg","","","","","","","","","","","","","","fixation","","","","","",""
"d3-animate-choice","210","635804","0.0-76.0-0.25","1818","5019","21","Female","false","true","true","true","""event"",""trial"",""time""
""fullscreenenter"",""5"",""10509""
","
","
","""event"",""trial"",""time""
""fullscreenenter"",""5"",""10509""
","
","271.3000000715256","","49","","","3000","1","","","images/earth.jpg","images/rocket1","images/rocket2","null","images/rocket2","","1","real","null","1","","",""
"d3-animate-choice","211","638308","0.0-76.0-1.25","1818","5019","21","Female","false","true","true","true","""event"",""trial"",""time""
""fullscreenenter"",""5"",""10509""
","
","
","""event"",""trial"",""time""
""fullscreenenter"",""5"",""10509""
","
","495.40000009536743","","48","","","3000","1","","","images/redplanet1.jpg","images/alien2","images/alien1","images/rocket2","images/alien2","images/nothing.png","2","real","false","2","rare","0","2022-12-17 16:42:17.001"
"two-step-fixation","212","639316","0.0-76.0-2.25","1818","5019","21","Female","false","true","true","true","""event"",""trial"",""time""
""fullscreenenter"",""5"",""10509""
","
","
","""event"",""trial"",""time""
""fullscreenenter"",""5"",""10509""
","
","","images/earth.jpg","","","","","","","","","","","","","","fixation","","","","","",""
"d3-animate-choice","213","641633","0.0-76.0-0.26","1818","5019","21","Female","false","true","true","true","""event"",""trial"",""time""
""fullscreenenter"",""5"",""10509""
","
","
","""event"",""trial"",""time""
""fullscreenenter"",""5"",""10509""
","
","311.39999997615814","","48","","","3000","1","","","images/earth.jpg","images/rocket1","images/rocket2","null","images/rocket1","","1","real","null","2","","",""
"d3-animate-choice","214","645339","0.0-76.0-1.26","1818","5019","21","Female","false","true","true","true","""event"",""trial"",""time""
""fullscreenenter"",""5"",""10509""
","
","
","""event"",""trial"",""time""
""fullscreenenter"",""5"",""10509""
","
","1700.7000000476837","","48","","","3000","1","","","images/purpleplanet.jpg","images/alien4","images/alien3","images/rocket1","images/alien4","images/t.png","2","real","false","2","rare","1","2022-12-17 16:42:24.032"
"two-step-fixation","215","646345","0.0-76.0-2.26","1818","5019","21","Female","false","true","true","true","""event"",""trial"",""time""
""fullscreenenter"",""5"",""10509""
","
","
","""event"",""trial"",""time""
""fullscreenenter"",""5"",""10509""
","
","","images/earth.jpg","","","","","","","","","","","","","","fixation","","","","","",""
"d3-animate-choice","216","648828","0.0-76.0-0.27","1818","5019","21","Female","false","true","true","true","""event"",""trial"",""time""
""fullscreenenter"",""5"",""10509""
","
","
","""event"",""trial"",""time""
""fullscreenenter"",""5"",""10509""
","
","475.5","","49","","","3000","1","","","images/earth.jpg","images/rocket1","images/rocket2","null","images/rocket2","","1","real","null","1","","",""
"d3-animate-choice","217","652011","0.0-76.0-1.27","1818","5019","21","Female","false","true","true","true","""event"",""trial"",""time""
""fullscreenenter"",""5"",""10509""
","
","
","""event"",""trial"",""time""
""fullscreenenter"",""5"",""10509""
","
","1172.5","","49","","","3000","1","","","images/redplanet1.jpg","images/alien2","images/alien1","images/rocket2","images/alien1","images/t.png","2","real","false","1","rare","1","2022-12-17 16:42:30.704"
"two-step-fixation","218","653017","0.0-76.0-2.27","1818","5019","21","Female","false","true","true","true","""event"",""trial"",""time""
""fullscreenenter"",""5"",""10509""
","
","
","""event"",""trial"",""time""
""fullscreenenter"",""5"",""10509""
","
","","images/earth.jpg","","","","","","","","","","","","","","fixation","","","","","",""
"d3-animate-choice","219","655779","0.0-76.0-0.28","1818","5019","21","Female","false","true","true","true","""event"",""trial"",""time""
""fullscreenenter"",""5"",""10509""
","
","
","""event"",""trial"",""time""
""fullscreenenter"",""5"",""10509""
","
","755.6999999284744","","48","","","3000","1","","","images/earth.jpg","images/rocket1","images/rocket2","null","images/rocket1","","1","real","null","2","","",""
"d3-animate-choice","220","658723","0.0-76.0-1.28","1818","5019","21","Female","false","true","true","true","""event"",""trial"",""time""
""fullscreenenter"",""5"",""10509""
","
","
","""event"",""trial"",""time""
""fullscreenenter"",""5"",""10509""
","
","940","","48","","","3000","1","","","images/purpleplanet.jpg","images/alien4","images/alien3","images/rocket1","images/alien4","images/t.png","2","real","false","2","rare","1","2022-12-17 16:42:37.416"
"two-step-fixation","221","659731","0.0-76.0-2.28","1818","5019","21","Female","false","true","true","true","""event"",""trial"",""time""
""fullscreenenter"",""5"",""10509""
","
","
","""event"",""trial"",""time""
""fullscreenenter"",""5"",""10509""
","
","","images/earth.jpg","","","","","","","","","","","","","","fixation","","","","","",""
"d3-animate-choice","222","662102","0.0-76.0-0.29","1818","5019","21","Female","false","true","true","true","""event"",""trial"",""time""
""fullscreenenter"",""5"",""10509""
","
","
","""event"",""trial"",""time""
""fullscreenenter"",""5"",""10509""
","
","365.7999999523163","","49","","","3000","1","","","images/earth.jpg","images/rocket1","images/rocket2","null","images/rocket2","","1","real","null","1","","",""
"d3-animate-choice","223","664881","0.0-76.0-1.29","1818","5019","21","Female","false","true","true","true","""event"",""trial"",""time""
""fullscreenenter"",""5"",""10509""
","
","
","""event"",""trial"",""time""
""fullscreenenter"",""5"",""10509""
","
","774.3000000715256","","48","","","3000","1","","","images/purpleplanet.jpg","images/alien4","images/alien3","images/rocket2","images/alien4","images/t.png","2","real","true","2","common","1","2022-12-17 16:42:43.574"
"two-step-fixation","224","665885","0.0-76.0-2.29","1818","5019","21","Female","false","true","true","true","""event"",""trial"",""time""
""fullscreenenter"",""5"",""10509""
","
","
","""event"",""trial"",""time""
""fullscreenenter"",""5"",""10509""
","
","","images/earth.jpg","","","","","","","","","","","","","","fixation","","","","","",""
"d3-animate-choice","225","668199","0.0-76.0-0.30","1818","5019","21","Female","false","true","true","true","""event"",""trial"",""time""
""fullscreenenter"",""5"",""10509""
","
","
","""event"",""trial"",""time""
""fullscreenenter"",""5"",""10509""
","
","305.6999999284744","","48","","","3000","1","","","images/earth.jpg","images/rocket1","images/rocket2","null","images/rocket1","","1","real","null","2","","",""
"d3-animate-choice","226","670797","0.0-76.0-1.30","1818","5019","21","Female","false","true","true","true","""event"",""trial"",""time""
""fullscreenenter"",""5"",""10509""
","
","
","""event"",""trial"",""time""
""fullscreenenter"",""5"",""10509""
","
","592.3000000715256","","49","","","3000","1","","","images/redplanet1.jpg","images/alien2","images/alien1","images/rocket1","images/alien1","images/t.png","2","real","true","1","common","1","2022-12-17 16:42:49.490"
"two-step-fixation","227","671804","0.0-76.0-2.30","1818","5019","21","Female","false","true","true","true","""event"",""trial"",""time""
""fullscreenenter"",""5"",""10509""
","
","
","""event"",""trial"",""time""
""fullscreenenter"",""5"",""10509""
","
","","images/earth.jpg","","","","","","","","","","","","","","fixation","","","","","",""
"d3-animate-choice","228","674373","0.0-76.0-0.31","1818","5019","21","Female","false","true","true","true","""event"",""trial"",""time""
""fullscreenenter"",""5"",""10509""
","
","
","""event"",""trial"",""time""
""fullscreenenter"",""5"",""10509""
","
","561.7999999523163","","49","","","3000","1","","","images/earth.jpg","images/rocket1","images/rocket2","null","images/rocket2","","1","real","null","1","","",""
"d3-animate-choice","229","676797","0.0-76.0-1.31","1818","5019","21","Female","false","true","true","true","""event"",""trial"",""time""
""fullscreenenter"",""5"",""10509""
","
","
","""event"",""trial"",""time""
""fullscreenenter"",""5"",""10509""
","
","418.60000002384186","","48","","","3000","1","","","images/purpleplanet.jpg","images/alien4","images/alien3","images/rocket2","images/alien4","images/nothing.png","2","real","true","2","common","0","2022-12-17 16:42:55.490"
"two-step-fixation","230","677802","0.0-76.0-2.31","1818","5019","21","Female","false","true","true","true","""event"",""trial"",""time""
""fullscreenenter"",""5"",""10509""
","
","
","""event"",""trial"",""time""
""fullscreenenter"",""5"",""10509""
","
","","images/earth.jpg","","","","","","","","","","","","","","fixation","","","","","",""
"d3-animate-choice","231","680136","0.0-76.0-0.32","1818","5019","21","Female","false","true","true","true","""event"",""trial"",""time""
""fullscreenenter"",""5"",""10509""
","
","
","""event"",""trial"",""time""
""fullscreenenter"",""5"",""10509""
","
","329","","48","","","3000","1","","","images/earth.jpg","images/rocket1","images/rocket2","null","images/rocket1","","1","real","null","2","","",""
"d3-animate-choice","232","683296","0.0-76.0-1.32","1818","5019","21","Female","false","true","true","true","""event"",""trial"",""time""
""fullscreenenter"",""5"",""10509""
","
","
","""event"",""trial"",""time""
""fullscreenenter"",""5"",""10509""
","
","1153.0999999046326","","48","","","3000","1","","","images/purpleplanet.jpg","images/alien4","images/alien3","images/rocket1","images/alien4","images/nothing.png","2","real","false","2","rare","0","2022-12-17 16:43:01.989"
"two-step-fixation","233","684301","0.0-76.0-2.32","1818","5019","21","Female","false","true","true","true","""event"",""trial"",""time""
""fullscreenenter"",""5"",""10509""
","
","
","""event"",""trial"",""time""
""fullscreenenter"",""5"",""10509""
","
","","images/earth.jpg","","","","","","","","","","","","","","fixation","","","","","",""
"d3-animate-choice","234","686781","0.0-76.0-0.33","1818","5019","21","Female","false","true","true","true","""event"",""trial"",""time""
""fullscreenenter"",""5"",""10509""
","
","
","""event"",""trial"",""time""
""fullscreenenter"",""5"",""10509""
","
","474.5","","49","","","3000","1","","","images/earth.jpg","images/rocket1","images/rocket2","null","images/rocket2","","1","real","null","1","","",""
"d3-animate-choice","235","690420","0.0-76.0-1.33","1818","5019","21","Female","false","true","true","true","""event"",""trial"",""time""
""fullscreenenter"",""5"",""10509""
","
","
","""event"",""trial"",""time""
""fullscreenenter"",""5"",""10509""
","
","1633.5","","49","","","3000","1","","","images/redplanet1.jpg","images/alien2","images/alien1","images/rocket2","images/alien1","images/t.png","2","real","false","1","rare","1","2022-12-17 16:43:09.113"
"two-step-fixation","236","691426","0.0-76.0-2.33","1818","5019","21","Female","false","true","true","true","""event"",""trial"",""time""
""fullscreenenter"",""5"",""10509""
","
","
","""event"",""trial"",""time""
""fullscreenenter"",""5"",""10509""
","
","","images/earth.jpg","","","","","","","","","","","","","","fixation","","","","","",""
"d3-animate-choice","237","693808","0.0-76.0-0.34","1818","5019","21","Female","false","true","true","true","""event"",""trial"",""time""
""fullscreenenter"",""5"",""10509""
","
","
","""event"",""trial"",""time""
""fullscreenenter"",""5"",""10509""
","
","378.10000002384186","","48","","","3000","1","","","images/earth.jpg","images/rocket1","images/rocket2","null","images/rocket1","","1","real","null","2","","",""
"d3-animate-choice","238","696262","0.0-76.0-1.34","1818","5019","21","Female","false","true","true","true","""event"",""trial"",""time""
""fullscreenenter"",""5"",""10509""
","
","
","""event"",""trial"",""time""
""fullscreenenter"",""5"",""10509""
","
","448","","49","","","3000","1","","","images/redplanet1.jpg","images/alien2","images/alien1","images/rocket1","images/alien1","images/t.png","2","real","true","1","common","1","2022-12-17 16:43:14.956"
"two-step-fixation","239","697269","0.0-76.0-2.34","1818","5019","21","Female","false","true","true","true","""event"",""trial"",""time""
""fullscreenenter"",""5"",""10509""
","
","
","""event"",""trial"",""time""
""fullscreenenter"",""5"",""10509""
","
","","images/earth.jpg","","","","","","","","","","","","","","fixation","","","","","",""
"d3-animate-choice","240","699585","0.0-76.0-0.35","1818","5019","21","Female","false","true","true","true","""event"",""trial"",""time""
""fullscreenenter"",""5"",""10509""
","
","
","""event"",""trial"",""time""
""fullscreenenter"",""5"",""10509""
","
","310","","48","","","3000","1","","","images/earth.jpg","images/rocket1","images/rocket2","null","images/rocket1","","1","real","null","2","","",""
"d3-animate-choice","241","702177","0.0-76.0-1.35","1818","5019","21","Female","false","true","true","true","""event"",""trial"",""time""
""fullscreenenter"",""5"",""10509""
","
","
","""event"",""trial"",""time""
""fullscreenenter"",""5"",""10509""
","
","587.6999999284744","","49","","","3000","1","","","images/redplanet1.jpg","images/alien2","images/alien1","images/rocket1","images/alien1","images/t.png","2","real","true","1","common","1","2022-12-17 16:43:20.870"
"two-step-fixation","242","703183","0.0-76.0-2.35","1818","5019","21","Female","false","true","true","true","""event"",""trial"",""time""
""fullscreenenter"",""5"",""10509""
","
","
","""event"",""trial"",""time""
""fullscreenenter"",""5"",""10509""
","
","","images/earth.jpg","","","","","","","","","","","","","","fixation","","","","","",""
"d3-animate-choice","243","705508","0.0-76.0-0.36","1818","5019","21","Female","false","true","true","true","""event"",""trial"",""time""
""fullscreenenter"",""5"",""10509""
","
","
","""event"",""trial"",""time""
""fullscreenenter"",""5"",""10509""
","
","320.3000000715256","","48","","","3000","1","","","images/earth.jpg","images/rocket1","images/rocket2","null","images/rocket1","","1","real","null","2","","",""
"d3-animate-choice","244","708217","0.0-76.0-1.36","1818","5019","21","Female","false","true","true","true","""event"",""trial"",""time""
""fullscreenenter"",""5"",""10509""
","
","
","""event"",""trial"",""time""
""fullscreenenter"",""5"",""10509""
","
","703.4000000953674","","49","","","3000","1","","","images/redplanet1.jpg","images/alien2","images/alien1","images/rocket1","images/alien1","images/t.png","2","real","true","1","common","1","2022-12-17 16:43:26.910"
"two-step-fixation","245","709222","0.0-76.0-2.36","1818","5019","21","Female","false","true","true","true","""event"",""trial"",""time""
""fullscreenenter"",""5"",""10509""
","
","
","""event"",""trial"",""time""
""fullscreenenter"",""5"",""10509""
","
","","images/earth.jpg","","","","","","","","","","","","","","fixation","","","","","",""
"d3-animate-choice","246","711585","0.0-76.0-0.37","1818","5019","21","Female","false","true","true","true","""event"",""trial"",""time""
""fullscreenenter"",""5"",""10509""
","
","
","""event"",""trial"",""time""
""fullscreenenter"",""5"",""10509""
","
