"trial_type","trial_index","time_elapsed","internal_node_id","participant_id","subject_id","age","gender","rocket_sides","red_planet_first_rocket","red_display_order","purple_display_order","interactions","blur_events","focus_events","fullscreenenter_events","fullscreenexit_events","rt","stimulus","key_press","button_pressed","success","duration","valid_pressed","rts","keys","planet_text","right_text","left_text","center_text","chosen_text","reward_text","trial_stage","practice_trial","transition_type","choice","transition","reward","timestamp"
"pavlovia","0","3","0.0-0.0","203","5224","12","Male","true","true","false","false","
","
","
","
","
","","","","","","","","","","","","","","","","","","","","","",""
"html-keyboard-response","1","2907","0.0-1.0","203","5224","12","Male","true","true","false","false","
","
","
","
","
","2903.5999999940395","Welcome! Press the space bar to begin.","32","","","","","","","","","","","","","","","","","","",""
"audio-keyboard-response","2","5867","0.0-2.0","203","5224","12","Male","true","true","false","false","
","
","
","
","
","2800","audio/beep_loop.wav","32","","","","","","","","","","","","","","","","","","",""
"audio-button-response","3","9891","0.0-3.0","203","5224","12","Male","true","true","false","false","
","
","
","
","
","NaN","audio/fish.mp3","","1","","","","","","","","","","","","","","","","","",""
"audio-button-response","4","13954","0.0-4.0","203","5224","12","Male","true","true","false","false","""event"",""trial"",""time""
""fullscreenenter"",""5"",""16937""
","
","
","""event"",""trial"",""time""
""fullscreenenter"",""5"",""16937""
","
","NaN","audio/tiger.mp3","","4","","","","","","","","","","","","","","","","","",""
"fullscreen","5","17928","0.0-5.0","203","5224","12","Male","true","true","false","false","""event"",""trial"",""time""
""fullscreenenter"",""5"",""16937""
","
","
","""event"",""trial"",""time""
""fullscreenenter"",""5"",""16937""
","
","","","","","true","","","","","","","","","","","","","","","","",""
"d3-instructions","6","31451","0.0-6.0","203","5224","12","Male","true","true","false","false","""event"",""trial"",""time""
""fullscreenenter"",""5"",""16937""
","
","
","""event"",""trial"",""time""
""fullscreenenter"",""5"",""16937""
","
","","","","","","","","","","","","","","","","","","","","","",""
"d3-instructions","7","42987","0.0-7.0","203","5224","12","Male","true","true","false","false","""event"",""trial"",""time""
""fullscreenenter"",""5"",""16937""
","
","
","""event"",""trial"",""time""
""fullscreenenter"",""5"",""16937""
","
","","","","","","","","","","","","","","","","","","","","","",""
"d3-instructions","8","49691","0.0-8.0","203","5224","12","Male","true","true","false","false","""event"",""trial"",""time""
""fullscreenenter"",""5"",""16937""
","
","
","""event"",""trial"",""time""
""fullscreenenter"",""5"",""16937""
","
","","","","","","","","","","","","","","","","","","","","","",""
"d3-instructions","9","63282","0.0-9.0","203","5224","12","Male","true","true","false","false","""event"",""trial"",""time""
""fullscreenenter"",""5"",""16937""
","
","
","""event"",""trial"",""time""
""fullscreenenter"",""5"",""16937""
","
","","","","","","","","","","","","","","","","","","","","","",""
"d3-instructions","10","82467","0.0-10.0","203","5224","12","Male","true","true","false","false","""event"",""trial"",""time""
""fullscreenenter"",""5"",""16937""
","
","
","""event"",""trial"",""time""
""fullscreenenter"",""5"",""16937""
","
","","","","","","","","","","","","","","","","","","","","","",""
"d3-animate-choice","11","92532","0.0-11.0","203","5224","12","Male","true","true","false","false","""event"",""trial"",""time""
""fullscreenenter"",""5"",""16937""
","
","
","""event"",""trial"",""time""
""fullscreenenter"",""5"",""16937""
","
","1430.5","","45","","","3000","1","1790.300000011921,2014.9000000059605,2230.2000000178814,2398.7000000178814,2542.4000000059605,2678.4000000059605,2822.300000011921,2950.5,3102.5,3326.4000000059605,3470.5,3653.800000011921,3813.7000000178814,4342.800000011921,6446.9000000059605,8046.700000017881,8886.600000023842,9966.700000017881","35,45,35,45,35,45,35,45,35,45,35,45,35,32,45,48,49,49","images/tutgreenplanet.jpg","images/tutalien1","images/tutalien2","null","images/tutalien1","","NA","practice","null","","","",""
"d3-animate-choice","12","95375","0.0-12.0","203","5224","12","Male","true","true","false","false","""event"",""trial"",""time""
""fullscreenenter"",""5"",""16937""
","
","
","""event"",""trial"",""time""
""fullscreenenter"",""5"",""16937""
","
","837.9000000059605","","49","","","3000","1","2685.199999988079","48","images/tutgreenplanet.jpg","images/tutalien1","images/tutalien2","null","images/tutalien2","","NA","practice","null","","","",""
"d3-animate-choice","13","98062","0.0-13.0","203","5224","12","Male","true","true","false","false","""event"",""trial"",""time""
""fullscreenenter"",""5"",""16937""
","
","
","""event"",""trial"",""time""
""fullscreenenter"",""5"",""16937""
","
","674.5","","48","","","3000","1","","","images/tutgreenplanet.jpg","images/tutalien1","images/tutalien2","null","images/tutalien1","","NA","practice","null","","","",""
"d3-animate-choice","14","102776","0.0-14.0","203","5224","12","Male","true","true","false","false","""event"",""trial"",""time""
""fullscreenenter"",""5"",""16937""
","
","
","""event"",""trial"",""time""
""fullscreenenter"",""5"",""16937""
","
","715.9000000059605","","45","","","3000","1","1251.5,2699.4000000059605","35,48","images/tutgreenplanet.jpg","images/tutalien1","images/tutalien2","null","images/tutalien1","","NA","practice","null","","","",""
"d3-instructions","15","111867","0.0-15.0","203","5224","12","Male","true","true","false","false","""event"",""trial"",""time""
""fullscreenenter"",""5"",""16937""
","
","
","""event"",""trial"",""time""
""fullscreenenter"",""5"",""16937""
","
","","","","","","","","","","","","","","","","","","","","","",""
"d3-instructions","16","121540","0.0-16.0","203","5224","12","Male","true","true","false","false","""event"",""trial"",""time""
""fullscreenenter"",""5"",""16937""
","
","
","""event"",""trial"",""time""
""fullscreenenter"",""5"",""16937""
","
","","","","","","","","","","","","","","","","","","","","","",""
"d3-instructions","17","130324","0.0-17.0","203","5224","12","Male","true","true","false","false","""event"",""trial"",""time""
""fullscreenenter"",""5"",""16937""
","
","
","""event"",""trial"",""time""
""fullscreenenter"",""5"",""16937""
","
","","","","","","","","","","","","","","","","","","","","","",""
"d3-instructions","18","142956","0.0-18.0","203","5224","12","Male","true","true","false","false","""event"",""trial"",""time""
""fullscreenenter"",""5"",""16937""
","
","
","""event"",""trial"",""time""
""fullscreenenter"",""5"",""16937""
","
","","","","","","","","","","","","","","","","","","","","","",""
"d3-instructions","19","157348","0.0-19.0","203","5224","12","Male","true","true","false","false","""event"",""trial"",""time""
""fullscreenenter"",""5"",""16937""
","
","
","""event"",""trial"",""time""
""fullscreenenter"",""5"",""16937""
","
","","","","","","","","","","","","","","","","","","","","","",""
"d3-animate-choice","20","160971","0.0-20.0","203","5224","12","Male","true","true","false","false","""event"",""trial"",""time""
""fullscreenenter"",""5"",""16937""
","
","
","""event"",""trial"",""time""
""fullscreenenter"",""5"",""16937""
","
","1606.5","","49","","","3000","1","","","images/tutyellowplanet.jpg","null","images/tutalien3","null","images/tutalien3","images/t.png","NA","practice","null","","","",""
"d3-animate-choice","21","163467","0.0-21.0","203","5224","12","Male","true","true","false","false","""event"",""trial"",""time""
""fullscreenenter"",""5"",""16937""
","
","
","""event"",""trial"",""time""
""fullscreenenter"",""5"",""16937""
","
","478.90000000596046","","49","","","3000","1","","","images/tutyellowplanet.jpg","null","images/tutalien3","null","images/tutalien3","images/t.png","NA","practice","null","","","",""
"d3-animate-choice","22","165792","0.0-22.0","203","5224","12","Male","true","true","false","false","""event"",""trial"",""time""
""fullscreenenter"",""5"",""16937""
","
","
","""event"",""trial"",""time""
""fullscreenenter"",""5"",""16937""
","
","319.40000000596046","","49","","","3000","1","","","images/tutyellowplanet.jpg","null","images/tutalien3","null","images/tutalien3","images/t.png","NA","practice","null","","","",""
"d3-animate-choice","23","168146","0.0-23.0","203","5224","12","Male","true","true","false","false","""event"",""trial"",""time""
""fullscreenenter"",""5"",""16937""
","
","
","""event"",""trial"",""time""
""fullscreenenter"",""5"",""16937""
","
","337.90000000596046","","49","","","3000","1","","","images/tutyellowplanet.jpg","null","images/tutalien3","null","images/tutalien3","images/t.png","NA","practice","null","","","",""
"d3-animate-choice","24","170501","0.0-24.0","203","5224","12","Male","true","true","false","false","""event"",""trial"",""time""
""fullscreenenter"",""5"",""16937""
","
","
","""event"",""trial"",""time""
""fullscreenenter"",""5"",""16937""
","
","343.59999999403954","","49","","","3000","1","","","images/tutyellowplanet.jpg","null","images/tutalien3","null","images/tutalien3","images/t.png","NA","practice","null","","","",""
"d3-animate-choice","25","172795","0.0-25.0","203","5224","12","Male","true","true","false","false","""event"",""trial"",""time""
""fullscreenenter"",""5"",""16937""
","
","
","""event"",""trial"",""time""
""fullscreenenter"",""5"",""16937""
","
","286.09999999403954","","49","","","3000","1","","","images/tutyellowplanet.jpg","null","images/tutalien3","null","images/tutalien3","images/t.png","NA","practice","null","","","",""
"d3-animate-choice","26","175101","0.0-26.0","203","5224","12","Male","true","true","false","false","""event"",""trial"",""time""
""fullscreenenter"",""5"",""16937""
","
","
","""event"",""trial"",""time""
""fullscreenenter"",""5"",""16937""
","
","295.5","","49","","","3000","1","","","images/tutyellowplanet.jpg","null","images/tutalien3","null","images/tutalien3","images/t.png","NA","practice","null","","","",""
"d3-animate-choice","27","177412","0.0-27.0","203","5224","12","Male","true","true","false","false","""event"",""trial"",""time""
""fullscreenenter"",""5"",""16937""
","
","
","""event"",""trial"",""time""
""fullscreenenter"",""5"",""16937""
","
","294","","49","","","3000","1","","","images/tutyellowplanet.jpg","null","images/tutalien3","null","images/tutalien3","images/t.png","NA","practice","null","","","",""
"d3-animate-choice","28","179719","0.0-28.0","203","5224","12","Male","true","true","false","false","""event"",""trial"",""time""
""fullscreenenter"",""5"",""16937""
","
","
","""event"",""trial"",""time""
""fullscreenenter"",""5"",""16937""
","
","295.2000000178814","","49","","","3000","1","","","images/tutyellowplanet.jpg","null","images/tutalien3","null","images/tutalien3","images/t.png","NA","practice","null","","","",""
"d3-animate-choice","29","182131","0.0-29.0","203","5224","12","Male","true","true","false","false","""event"",""trial"",""time""
""fullscreenenter"",""5"",""16937""
","
","
","""event"",""trial"",""time""
""fullscreenenter"",""5"",""16937""
","
","395.80000001192093","","49","","","3000","1","","","images/tutyellowplanet.jpg","null","images/tutalien3","null","images/tutalien3","images/t.png","NA","practice","null","","","",""
"d3-instructions","30","188371","0.0-30.0","203","5224","12","Male","true","true","false","false","""event"",""trial"",""time""
""fullscreenenter"",""5"",""16937""
","
","
","""event"",""trial"",""time""
""fullscreenenter"",""5"",""16937""
","
","","","","","","","","","","","","","","","","","","","","","",""
"d3-instructions","31","198115","0.0-31.0","203","5224","12","Male","true","true","false","false","""event"",""trial"",""time""
""fullscreenenter"",""5"",""16937""
","
","
","""event"",""trial"",""time""
""fullscreenenter"",""5"",""16937""
","
","","","","","","","","","","","","","","","","","","","","","",""
"d3-instructions","32","206196","0.0-32.0","203","5224","12","Male","true","true","false","false","""event"",""trial"",""time""
""fullscreenenter"",""5"",""16937""
","
","
","""event"",""trial"",""time""
""fullscreenenter"",""5"",""16937""
","
","","","","","","","","","","","","","","","","","","","","","",""
"d3-instructions","33","216411","0.0-33.0","203","5224","12","Male","true","true","false","false","""event"",""trial"",""time""
""fullscreenenter"",""5"",""16937""
","
","
","""event"",""trial"",""time""
""fullscreenenter"",""5"",""16937""
","
","","","","","","","","","","","","","","","","","","","","","",""
"d3-animate-choice","34","220075","0.0-34.0","203","5224","12","Male","true","true","false","false","""event"",""trial"",""time""
""fullscreenenter"",""5"",""16937""
","
","
","""event"",""trial"",""time""
""fullscreenenter"",""5"",""16937""
","
","1646.800000011921","","48","","","3000","1","","","images/tutgreenplanet.jpg","images/tutalien1","images/tutalien2","null","images/tutalien1","images/nothing.png","NA","practice","null","","","",""
"d3-animate-choice","35","222448","0.0-35.0","203","5224","12","Male","true","true","false","false","""event"",""trial"",""time""
""fullscreenenter"",""5"",""16937""
","
","
","""event"",""trial"",""time""
""fullscreenenter"",""5"",""16937""
","
","359.19999998807907","","48","","","3000","1","","","images/tutgreenplanet.jpg","images/tutalien1","images/tutalien2","null","images/tutalien1","images/nothing.png","NA","practice","null","","","",""
"d3-animate-choice","36","224743","0.0-36.0","203","5224","12","Male","true","true","false","false","""event"",""trial"",""time""
""fullscreenenter"",""5"",""16937""
","
","
","""event"",""trial"",""time""
""fullscreenenter"",""5"",""16937""
","
","290.7999999821186","","49","","","3000","1","","","images/tutgreenplanet.jpg","images/tutalien1","images/tutalien2","null","images/tutalien2","images/t.png","NA","practice","null","","","",""
"d3-animate-choice","37","226983","0.0-37.0","203","5224","12","Male","true","true","false","false","""event"",""trial"",""time""
""fullscreenenter"",""5"",""16937""
","
","
","""event"",""trial"",""time""
""fullscreenenter"",""5"",""16937""
","
","234.90000000596046","","49","","","3000","1","1731.9000000059605,2091.5999999940395","49,49","images/tutgreenplanet.jpg","images/tutalien1","images/tutalien2","null","images/tutalien2","images/t.png","NA","practice","null","","","",""
"d3-animate-choice","38","229118","0.0-38.0","203","5224","12","Male","true","true","false","false","""event"",""trial"",""time""
""fullscreenenter"",""5"",""16937""
","
","
","""event"",""trial"",""time""
""fullscreenenter"",""5"",""16937""
","
","131.10000002384186","","49","","","3000","1","435,818.5,1083,1411.2000000178814,1755.2000000178814,2066.7000000178814","49,49,49,49,49,49","images/tutgreenplanet.jpg","images/tutalien1","images/tutalien2","null","images/tutalien2","images/t.png","NA","practice","null","","","",""
"d3-animate-choice","39","231334","0.0-39.0","203","5224","12","Male","true","true","false","false","""event"",""trial"",""time""
""fullscreenenter"",""5"",""16937""
","
","
","""event"",""trial"",""time""
""fullscreenenter"",""5"",""16937""
","
","204.2999999821186","","49","","","3000","1","508.2999999821186,843.5,1123.699999988079,1404.0999999940395,1700.4000000059605,1988.199999988079","49,49,49,49,49,49","images/tutgreenplanet.jpg","images/tutalien1","images/tutalien2","null","images/tutalien2","images/nothing.png","NA","practice","null","","","",""
"d3-animate-choice","40","233423","0.0-40.0","203","5224","12","Male","true","true","false","false","""event"",""trial"",""time""
""fullscreenenter"",""5"",""16937""
","
","
","""event"",""trial"",""time""
""fullscreenenter"",""5"",""16937""
","
","76.7999999821186","","49","","","3000","1","364.7999999821186,716.7999999821186,1004.6999999880791,1332.5999999940395,1652.5999999940395,2035.9000000059605","49,49,49,49,49,49","images/tutgreenplanet.jpg","images/tutalien1","images/tutalien2","null","images/tutalien2","images/nothing.png","NA","practice","null","","","",""
"d3-animate-choice","41","235673","0.0-41.0","203","5224","12","Male","true","true","false","false","""event"",""trial"",""time""
""fullscreenenter"",""5"",""16937""
","
","
","""event"",""trial"",""time""
""fullscreenenter"",""5"",""16937""
","
","234.2999999821186","","49","","","3000","1","","","images/tutgreenplanet.jpg","images/tutalien1","images/tutalien2","null","images/tutalien2","images/t.png","NA","practice","null","","","",""
"d3-animate-choice","42","237980","0.0-42.0","203","5224","12","Male","true","true","false","false","""event"",""trial"",""time""
""fullscreenenter"",""5"",""16937""
","
","
","""event"",""trial"",""time""
""fullscreenenter"",""5"",""16937""
","
","289.69999998807907","","49","","","3000","1","","","images/tutgreenplanet.jpg","images/tutalien1","images/tutalien2","null","images/tutalien2","images/t.png","NA","practice","null","","","",""
"d3-animate-choice","43","240147","0.0-43.0","203","5224","12","Male","true","true","false","false","""event"",""trial"",""time""
""fullscreenenter"",""5"",""16937""
","
","
","""event"",""trial"",""time""
""fullscreenenter"",""5"",""16937""
","
","158.5","","49","","","3000","1","","","images/tutgreenplanet.jpg","images/tutalien1","images/tutalien2","null","images/tutalien2","images/t.png","NA","practice","null","","","",""
"d3-instructions","44","252499","0.0-44.0","203","5224","12","Male","true","true","false","false","""event"",""trial"",""time""
""fullscreenenter"",""5"",""16937""
","
","
","""event"",""trial"",""time""
""fullscreenenter"",""5"",""16937""
","
","","","","","","","","","","","","","","","","","","","","","",""
"d3-instructions","45","261547","0.0-45.0","203","5224","12","Male","true","true","false","false","""event"",""trial"",""time""
""fullscreenenter"",""5"",""16937""
","
","
","""event"",""trial"",""time""
""fullscreenenter"",""5"",""16937""
","
","","","","","","","","","","","","","","","","","","","","","",""
"d3-instructions","46","270883","0.0-46.0","203","5224","12","Male","true","true","false","false","""event"",""trial"",""time""
""fullscreenenter"",""5"",""16937""
","
","
","""event"",""trial"",""time""
""fullscreenenter"",""5"",""16937""
","
","","","","","","","","","","","","","","","","","","","","","",""
"d3-instructions","47","291146","0.0-47.0","203","5224","12","Male","true","true","false","false","""event"",""trial"",""time""
""fullscreenenter"",""5"",""16937""
","
","
","""event"",""trial"",""time""
""fullscreenenter"",""5"",""16937""
","
","","","","","","","","","","","","","","","","","","","","","",""
"d3-instructions","48","297042","0.0-48.0","203","5224","12","Male","true","true","false","false","""event"",""trial"",""time""
""fullscreenenter"",""5"",""16937""
","
","
","""event"",""trial"",""time""
""fullscreenenter"",""5"",""16937""
","
","","","","","","","","","","","","","","","","","","","","","",""
"d3-instructions","49","306915","0.0-49.0","203","5224","12","Male","true","true","false","false","""event"",""trial"",""time""
""fullscreenenter"",""5"",""16937""
","
","
","""event"",""trial"",""time""
""fullscreenenter"",""5"",""16937""
","
","","","","","","","","","","","","","","","","","","","","","",""
"d3-instructions","50","316715","0.0-50.0","203","5224","12","Male","true","true","false","false","""event"",""trial"",""time""
""fullscreenenter"",""5"",""16937""
","
","
","""event"",""trial"",""time""
""fullscreenenter"",""5"",""16937""
","
","","","","","","","","","","","","","","","","","","","","","",""
"d3-instructions","51","319171","0.0-51.0","203","5224","12","Male","true","true","false","false","""event"",""trial"",""time""
""fullscreenenter"",""5"",""16937""
","
","
","""event"",""trial"",""time""
""fullscreenenter"",""5"",""16937""
","
","","","","","","","","","","","","","","","","","","","","","",""
"d3-instructions","52","321827","0.0-52.0","203","5224","12","Male","true","true","false","false","""event"",""trial"",""time""
""fullscreenenter"",""5"",""16937""
","
","
","""event"",""trial"",""time""
""fullscreenenter"",""5"",""16937""
","
","","","","","","","","","","","","","","","","","","","","","",""
"d3-instructions","53","333523","0.0-53.0","203","5224","12","Male","true","true","false","false","""event"",""trial"",""time""
""fullscreenenter"",""5"",""16937""
","
","
","""event"",""trial"",""time""
""fullscreenenter"",""5"",""16937""
","
","","","","","","","","","","","","","","","","","","","","","",""
"d3-instructions","54","346267","0.0-54.0","203","5224","12","Male","true","true","false","false","""event"",""trial"",""time""
""fullscreenenter"",""5"",""16937""
","
","
","""event"",""trial"",""time""
""fullscreenenter"",""5"",""16937""
","
","","","","","","","","","","","","","","","","","","","","","",""
"d3-instructions","55","356707","0.0-55.0","203","5224","12","Male","true","true","false","false","""event"",""trial"",""time""
""fullscreenenter"",""5"",""16937""
","
","
","""event"",""trial"",""time""
""fullscreenenter"",""5"",""16937""
","
","","","","","","","","","","","","","","","","","","","","","",""
"d3-instructions","56","367820","0.0-56.0","203","5224","12","Male","true","true","false","false","""event"",""trial"",""time""
""fullscreenenter"",""5"",""16937""
","
","
","""event"",""trial"",""time""
""fullscreenenter"",""5"",""16937""
","
","","","","","","","","","","","","","","","","","","","","","",""
"d3-instructions","57","377715","0.0-57.0","203","5224","12","Male","true","true","false","false","""event"",""trial"",""time""
""fullscreenenter"",""5"",""16937""
","
","
","""event"",""trial"",""time""
""fullscreenenter"",""5"",""16937""
","
","","","","","","","","","","","","","","","","","","","","","",""
"d3-instructions","58","387931","0.0-58.0","203","5224","12","Male","true","true","false","false","""event"",""trial"",""time""
""fullscreenenter"",""5"",""16937""
","
","
","""event"",""trial"",""time""
""fullscreenenter"",""5"",""16937""
","
","","","","","","","","","","","","","","","","","","","","","",""
"d3-instructions","59","395139","0.0-59.0","203","5224","12","Male","true","true","false","false","""event"",""trial"",""time""
""fullscreenenter"",""5"",""16937""
","
","
","""event"",""trial"",""time""
""fullscreenenter"",""5"",""16937""
","
","","","","","","","","","","","","","","","","","","","","","",""
"d3-instructions","60","402531","0.0-60.0","203","5224","12","Male","true","true","false","false","""event"",""trial"",""time""
""fullscreenenter"",""5"",""16937""
","
","
","""event"",""trial"",""time""
""fullscreenenter"",""5"",""16937""
","
","","","","","","","","","","","","","","","","","","","","","",""
"d3-animate-choice","61","405498","0.0-61.0-0.0","203","5224","12","Male","true","true","false","false","""event"",""trial"",""time""
""fullscreenenter"",""5"",""16937""
","
","
","""event"",""trial"",""time""
""fullscreenenter"",""5"",""16937""
","
","958.1999999880791","","49","","","3000","1","","","images/earth.jpg","images/tutrocket1","images/tutrocket2","null","images/tutrocket2","","1","practice","null","1","","",""
"d3-animate-choice","62","408078","0.0-61.0-1.0","203","5224","12","Male","true","true","false","false","""event"",""trial"",""time""
""fullscreenenter"",""5"",""16937""
","
","
","""event"",""trial"",""time""
""fullscreenenter"",""5"",""16937""
","
","574.7999999821186","","48","","","3000","1","","","images/tutyellowplanet.jpg","images/tutalien4","images/tutalien3","images/tutrocket2","images/tutalien4","images/nothing.png","2","practice","true","2","common","0","2022-12-12 23:51:17.426"
"two-step-fixation","63","409087","0.0-61.0-2.0","203","5224","12","Male","true","true","false","false","""event"",""trial"",""time""
""fullscreenenter"",""5"",""16937""
","
","
","""event"",""trial"",""time""
""fullscreenenter"",""5"",""16937""
","
","","images/earth.jpg","","","","","","","","","","","","","","fixation","","","","","",""
"d3-animate-choice","64","411414","0.0-61.0-0.1","203","5224","12","Male","true","true","false","false","""event"",""trial"",""time""
""fullscreenenter"",""5"",""16937""
","
","
","""event"",""trial"",""time""
""fullscreenenter"",""5"",""16937""
","
","315.2000000178814","","49","","","3000","1","","","images/earth.jpg","images/tutrocket1","images/tutrocket2","null","images/tutrocket2","","1","practice","null","1","","",""
"d3-animate-choice","65","413710","0.0-61.0-1.1","203","5224","12","Male","true","true","false","false","""event"",""trial"",""time""
""fullscreenenter"",""5"",""16937""
","
","
","""event"",""trial"",""time""
""fullscreenenter"",""5"",""16937""
","
","292.09999999403954","","49","","","3000","1","","","images/tutyellowplanet.jpg","images/tutalien4","images/tutalien3","images/tutrocket2","images/tutalien3","images/nothing.png","2","practice","true","1","common","0","2022-12-12 23:51:23.057"
"two-step-fixation","66","414719","0.0-61.0-2.1","203","5224","12","Male","true","true","false","false","""event"",""trial"",""time""
""fullscreenenter"",""5"",""16937""
","
","
","""event"",""trial"",""time""
""fullscreenenter"",""5"",""16937""
","
","","images/earth.jpg","","","","","","","","","","","","","","fixation","","","","","",""
"d3-animate-choice","67","417126","0.0-61.0-0.2","203","5224","12","Male","true","true","false","false","""event"",""trial"",""time""
""fullscreenenter"",""5"",""16937""
","
","
","""event"",""trial"",""time""
""fullscreenenter"",""5"",""16937""
","
","402.59999999403954","","49","","","3000","1","1786.5,2170.4000000059605","48,48","images/earth.jpg","images/tutrocket1","images/tutrocket2","null","images/tutrocket2","","1","practice","null","1","","",""
"d3-animate-choice","68","419214","0.0-61.0-1.2","203","5224","12","Male","true","true","false","false","""event"",""trial"",""time""
""fullscreenenter"",""5"",""16937""
","
","
","""event"",""trial"",""time""
""fullscreenenter"",""5"",""16937""
","
","83.5","","48","","","3000","1","348,763.9000000059605,932.0999999940395","48,48,39","images/tutyellowplanet.jpg","images/tutalien4","images/tutalien3","images/tutrocket2","images/tutalien4","images/t.png","2","practice","true","2","common","1","2022-12-12 23:51:28.561"
"two-step-fixation","69","420222","0.0-61.0-2.2","203","5224","12","Male","true","true","false","false","""event"",""trial"",""time""
""fullscreenenter"",""5"",""16937""
","
","
","""event"",""trial"",""time""
""fullscreenenter"",""5"",""16937""
","
","","images/earth.jpg","","","","","","","","","","","","","","fixation","","","","","",""
"d3-animate-choice","70","422519","0.0-61.0-0.3","203","5224","12","Male","true","true","false","false","""event"",""trial"",""time""
""fullscreenenter"",""5"",""16937""
","
","
","""event"",""trial"",""time""
""fullscreenenter"",""5"",""16937""
","
","291.90000000596046","","49","","","3000","1","891.8000000119209,1403.7000000178814,1955.9000000059605","48,48,48","images/earth.jpg","images/tutrocket1","images/tutrocket2","null","images/tutrocket2","","1","practice","null","1","","",""
"d3-animate-choice","71","424846","0.0-61.0-1.3","203","5224","12","Male","true","true","false","false","""event"",""trial"",""time""
""fullscreenenter"",""5"",""16937""
","
","
","""event"",""trial"",""time""
""fullscreenenter"",""5"",""16937""
","
","323.5","","48","","","3000","1","","","images/tutgreenplanet.jpg","images/tutalien2","images/tutalien1","images/tutrocket2","images/tutalien2","images/t.png","2","practice","false","2","rare","1","2022-12-12 23:51:34.193"
"two-step-fixation","72","425855","0.0-61.0-2.3","203","5224","12","Male","true","true","false","false","""event"",""trial"",""time""
""fullscreenenter"",""5"",""16937""
","
","
","""event"",""trial"",""time""
""fullscreenenter"",""5"",""16937""
","
","","images/earth.jpg","","","","","","","","","","","","","","fixation","","","","","",""
"d3-animate-choice","73","428151","0.0-61.0-0.4","203","5224","12","Male","true","true","false","false","""event"",""trial"",""time""
""fullscreenenter"",""5"",""16937""
","
","
","""event"",""trial"",""time""
""fullscreenenter"",""5"",""16937""
","
","291.10000002384186","","49","","","3000","1","","","images/earth.jpg","images/tutrocket1","images/tutrocket2","null","images/tutrocket2","","1","practice","null","1","","",""
"d3-animate-choice","74","430181","0.0-61.0-1.4","203","5224","12","Male","true","true","false","false","""event"",""trial"",""time""
""fullscreenenter"",""5"",""16937""
","
","
","""event"",""trial"",""time""
""fullscreenenter"",""5"",""16937""
","
","19","","48","","","3000","1","355.30000001192093","48","images/tutyellowplanet.jpg","images/tutalien4","images/tutalien3","images/tutrocket2","images/tutalien4","images/nothing.png","2","practice","true","2","common","0","2022-12-12 23:51:39.528"
"two-step-fixation","75","431191","0.0-61.0-2.4","203","5224","12","Male","true","true","false","false","""event"",""trial"",""time""
""fullscreenenter"",""5"",""16937""
","
","
","""event"",""trial"",""time""
""fullscreenenter"",""5"",""16937""
","
","","images/earth.jpg","","","","","","","","","","","","","","fixation","","","","","",""
"d3-animate-choice","76","433903","0.0-61.0-0.5","203","5224","12","Male","true","true","false","false","""event"",""trial"",""time""
""fullscreenenter"",""5"",""16937""
","
","
","""event"",""trial"",""time""
""fullscreenenter"",""5"",""16937""
","
","434.90000000596046","","32","","","3000","1","706.9000000059605","49","images/earth.jpg","images/tutrocket1","images/tutrocket2","null","images/tutrocket2","","1","practice","null","","","",""
"d3-animate-choice","77","436342","0.0-61.0-1.5","203","5224","12","Male","true","true","false","false","""event"",""trial"",""time""
""fullscreenenter"",""5"",""16937""
","
","
","""event"",""trial"",""time""
""fullscreenenter"",""5"",""16937""
","
","435.5","","48","","","3000","1","","","images/tutyellowplanet.jpg","images/tutalien4","images/tutalien3","images/tutrocket2","images/tutalien4","images/t.png","2","practice","true","2","common","1","2022-12-12 23:51:45.689"
"two-step-fixation","78","437350","0.0-61.0-2.5","203","5224","12","Male","true","true","false","false","""event"",""trial"",""time""
""fullscreenenter"",""5"",""16937""
","
","
","""event"",""trial"",""time""
""fullscreenenter"",""5"",""16937""
","
","","images/earth.jpg","","","","","","","","","","","","","","fixation","","","","","",""
"d3-animate-choice","79","439678","0.0-61.0-0.6","203","5224","12","Male","true","true","false","false","""event"",""trial"",""time""
""fullscreenenter"",""5"",""16937""
","
","
","""event"",""trial"",""time""
""fullscreenenter"",""5"",""16937""
","
","323.10000002384186","","49","","","3000","1","","","images/earth.jpg","images/tutrocket1","images/tutrocket2","null","images/tutrocket2","","1","practice","null","1","","",""
"d3-animate-choice","80","442103","0.0-61.0-1.6","203","5224","12","Male","true","true","false","false","""event"",""trial"",""time""
""fullscreenenter"",""5"",""16937""
","
","
","""event"",""trial"",""time""
""fullscreenenter"",""5"",""16937""
","
","419.60000002384186","","48","","","3000","1","","","images/tutyellowplanet.jpg","images/tutalien4","images/tutalien3","images/tutrocket2","images/tutalien4","images/nothing.png","2","practice","true","2","common","0","2022-12-12 23:51:51.450"
"two-step-fixation","81","443111","0.0-61.0-2.6","203","5224","12","Male","true","true","false","false","""event"",""trial"",""time""
""fullscreenenter"",""5"",""16937""
","
","
","""event"",""trial"",""time""
""fullscreenenter"",""5"",""16937""
","
","","images/earth.jpg","","","","","","","","","","","","","","fixation","","","","","",""
"d3-animate-choice","82","445343","0.0-61.0-0.7","203","5224","12","Male","true","true","false","false","""event"",""trial"",""time""
""fullscreenenter"",""5"",""16937""
","
","
","""event"",""trial"",""time""
""fullscreenenter"",""5"",""16937""
","
","226.7000000178814","","49","","","3000","1","794.8000000119209,1026.9000000059605,1282.7000000178814,1570.9000000059605,1874.6000000238419","49,49,49,49,49","images/earth.jpg","images/tutrocket1","images/tutrocket2","null","images/tutrocket2","","1","practice","null","1","","",""
"d3-animate-choice","83","447719","0.0-61.0-1.7","203","5224","12","Male","true","true","false","false","""event"",""trial"",""time""
""fullscreenenter"",""5"",""16937""
","
","
","""event"",""trial"",""time""
""fullscreenenter"",""5"",""16937""
","
","371.09999999403954","","49","","","3000","1","","","images/tutyellowplanet.jpg","images/tutalien4","images/tutalien3","images/tutrocket2","images/tutalien3","images/t.png","2","practice","true","1","common","1","2022-12-12 23:51:57.066"
"two-step-fixation","84","448727","0.0-61.0-2.7","203","5224","12","Male","true","true","false","false","""event"",""trial"",""time""
""fullscreenenter"",""5"",""16937""
","
","
","""event"",""trial"",""time""
""fullscreenenter"",""5"",""16937""
","
","","images/earth.jpg","","","","","","","","","","","","","","fixation","","","","","",""
"d3-animate-choice","85","451004","0.0-61.0-0.8","203","5224","12","Male","true","true","false","false","""event"",""trial"",""time""
""fullscreenenter"",""5"",""16937""
","
","
","""event"",""trial"",""time""
""fullscreenenter"",""5"",""16937""
","
","258.2999999821186","","49","","","3000","1","","","images/earth.jpg","images/tutrocket1","images/tutrocket2","null","images/tutrocket2","","1","practice","null","1","","",""
"d3-animate-choice","86","453399","0.0-61.0-1.8","203","5224","12","Male","true","true","false","false","""event"",""trial"",""time""
""fullscreenenter"",""5"",""16937""
","
","
","""event"",""trial"",""time""
""fullscreenenter"",""5"",""16937""
","
","390.19999998807907","","49","","","3000","1","","","images/tutyellowplanet.jpg","images/tutalien4","images/tutalien3","images/tutrocket2","images/tutalien3","images/nothing.png","2","practice","true","1","common","0","2022-12-12 23:52:02.746"
"two-step-fixation","87","454407","0.0-61.0-2.8","203","5224","12","Male","true","true","false","false","""event"",""trial"",""time""
""fullscreenenter"",""5"",""16937""
","
","
","""event"",""trial"",""time""
""fullscreenenter"",""5"",""16937""
","
","","images/earth.jpg","","","","","","","","","","","","","","fixation","","","","","",""
"d3-animate-choice","88","456478","0.0-61.0-0.9","203","5224","12","Male","true","true","false","false","""event"",""trial"",""time""
""fullscreenenter"",""5"",""16937""
","
","
","""event"",""trial"",""time""
""fullscreenenter"",""5"",""16937""
","
","67.09999999403954","","49","","","3000","1","275.09999999403954,490.90000000596046,763.0999999940395","49,49,49","images/earth.jpg","images/tutrocket1","images/tutrocket2","null","images/tutrocket2","","1","practice","null","1","","",""
"d3-animate-choice","89","459007","0.0-61.0-1.9","203","5224","12","Male","true","true","false","false","""event"",""trial"",""time""
""fullscreenenter"",""5"",""16937""
","
","
","""event"",""trial"",""time""
""fullscreenenter"",""5"",""16937""
","
","523.4000000059605","","49","","","3000","1","","","images/tutyellowplanet.jpg","images/tutalien4","images/tutalien3","images/tutrocket2","images/tutalien3","images/nothing.png","2","practice","true","1","common","0","2022-12-12 23:52:08.354"
"two-step-fixation","90","460015","0.0-61.0-2.9","203","5224","12","Male","true","true","false","false","""event"",""trial"",""time""
""fullscreenenter"",""5"",""16937""
","
","
","""event"",""trial"",""time""
""fullscreenenter"",""5"",""16937""
","
","","images/earth.jpg","","","","","","","","","","","","","","fixation","","","","","",""
"d3-animate-choice","91","462050","0.0-61.0-0.10","203","5224","12","Male","true","true","false","false","""event"",""trial"",""time""
""fullscreenenter"",""5"",""16937""
","
","
","""event"",""trial"",""time""
""fullscreenenter"",""5"",""16937""
","
","26.80000001192093","","49","","","3000","1","362.80000001192093","49","images/earth.jpg","images/tutrocket1","images/tutrocket2","null","images/tutrocket2","","1","practice","null","1","","",""
"d3-animate-choice","92","464239","0.0-61.0-1.10","203","5224","12","Male","true","true","false","false","""event"",""trial"",""time""
""fullscreenenter"",""5"",""16937""
","
","
","""event"",""trial"",""time""
""fullscreenenter"",""5"",""16937""
","
","183.7999999821186","","49","","","3000","1","600.0999999940395,1248.0999999940395,1935.9000000059605","49,49,49","images/tutyellowplanet.jpg","images/tutalien4","images/tutalien3","images/tutrocket2","images/tutalien3","images/nothing.png","2","practice","true","1","common","0","2022-12-12 23:52:13.586"
"two-step-fixation","93","465241","0.0-61.0-2.10","203","5224","12","Male","true","true","false","false","""event"",""trial"",""time""
""fullscreenenter"",""5"",""16937""
","
","
","""event"",""trial"",""time""
""fullscreenenter"",""5"",""16937""
","
","","images/earth.jpg","","","","","","","","","","","","","","fixation","","","","","",""
"d3-animate-choice","94","467391","0.0-61.0-0.11","203","5224","12","Male","true","true","false","false","""event"",""trial"",""time""
""fullscreenenter"",""5"",""16937""
","
","
","""event"",""trial"",""time""
""fullscreenenter"",""5"",""16937""
","
","144.5","","49","","","3000","1","424.59999999403954,656.3000000119209,928.5,1368.0999999940395,1728.0999999940395,2071.9000000059605","49,49,49,49,49,49","images/earth.jpg","images/tutrocket1","images/tutrocket2","null","images/tutrocket2","","1","practice","null","1","","",""
"d3-animate-choice","95","469598","0.0-61.0-1.11","203","5224","12","Male","true","true","false","false","""event"",""trial"",""time""
""fullscreenenter"",""5"",""16937""
","
","
","""event"",""trial"",""time""
""fullscreenenter"",""5"",""16937""
","
","202.09999999403954","","49","","","3000","1","513.6999999880791,1706.5,1962.699999988079","49,49,49","images/tutyellowplanet.jpg","images/tutalien4","images/tutalien3","images/tutrocket2","images/tutalien3","images/nothing.png","2","practice","true","1","common","0","2022-12-12 23:52:18.945"
"two-step-fixation","96","470607","0.0-61.0-2.11","203","5224","12","Male","true","true","false","false","""event"",""trial"",""time""
""fullscreenenter"",""5"",""16937""
","
","
","""event"",""trial"",""time""
""fullscreenenter"",""5"",""16937""
","
","","images/earth.jpg","","","","","","","","","","","","","","fixation","","","","","",""
"d3-animate-choice","97","473343","0.0-61.0-0.12","203","5224","12","Male","true","true","false","false","""event"",""trial"",""time""
""fullscreenenter"",""5"",""16937""
","
","
","""event"",""trial"",""time""
""fullscreenenter"",""5"",""16937""
","
","731.4000000059605","","49","","","3000","1","1874.9000000059605,2179.2000000178814,2491.2000000178814","48,48,48","images/earth.jpg","images/tutrocket1","images/tutrocket2","null","images/tutrocket2","","1","practice","null","1","","",""
"d3-animate-choice","98","475399","0.0-61.0-1.12","203","5224","12","Male","true","true","false","false","""event"",""trial"",""time""
""fullscreenenter"",""5"",""16937""
","
","
","""event"",""trial"",""time""
""fullscreenenter"",""5"",""16937""
","
","51","","48","","","3000","1","","","images/tutgreenplanet.jpg","images/tutalien2","images/tutalien1","images/tutrocket2","images/tutalien2","images/nothing.png","2","practice","false","2","rare","0","2022-12-12 23:52:24.746"
"two-step-fixation","99","476407","0.0-61.0-2.12","203","5224","12","Male","true","true","false","false","""event"",""trial"",""time""
""fullscreenenter"",""5"",""16937""
","
","
","""event"",""trial"",""time""
""fullscreenenter"",""5"",""16937""
","
","","images/earth.jpg","","","","","","","","","","","","","","fixation","","","","","",""
"d3-animate-choice","100","478991","0.0-61.0-0.13","203","5224","12","Male","true","true","false","false","""event"",""trial"",""time""
""fullscreenenter"",""5"",""16937""
","
","
","""event"",""trial"",""time""
""fullscreenenter"",""5"",""16937""
","
","579.7000000178814","","48","","","3000","1","","","images/earth.jpg","images/tutrocket1","images/tutrocket2","null","images/tutrocket1","","1","practice","null","2","","",""
"d3-animate-choice","101","481093","0.0-61.0-1.13","203","5224","12","Male","true","true","false","false","""event"",""trial"",""time""
""fullscreenenter"",""5"",""16937""
","
","
","""event"",""trial"",""time""
""fullscreenenter"",""5"",""16937""
","
","98.30000001192093","","48","","","3000","1","426.90000000596046,778.9000000059605,1115,1411.0999999940395,1963","48,48,48,48,48","images/tutgreenplanet.jpg","images/tutalien2","images/tutalien1","images/tutrocket1","images/tutalien2","images/nothing.png","2","practice","true","2","common","0","2022-12-12 23:52:30.440"
"two-step-fixation","102","482103","0.0-61.0-2.13","203","5224","12","Male","true","true","false","false","""event"",""trial"",""time""
""fullscreenenter"",""5"",""16937""
","
","
","""event"",""trial"",""time""
""fullscreenenter"",""5"",""16937""
","
","","images/earth.jpg","","","","","","","","","","","","","","fixation","","","","","",""
"d3-animate-choice","103","484118","0.0-61.0-0.14","203","5224","12","Male","true","true","false","false","""event"",""trial"",""time""
""fullscreenenter"",""5"",""16937""
","
","
","""event"",""trial"",""time""
""fullscreenenter"",""5"",""16937""
","
","11.299999982118607","","48","","","3000","1","282.5","48","images/earth.jpg","images/tutrocket1","images/tutrocket2","null","images/tutrocket1","","1","practice","null","2","","",""
"d3-animate-choice","104","486486","0.0-61.0-1.14","203","5224","12","Male","true","true","false","false","""event"",""trial"",""time""
""fullscreenenter"",""5"",""16937""
","
","
","""event"",""trial"",""time""
""fullscreenenter"",""5"",""16937""
","
","363.40000000596046","","48","","","3000","1","","","images/tutyellowplanet.jpg","images/tutalien4","images/tutalien3","images/tutrocket1","images/tutalien4","images/nothing.png","2","practice","false","2","rare","0","2022-12-12 23:52:35.833"
"two-step-fixation","105","487491","0.0-61.0-2.14","203","5224","12","Male","true","true","false","false","""event"",""trial"",""time""
""fullscreenenter"",""5"",""16937""
","
","
","""event"",""trial"",""time""
""fullscreenenter"",""5"",""16937""
","
","","images/earth.jpg","","","","","","","","","","","","","","fixation","","","","","",""
"d3-animate-choice","106","489750","0.0-61.0-0.15","203","5224","12","Male","true","true","false","false","""event"",""trial"",""time""
""fullscreenenter"",""5"",""16937""
","
","
","""event"",""trial"",""time""
""fullscreenenter"",""5"",""16937""
","
","254.30000001192093","","49","","","3000","1","1453.9000000059605,1661.7000000178814,1917.7000000178814","48,48,48","images/earth.jpg","images/tutrocket1","images/tutrocket2","null","images/tutrocket2","","1","practice","null","1","","",""
"d3-animate-choice","107","492215","0.0-61.0-1.15","203","5224","12","Male","true","true","false","false","""event"",""trial"",""time""
""fullscreenenter"",""5"",""16937""
","
","
","""event"",""trial"",""time""
""fullscreenenter"",""5"",""16937""
","
","458.5","","49","","","3000","1","","","images/tutyellowplanet.jpg","images/tutalien4","images/tutalien3","images/tutrocket2","images/tutalien3","images/t.png","2","practice","true","1","common","1","2022-12-12 23:52:41.562"
"two-step-fixation","108","493217","0.0-61.0-2.15","203","5224","12","Male","true","true","false","false","""event"",""trial"",""time""
""fullscreenenter"",""5"",""16937""
","
","
","""event"",""trial"",""time""
""fullscreenenter"",""5"",""16937""
","
","","images/earth.jpg","","","","","","","","","","","","","","fixation","","","","","",""
"d3-animate-choice","109","495254","0.0-61.0-0.16","203","5224","12","Male","true","true","false","false","""event"",""trial"",""time""
""fullscreenenter"",""5"",""16937""
","
","
","""event"",""trial"",""time""
""fullscreenenter"",""5"",""16937""
","
","31.599999994039536","","49","","","3000","1","343.39999997615814,655.1999999880791,967.7999999821186,1263.5999999940395","49,49,49,49","images/earth.jpg","images/tutrocket1","images/tutrocket2","null","images/tutrocket2","","1","practice","null","1","","",""
"d3-animate-choice","110","497470","0.0-61.0-1.16","203","5224","12","Male","true","true","false","false","""event"",""trial"",""time""
""fullscreenenter"",""5"",""16937""
","
","
","""event"",""trial"",""time""
""fullscreenenter"",""5"",""16937""
","
","211.59999999403954","","49","","","3000","1","522.7999999821186,819.5999999940395,1099.5,1443.699999988079,1731.699999988079,2019.2999999821186","49,49,49,49,49,49","images/tutgreenplanet.jpg","images/tutalien2","images/tutalien1","images/tutrocket2","images/tutalien1","images/t.png","2","practice","false","1","rare","1","2022-12-12 23:52:46.817"
"two-step-fixation","111","498475","0.0-61.0-2.16","203","5224","12","Male","true","true","false","false","""event"",""trial"",""time""
""fullscreenenter"",""5"",""16937""
","
","
","""event"",""trial"",""time""
""fullscreenenter"",""5"",""16937""
","
","","images/earth.jpg","","","","","","","","","","","","","","fixation","","","","","",""
"d3-animate-choice","112","500582","0.0-61.0-0.17","203","5224","12","Male","true","true","false","false","""event"",""trial"",""time""
""fullscreenenter"",""5"",""16937""
","
","
","""event"",""trial"",""time""
""fullscreenenter"",""5"",""16937""
","
","102.59999999403954","","49","","","3000","1","430.39999997615814,1078.699999988079,1470.699999988079,1886.5999999940395","49,49,49,49","images/earth.jpg","images/tutrocket1","images/tutrocket2","null","images/tutrocket2","","1","practice","null","1","","",""
"d3-animate-choice","113","502847","0.0-61.0-1.17","203","5224","12","Male","true","true","false","false","""event"",""trial"",""time""
""fullscreenenter"",""5"",""16937""
","
","
","""event"",""trial"",""time""
""fullscreenenter"",""5"",""16937""
","
","259.40000000596046","","49","","","3000","1","635.5,1899.2000000178814,2179.4000000059605","49,49,49","images/tutyellowplanet.jpg","images/tutalien4","images/tutalien3","images/tutrocket2","images/tutalien3","images/nothing.png","2","practice","true","1","common","0","2022-12-12 23:52:52.194"
"two-step-fixation","114","503854","0.0-61.0-2.17","203","5224","12","Male","true","true","false","false","""event"",""trial"",""time""
""fullscreenenter"",""5"",""16937""
","
","
","""event"",""trial"",""time""
""fullscreenenter"",""5"",""16937""
","
","","images/earth.jpg","","","","","","","","","","","","","","fixation","","","","","",""
"d3-animate-choice","115","506286","0.0-61.0-0.18","203","5224","12","Male","true","true","false","false","""event"",""trial"",""time""
""fullscreenenter"",""5"",""16937""
","
","
","""event"",""trial"",""time""
""fullscreenenter"",""5"",""16937""
","
","426.90000000596046","","49","","","3000","1","731.1999999880791,1018.6999999880791,1291.0999999940395,1587.0999999940395,1875.0999999940395,2243.0999999940395","49,49,49,49,49,49","images/earth.jpg","images/tutrocket1","images/tutrocket2","null","images/tutrocket2","","1","practice","null","1","","",""
"d3-animate-choice","116","508991","0.0-61.0-1.18","203","5224","12","Male","true","true","false","false","""event"",""trial"",""time""
""fullscreenenter"",""5"",""16937""
","
","
","""event"",""trial"",""time""
""fullscreenenter"",""5"",""16937""
","
","699.6999999880791","","49","","","3000","1","1019.5999999940395,1371.5999999940395,1763.5,2099.5,2371.699999988079,2635.699999988079","49,49,49,49,49,49","images/tutgreenplanet.jpg","images/tutalien2","images/tutalien1","images/tutrocket2","images/tutalien1","images/t.png","2","practice","false","1","rare","1","2022-12-12 23:52:58.338"
"two-step-fixation","117","509998","0.0-61.0-2.18","203","5224","12","Male","true","true","false","false","""event"",""trial"",""time""
""fullscreenenter"",""5"",""16937""
","
","
","""event"",""trial"",""time""
""fullscreenenter"",""5"",""16937""
","
","","images/earth.jpg","","","","","","","","","","","","","","fixation","","","","","",""
"d3-animate-choice","118","512374","0.0-61.0-0.19","203","5224","12","Male","true","true","false","false","""event"",""trial"",""time""
""fullscreenenter"",""5"",""16937""
","
","
","""event"",""trial"",""time""
""fullscreenenter"",""5"",""16937""
","
","371.30000001192093","","49","","","3000","1","1539.300000011921,1867.2000000178814,2123.4000000059605","49,49,49","images/earth.jpg","images/tutrocket1","images/tutrocket2","null","images/tutrocket2","","1","practice","null","1","","",""
"d3-animate-choice","119","514414","0.0-61.0-1.19","203","5224","12","Male","true","true","false","false","""event"",""trial"",""time""
""fullscreenenter"",""5"",""16937""
","
","
","""event"",""trial"",""time""
""fullscreenenter"",""5"",""16937""
","
","35.69999998807907","","49","","","3000","1","315.59999999403954","49","images/tutgreenplanet.jpg","images/tutalien2","images/tutalien1","images/tutrocket2","images/tutalien1","images/nothing.png","2","practice","false","1","rare","0","2022-12-12 23:53:03.762"
"two-step-fixation","120","515422","0.0-61.0-2.19","203","5224","12","Male","true","true","false","false","""event"",""trial"",""time""
""fullscreenenter"",""5"",""16937""
","
","
","""event"",""trial"",""time""
""fullscreenenter"",""5"",""16937""
","
","","images/earth.jpg","","","","","","","","","","","","","","fixation","","","","","",""
"d3-instructions","121","522810","0.0-62.0","203","5224","12","Male","true","true","false","false","""event"",""trial"",""time""
""fullscreenenter"",""5"",""16937""
","
","
","""event"",""trial"",""time""
""fullscreenenter"",""5"",""16937""
","
","","","","","","","","","","","","","","","","","","","","","",""
"audio-keyboard-response","122","528666","0.0-63.0","203","5224","12","Male","true","true","false","false","""event"",""trial"",""time""
""fullscreenenter"",""5"",""16937""
","
","
","""event"",""trial"",""time""
""fullscreenenter"",""5"",""16937""
","
","5861","audio/instructions/treasure_feedback.wav","32","","","","","","","","","","","","","","","","","","",""
"d3-instructions","123","549075","0.0-64.0","203","5224","12","Male","true","true","false","false","""event"",""trial"",""time""
""fullscreenenter"",""5"",""16937""
","
","
","""event"",""trial"",""time""
""fullscreenenter"",""5"",""16937""
","
","","","","","","","","","","","","","","","","","","","","","",""
"d3-instructions","124","560459","0.0-65.0","203","5224","12","Male","true","true","false","false","""event"",""trial"",""time""
""fullscreenenter"",""5"",""16937""
","
","
","""event"",""trial"",""time""
""fullscreenenter"",""5"",""16937""
","
","","","","","","","","","","","","","","","","","","","","","",""
"d3-instructions","125","585507","0.0-66.0","203","5224","12","Male","true","true","false","false","""event"",""trial"",""time""
""fullscreenenter"",""5"",""16937""
","
","
","""event"",""trial"",""time""
""fullscreenenter"",""5"",""16937""
","
","","","","","","","","","","","","","","","","","","","","","",""
"d3-instructions","126","601091","0.0-67.0","203","5224","12","Male","true","true","false","false","""event"",""trial"",""time""
""fullscreenenter"",""5"",""16937""
","
","
","""event"",""trial"",""time""
""fullscreenenter"",""5"",""16937""
","
","","","","","","","","","","","","","","","","","","","","","",""
"d3-instructions","127","609363","0.0-68.0","203","5224","12","Male","true","true","false","false","""event"",""trial"",""time""
""fullscreenenter"",""5"",""16937""
","
","
","""event"",""trial"",""time""
""fullscreenenter"",""5"",""16937""
","
","","","","","","","","","","","","","","","","","","","","","",""
"instructions-quiz","128","612923","0.0-69.0","203","5224","12","Male","true","true","false","false","""event"",""trial"",""time""
""fullscreenenter"",""5"",""16937""
","
","
","""event"",""trial"",""time""
""fullscreenenter"",""5"",""16937""
","
","3558.600000023842","audio/quiz/Q1_Prompt.wav","","1","","","","","","","","","","","","","","","","","",""
"audio-keyboard-response","129","622084","0.0-70.0","203","5224","12","Male","true","true","false","false","""event"",""trial"",""time""
""fullscreenenter"",""5"",""16937""
","
","
","""event"",""trial"",""time""
""fullscreenenter"",""5"",""16937""
","
","null","audio/quiz/Q1_Correct.wav","null","","","","","","","","","","","","","","","","","","",""
"instructions-quiz","130","627411","0.0-71.0","203","5224","12","Male","true","true","false","false","""event"",""trial"",""time""
""fullscreenenter"",""5"",""16937""
","
","
","""event"",""trial"",""time""
""fullscreenenter"",""5"",""16937""
","
","5325.5999999940395","audio/quiz/Q2_Prompt.wav","","0","","","","","","","","","","","","","","","","","",""
"audio-keyboard-response","131","640275","0.0-72.0","203","5224","12","Male","true","true","false","false","""event"",""trial"",""time""
""fullscreenenter"",""5"",""16937""
","
","
","""event"",""trial"",""time""
""fullscreenenter"",""5"",""16937""
","
","null","audio/quiz/Q2_Correct.wav","null","","","","","","","","","","","","","","","","","","",""
"instructions-quiz","132","644851","0.0-73.0","203","5224","12","Male","true","true","false","false","""event"",""trial"",""time""
""fullscreenenter"",""5"",""16937""
","
","
","""event"",""trial"",""time""
""fullscreenenter"",""5"",""16937""
","
","4575.299999982119","audio/quiz/Q3_Prompt.wav","","1","","","","","","","","","","","","","","","","","",""
"audio-keyboard-response","133","650644","0.0-74.0","203","5224","12","Male","true","true","false","false","""event"",""trial"",""time""
""fullscreenenter"",""5"",""16937""
","
","
","""event"",""trial"",""time""
""fullscreenenter"",""5"",""16937""
","
","null","audio/quiz/Q3_Correct.wav","null","","","","","","","","","","","","","","","","","","",""
"d3-instructions","134","665859","0.0-75.0","203","5224","12","Male","true","true","false","false","""event"",""trial"",""time""
""fullscreenenter"",""5"",""16937""
","
","
","""event"",""trial"",""time""
""fullscreenenter"",""5"",""16937""
","
","","","","","","","","","","","","","","","","","","","","","",""
"d3-animate-choice","135","668870","0.0-76.0-0.0","203","5224","12","Male","true","true","false","false","""event"",""trial"",""time""
""fullscreenenter"",""5"",""16937""
","
","
","""event"",""trial"",""time""
""fullscreenenter"",""5"",""16937""
","
","1006.3000000119209","","49","","","3000","1","","","images/earth.jpg","images/rocket2","images/rocket1","null","images/rocket1","","1","real","null","1","","",""
"d3-animate-choice","136","671119","0.0-76.0-1.0","203","5224","12","Male","true","true","false","false","""event"",""trial"",""time""
""fullscreenenter"",""5"",""16937""
","
","
","""event"",""trial"",""time""
""fullscreenenter"",""5"",""16937""
","
","242.80000001192093","","49","","","3000","1","","","images/redplanet1.jpg","images/alien2","images/alien1","images/rocket1","images/alien1","images/nothing.png","2","real","true","1","common","0","2022-12-12 23:55:40.466"
"two-step-fixation","137","672128","0.0-76.0-2.0","203","5224","12","Male","true","true","false","false","""event"",""trial"",""time""
""fullscreenenter"",""5"",""16937""
","
","
","""event"",""trial"",""time""
""fullscreenenter"",""5"",""16937""
","
","","images/earth.jpg","","","","","","","","","","","","","","fixation","","","","","",""
"d3-animate-choice","138","674359","0.0-76.0-0.1","203","5224","12","Male","true","true","false","false","""event"",""trial"",""time""
""fullscreenenter"",""5"",""16937""
","
","
","""event"",""trial"",""time""
""fullscreenenter"",""5"",""16937""
","
","225.59999999403954","","49","","","3000","1","577.9000000059605","49","images/earth.jpg","images/rocket2","images/rocket1","null","images/rocket1","","1","real","null","1","","",""
"d3-animate-choice","139","676772","0.0-76.0-1.1","203","5224","12","Male","true","true","false","false","""event"",""trial"",""time""
""fullscreenenter"",""5"",""16937""
","
","
","""event"",""trial"",""time""
""fullscreenenter"",""5"",""16937""
","
","402.5","","49","","","3000","1","","","images/redplanet1.jpg","images/alien2","images/alien1","images/rocket1","images/alien1","images/nothing.png","2","real","true","1","common","0","2022-12-12 23:55:46.119"
"two-step-fixation","140","677779","0.0-76.0-2.1","203","5224","12","Male","true","true","false","false","""event"",""trial"",""time""
""fullscreenenter"",""5"",""16937""
","
","
","""event"",""trial"",""time""
""fullscreenenter"",""5"",""16937""
","
","","images/earth.jpg","","","","","","","","","","","","","","fixation","","","","","",""
"d3-animate-choice","141","681792","0.0-76.0-0.2","203","5224","12","Male","true","true","false","false","""event"",""trial"",""time""
""fullscreenenter"",""5"",""16937""
","
","
","""event"",""trial"",""time""
""fullscreenenter"",""5"",""16937""
","
","358.7000000178814","","32","","","3000","1","1014.3000000119209,2350","32,49","images/earth.jpg","images/rocket2","images/rocket1","null","images/rocket1","","1","real","null","","","",""
"d3-animate-choice","142","684046","0.0-76.0-1.2","203","5224","12","Male","true","true","false","false","""event"",""trial"",""time""
""fullscreenenter"",""5"",""16937""
","
","
","""event"",""trial"",""time""
""fullscreenenter"",""5"",""16937""
","
","234.60000002384186","","48","","","3000","1","801.8000000119209","48","images/redplanet1.jpg","images/alien2","images/alien1","images/rocket1","images/alien2","images/t.png","2","real","true","2","common","1","2022-12-12 23:55:53.393"
"two-step-fixation","143","685061","0.0-76.0-2.2","203","5224","12","Male","true","true","false","false","""event"",""trial"",""time""
""fullscreenenter"",""5"",""16937""
","
","
","""event"",""trial"",""time""
""fullscreenenter"",""5"",""16937""
","
","","images/earth.jpg","","","","","","","","","","","","","","fixation","","","","","",""
"d3-animate-choice","144","688503","0.0-76.0-0.3","203","5224","12","Male","true","true","false","false","""event"",""trial"",""time""
""fullscreenenter"",""5"",""16937""
","
","
","""event"",""trial"",""time""
""fullscreenenter"",""5"",""16937""
","
","1437.0999999940395","","49","","","3000","1","","","images/earth.jpg","images/rocket2","images/rocket1","null","images/rocket1","","1","real","null","1","","",""
"d3-animate-choice","145","691229","0.0-76.0-1.3","203","5224","12","Male","true","true","false","false","""event"",""trial"",""time""
""fullscreenenter"",""5"",""16937""
","
","
","""event"",""trial"",""time""
""fullscreenenter"",""5"",""16937""
","
","723.0999999940395","","48","","","3000","1","","","images/redplanet1.jpg","images/alien2","images/alien1","images/rocket1","images/alien2","images/nothing.png","2","real","true","2","common","0","2022-12-12 23:56:00.576"
"two-step-fixation","146","692239","0.0-76.0-2.3","203","5224","12","Male","true","true","false","false","""event"",""trial"",""time""
""fullscreenenter"",""5"",""16937""
","
","
","""event"",""trial"",""time""
""fullscreenenter"",""5"",""16937""
","
","","images/earth.jpg","","","","","","","","","","","","","","fixation","","","","","",""
"d3-animate-choice","147","694871","0.0-76.0-0.4","203","5224","12","Male","true","true","false","false","""event"",""trial"",""time""
""fullscreenenter"",""5"",""16937""
","
","
","""event"",""trial"",""time""
""fullscreenenter"",""5"",""16937""
","
","626.2000000178814","","48","","","3000","1","","","images/earth.jpg","images/rocket2","images/rocket1","null","images/rocket2","","1","real","null","2","","",""
"d3-animate-choice","148","696879","0.0-76.0-1.4","203","5224","12","Male","true","true","false","false","""event"",""trial"",""time""
""fullscreenenter"",""5"",""16937""
","
","
","""event"",""trial"",""time""
""fullscreenenter"",""5"",""16937""
","
","2.800000011920929","","48","","","3000","1","","","images/purpleplanet.jpg","images/alien4","images/alien3","images/rocket2","images/alien4","images/t.png","2","real","true","2","common","1","2022-12-12 23:56:06.226"
"two-step-fixation","149","697887","0.0-76.0-2.4","203","5224","12","Male","true","true","false","false","""event"",""trial"",""time""
""fullscreenenter"",""5"",""16937""
","
","
","""event"",""trial"",""time""
""fullscreenenter"",""5"",""16937""
","
","","images/earth.jpg","","","","","","","","","","","","","","fixation","","","","","",""
"d3-animate-choice","150","700062","0.0-76.0-0.5","203","5224","12","Male","true","true","false","false","""event"",""trial"",""time""
""fullscreenenter"",""5"",""16937""
","
","
","""event"",""trial"",""time""
""fullscreenenter"",""5"",""16937""
","
","170.60000002384186","","48","","","3000","1","562.5,906.8000000119209,1394.7000000178814,1762.300000011921,2122.800000011921","48,48,48,48,48","images/earth.jpg","images/rocket2","images/rocket1","null","images/rocket2","","1","real","null","2","","",""
"d3-animate-choice","151","702407","0.0-76.0-1.5","203","5224","12","Male","true","true","false","false","""event"",""trial"",""time""
""fullscreenenter"",""5"",""16937""
","
","
","""event"",""trial"",""time""
""fullscreenenter"",""5"",""16937""
","
","339.30000001192093","","48","","","3000","1","979.4000000059605,2274.800000011921","48,48","images/purpleplanet.jpg","images/alien4","images/alien3","images/rocket2","images/alien4","images/t.png","2","real","true","2","common","1","2022-12-12 23:56:11.754"
"two-step-fixation","152","703415","0.0-76.0-2.5","203","5224","12","Male","true","true","false","false","""event"",""trial"",""time""
""fullscreenenter"",""5"",""16937""
","
","
","""event"",""trial"",""time""
""fullscreenenter"",""5"",""16937""
","
","","images/earth.jpg","","","","","","","","","","","","","","fixation","","","","","",""
"d3-animate-choice","153","705807","0.0-76.0-0.6","203","5224","12","Male","true","true","false","false","""event"",""trial"",""time""
""fullscreenenter"",""5"",""16937""
","
","
","""event"",""trial"",""time""
""fullscreenenter"",""5"",""16937""
","
","386","","48","","","3000","1","1162.5,1506.5,1746.2999999821186,2106.2999999821186","48,48,48,48","images/earth.jpg","images/rocket2","images/rocket1","null","images/rocket2","","1","real","null","2","","",""
"d3-animate-choice","154","708007","0.0-76.0-1.6","203","5224","12","Male","true","true","false","false","""event"",""trial"",""time""
""fullscreenenter"",""5"",""16937""
","
","
","""event"",""trial"",""time""
""fullscreenenter"",""5"",""16937""
","
","194.90000000596046","","48","","","3000","1","594.1000000238419,938.3000000119209,1322.4000000059605,1714.6000000238419,2066.600000023842","48,48,48,48,48","images/redplanet1.jpg","images/alien2","images/alien1","images/rocket2","images/alien2","images/t.png","2","real","false","2","rare","1","2022-12-12 23:56:17.354"
"two-step-fixation","155","709022","0.0-76.0-2.6","203","5224","12","Male","true","true","false","false","""event"",""trial"",""time""
""fullscreenenter"",""5"",""16937""
","
","
","""event"",""trial"",""time""
""fullscreenenter"",""5"",""16937""
","
","","images/earth.jpg","","","","","","","","","","","","","","fixation","","","","","",""
"d3-animate-choice","156","711071","0.0-76.0-0.7","203","5224","12","Male","true","true","false","false","""event"",""trial"",""time""
""fullscreenenter"",""5"",""16937""
","
","
","""event"",""trial"",""time""
""fullscreenenter"",""5"",""16937""
","
","44.099999994039536","","48","","","3000","1","604.3999999761581,1163.699999988079","48,48","images/earth.jpg","images/rocket2","images/rocket1","null","images/rocket2","","1","real","null","2","","",""
"d3-animate-choice","157","713127","0.0-76.0-1.7","203","5224","12","Male","true","true","false","false","""event"",""trial"",""time""
""fullscreenenter"",""5"",""16937""
","
","
","""event"",""trial"",""time""
""fullscreenenter"",""5"",""16937""
","
","50.79999998211861","","48","","","3000","1","825.6999999880791","48","images/purpleplanet.jpg","images/alien4","images/alien3","images/rocket2","images/alien4","images/t.png","2","real","true","2","common","1","2022-12-12 23:56:22.474"
"two-step-fixation","158","714135","0.0-76.0-2.7","203","5224","12","Male","true","true","false","false","""event"",""trial"",""time""
""fullscreenenter"",""5"",""16937""
","
","
","""event"",""trial"",""time""
""fullscreenenter"",""5"",""16937""
","
","","images/earth.jpg","","","","","","","","","","","","","","fixation","","","","","",""
"d3-animate-choice","159","716463","0.0-76.0-0.8","203","5224","12","Male","true","true","false","false","""event"",""trial"",""time""
""fullscreenenter"",""5"",""16937""
","
","
","""event"",""trial"",""time""
""fullscreenenter"",""5"",""16937""
","
","322.90000000596046","","48","","","3000","1","882.8000000119209,1426.4000000059605,1778.5999999940395,2082.800000011921","48,48,48,48","images/earth.jpg","images/rocket2","images/rocket1","null","images/rocket2","","1","real","null","2","","",""
"d3-animate-choice","160","718543","0.0-76.0-1.8","203","5224","12","Male","true","true","false","false","""event"",""trial"",""time""
""fullscreenenter"",""5"",""16937""
","
","
","""event"",""trial"",""time""
""fullscreenenter"",""5"",""16937""
","
","74.69999998807907","","48","","","3000","1","466.5,1066.5999999940395,1458.9000000059605,1850.699999988079","48,48,48,48","images/purpleplanet.jpg","images/alien4","images/alien3","images/rocket2","images/alien4","images/nothing.png","2","real","true","2","common","0","2022-12-12 23:56:27.890"
"two-step-fixation","161","719546","0.0-76.0-2.8","203","5224","12","Male","true","true","false","false","""event"",""trial"",""time""
""fullscreenenter"",""5"",""16937""
","
","
","""event"",""trial"",""time""
""fullscreenenter"",""5"",""16937""
","
","","images/earth.jpg","","","","","","","","","","","","","","fixation","","","","","",""
"d3-animate-choice","162","721640","0.0-76.0-0.9","203","5224","12","Male","true","true","false","false","""event"",""trial"",""time""
""fullscreenenter"",""5"",""16937""
","
","
","""event"",""trial"",""time""
""fullscreenenter"",""5"",""16937""
","
","87.30000001192093","","48","","","3000","1","455.30000001192093,687.0999999940395,951.0999999940395,1447.0999999940395,1975.300000011921","48,48,48,48,48","images/earth.jpg","images/rocket2","images/rocket1","null","images/rocket2","","1","real","null","2","","",""
"d3-animate-choice","163","723763","0.0-76.0-1.9","203","5224","12","Male","true","true","false","false","""event"",""trial"",""time""
""fullscreenenter"",""5"",""16937""
","
","
","""event"",""trial"",""time""
""fullscreenenter"",""5"",""16937""
","
","121.80000001192093","","48","","","3000","1","370,738.2000000178814,986.2000000178814,1210.300000011921,1442,1698.1000000238419,1882.2000000178814,2097.7000000178814","48,48,48,48,48,48,48,48","images/purpleplanet.jpg","images/alien4","images/alien3","images/rocket2","images/alien4","images/nothing.png","2","real","true","2","common","0","2022-12-12 23:56:33.110"
"two-step-fixation","164","724766","0.0-76.0-2.9","203","5224","12","Male","true","true","false","false","""event"",""trial"",""time""
""fullscreenenter"",""5"",""16937""
","
","
","""event"",""trial"",""time""
""fullscreenenter"",""5"",""16937""
","
","","images/earth.jpg","","","","","","","","","","","","","","fixation","","","","","",""
"d3-animate-choice","165","726911","0.0-76.0-0.10","203","5224","12","Male","true","true","false","false","""event"",""trial"",""time""
""fullscreenenter"",""5"",""16937""
","
","
","""event"",""trial"",""time""
""fullscreenenter"",""5"",""16937""
","
","139.2999999821186","","48","","","3000","1","371.5,603.5,843.5,1091.5,1323.4000000059605,1531.5,1731.4000000059605,1963","48,48,48,48,48,48,48,48","images/earth.jpg","images/rocket2","images/rocket1","null","images/rocket2","","1","real","null","2","","",""
"d3-animate-choice","166","728967","0.0-76.0-1.10","203","5224","12","Male","true","true","false","false","""event"",""trial"",""time""
""fullscreenenter"",""5"",""16937""
","
","
","""event"",""trial"",""time""
""fullscreenenter"",""5"",""16937""
","
","51.10000002384186","","48","","","3000","1","275.10000002384186,515.3000000119209,763.3000000119209,1243.1000000238419,1475.300000011921,1699.2000000178814,1938.9000000059605","48,48,48,48,48,48,48","images/redplanet1.jpg","images/alien2","images/alien1","images/rocket2","images/alien2","images/nothing.png","2","real","false","2","rare","0","2022-12-12 23:56:38.314"
"two-step-fixation","167","729976","0.0-76.0-2.10","203","5224","12","Male","true","true","false","false","""event"",""trial"",""time""
""fullscreenenter"",""5"",""16937""
","
","
","""event"",""trial"",""time""
""fullscreenenter"",""5"",""16937""
","
","","images/earth.jpg","","","","","","","","","","","","","","fixation","","","","","",""
"d3-animate-choice","168","732055","0.0-76.0-0.11","203","5224","12","Male","true","true","false","false","""event"",""trial"",""time""
""fullscreenenter"",""5"",""16937""
","
","
","""event"",""trial"",""time""
""fullscreenenter"",""5"",""16937""
","
","74.5","","48","","","3000","1","282.30000001192093,490.40000000596046,1266","48,48,48","images/earth.jpg","images/rocket2","images/rocket1","null","images/rocket2","","1","real","null","2","","",""
"d3-animate-choice","169","735095","0.0-76.0-1.11","203","5224","12","Male","true","true","false","false","""event"",""trial"",""time""
""fullscreenenter"",""5"",""16937""
","
","
","""event"",""trial"",""time""
""fullscreenenter"",""5"",""16937""
","
","1034.8999999761581","","48","","","3000","1","3026.899999976158","48","images/redplanet1.jpg","images/alien2","images/alien1","images/rocket2","images/alien2","images/t.png","2","real","false","2","rare","1","2022-12-12 23:56:44.442"
"two-step-fixation","170","736098","0.0-76.0-2.11","203","5224","12","Male","true","true","false","false","""event"",""trial"",""time""
""fullscreenenter"",""5"",""16937""
","
","
","""event"",""trial"",""time""
""fullscreenenter"",""5"",""16937""
","
","","images/earth.jpg","","","","","","","","","","","","","","fixation","","","","","",""
"d3-animate-choice","171","738143","0.0-76.0-0.12","203","5224","12","Male","true","true","false","false","""event"",""trial"",""time""
""fullscreenenter"",""5"",""16937""
","
","
","""event"",""trial"",""time""
""fullscreenenter"",""5"",""16937""
","
","39.60000002384186","","48","","","3000","1","","","images/earth.jpg","images/rocket2","images/rocket1","null","images/rocket2","","1","real","null","2","","",""
"d3-animate-choice","172","740511","0.0-76.0-1.12","203","5224","12","Male","true","true","false","false","""event"",""trial"",""time""
""fullscreenenter"",""5"",""16937""
","
","
","""event"",""trial"",""time""
""fullscreenenter"",""5"",""16937""
","
","362.59999999403954","","48","","","3000","1","386.19999998807907","73","images/redplanet1.jpg","images/alien2","images/alien1","images/rocket2","images/alien2","images/nothing.png","2","real","false","2","rare","0","2022-12-12 23:56:49.858"
"two-step-fixation","173","741514","0.0-76.0-2.12","203","5224","12","Male","true","true","false","false","""event"",""trial"",""time""
""fullscreenenter"",""5"",""16937""
","
","
","""event"",""trial"",""time""
""fullscreenenter"",""5"",""16937""
","
","","images/earth.jpg","","","","","","","","","","","","","","fixation","","","","","",""
"d3-animate-choice","174","744063","0.0-76.0-0.13","203","5224","12","Male","true","true","false","false","""event"",""trial"",""time""
""fullscreenenter"",""5"",""16937""
","
","
","""event"",""trial"",""time""
""fullscreenenter"",""5"",""16937""
","
","544.4000000059605","","49","","","3000","1","","","images/earth.jpg","images/rocket2","images/rocket1","null","images/rocket1","","1","real","null","1","","",""
"d3-animate-choice","175","746734","0.0-76.0-1.13","203","5224","12","Male","true","true","false","false","""event"",""trial"",""time""
""fullscreenenter"",""5"",""16937""
","
","
","""event"",""trial"",""time""
""fullscreenenter"",""5"",""16937""
","
","658.8999999761581","","48","","","3000","1","","","images/redplanet1.jpg","images/alien2","images/alien1","images/rocket1","images/alien2","images/t.png","2","real","true","2","common","1","2022-12-12 23:56:56.081"
"two-step-fixation","176","747743","0.0-76.0-2.13","203","5224","12","Male","true","true","false","false","""event"",""trial"",""time""
""fullscreenenter"",""5"",""16937""
","
","
","""event"",""trial"",""time""
""fullscreenenter"",""5"",""16937""
","
","","images/earth.jpg","","","","","","","","","","","","","","fixation","","","","","",""
"d3-animate-choice","177","749935","0.0-76.0-0.14","203","5224","12","Male","true","true","false","false","""event"",""trial"",""time""
""fullscreenenter"",""5"",""16937""
","
","
","""event"",""trial"",""time""
""fullscreenenter"",""5"",""16937""
","
","186.30000001192093","","48","","","3000","1","","","images/earth.jpg","images/rocket2","images/rocket1","null","images/rocket2","","1","real","null","2","","",""
"d3-animate-choice","178","753607","0.0-76.0-1.14","203","5224","12","Male","true","true","false","false","""event"",""trial"",""time""
""fullscreenenter"",""5"",""16937""
","
","
","""event"",""trial"",""time""
""fullscreenenter"",""5"",""16937""
","
","1666.8999999761581","","48","","","3000","1","3098.7999999821186","48","images/purpleplanet.jpg","images/alien4","images/alien3","images/rocket2","images/alien4","images/t.png","2","real","true","2","common","1","2022-12-12 23:57:02.954"
"two-step-fixation","179","754614","0.0-76.0-2.14","203","5224","12","Male","true","true","false","false","""event"",""trial"",""time""
""fullscreenenter"",""5"",""16937""
","
","
","""event"",""trial"",""time""
""fullscreenenter"",""5"",""16937""
","
","","images/earth.jpg","","","","","","","","","","","","","","fixation","","","","","",""
"d3-animate-choice","180","756759","0.0-76.0-0.15","203","5224","12","Male","true","true","false","false","""event"",""trial"",""time""
""fullscreenenter"",""5"",""16937""
","
","
","""event"",""trial"",""time""
""fullscreenenter"",""5"",""16937""
","
","139.09999999403954","","48","","","3000","1","507,1419.2999999821186,1682.699999988079,1986.8999999761581","48,48,48,48","images/earth.jpg","images/rocket2","images/rocket1","null","images/rocket2","","1","real","null","2","","",""
"d3-animate-choice","181","759503","0.0-76.0-1.15","203","5224","12","Male","true","true","false","false","""event"",""trial"",""time""
""fullscreenenter"",""5"",""16937""
","
","
","""event"",""trial"",""time""
""fullscreenenter"",""5"",""16937""
","
","738.7000000178814","","48","","","3000","1","1203.300000011921,1603.4000000059605,1987,2683.300000011921","48,48,48,48","images/purpleplanet.jpg","images/alien4","images/alien3","images/rocket2","images/alien4","images/t.png","2","real","true","2","common","1","2022-12-12 23:57:08.851"
"two-step-fixation","182","760511","0.0-76.0-2.15","203","5224","12","Male","true","true","false","false","""event"",""trial"",""time""
""fullscreenenter"",""5"",""16937""
","
","
","""event"",""trial"",""time""
""fullscreenenter"",""5"",""16937""
","
","","images/earth.jpg","","","","","","","","","","","","","","fixation","","","","","",""
"d3-animate-choice","183","762575","0.0-76.0-0.16","203","5224","12","Male","true","true","false","false","""event"",""trial"",""time""
""fullscreenenter"",""5"",""16937""
","
","
","""event"",""trial"",""time""
""fullscreenenter"",""5"",""16937""
","
","58.900000005960464","","48","","","3000","1","434.90000000596046,858.9000000059605,1082.5999999940395,1275.0999999940395,1482.4000000059605,1706.9000000059605","48,48,48,48,48,48","images/earth.jpg","images/rocket2","images/rocket1","null","images/rocket2","","1","real","null","2","","",""
"d3-animate-choice","184","764614","0.0-76.0-1.16","203","5224","12","Male","true","true","false","false","""event"",""trial"",""time""
""fullscreenenter"",""5"",""16937""
","
","
","""event"",""trial"",""time""
""fullscreenenter"",""5"",""16937""
","
","34.400000005960464","","48","","","3000","1","562.6000000238419,778.5,1114.5,1330.7000000178814,1762.6000000238419","48,48,48,48,48","images/purpleplanet.jpg","images/alien4","images/alien3","images/rocket2","images/alien4","images/t.png","2","real","true","2","common","1","2022-12-12 23:57:13.961"
"two-step-fixation","185","765622","0.0-76.0-2.16","203","5224","12","Male","true","true","false","false","""event"",""trial"",""time""
""fullscreenenter"",""5"",""16937""
","
","
","""event"",""trial"",""time""
""fullscreenenter"",""5"",""16937""
","
","","images/earth.jpg","","","","","","","","","","","","","","fixation","","","","","",""
"d3-animate-choice","186","767734","0.0-76.0-0.17","203","5224","12","Male","true","true","false","false","""event"",""trial"",""time""
""fullscreenenter"",""5"",""16937""
","
","
","""event"",""trial"",""time""
""fullscreenenter"",""5"",""16937""
","
","107.30000001192093","","48","","","3000","1","435.09999999403954,923.3000000119209,1699.4000000059605,1955.199999988079","48,48,48,48","images/earth.jpg","images/rocket2","images/rocket1","null","images/rocket2","","1","real","null","2","","",""
"d3-animate-choice","187","769807","0.0-76.0-1.17","203","5224","12","Male","true","true","false","false","""event"",""trial"",""time""
""fullscreenenter"",""5"",""16937""
","
","
","""event"",""trial"",""time""
""fullscreenenter"",""5"",""16937""
","
","67.2000000178814","","48","","","3000","1","627.4000000059605,771.3000000119209","48,48","images/purpleplanet.jpg","images/alien4","images/alien3","images/rocket2","images/alien4","images/nothing.png","2","real","true","2","common","0","2022-12-12 23:57:19.154"
"two-step-fixation","188","770815","0.0-76.0-2.17","203","5224","12","Male","true","true","false","false","""event"",""trial"",""time""
""fullscreenenter"",""5"",""16937""
","
","
","""event"",""trial"",""time""
""fullscreenenter"",""5"",""16937""
","
","","images/earth.jpg","","","","","","","","","","","","","","fixation","","","","","",""
"d3-animate-choice","189","773014","0.0-76.0-0.18","203","5224","12","Male","true","true","false","false","""event"",""trial"",""time""
""fullscreenenter"",""5"",""16937""
","
","
","""event"",""trial"",""time""
""fullscreenenter"",""5"",""16937""
","
","194.5","","48","","","3000","1","1434.7000000178814,1706.6000000238419,2050.4000000059605","49,49,49","images/earth.jpg","images/rocket2","images/rocket1","null","images/rocket2","","1","real","null","2","","",""
"d3-animate-choice","190","775111","0.0-76.0-1.18","203","5224","12","Male","true","true","false","false","""event"",""trial"",""time""
""fullscreenenter"",""5"",""16937""
","
","
","""event"",""trial"",""time""
""fullscreenenter"",""5"",""16937""
","
","91.09999999403954","","49","","","3000","1","443.5,907.5999999940395,1387.4000000059605,1715.2999999821186,2082.699999988079","49,49,49,49,49","images/purpleplanet.jpg","images/alien4","images/alien3","images/rocket2","images/alien3","images/nothing.png","2","real","true","1","common","0","2022-12-12 23:57:24.458"
"two-step-fixation","191","776118","0.0-76.0-2.18","203","5224","12","Male","true","true","false","false","""event"",""trial"",""time""
""fullscreenenter"",""5"",""16937""
","
","
","""event"",""trial"",""time""
""fullscreenenter"",""5"",""16937""
","
","","images/earth.jpg","","","","","","","","","","","","","","fixation","","","","","",""
"d3-animate-choice","192","778207","0.0-76.0-0.19","203","5224","12","Male","true","true","false","false","""event"",""trial"",""time""
""fullscreenenter"",""5"",""16937""
","
","
","""event"",""trial"",""time""
""fullscreenenter"",""5"",""16937""
","
","83.80000001192093","","49","","","3000","1","1786.9000000059605,2035","48,48","images/earth.jpg","images/rocket2","images/rocket1","null","images/rocket1","","1","real","null","1","","",""
"d3-animate-choice","193","780447","0.0-76.0-1.19","203","5224","12","Male","true","true","false","false","""event"",""trial"",""time""
""fullscreenenter"",""5"",""16937""
","
","
","""event"",""trial"",""time""
""fullscreenenter"",""5"",""16937""
","
","233.09999999403954","","48","","","3000","1","769.5","48","images/redplanet1.jpg","images/alien2","images/alien1","images/rocket1","images/alien2","images/t.png","2","real","true","2","common","1","2022-12-12 23:57:29.794"
"two-step-fixation","194","781455","0.0-76.0-2.19","203","5224","12","Male","true","true","false","false","""event"",""trial"",""time""
""fullscreenenter"",""5"",""16937""
","
","
","""event"",""trial"",""time""
""fullscreenenter"",""5"",""16937""
","
","","images/earth.jpg","","","","","","","","","","","","","","fixation","","","","","",""
"d3-animate-choice","195","783582","0.0-76.0-0.20","203","5224","12","Male","true","true","false","false","""event"",""trial"",""time""
""fullscreenenter"",""5"",""16937""
","
","
","""event"",""trial"",""time""
""fullscreenenter"",""5"",""16937""
","
","122.80000001192093","","49","","","3000","1","1434.9000000059605,1986.6000000238419","48,48","images/earth.jpg","images/rocket2","images/rocket1","null","images/rocket1","","1","real","null","1","","",""
"d3-animate-choice","196","786270","0.0-76.0-1.20","203","5224","12","Male","true","true","false","false","""event"",""trial"",""time""
""fullscreenenter"",""5"",""16937""
","
","
","""event"",""trial"",""time""
""fullscreenenter"",""5"",""16937""
","
","684.0999999940395","","48","","","3000","1","","","images/redplanet1.jpg","images/alien2","images/alien1","images/rocket1","images/alien2","images/t.png","2","real","true","2","common","1","2022-12-12 23:57:35.618"
"two-step-fixation","197","787279","0.0-76.0-2.20","203","5224","12","Male","true","true","false","false","""event"",""trial"",""time""
""fullscreenenter"",""5"",""16937""
","
","
","""event"",""trial"",""time""
""fullscreenenter"",""5"",""16937""
","
","","images/earth.jpg","","","","","","","","","","","","","","fixation","","","","","",""
"d3-animate-choice","198","789359","0.0-76.0-0.21","203","5224","12","Male","true","true","false","false","""event"",""trial"",""time""
""fullscreenenter"",""5"",""16937""
","
","
","""event"",""trial"",""time""
""fullscreenenter"",""5"",""16937""
","
","75.09999999403954","","49","","","3000","1","323.09999999403954,1843.2999999821186","48,48","images/earth.jpg","images/rocket2","images/rocket1","null","images/rocket1","","1","real","null","1","","",""
"d3-animate-choice","199","791381","0.0-76.0-1.21","203","5224","12","Male","true","true","false","false","""event"",""trial"",""time""
""fullscreenenter"",""5"",""16937""
","
","
","""event"",""trial"",""time""
""fullscreenenter"",""5"",""16937""
","
","17.700000017881393","","48","","","3000","1","282.2000000178814,665.5999999940395,1610.300000011921","48,48,48","images/redplanet1.jpg","images/alien2","images/alien1","images/rocket1","images/alien2","images/t.png","2","real","true","2","common","1","2022-12-12 23:57:40.728"
"two-step-fixation","200","792390","0.0-76.0-2.21","203","5224","12","Male","true","true","false","false","""event"",""trial"",""time""
""fullscreenenter"",""5"",""16937""
","
","
","""event"",""trial"",""time""
""fullscreenenter"",""5"",""16937""
","
","","images/earth.jpg","","","","","","","","","","","","","","fixation","","","","","",""
"d3-animate-choice","201","794735","0.0-76.0-0.22","203","5224","12","Male","true","true","false","false","""event"",""trial"",""time""
""fullscreenenter"",""5"",""16937""
","
","
","""event"",""trial"",""time""
""fullscreenenter"",""5"",""16937""
","
","339.40000000596046","","49","","","3000","1","675.4000000059605,1139.4000000059605,1691.5,2290.800000011921","49,49,49,48","images/earth.jpg","images/rocket2","images/rocket1","null","images/rocket1","","1","real","null","1","","",""
"d3-animate-choice","202","797430","0.0-76.0-1.22","203","5224","12","Male","true","true","false","false","""event"",""trial"",""time""
""fullscreenenter"",""5"",""16937""
","
","
","""event"",""trial"",""time""
""fullscreenenter"",""5"",""16937""
","
","690.2999999821186","","48","","","3000","1","946.5","45","images/redplanet1.jpg","images/alien2","images/alien1","images/rocket1","images/alien2","images/nothing.png","2","real","true","2","common","0","2022-12-12 23:57:46.777"
"two-step-fixation","203","798438","0.0-76.0-2.22","203","5224","12","Male","true","true","false","false","""event"",""trial"",""time""
""fullscreenenter"",""5"",""16937""
","
","
","""event"",""trial"",""time""
""fullscreenenter"",""5"",""16937""
","
","","images/earth.jpg","","","","","","","","","","","","","","fixation","","","","","",""
"d3-animate-choice","204","801247","0.0-76.0-0.23","203","5224","12","Male","true","true","false","false","""event"",""trial"",""time""
""fullscreenenter"",""5"",""16937""
","
","
","""event"",""trial"",""time""
""fullscreenenter"",""5"",""16937""
","
","802.5999999940395","","49","","","3000","1","2347.4000000059605","48","images/earth.jpg","images/rocket2","images/rocket1","null","images/rocket1","","1","real","null","1","","",""
"d3-animate-choice","205","803462","0.0-76.0-1.23","203","5224","12","Male","true","true","false","false","""event"",""trial"",""time""
""fullscreenenter"",""5"",""16937""
","
","
","""event"",""trial"",""time""
""fullscreenenter"",""5"",""16937""
","
","210.7999999821186","","48","","","3000","1","546.6999999880791","48","images/redplanet1.jpg","images/alien2","images/alien1","images/rocket1","images/alien2","images/t.png","2","real","true","2","common","1","2022-12-12 23:57:52.809"
"two-step-fixation","206","804466","0.0-76.0-2.23","203","5224","12","Male","true","true","false","false","""event"",""trial"",""time""
""fullscreenenter"",""5"",""16937""
","
","
","""event"",""trial"",""time""
""fullscreenenter"",""5"",""16937""
","
","","images/earth.jpg","","","","","","","","","","","","","","fixation","","","","","",""
"d3-animate-choice","207","806766","0.0-76.0-0.24","203","5224","12","Male","true","true","false","false","""event"",""trial"",""time""
""fullscreenenter"",""5"",""16937""
","
","
","""event"",""trial"",""time""
""fullscreenenter"",""5"",""16937""
","
","296","","49","","","3000","1","","","images/earth.jpg","images/rocket2","images/rocket1","null","images/rocket1","","1","real","null","1","","",""
"d3-animate-choice","208","809143","0.0-76.0-1.24","203","5224","12","Male","true","true","false","false","""event"",""trial"",""time""
""fullscreenenter"",""5"",""16937""
","
","
","""event"",""trial"",""time""
""fullscreenenter"",""5"",""16937""
","
","372.30000001192093","","48","","","3000","1","","","images/redplanet1.jpg","images/alien2","images/alien1","images/rocket1","images/alien2","images/t.png","2","real","true","2","common","1","2022-12-12 23:57:58.490"
"two-step-fixation","209","810149","0.0-76.0-2.24","203","5224","12","Male","true","true","false","false","""event"",""trial"",""time""
""fullscreenenter"",""5"",""16937""
","
","
","""event"",""trial"",""time""
""fullscreenenter"",""5"",""16937""
","
","","images/earth.jpg","","","","","","","","","","","","","","fixation","","","","","",""
"d3-animate-choice","210","813302","0.0-76.0-0.25","203","5224","12","Male","true","true","false","false","""event"",""trial"",""time""
""fullscreenenter"",""5"",""16937""
","
","
","""event"",""trial"",""time""
""fullscreenenter"",""5"",""16937""
","
","285.2000000178814","","45","","","3000","1","564.3000000119209,1149.1000000238419","45,49","images/earth.jpg","images/rocket2","images/rocket1","null","images/rocket1","","1","real","null","","","",""
"d3-animate-choice","211","815519","0.0-76.0-1.25","203","5224","12","Male","true","true","false","false","""event"",""trial"",""time""
""fullscreenenter"",""5"",""16937""
","
","
","""event"",""trial"",""time""
""fullscreenenter"",""5"",""16937""
","
","211.7000000178814","","48","","","3000","1","","","images/redplanet1.jpg","images/alien2","images/alien1","images/rocket1","images/alien2","images/t.png","2","real","true","2","common","1","2022-12-12 23:58:04.866"
"two-step-fixation","212","816527","0.0-76.0-2.25","203","5224","12","Male","true","true","false","false","""event"",""trial"",""time""
""fullscreenenter"",""5"",""16937""
","
","
","""event"",""trial"",""time""
""fullscreenenter"",""5"",""16937""
","
","","images/earth.jpg","","","","","","","","","","","","","","fixation","","","","","",""
"d3-animate-choice","213","818775","0.0-76.0-0.26","203","5224","12","Male","true","true","false","false","""event"",""trial"",""time""
""fullscreenenter"",""5"",""16937""
","
","
","""event"",""trial"",""time""
""fullscreenenter"",""5"",""16937""
","
","242.69999998807907","","49","","","3000","1","","","images/earth.jpg","images/rocket2","images/rocket1","null","images/rocket1","","1","real","null","1","","",""
"d3-animate-choice","214","821015","0.0-76.0-1.26","203","5224","12","Male","true","true","false","false","""event"",""trial"",""time""
""fullscreenenter"",""5"",""16937""
","
","
","""event"",""trial"",""time""
""fullscreenenter"",""5"",""16937""
","
","234.40000000596046","","48","","","3000","1","","","images/purpleplanet.jpg","images/alien4","images/alien3","images/rocket1","images/alien4","images/nothing.png","2","real","false","2","rare","0","2022-12-12 23:58:10.362"
"two-step-fixation","215","822023","0.0-76.0-2.26","203","5224","12","Male","true","true","false","false","""event"",""trial"",""time""
""fullscreenenter"",""5"",""16937""
","
","
","""event"",""trial"",""time""
""fullscreenenter"",""5"",""16937""
","
","","images/earth.jpg","","","","","","","","","","","","","","fixation","","","","","",""
"d3-animate-choice","216","824095","0.0-76.0-0.27","203","5224","12","Male","true","true","false","false","""event"",""trial"",""time""
""fullscreenenter"",""5"",""16937""
","
","
","""event"",""trial"",""time""
""fullscreenenter"",""5"",""16937""
","
","66.59999999403954","","49","","","3000","1","","","images/earth.jpg","images/rocket2","images/rocket1","null","images/rocket1","","1","real","null","1","","",""
"d3-animate-choice","217","826166","0.0-76.0-1.27","203","5224","12","Male","true","true","false","false","""event"",""trial"",""time""
""fullscreenenter"",""5"",""16937""
","
","
","""event"",""trial"",""time""
""fullscreenenter"",""5"",""16937""
","
","66.90000000596046","","48","","","3000","1","","","images/redplanet1.jpg","images/alien2","images/alien1","images/rocket1","images/alien2","images/t.png","2","real","true","2","common","1","2022-12-12 23:58:15.513"
"two-step-fixation","218","827175","0.0-76.0-2.27","203","5224","12","Male","true","true","false","false","""event"",""trial"",""time""
""fullscreenenter"",""5"",""16937""
","
","
","""event"",""trial"",""time""
""fullscreenenter"",""5"",""16937""
","
","","images/earth.jpg","","","","","","","","","","","","","","fixation","","","","","",""
"d3-animate-choice","219","829375","0.0-76.0-0.28","203","5224","12","Male","true","true","false","false","""event"",""trial"",""time""
""fullscreenenter"",""5"",""16937""
","
","
","""event"",""trial"",""time""
""fullscreenenter"",""5"",""16937""
","
","195.10000002384186","","49","","","3000","1","","","images/earth.jpg","images/rocket2","images/rocket1","null","images/rocket1","","1","real","null","1","","",""
"d3-animate-choice","220","832087","0.0-76.0-1.28","203","5224","12","Male","true","true","false","false","""event"",""trial"",""time""
""fullscreenenter"",""5"",""16937""
","
","
","""event"",""trial"",""time""
""fullscreenenter"",""5"",""16937""
","
","706.7000000178814","","48","","","3000","1","","","images/purpleplanet.jpg","images/alien4","images/alien3","images/rocket1","images/alien4","images/nothing.png","2","real","false","2","rare","0","2022-12-12 23:58:21.434"
"two-step-fixation","221","833095","0.0-76.0-2.28","203","5224","12","Male","true","true","false","false","""event"",""trial"",""time""
""fullscreenenter"",""5"",""16937""
","
","
","""event"",""trial"",""time""
""fullscreenenter"",""5"",""16937""
","
","","images/earth.jpg","","","","","","","","","","","","","","fixation","","","","","",""
"d3-animate-choice","222","835559","0.0-76.0-0.29","203","5224","12","Male","true","true","false","false","""event"",""trial"",""time""
""fullscreenenter"",""5"",""16937""
","
","
","""event"",""trial"",""time""
""fullscreenenter"",""5"",""16937""
","
","458.10000002384186","","49","","","3000","1","","","images/earth.jpg","images/rocket2","images/rocket1","null","images/rocket1","","1","real","null","1","","",""
"d3-animate-choice","223","838023","0.0-76.0-1.29","203","5224","12","Male","true","true","false","false","""event"",""trial"",""time""
""fullscreenenter"",""5"",""16937""
","
","
","""event"",""trial"",""time""
""fullscreenenter"",""5"",""16937""
","
","458.59999999403954","","48","","","3000","1","","","images/redplanet1.jpg","images/alien2","images/alien1","images/rocket1","images/alien2","images/t.png","2","real","true","2","common","1","2022-12-12 23:58:27.370"
"two-step-fixation","224","839031","0.0-76.0-2.29","203","5224","12","Male","true","true","false","false","""event"",""trial"",""time""
""fullscreenenter"",""5"",""16937""
","
","
","""event"",""trial"",""time""
""fullscreenenter"",""5"",""16937""
","
","","images/earth.jpg","","","","","","","","","","","","","","fixation","","","","","",""
"d3-animate-choice","225","841143","0.0-76.0-0.30","203","5224","12","Male","true","true","false","false","""event"",""trial"",""time""
""fullscreenenter"",""5"",""16937""
","
","
","""event"",""trial"",""time""
""fullscreenenter"",""5"",""16937""
","
","107.30000001192093","","49","","","3000","1","1810.5","48","images/earth.jpg","images/rocket2","images/rocket1","null","images/rocket1","","1","real","null","1","","",""
"d3-animate-choice","226","843262","0.0-76.0-1.30","203","5224","12","Male","true","true","false","false","""event"",""trial"",""time""
""fullscreenenter"",""5"",""16937""
","
","
","""event"",""trial"",""time""
""fullscreenenter"",""5"",""16937""
","
","114.40000000596046","","48","","","3000","1","450.59999999403954","48","images/redplanet1.jpg","images/alien2","images/alien1","images/rocket1","images/alien2","images/t.png","2","real","true","2","common","1","2022-12-12 23:58:32.609"
"two-step-fixation","227","844270","0.0-76.0-2.30","203","5224","12","Male","true","true","false","false","""event"",""trial"",""time""
""fullscreenenter"",""5"",""16937""
","
","
","""event"",""trial"",""time""
""fullscreenenter"",""5"",""16937""
","
","","images/earth.jpg","","","","","","","","","","","","","","fixation","","","","","",""
"d3-animate-choice","228","846310","0.0-76.0-0.31","203","5224","12","Male","true","true","false","false","""event"",""trial"",""time""
""fullscreenenter"",""5"",""16937""
","
","
","""event"",""trial"",""time""
""fullscreenenter"",""5"",""16937""
","
","35.099999994039536","","49","","","3000","1","371,1666.7999999821186","49,48","images/earth.jpg","images/rocket2","images/rocket1","null","images/rocket1","","1","real","null","1","","",""
"d3-animate-choice","229","848366","0.0-76.0-1.31","203","5224","12","Male","true","true","false","false","""event"",""trial"",""time""
""fullscreenenter"",""5"",""16937""
","
","
","""event"",""trial"",""time""
""fullscreenenter"",""5"",""16937""
","
","51.19999998807907","","48","","","3000","1","","","images/redplanet1.jpg","images/alien2","images/alien1","images/rocket1","images/alien2","images/t.png","2","real","true","2","common","1","2022-12-12 23:58:37.713"
"two-step-fixation","230","849375","0.0-76.0-2.31","203","5224","12","Male","true","true","false","false","""event"",""trial"",""time""
""fullscreenenter"",""5"",""16937""
","
","
","""event"",""trial"",""time""
""fullscreenenter"",""5"",""16937""
","
","","images/earth.jpg","","","","","","","","","","","","","","fixation","","","","","",""
"d3-animate-choice","231","851630","0.0-76.0-0.32","203","5224","12","Male","true","true","false","false","""event"",""trial"",""time""
""fullscreenenter"",""5"",""16937""
","
","
","""event"",""trial"",""time""
""fullscreenenter"",""5"",""16937""
","
","250.59999999403954","","49","","","3000","1","1354.4000000059605,1674.4000000059605,2010.5","48,48,48","images/earth.jpg","images/rocket2","images/rocket1","null","images/rocket1","","1","real","null","1","","",""
"d3-animate-choice","232","853950","0.0-76.0-1.32","203","5224","12","Male","true","true","false","false","""event"",""trial"",""time""
""fullscreenenter"",""5"",""16937""
","
","
","""event"",""trial"",""time""
""fullscreenenter"",""5"",""16937""
","
","315.59999999403954","","48","","","3000","1","","","images/purpleplanet.jpg","images/alien4","images/alien3","images/rocket1","images/alien4","images/nothing.png","2","real","false","2","rare","0","2022-12-12 23:58:43.297"
"two-step-fixation","233","854959","0.0-76.0-2.32","203","5224","12","Male","true","true","false","false","""event"",""trial"",""time""
""fullscreenenter"",""5"",""16937""
","
","
","""event"",""trial"",""time""
""fullscreenenter"",""5"",""16937""
","
","","images/earth.jpg","","","","","","","","","","","","","","fixation","","","","","",""
"d3-animate-choice","234","857118","0.0-76.0-0.33","203","5224","12","Male","true","true","false","false","""event"",""trial"",""time""
""fullscreenenter"",""5"",""16937""
","
","
","""event"",""trial"",""time""
""fullscreenenter"",""5"",""16937""
","
","154.30000001192093","","49","","","3000","1","370.2000000178814,1721.300000011921","49,48","images/earth.jpg","images/rocket2","images/rocket1","null","images/rocket1","","1","real","null","1","","",""
"d3-animate-choice","235","859158","0.0-76.0-1.33","203","5224","12","Male","true","true","false","false","""event"",""trial"",""time""
""fullscreenenter"",""5"",""16937""
","
","
","""event"",""trial"",""time""
""fullscreenenter"",""5"",""16937""
","
","34","","48","","","3000","1","554.5999999940395","48","images/redplanet1.jpg","images/alien2","images/alien1","images/rocket1","images/alien2","images/nothing.png","2","real","true","2","common","0","2022-12-12 23:58:48.505"
