"trial_type","trial_index","time_elapsed","internal_node_id","participant_id","subject_id","age","gender","rocket_sides","red_planet_first_rocket","red_display_order","purple_display_order","interactions","blur_events","focus_events","fullscreenenter_events","fullscreenexit_events","rt","stimulus","key_press","button_pressed","success","duration","valid_pressed","rts","keys","planet_text","right_text","left_text","center_text","chosen_text","reward_text","trial_stage","practice_trial","transition_type","choice","transition","reward","timestamp"
"pavlovia","0","3","0.0-0.0","2360","4975","17","Male","true","false","false","true","""event"",""trial"",""time""
""focus"",""0"",""0""
""blur"",""0"",""0""
""focus"",""0"",""0""
","""event"",""trial"",""time""
""blur"",""0"",""0""
","""event"",""trial"",""time""
""focus"",""0"",""0""
""focus"",""0"",""0""
","
","
","","","","","","","","","","","","","","","","","","","","","",""
"html-keyboard-response","1","1728","0.0-1.0","2360","4975","17","Male","true","false","false","true","""event"",""trial"",""time""
""focus"",""0"",""0""
""blur"",""0"",""0""
""focus"",""0"",""0""
","""event"",""trial"",""time""
""blur"",""0"",""0""
","""event"",""trial"",""time""
""focus"",""0"",""0""
""focus"",""0"",""0""
","
","
","1725.1000000238419","Welcome! Press the space bar to begin.","32","","","","","","","","","","","","","","","","","","",""
"audio-keyboard-response","2","2392","0.0-2.0","2360","4975","17","Male","true","false","false","true","""event"",""trial"",""time""
""focus"",""0"",""0""
""blur"",""0"",""0""
""focus"",""0"",""0""
","""event"",""trial"",""time""
""blur"",""0"",""0""
","""event"",""trial"",""time""
""focus"",""0"",""0""
""focus"",""0"",""0""
","
","
","661","audio/beep_loop.wav","32","","","","","","","","","","","","","","","","","","",""
"audio-button-response","3","3705","0.0-3.0","2360","4975","17","Male","true","false","false","true","""event"",""trial"",""time""
""focus"",""0"",""0""
""blur"",""0"",""0""
""focus"",""0"",""0""
","""event"",""trial"",""time""
""blur"",""0"",""0""
","""event"",""trial"",""time""
""focus"",""0"",""0""
""focus"",""0"",""0""
","
","
","NaN","audio/fish.mp3","","1","","","","","","","","","","","","","","","","","",""
"audio-button-response","4","6082","0.0-4.0","2360","4975","17","Male","true","false","false","true","""event"",""trial"",""time""
""focus"",""0"",""0""
""blur"",""0"",""0""
""focus"",""0"",""0""
""fullscreenenter"",""5"",""8434""
","""event"",""trial"",""time""
""blur"",""0"",""0""
","""event"",""trial"",""time""
""focus"",""0"",""0""
""focus"",""0"",""0""
","""event"",""trial"",""time""
""fullscreenenter"",""5"",""8434""
","
","NaN","audio/tiger.mp3","","4","","","","","","","","","","","","","","","","","",""
"fullscreen","5","9425","0.0-5.0","2360","4975","17","Male","true","false","false","true","""event"",""trial"",""time""
""focus"",""0"",""0""
""blur"",""0"",""0""
""focus"",""0"",""0""
""fullscreenenter"",""5"",""8434""
","""event"",""trial"",""time""
""blur"",""0"",""0""
","""event"",""trial"",""time""
""focus"",""0"",""0""
""focus"",""0"",""0""
","""event"",""trial"",""time""
""fullscreenenter"",""5"",""8434""
","
","","","","","true","","","","","","","","","","","","","","","","",""
"d3-instructions","6","13251","0.0-6.0","2360","4975","17","Male","true","false","false","true","""event"",""trial"",""time""
""focus"",""0"",""0""
""blur"",""0"",""0""
""focus"",""0"",""0""
""fullscreenenter"",""5"",""8434""
","""event"",""trial"",""time""
""blur"",""0"",""0""
","""event"",""trial"",""time""
""focus"",""0"",""0""
""focus"",""0"",""0""
","""event"",""trial"",""time""
""fullscreenenter"",""5"",""8434""
","
","","","","","","","","","","","","","","","","","","","","","",""
"d3-instructions","7","19347","0.0-7.0","2360","4975","17","Male","true","false","false","true","""event"",""trial"",""time""
""focus"",""0"",""0""
""blur"",""0"",""0""
""focus"",""0"",""0""
""fullscreenenter"",""5"",""8434""
","""event"",""trial"",""time""
""blur"",""0"",""0""
","""event"",""trial"",""time""
""focus"",""0"",""0""
""focus"",""0"",""0""
","""event"",""trial"",""time""
""fullscreenenter"",""5"",""8434""
","
","","","","","","","","","","","","","","","","","","","","","",""
"d3-instructions","8","23146","0.0-8.0","2360","4975","17","Male","true","false","false","true","""event"",""trial"",""time""
""focus"",""0"",""0""
""blur"",""0"",""0""
""focus"",""0"",""0""
""fullscreenenter"",""5"",""8434""
","""event"",""trial"",""time""
""blur"",""0"",""0""
","""event"",""trial"",""time""
""focus"",""0"",""0""
""focus"",""0"",""0""
","""event"",""trial"",""time""
""fullscreenenter"",""5"",""8434""
","
","","","","","","","","","","","","","","","","","","","","","",""
"d3-instructions","9","46591","0.0-9.0","2360","4975","17","Male","true","false","false","true","""event"",""trial"",""time""
""focus"",""0"",""0""
""blur"",""0"",""0""
""focus"",""0"",""0""
""fullscreenenter"",""5"",""8434""
","""event"",""trial"",""time""
""blur"",""0"",""0""
","""event"",""trial"",""time""
""focus"",""0"",""0""
""focus"",""0"",""0""
","""event"",""trial"",""time""
""fullscreenenter"",""5"",""8434""
","
","","","","","","","","","","","","","","","","","","","","","",""
"d3-instructions","10","59241","0.0-10.0","2360","4975","17","Male","true","false","false","true","""event"",""trial"",""time""
""focus"",""0"",""0""
""blur"",""0"",""0""
""focus"",""0"",""0""
""fullscreenenter"",""5"",""8434""
","""event"",""trial"",""time""
""blur"",""0"",""0""
","""event"",""trial"",""time""
""focus"",""0"",""0""
""focus"",""0"",""0""
","""event"",""trial"",""time""
""fullscreenenter"",""5"",""8434""
","
","","","","","","","","","","","","","","","","","","","","","",""
"d3-animate-choice","11","61973","0.0-11.0","2360","4975","17","Male","true","false","false","true","""event"",""trial"",""time""
""focus"",""0"",""0""
""blur"",""0"",""0""
""focus"",""0"",""0""
""fullscreenenter"",""5"",""8434""
","""event"",""trial"",""time""
""blur"",""0"",""0""
","""event"",""trial"",""time""
""focus"",""0"",""0""
""focus"",""0"",""0""
","""event"",""trial"",""time""
""fullscreenenter"",""5"",""8434""
","
","718.1999999880791","","48","","","3000","1","1296.5,1823.199999988079,2482.199999988079,2730.300000011921","49,32,49,48","images/tutgreenplanet.jpg","images/tutalien1","images/tutalien2","null","images/tutalien1","","NA","practice","null","","","",""
"d3-animate-choice","12","65028","0.0-12.0","2360","4975","17","Male","true","false","false","true","""event"",""trial"",""time""
""focus"",""0"",""0""
""blur"",""0"",""0""
""focus"",""0"",""0""
""fullscreenenter"",""5"",""8434""
","""event"",""trial"",""time""
""blur"",""0"",""0""
","""event"",""trial"",""time""
""focus"",""0"",""0""
""focus"",""0"",""0""
","""event"",""trial"",""time""
""fullscreenenter"",""5"",""8434""
","
","1035.4000000357628","","49","","","3000","1","1495.6000000238419","32","images/tutgreenplanet.jpg","images/tutalien1","images/tutalien2","null","images/tutalien2","","NA","practice","null","","","",""
"d3-animate-choice","13","67910","0.0-13.0","2360","4975","17","Male","true","false","false","true","""event"",""trial"",""time""
""focus"",""0"",""0""
""blur"",""0"",""0""
""focus"",""0"",""0""
""fullscreenenter"",""5"",""8434""
","""event"",""trial"",""time""
""blur"",""0"",""0""
","""event"",""trial"",""time""
""focus"",""0"",""0""
""focus"",""0"",""0""
","""event"",""trial"",""time""
""fullscreenenter"",""5"",""8434""
","
","871.0999999642372","","48","","","3000","1","","","images/tutgreenplanet.jpg","images/tutalien1","images/tutalien2","null","images/tutalien1","","NA","practice","null","","","",""
"d3-animate-choice","14","70390","0.0-14.0","2360","4975","17","Male","true","false","false","true","""event"",""trial"",""time""
""focus"",""0"",""0""
""blur"",""0"",""0""
""focus"",""0"",""0""
""fullscreenenter"",""5"",""8434""
","""event"",""trial"",""time""
""blur"",""0"",""0""
","""event"",""trial"",""time""
""focus"",""0"",""0""
""focus"",""0"",""0""
","""event"",""trial"",""time""
""fullscreenenter"",""5"",""8434""
","
","465.39999997615814","","49","","","3000","1","1328.5,1810.5","48,32","images/tutgreenplanet.jpg","images/tutalien1","images/tutalien2","null","images/tutalien2","","NA","practice","null","","","",""
"d3-instructions","15","74600","0.0-15.0","2360","4975","17","Male","true","false","false","true","""event"",""trial"",""time""
""focus"",""0"",""0""
""blur"",""0"",""0""
""focus"",""0"",""0""
""fullscreenenter"",""5"",""8434""
","""event"",""trial"",""time""
""blur"",""0"",""0""
","""event"",""trial"",""time""
""focus"",""0"",""0""
""focus"",""0"",""0""
","""event"",""trial"",""time""
""fullscreenenter"",""5"",""8434""
","
","","","","","","","","","","","","","","","","","","","","","",""
"d3-instructions","16","76640","0.0-16.0","2360","4975","17","Male","true","false","false","true","""event"",""trial"",""time""
""focus"",""0"",""0""
""blur"",""0"",""0""
""focus"",""0"",""0""
""fullscreenenter"",""5"",""8434""
","""event"",""trial"",""time""
""blur"",""0"",""0""
","""event"",""trial"",""time""
""focus"",""0"",""0""
""focus"",""0"",""0""
","""event"",""trial"",""time""
""fullscreenenter"",""5"",""8434""
","
","","","","","","","","","","","","","","","","","","","","","",""
"d3-instructions","17","81402","0.0-17.0","2360","4975","17","Male","true","false","false","true","""event"",""trial"",""time""
""focus"",""0"",""0""
""blur"",""0"",""0""
""focus"",""0"",""0""
""fullscreenenter"",""5"",""8434""
","""event"",""trial"",""time""
""blur"",""0"",""0""
","""event"",""trial"",""time""
""focus"",""0"",""0""
""focus"",""0"",""0""
","""event"",""trial"",""time""
""fullscreenenter"",""5"",""8434""
","
","","","","","","","","","","","","","","","","","","","","","",""
"d3-instructions","18","87499","0.0-18.0","2360","4975","17","Male","true","false","false","true","""event"",""trial"",""time""
""focus"",""0"",""0""
""blur"",""0"",""0""
""focus"",""0"",""0""
""fullscreenenter"",""5"",""8434""
","""event"",""trial"",""time""
""blur"",""0"",""0""
","""event"",""trial"",""time""
""focus"",""0"",""0""
""focus"",""0"",""0""
","""event"",""trial"",""time""
""fullscreenenter"",""5"",""8434""
","
","","","","","","","","","","","","","","","","","","","","","",""
"d3-instructions","19","94671","0.0-19.0","2360","4975","17","Male","true","false","false","true","""event"",""trial"",""time""
""focus"",""0"",""0""
""blur"",""0"",""0""
""focus"",""0"",""0""
""fullscreenenter"",""5"",""8434""
","""event"",""trial"",""time""
""blur"",""0"",""0""
","""event"",""trial"",""time""
""focus"",""0"",""0""
""focus"",""0"",""0""
","""event"",""trial"",""time""
""fullscreenenter"",""5"",""8434""
","
","","","","","","","","","","","","","","","","","","","","","",""
"d3-animate-choice","20","97099","0.0-20.0","2360","4975","17","Male","true","false","false","true","""event"",""trial"",""time""
""focus"",""0"",""0""
""blur"",""0"",""0""
""focus"",""0"",""0""
""fullscreenenter"",""5"",""8434""
","""event"",""trial"",""time""
""blur"",""0"",""0""
","""event"",""trial"",""time""
""focus"",""0"",""0""
""focus"",""0"",""0""
","""event"",""trial"",""time""
""fullscreenenter"",""5"",""8434""
","
","410.60000002384186","","49","","","3000","1","608.5,789.7000000476837,1060.5,1762.800000011921,2176.5","49,49,49,49,49","images/tutyellowplanet.jpg","null","images/tutalien3","null","images/tutalien3","images/t.png","NA","practice","null","","","",""
"d3-animate-choice","21","99200","0.0-21.0","2360","4975","17","Male","true","false","false","true","""event"",""trial"",""time""
""focus"",""0"",""0""
""blur"",""0"",""0""
""focus"",""0"",""0""
""fullscreenenter"",""5"",""8434""
","""event"",""trial"",""time""
""blur"",""0"",""0""
","""event"",""trial"",""time""
""focus"",""0"",""0""
""focus"",""0"",""0""
","""event"",""trial"",""time""
""fullscreenenter"",""5"",""8434""
","
","99","","49","","","3000","1","","","images/tutyellowplanet.jpg","null","images/tutalien3","null","images/tutalien3","images/t.png","NA","practice","null","","","",""
"d3-animate-choice","22","101513","0.0-22.0","2360","4975","17","Male","true","false","false","true","""event"",""trial"",""time""
""focus"",""0"",""0""
""blur"",""0"",""0""
""focus"",""0"",""0""
""fullscreenenter"",""5"",""8434""
","""event"",""trial"",""time""
""blur"",""0"",""0""
","""event"",""trial"",""time""
""focus"",""0"",""0""
""focus"",""0"",""0""
","""event"",""trial"",""time""
""fullscreenenter"",""5"",""8434""
","
","297.69999998807907","","49","","","3000","1","2234.099999964237","49","images/tutyellowplanet.jpg","null","images/tutalien3","null","images/tutalien3","images/t.png","NA","practice","null","","","",""
"d3-animate-choice","23","105621","0.0-23.0","2360","4975","17","Male","true","false","false","true","""event"",""trial"",""time""
""focus"",""0"",""0""
""blur"",""0"",""0""
""focus"",""0"",""0""
""fullscreenenter"",""5"",""8434""
","""event"",""trial"",""time""
""blur"",""0"",""0""
","""event"",""trial"",""time""
""focus"",""0"",""0""
""focus"",""0"",""0""
","""event"",""trial"",""time""
""fullscreenenter"",""5"",""8434""
","
","2095.199999988079","","49","","","3000","1","","","images/tutyellowplanet.jpg","null","images/tutalien3","null","images/tutalien3","images/nothing.png","NA","practice","null","","","",""
"d3-animate-choice","24","107883","0.0-24.0","2360","4975","17","Male","true","false","false","true","""event"",""trial"",""time""
""focus"",""0"",""0""
""blur"",""0"",""0""
""focus"",""0"",""0""
""fullscreenenter"",""5"",""8434""
","""event"",""trial"",""time""
""blur"",""0"",""0""
","""event"",""trial"",""time""
""focus"",""0"",""0""
""focus"",""0"",""0""
","""event"",""trial"",""time""
""fullscreenenter"",""5"",""8434""
","
","256.0999999642372","","49","","","3000","1","1806.0999999642372","49","images/tutyellowplanet.jpg","null","images/tutalien3","null","images/tutalien3","images/t.png","NA","practice","null","","","",""
"d3-animate-choice","25","110270","0.0-25.0","2360","4975","17","Male","true","false","false","true","""event"",""trial"",""time""
""focus"",""0"",""0""
""blur"",""0"",""0""
""focus"",""0"",""0""
""fullscreenenter"",""5"",""8434""
","""event"",""trial"",""time""
""blur"",""0"",""0""
","""event"",""trial"",""time""
""focus"",""0"",""0""
""focus"",""0"",""0""
","""event"",""trial"",""time""
""fullscreenenter"",""5"",""8434""
","
","377.5","","49","","","3000","1","2142.699999988079","49","images/tutyellowplanet.jpg","null","images/tutalien3","null","images/tutalien3","images/t.png","NA","practice","null","","","",""
"d3-animate-choice","26","112832","0.0-26.0","2360","4975","17","Male","true","false","false","true","""event"",""trial"",""time""
""focus"",""0"",""0""
""blur"",""0"",""0""
""focus"",""0"",""0""
""fullscreenenter"",""5"",""8434""
","""event"",""trial"",""time""
""blur"",""0"",""0""
","""event"",""trial"",""time""
""focus"",""0"",""0""
""focus"",""0"",""0""
","""event"",""trial"",""time""
""fullscreenenter"",""5"",""8434""
","
","550.8000000119209","","49","","","3000","1","2404.400000035763","49","images/tutyellowplanet.jpg","null","images/tutalien3","null","images/tutalien3","images/t.png","NA","practice","null","","","",""
"d3-animate-choice","27","119139","0.0-27.0","2360","4975","17","Male","true","false","false","true","""event"",""trial"",""time""
""focus"",""0"",""0""
""blur"",""0"",""0""
""focus"",""0"",""0""
""fullscreenenter"",""5"",""8434""
","""event"",""trial"",""time""
""blur"",""0"",""0""
","""event"",""trial"",""time""
""focus"",""0"",""0""
""focus"",""0"",""0""
","""event"",""trial"",""time""
""fullscreenenter"",""5"",""8434""
","
","4292.100000023842","","49","","","3000","1","","","images/tutyellowplanet.jpg","null","images/tutalien3","null","images/tutalien3","images/t.png","NA","practice","null","","","",""
"d3-animate-choice","28","124005","0.0-28.0","2360","4975","17","Male","true","false","false","true","""event"",""trial"",""time""
""focus"",""0"",""0""
""blur"",""0"",""0""
""focus"",""0"",""0""
""fullscreenenter"",""5"",""8434""
","""event"",""trial"",""time""
""blur"",""0"",""0""
","""event"",""trial"",""time""
""focus"",""0"",""0""
""focus"",""0"",""0""
","""event"",""trial"",""time""
""fullscreenenter"",""5"",""8434""
","
","2854.900000035763","","49","","","3000","1","","","images/tutyellowplanet.jpg","null","images/tutalien3","null","images/tutalien3","images/t.png","NA","practice","null","","","",""
"d3-animate-choice","29","126176","0.0-29.0","2360","4975","17","Male","true","false","false","true","""event"",""trial"",""time""
""focus"",""0"",""0""
""blur"",""0"",""0""
""focus"",""0"",""0""
""fullscreenenter"",""5"",""8434""
","""event"",""trial"",""time""
""blur"",""0"",""0""
","""event"",""trial"",""time""
""focus"",""0"",""0""
""focus"",""0"",""0""
","""event"",""trial"",""time""
""fullscreenenter"",""5"",""8434""
","
","162.89999997615814","","49","","","3000","1","","","images/tutyellowplanet.jpg","null","images/tutalien3","null","images/tutalien3","images/t.png","NA","practice","null","","","",""
"d3-instructions","30","138815","0.0-30.0","2360","4975","17","Male","true","false","false","true","""event"",""trial"",""time""
""focus"",""0"",""0""
""blur"",""0"",""0""
""focus"",""0"",""0""
""fullscreenenter"",""5"",""8434""
","""event"",""trial"",""time""
""blur"",""0"",""0""
","""event"",""trial"",""time""
""focus"",""0"",""0""
""focus"",""0"",""0""
","""event"",""trial"",""time""
""fullscreenenter"",""5"",""8434""
","
","","","","","","","","","","","","","","","","","","","","","",""
"d3-instructions","31","145583","0.0-31.0","2360","4975","17","Male","true","false","false","true","""event"",""trial"",""time""
""focus"",""0"",""0""
""blur"",""0"",""0""
""focus"",""0"",""0""
""fullscreenenter"",""5"",""8434""
","""event"",""trial"",""time""
""blur"",""0"",""0""
","""event"",""trial"",""time""
""focus"",""0"",""0""
""focus"",""0"",""0""
","""event"",""trial"",""time""
""fullscreenenter"",""5"",""8434""
","
","","","","","","","","","","","","","","","","","","","","","",""
"d3-instructions","32","148645","0.0-32.0","2360","4975","17","Male","true","false","false","true","""event"",""trial"",""time""
""focus"",""0"",""0""
""blur"",""0"",""0""
""focus"",""0"",""0""
""fullscreenenter"",""5"",""8434""
","""event"",""trial"",""time""
""blur"",""0"",""0""
","""event"",""trial"",""time""
""focus"",""0"",""0""
""focus"",""0"",""0""
","""event"",""trial"",""time""
""fullscreenenter"",""5"",""8434""
","
","","","","","","","","","","","","","","","","","","","","","",""
"d3-instructions","33","150668","0.0-33.0","2360","4975","17","Male","true","false","false","true","""event"",""trial"",""time""
""focus"",""0"",""0""
""blur"",""0"",""0""
""focus"",""0"",""0""
""fullscreenenter"",""5"",""8434""
","""event"",""trial"",""time""
""blur"",""0"",""0""
","""event"",""trial"",""time""
""focus"",""0"",""0""
""focus"",""0"",""0""
","""event"",""trial"",""time""
""fullscreenenter"",""5"",""8434""
","
","","","","","","","","","","","","","","","","","","","","","",""
"d3-animate-choice","34","153331","0.0-34.0","2360","4975","17","Male","true","false","false","true","""event"",""trial"",""time""
""focus"",""0"",""0""
""blur"",""0"",""0""
""focus"",""0"",""0""
""fullscreenenter"",""5"",""8434""
","""event"",""trial"",""time""
""blur"",""0"",""0""
","""event"",""trial"",""time""
""focus"",""0"",""0""
""focus"",""0"",""0""
","""event"",""trial"",""time""
""fullscreenenter"",""5"",""8434""
","
","649.1999999880791","","49","","","3000","1","","","images/tutgreenplanet.jpg","images/tutalien1","images/tutalien2","null","images/tutalien2","images/t.png","NA","practice","null","","","",""
"d3-animate-choice","35","155424","0.0-35.0","2360","4975","17","Male","true","false","false","true","""event"",""trial"",""time""
""focus"",""0"",""0""
""blur"",""0"",""0""
""focus"",""0"",""0""
""fullscreenenter"",""5"",""8434""
","""event"",""trial"",""time""
""blur"",""0"",""0""
","""event"",""trial"",""time""
""focus"",""0"",""0""
""focus"",""0"",""0""
","""event"",""trial"",""time""
""fullscreenenter"",""5"",""8434""
","
","83.80000001192093","","49","","","3000","1","","","images/tutgreenplanet.jpg","images/tutalien1","images/tutalien2","null","images/tutalien2","images/t.png","NA","practice","null","","","",""
"d3-animate-choice","36","157507","0.0-36.0","2360","4975","17","Male","true","false","false","true","""event"",""trial"",""time""
""focus"",""0"",""0""
""blur"",""0"",""0""
""focus"",""0"",""0""
""fullscreenenter"",""5"",""8434""
","""event"",""trial"",""time""
""blur"",""0"",""0""
","""event"",""trial"",""time""
""focus"",""0"",""0""
""focus"",""0"",""0""
","""event"",""trial"",""time""
""fullscreenenter"",""5"",""8434""
","
","69.29999995231628","","49","","","3000","1","","","images/tutgreenplanet.jpg","images/tutalien1","images/tutalien2","null","images/tutalien2","images/nothing.png","NA","practice","null","","","",""
"d3-animate-choice","37","159612","0.0-37.0","2360","4975","17","Male","true","false","false","true","""event"",""trial"",""time""
""focus"",""0"",""0""
""blur"",""0"",""0""
""focus"",""0"",""0""
""fullscreenenter"",""5"",""8434""
","""event"",""trial"",""time""
""blur"",""0"",""0""
","""event"",""trial"",""time""
""focus"",""0"",""0""
""focus"",""0"",""0""
","""event"",""trial"",""time""
""fullscreenenter"",""5"",""8434""
","
","82.30000001192093","","49","","","3000","1","","","images/tutgreenplanet.jpg","images/tutalien1","images/tutalien2","null","images/tutalien2","images/nothing.png","NA","practice","null","","","",""
"d3-animate-choice","38","163822","0.0-38.0","2360","4975","17","Male","true","false","false","true","""event"",""trial"",""time""
""focus"",""0"",""0""
""blur"",""0"",""0""
""focus"",""0"",""0""
""fullscreenenter"",""5"",""8434""
","""event"",""trial"",""time""
""blur"",""0"",""0""
","""event"",""trial"",""time""
""focus"",""0"",""0""
""focus"",""0"",""0""
","""event"",""trial"",""time""
""fullscreenenter"",""5"",""8434""
","
","2198.899999976158","","49","","","3000","1","","","images/tutgreenplanet.jpg","images/tutalien1","images/tutalien2","null","images/tutalien2","images/t.png","NA","practice","null","","","",""
"d3-animate-choice","39","166454","0.0-39.0","2360","4975","17","Male","true","false","false","true","""event"",""trial"",""time""
""focus"",""0"",""0""
""blur"",""0"",""0""
""focus"",""0"",""0""
""fullscreenenter"",""5"",""8434""
","""event"",""trial"",""time""
""blur"",""0"",""0""
","""event"",""trial"",""time""
""focus"",""0"",""0""
""focus"",""0"",""0""
","""event"",""trial"",""time""
""fullscreenenter"",""5"",""8434""
","
","619.5999999642372","","49","","","3000","1","","","images/tutgreenplanet.jpg","images/tutalien1","images/tutalien2","null","images/tutalien2","images/t.png","NA","practice","null","","","",""
"d3-animate-choice","40","170538","0.0-40.0","2360","4975","17","Male","true","false","false","true","""event"",""trial"",""time""
""focus"",""0"",""0""
""blur"",""0"",""0""
""focus"",""0"",""0""
""fullscreenenter"",""5"",""8434""
","""event"",""trial"",""time""
""blur"",""0"",""0""
","""event"",""trial"",""time""
""focus"",""0"",""0""
""focus"",""0"",""0""
","""event"",""trial"",""time""
""fullscreenenter"",""5"",""8434""
","
","2075.100000023842","","49","","","3000","1","3471.800000011921,4025.800000011921","49,49","images/tutgreenplanet.jpg","images/tutalien1","images/tutalien2","null","images/tutalien2","images/t.png","NA","practice","null","","","",""
"d3-animate-choice","41","172796","0.0-41.0","2360","4975","17","Male","true","false","false","true","""event"",""trial"",""time""
""focus"",""0"",""0""
""blur"",""0"",""0""
""focus"",""0"",""0""
""fullscreenenter"",""5"",""8434""
","""event"",""trial"",""time""
""blur"",""0"",""0""
","""event"",""trial"",""time""
""focus"",""0"",""0""
""focus"",""0"",""0""
","""event"",""trial"",""time""
""fullscreenenter"",""5"",""8434""
","
","238.79999995231628","","49","","","3000","1","1586.5999999642372,2106","49,49","images/tutgreenplanet.jpg","images/tutalien1","images/tutalien2","null","images/tutalien2","images/t.png","NA","practice","null","","","",""
"d3-animate-choice","42","175048","0.0-42.0","2360","4975","17","Male","true","false","false","true","""event"",""trial"",""time""
""focus"",""0"",""0""
""blur"",""0"",""0""
""focus"",""0"",""0""
""fullscreenenter"",""5"",""8434""
","""event"",""trial"",""time""
""blur"",""0"",""0""
","""event"",""trial"",""time""
""focus"",""0"",""0""
""focus"",""0"",""0""
","""event"",""trial"",""time""
""fullscreenenter"",""5"",""8434""
","
","239.30000001192093","","49","","","3000","1","1693.800000011921,2134.300000011921","49,49","images/tutgreenplanet.jpg","images/tutalien1","images/tutalien2","null","images/tutalien2","images/t.png","NA","practice","null","","","",""
"d3-animate-choice","43","177324","0.0-43.0","2360","4975","17","Male","true","false","false","true","""event"",""trial"",""time""
""focus"",""0"",""0""
""blur"",""0"",""0""
""focus"",""0"",""0""
""fullscreenenter"",""5"",""8434""
","""event"",""trial"",""time""
""blur"",""0"",""0""
","""event"",""trial"",""time""
""focus"",""0"",""0""
""focus"",""0"",""0""
","""event"",""trial"",""time""
""fullscreenenter"",""5"",""8434""
","
","267.39999997615814","","49","","","3000","1","1603.5,2235.399999976158","49,49","images/tutgreenplanet.jpg","images/tutalien1","images/tutalien2","null","images/tutalien2","images/t.png","NA","practice","null","","","",""
"d3-instructions","44","181174","0.0-44.0","2360","4975","17","Male","true","false","false","true","""event"",""trial"",""time""
""focus"",""0"",""0""
""blur"",""0"",""0""
""focus"",""0"",""0""
""fullscreenenter"",""5"",""8434""
","""event"",""trial"",""time""
""blur"",""0"",""0""
","""event"",""trial"",""time""
""focus"",""0"",""0""
""focus"",""0"",""0""
","""event"",""trial"",""time""
""fullscreenenter"",""5"",""8434""
","
","","","","","","","","","","","","","","","","","","","","","",""
"d3-instructions","45","184031","0.0-45.0","2360","4975","17","Male","true","false","false","true","""event"",""trial"",""time""
""focus"",""0"",""0""
""blur"",""0"",""0""
""focus"",""0"",""0""
""fullscreenenter"",""5"",""8434""
","""event"",""trial"",""time""
""blur"",""0"",""0""
","""event"",""trial"",""time""
""focus"",""0"",""0""
""focus"",""0"",""0""
","""event"",""trial"",""time""
""fullscreenenter"",""5"",""8434""
","
","","","","","","","","","","","","","","","","","","","","","",""
"d3-instructions","46","186147","0.0-46.0","2360","4975","17","Male","true","false","false","true","""event"",""trial"",""time""
""focus"",""0"",""0""
""blur"",""0"",""0""
""focus"",""0"",""0""
""fullscreenenter"",""5"",""8434""
","""event"",""trial"",""time""
""blur"",""0"",""0""
","""event"",""trial"",""time""
""focus"",""0"",""0""
""focus"",""0"",""0""
","""event"",""trial"",""time""
""fullscreenenter"",""5"",""8434""
","
","","","","","","","","","","","","","","","","","","","","","",""
"d3-instructions","47","193648","0.0-47.0","2360","4975","17","Male","true","false","false","true","""event"",""trial"",""time""
""focus"",""0"",""0""
""blur"",""0"",""0""
""focus"",""0"",""0""
""fullscreenenter"",""5"",""8434""
","""event"",""trial"",""time""
""blur"",""0"",""0""
","""event"",""trial"",""time""
""focus"",""0"",""0""
""focus"",""0"",""0""
","""event"",""trial"",""time""
""fullscreenenter"",""5"",""8434""
","
","","","","","","","","","","","","","","","","","","","","","",""
"d3-instructions","48","197156","0.0-48.0","2360","4975","17","Male","true","false","false","true","""event"",""trial"",""time""
""focus"",""0"",""0""
""blur"",""0"",""0""
""focus"",""0"",""0""
""fullscreenenter"",""5"",""8434""
","""event"",""trial"",""time""
""blur"",""0"",""0""
","""event"",""trial"",""time""
""focus"",""0"",""0""
""focus"",""0"",""0""
","""event"",""trial"",""time""
""fullscreenenter"",""5"",""8434""
","
","","","","","","","","","","","","","","","","","","","","","",""
"d3-instructions","49","198776","0.0-49.0","2360","4975","17","Male","true","false","false","true","""event"",""trial"",""time""
""focus"",""0"",""0""
""blur"",""0"",""0""
""focus"",""0"",""0""
""fullscreenenter"",""5"",""8434""
","""event"",""trial"",""time""
""blur"",""0"",""0""
","""event"",""trial"",""time""
""focus"",""0"",""0""
""focus"",""0"",""0""
","""event"",""trial"",""time""
""fullscreenenter"",""5"",""8434""
","
","","","","","","","","","","","","","","","","","","","","","",""
"d3-instructions","50","201524","0.0-50.0","2360","4975","17","Male","true","false","false","true","""event"",""trial"",""time""
""focus"",""0"",""0""
""blur"",""0"",""0""
""focus"",""0"",""0""
""fullscreenenter"",""5"",""8434""
","""event"",""trial"",""time""
""blur"",""0"",""0""
","""event"",""trial"",""time""
""focus"",""0"",""0""
""focus"",""0"",""0""
","""event"",""trial"",""time""
""fullscreenenter"",""5"",""8434""
","
","","","","","","","","","","","","","","","","","","","","","",""
"d3-instructions","51","202782","0.0-51.0","2360","4975","17","Male","true","false","false","true","""event"",""trial"",""time""
""focus"",""0"",""0""
""blur"",""0"",""0""
""focus"",""0"",""0""
""fullscreenenter"",""5"",""8434""
","""event"",""trial"",""time""
""blur"",""0"",""0""
","""event"",""trial"",""time""
""focus"",""0"",""0""
""focus"",""0"",""0""
","""event"",""trial"",""time""
""fullscreenenter"",""5"",""8434""
","
","","","","","","","","","","","","","","","","","","","","","",""
"d3-instructions","52","203862","0.0-52.0","2360","4975","17","Male","true","false","false","true","""event"",""trial"",""time""
""focus"",""0"",""0""
""blur"",""0"",""0""
""focus"",""0"",""0""
""fullscreenenter"",""5"",""8434""
","""event"",""trial"",""time""
""blur"",""0"",""0""
","""event"",""trial"",""time""
""focus"",""0"",""0""
""focus"",""0"",""0""
","""event"",""trial"",""time""
""fullscreenenter"",""5"",""8434""
","
","","","","","","","","","","","","","","","","","","","","","",""
"d3-instructions","53","208184","0.0-53.0","2360","4975","17","Male","true","false","false","true","""event"",""trial"",""time""
""focus"",""0"",""0""
""blur"",""0"",""0""
""focus"",""0"",""0""
""fullscreenenter"",""5"",""8434""
","""event"",""trial"",""time""
""blur"",""0"",""0""
","""event"",""trial"",""time""
""focus"",""0"",""0""
""focus"",""0"",""0""
","""event"",""trial"",""time""
""fullscreenenter"",""5"",""8434""
","
","","","","","","","","","","","","","","","","","","","","","",""
"d3-instructions","54","217341","0.0-54.0","2360","4975","17","Male","true","false","false","true","""event"",""trial"",""time""
""focus"",""0"",""0""
""blur"",""0"",""0""
""focus"",""0"",""0""
""fullscreenenter"",""5"",""8434""
","""event"",""trial"",""time""
""blur"",""0"",""0""
","""event"",""trial"",""time""
""focus"",""0"",""0""
""focus"",""0"",""0""
","""event"",""trial"",""time""
""fullscreenenter"",""5"",""8434""
","
","","","","","","","","","","","","","","","","","","","","","",""
"d3-instructions","55","219853","0.0-55.0","2360","4975","17","Male","true","false","false","true","""event"",""trial"",""time""
""focus"",""0"",""0""
""blur"",""0"",""0""
""focus"",""0"",""0""
""fullscreenenter"",""5"",""8434""
","""event"",""trial"",""time""
""blur"",""0"",""0""
","""event"",""trial"",""time""
""focus"",""0"",""0""
""focus"",""0"",""0""
","""event"",""trial"",""time""
""fullscreenenter"",""5"",""8434""
","
","","","","","","","","","","","","","","","","","","","","","",""
"d3-instructions","56","223065","0.0-56.0","2360","4975","17","Male","true","false","false","true","""event"",""trial"",""time""
""focus"",""0"",""0""
""blur"",""0"",""0""
""focus"",""0"",""0""
""fullscreenenter"",""5"",""8434""
","""event"",""trial"",""time""
""blur"",""0"",""0""
","""event"",""trial"",""time""
""focus"",""0"",""0""
""focus"",""0"",""0""
","""event"",""trial"",""time""
""fullscreenenter"",""5"",""8434""
","
","","","","","","","","","","","","","","","","","","","","","",""
"d3-instructions","57","228079","0.0-57.0","2360","4975","17","Male","true","false","false","true","""event"",""trial"",""time""
""focus"",""0"",""0""
""blur"",""0"",""0""
""focus"",""0"",""0""
""fullscreenenter"",""5"",""8434""
","""event"",""trial"",""time""
""blur"",""0"",""0""
","""event"",""trial"",""time""
""focus"",""0"",""0""
""focus"",""0"",""0""
","""event"",""trial"",""time""
""fullscreenenter"",""5"",""8434""
","
","","","","","","","","","","","","","","","","","","","","","",""
"d3-instructions","58","232540","0.0-58.0","2360","4975","17","Male","true","false","false","true","""event"",""trial"",""time""
""focus"",""0"",""0""
""blur"",""0"",""0""
""focus"",""0"",""0""
""fullscreenenter"",""5"",""8434""
","""event"",""trial"",""time""
""blur"",""0"",""0""
","""event"",""trial"",""time""
""focus"",""0"",""0""
""focus"",""0"",""0""
","""event"",""trial"",""time""
""fullscreenenter"",""5"",""8434""
","
","","","","","","","","","","","","","","","","","","","","","",""
"d3-instructions","59","234175","0.0-59.0","2360","4975","17","Male","true","false","false","true","""event"",""trial"",""time""
""focus"",""0"",""0""
""blur"",""0"",""0""
""focus"",""0"",""0""
""fullscreenenter"",""5"",""8434""
","""event"",""trial"",""time""
""blur"",""0"",""0""
","""event"",""trial"",""time""
""focus"",""0"",""0""
""focus"",""0"",""0""
","""event"",""trial"",""time""
""fullscreenenter"",""5"",""8434""
","
","","","","","","","","","","","","","","","","","","","","","",""
"d3-instructions","60","235785","0.0-60.0","2360","4975","17","Male","true","false","false","true","""event"",""trial"",""time""
""focus"",""0"",""0""
""blur"",""0"",""0""
""focus"",""0"",""0""
""fullscreenenter"",""5"",""8434""
","""event"",""trial"",""time""
""blur"",""0"",""0""
","""event"",""trial"",""time""
""focus"",""0"",""0""
""focus"",""0"",""0""
","""event"",""trial"",""time""
""fullscreenenter"",""5"",""8434""
","
","","","","","","","","","","","","","","","","","","","","","",""
"d3-animate-choice","61","238287","0.0-61.0-0.0","2360","4975","17","Male","true","false","false","true","""event"",""trial"",""time""
""focus"",""0"",""0""
""blur"",""0"",""0""
""focus"",""0"",""0""
""fullscreenenter"",""5"",""8434""
","""event"",""trial"",""time""
""blur"",""0"",""0""
","""event"",""trial"",""time""
""focus"",""0"",""0""
""focus"",""0"",""0""
","""event"",""trial"",""time""
""fullscreenenter"",""5"",""8434""
","
","480.19999998807907","","49","","","3000","1","","","images/earth.jpg","images/tutrocket1","images/tutrocket2","null","images/tutrocket2","","1","practice","null","1","","",""
"d3-animate-choice","62","240936","0.0-61.0-1.0","2360","4975","17","Male","true","false","false","true","""event"",""trial"",""time""
""focus"",""0"",""0""
""blur"",""0"",""0""
""focus"",""0"",""0""
""fullscreenenter"",""5"",""8434""
","""event"",""trial"",""time""
""blur"",""0"",""0""
","""event"",""trial"",""time""
""focus"",""0"",""0""
""focus"",""0"",""0""
","""event"",""trial"",""time""
""fullscreenenter"",""5"",""8434""
","
","639.1999999880791","","49","","","3000","1","","","images/tutgreenplanet.jpg","images/tutalien2","images/tutalien1","images/tutrocket2","images/tutalien1","images/nothing.png","2","practice","true","1","common","0","2022-12-20 03:41:30.850"
"two-step-fixation","63","241944","0.0-61.0-2.0","2360","4975","17","Male","true","false","false","true","""event"",""trial"",""time""
""focus"",""0"",""0""
""blur"",""0"",""0""
""focus"",""0"",""0""
""fullscreenenter"",""5"",""8434""
","""event"",""trial"",""time""
""blur"",""0"",""0""
","""event"",""trial"",""time""
""focus"",""0"",""0""
""focus"",""0"",""0""
","""event"",""trial"",""time""
""fullscreenenter"",""5"",""8434""
","
","","images/earth.jpg","","","","","","","","","","","","","","fixation","","","","","",""
"d3-animate-choice","64","244818","0.0-61.0-0.1","2360","4975","17","Male","true","false","false","true","""event"",""trial"",""time""
""focus"",""0"",""0""
""blur"",""0"",""0""
""focus"",""0"",""0""
""fullscreenenter"",""5"",""8434""
","""event"",""trial"",""time""
""blur"",""0"",""0""
","""event"",""trial"",""time""
""focus"",""0"",""0""
""focus"",""0"",""0""
","""event"",""trial"",""time""
""fullscreenenter"",""5"",""8434""
","
","468.39999997615814","","50","","","3000","1","864.3000000119209","48","images/earth.jpg","images/tutrocket1","images/tutrocket2","null","images/tutrocket1","","1","practice","null","","","",""
"d3-animate-choice","65","247215","0.0-61.0-1.1","2360","4975","17","Male","true","false","false","true","""event"",""trial"",""time""
""focus"",""0"",""0""
""blur"",""0"",""0""
""focus"",""0"",""0""
""fullscreenenter"",""5"",""8434""
","""event"",""trial"",""time""
""blur"",""0"",""0""
","""event"",""trial"",""time""
""focus"",""0"",""0""
""focus"",""0"",""0""
","""event"",""trial"",""time""
""fullscreenenter"",""5"",""8434""
","
","380","","48","","","3000","1","","","images/tutyellowplanet.jpg","images/tutalien4","images/tutalien3","images/tutrocket1","images/tutalien4","images/t.png","2","practice","true","2","common","1","2022-12-20 03:41:37.128"
"two-step-fixation","66","248224","0.0-61.0-2.1","2360","4975","17","Male","true","false","false","true","""event"",""trial"",""time""
""focus"",""0"",""0""
""blur"",""0"",""0""
""focus"",""0"",""0""
""fullscreenenter"",""5"",""8434""
","""event"",""trial"",""time""
""blur"",""0"",""0""
","""event"",""trial"",""time""
""focus"",""0"",""0""
""focus"",""0"",""0""
","""event"",""trial"",""time""
""fullscreenenter"",""5"",""8434""
","
","","images/earth.jpg","","","","","","","","","","","","","","fixation","","","","","",""
"d3-animate-choice","67","250362","0.0-61.0-0.2","2360","4975","17","Male","true","false","false","true","""event"",""trial"",""time""
""focus"",""0"",""0""
""blur"",""0"",""0""
""focus"",""0"",""0""
""fullscreenenter"",""5"",""8434""
","""event"",""trial"",""time""
""blur"",""0"",""0""
","""event"",""trial"",""time""
""focus"",""0"",""0""
""focus"",""0"",""0""
","""event"",""trial"",""time""
""fullscreenenter"",""5"",""8434""
","
","131.70000004768372","","48","","","3000","1","1551.800000011921,1897.7000000476837","48,48","images/earth.jpg","images/tutrocket1","images/tutrocket2","null","images/tutrocket1","","1","practice","null","2","","",""
"d3-animate-choice","68","252424","0.0-61.0-1.2","2360","4975","17","Male","true","false","false","true","""event"",""trial"",""time""
""focus"",""0"",""0""
""blur"",""0"",""0""
""focus"",""0"",""0""
""fullscreenenter"",""5"",""8434""
","""event"",""trial"",""time""
""blur"",""0"",""0""
","""event"",""trial"",""time""
""focus"",""0"",""0""
""focus"",""0"",""0""
","""event"",""trial"",""time""
""fullscreenenter"",""5"",""8434""
","
","58.10000002384186","","48","","","3000","1","","","images/tutyellowplanet.jpg","images/tutalien4","images/tutalien3","images/tutrocket1","images/tutalien4","images/nothing.png","2","practice","true","2","common","0","2022-12-20 03:41:42.337"
"two-step-fixation","69","253432","0.0-61.0-2.2","2360","4975","17","Male","true","false","false","true","""event"",""trial"",""time""
""focus"",""0"",""0""
""blur"",""0"",""0""
""focus"",""0"",""0""
""fullscreenenter"",""5"",""8434""
","""event"",""trial"",""time""
""blur"",""0"",""0""
","""event"",""trial"",""time""
""focus"",""0"",""0""
""focus"",""0"",""0""
","""event"",""trial"",""time""
""fullscreenenter"",""5"",""8434""
","
","","images/earth.jpg","","","","","","","","","","","","","","fixation","","","","","",""
"d3-animate-choice","70","255592","0.0-61.0-0.3","2360","4975","17","Male","true","false","false","true","""event"",""trial"",""time""
""focus"",""0"",""0""
""blur"",""0"",""0""
""focus"",""0"",""0""
""fullscreenenter"",""5"",""8434""
","""event"",""trial"",""time""
""blur"",""0"",""0""
","""event"",""trial"",""time""
""focus"",""0"",""0""
""focus"",""0"",""0""
","""event"",""trial"",""time""
""fullscreenenter"",""5"",""8434""
","
","151.19999998807907","","48","","","3000","1","1530.3999999761581,1847.0999999642372,2093.2999999523163","48,48,48","images/earth.jpg","images/tutrocket1","images/tutrocket2","null","images/tutrocket1","","1","practice","null","2","","",""
"d3-animate-choice","71","257791","0.0-61.0-1.3","2360","4975","17","Male","true","false","false","true","""event"",""trial"",""time""
""focus"",""0"",""0""
""blur"",""0"",""0""
""focus"",""0"",""0""
""fullscreenenter"",""5"",""8434""
","""event"",""trial"",""time""
""blur"",""0"",""0""
","""event"",""trial"",""time""
""focus"",""0"",""0""
""focus"",""0"",""0""
","""event"",""trial"",""time""
""fullscreenenter"",""5"",""8434""
","
","179.19999998807907","","48","","","3000","1","","","images/tutyellowplanet.jpg","images/tutalien4","images/tutalien3","images/tutrocket1","images/tutalien4","images/nothing.png","2","practice","true","2","common","0","2022-12-20 03:41:47.704"
"two-step-fixation","72","258800","0.0-61.0-2.3","2360","4975","17","Male","true","false","false","true","""event"",""trial"",""time""
""focus"",""0"",""0""
""blur"",""0"",""0""
""focus"",""0"",""0""
""fullscreenenter"",""5"",""8434""
","""event"",""trial"",""time""
""blur"",""0"",""0""
","""event"",""trial"",""time""
""focus"",""0"",""0""
""focus"",""0"",""0""
","""event"",""trial"",""time""
""fullscreenenter"",""5"",""8434""
","
","","images/earth.jpg","","","","","","","","","","","","","","fixation","","","","","",""
"d3-animate-choice","73","261397","0.0-61.0-0.4","2360","4975","17","Male","true","false","false","true","""event"",""trial"",""time""
""focus"",""0"",""0""
""blur"",""0"",""0""
""focus"",""0"",""0""
""fullscreenenter"",""5"",""8434""
","""event"",""trial"",""time""
""blur"",""0"",""0""
","""event"",""trial"",""time""
""focus"",""0"",""0""
""focus"",""0"",""0""
","""event"",""trial"",""time""
""fullscreenenter"",""5"",""8434""
","
","577","","48","","","3000","1","1932.300000011921,2423.899999976158","49,49","images/earth.jpg","images/tutrocket1","images/tutrocket2","null","images/tutrocket1","","1","practice","null","2","","",""
"d3-animate-choice","74","263664","0.0-61.0-1.4","2360","4975","17","Male","true","false","false","true","""event"",""trial"",""time""
""focus"",""0"",""0""
""blur"",""0"",""0""
""focus"",""0"",""0""
""fullscreenenter"",""5"",""8434""
","""event"",""trial"",""time""
""blur"",""0"",""0""
","""event"",""trial"",""time""
""focus"",""0"",""0""
""focus"",""0"",""0""
","""event"",""trial"",""time""
""fullscreenenter"",""5"",""8434""
","
","257.9000000357628","","49","","","3000","1","","","images/tutyellowplanet.jpg","images/tutalien4","images/tutalien3","images/tutrocket1","images/tutalien3","images/nothing.png","2","practice","true","1","common","0","2022-12-20 03:41:53.577"
"two-step-fixation","75","264672","0.0-61.0-2.4","2360","4975","17","Male","true","false","false","true","""event"",""trial"",""time""
""focus"",""0"",""0""
""blur"",""0"",""0""
""focus"",""0"",""0""
""fullscreenenter"",""5"",""8434""
","""event"",""trial"",""time""
""blur"",""0"",""0""
","""event"",""trial"",""time""
""focus"",""0"",""0""
""focus"",""0"",""0""
","""event"",""trial"",""time""
""fullscreenenter"",""5"",""8434""
","
","","images/earth.jpg","","","","","","","","","","","","","","fixation","","","","","",""
"d3-animate-choice","76","266920","0.0-61.0-0.5","2360","4975","17","Male","true","false","false","true","""event"",""trial"",""time""
""focus"",""0"",""0""
""blur"",""0"",""0""
""focus"",""0"",""0""
""fullscreenenter"",""5"",""8434""
","""event"",""trial"",""time""
""blur"",""0"",""0""
","""event"",""trial"",""time""
""focus"",""0"",""0""
""focus"",""0"",""0""
","""event"",""trial"",""time""
""fullscreenenter"",""5"",""8434""
","
","238.70000004768372","","48","","","3000","1","","","images/earth.jpg","images/tutrocket1","images/tutrocket2","null","images/tutrocket1","","1","practice","null","2","","",""
"d3-animate-choice","77","269168","0.0-61.0-1.5","2360","4975","17","Male","true","false","false","true","""event"",""trial"",""time""
""focus"",""0"",""0""
""blur"",""0"",""0""
""focus"",""0"",""0""
""fullscreenenter"",""5"",""8434""
","""event"",""trial"",""time""
""blur"",""0"",""0""
","""event"",""trial"",""time""
""focus"",""0"",""0""
""focus"",""0"",""0""
","""event"",""trial"",""time""
""fullscreenenter"",""5"",""8434""
","
","239.4000000357628","","49","","","3000","1","","","images/tutgreenplanet.jpg","images/tutalien2","images/tutalien1","images/tutrocket1","images/tutalien1","images/nothing.png","2","practice","false","1","rare","0","2022-12-20 03:41:59.081"
"two-step-fixation","78","270176","0.0-61.0-2.5","2360","4975","17","Male","true","false","false","true","""event"",""trial"",""time""
""focus"",""0"",""0""
""blur"",""0"",""0""
""focus"",""0"",""0""
""fullscreenenter"",""5"",""8434""
","""event"",""trial"",""time""
""blur"",""0"",""0""
","""event"",""trial"",""time""
""focus"",""0"",""0""
""focus"",""0"",""0""
","""event"",""trial"",""time""
""fullscreenenter"",""5"",""8434""
","
","","images/earth.jpg","","","","","","","","","","","","","","fixation","","","","","",""
"d3-animate-choice","79","272336","0.0-61.0-0.6","2360","4975","17","Male","true","false","false","true","""event"",""trial"",""time""
""focus"",""0"",""0""
""blur"",""0"",""0""
""focus"",""0"",""0""
""fullscreenenter"",""5"",""8434""
","""event"",""trial"",""time""
""blur"",""0"",""0""
","""event"",""trial"",""time""
""focus"",""0"",""0""
""focus"",""0"",""0""
","""event"",""trial"",""time""
""fullscreenenter"",""5"",""8434""
","
","150.69999998807907","","48","","","3000","1","","","images/earth.jpg","images/tutrocket1","images/tutrocket2","null","images/tutrocket1","","1","practice","null","2","","",""
"d3-animate-choice","80","275200","0.0-61.0-1.6","2360","4975","17","Male","true","false","false","true","""event"",""trial"",""time""
""focus"",""0"",""0""
""blur"",""0"",""0""
""focus"",""0"",""0""
""fullscreenenter"",""5"",""8434""
","""event"",""trial"",""time""
""blur"",""0"",""0""
","""event"",""trial"",""time""
""focus"",""0"",""0""
""focus"",""0"",""0""
","""event"",""trial"",""time""
""fullscreenenter"",""5"",""8434""
","
","859","","49","","","3000","1","","","images/tutgreenplanet.jpg","images/tutalien2","images/tutalien1","images/tutrocket1","images/tutalien1","images/t.png","2","practice","false","1","rare","1","2022-12-20 03:42:05.113"
"two-step-fixation","81","276208","0.0-61.0-2.6","2360","4975","17","Male","true","false","false","true","""event"",""trial"",""time""
""focus"",""0"",""0""
""blur"",""0"",""0""
""focus"",""0"",""0""
""fullscreenenter"",""5"",""8434""
","""event"",""trial"",""time""
""blur"",""0"",""0""
","""event"",""trial"",""time""
""focus"",""0"",""0""
""focus"",""0"",""0""
","""event"",""trial"",""time""
""fullscreenenter"",""5"",""8434""
","
","","images/earth.jpg","","","","","","","","","","","","","","fixation","","","","","",""
"d3-animate-choice","82","278376","0.0-61.0-0.7","2360","4975","17","Male","true","false","false","true","""event"",""trial"",""time""
""focus"",""0"",""0""
""blur"",""0"",""0""
""focus"",""0"",""0""
""fullscreenenter"",""5"",""8434""
","""event"",""trial"",""time""
""blur"",""0"",""0""
","""event"",""trial"",""time""
""focus"",""0"",""0""
""focus"",""0"",""0""
","""event"",""trial"",""time""
""fullscreenenter"",""5"",""8434""
","
","159.80000001192093","","48","","","3000","1","","","images/earth.jpg","images/tutrocket1","images/tutrocket2","null","images/tutrocket1","","1","practice","null","2","","",""
"d3-animate-choice","83","280824","0.0-61.0-1.7","2360","4975","17","Male","true","false","false","true","""event"",""trial"",""time""
""focus"",""0"",""0""
""blur"",""0"",""0""
""focus"",""0"",""0""
""fullscreenenter"",""5"",""8434""
","""event"",""trial"",""time""
""blur"",""0"",""0""
","""event"",""trial"",""time""
""focus"",""0"",""0""
""focus"",""0"",""0""
","""event"",""trial"",""time""
""fullscreenenter"",""5"",""8434""
","
","441.19999998807907","","48","","","3000","1","","","images/tutyellowplanet.jpg","images/tutalien4","images/tutalien3","images/tutrocket1","images/tutalien4","images/nothing.png","2","practice","true","2","common","0","2022-12-20 03:42:10.737"
"two-step-fixation","84","281832","0.0-61.0-2.7","2360","4975","17","Male","true","false","false","true","""event"",""trial"",""time""
""focus"",""0"",""0""
""blur"",""0"",""0""
""focus"",""0"",""0""
""fullscreenenter"",""5"",""8434""
","""event"",""trial"",""time""
""blur"",""0"",""0""
","""event"",""trial"",""time""
""focus"",""0"",""0""
""focus"",""0"",""0""
","""event"",""trial"",""time""
""fullscreenenter"",""5"",""8434""
","
","","images/earth.jpg","","","","","","","","","","","","","","fixation","","","","","",""
"d3-animate-choice","85","284168","0.0-61.0-0.8","2360","4975","17","Male","true","false","false","true","""event"",""trial"",""time""
""focus"",""0"",""0""
""blur"",""0"",""0""
""focus"",""0"",""0""
""fullscreenenter"",""5"",""8434""
","""event"",""trial"",""time""
""blur"",""0"",""0""
","""event"",""trial"",""time""
""focus"",""0"",""0""
""focus"",""0"",""0""
","""event"",""trial"",""time""
""fullscreenenter"",""5"",""8434""
","
","329.5","","48","","","3000","1","2006.199999988079","49","images/earth.jpg","images/tutrocket1","images/tutrocket2","null","images/tutrocket1","","1","practice","null","2","","",""
"d3-animate-choice","86","286488","0.0-61.0-1.8","2360","4975","17","Male","true","false","false","true","""event"",""trial"",""time""
""focus"",""0"",""0""
""blur"",""0"",""0""
""focus"",""0"",""0""
""fullscreenenter"",""5"",""8434""
","""event"",""trial"",""time""
""blur"",""0"",""0""
","""event"",""trial"",""time""
""focus"",""0"",""0""
""focus"",""0"",""0""
","""event"",""trial"",""time""
""fullscreenenter"",""5"",""8434""
","
","317.0999999642372","","49","","","3000","1","","","images/tutyellowplanet.jpg","images/tutalien4","images/tutalien3","images/tutrocket1","images/tutalien3","images/nothing.png","2","practice","true","1","common","0","2022-12-20 03:42:16.401"
"two-step-fixation","87","287496","0.0-61.0-2.8","2360","4975","17","Male","true","false","false","true","""event"",""trial"",""time""
""focus"",""0"",""0""
""blur"",""0"",""0""
""focus"",""0"",""0""
""fullscreenenter"",""5"",""8434""
","""event"",""trial"",""time""
""blur"",""0"",""0""
","""event"",""trial"",""time""
""focus"",""0"",""0""
""focus"",""0"",""0""
","""event"",""trial"",""time""
""fullscreenenter"",""5"",""8434""
","
","","images/earth.jpg","","","","","","","","","","","","","","fixation","","","","","",""
"d3-animate-choice","88","289712","0.0-61.0-0.9","2360","4975","17","Male","true","false","false","true","""event"",""trial"",""time""
""focus"",""0"",""0""
""blur"",""0"",""0""
""focus"",""0"",""0""
""fullscreenenter"",""5"",""8434""
","""event"",""trial"",""time""
""blur"",""0"",""0""
","""event"",""trial"",""time""
""focus"",""0"",""0""
""focus"",""0"",""0""
","""event"",""trial"",""time""
""fullscreenenter"",""5"",""8434""
","
","207.20000004768372","","49","","","3000","1","","","images/earth.jpg","images/tutrocket1","images/tutrocket2","null","images/tutrocket2","","1","practice","null","1","","",""
"d3-animate-choice","89","292016","0.0-61.0-1.9","2360","4975","17","Male","true","false","false","true","""event"",""trial"",""time""
""focus"",""0"",""0""
""blur"",""0"",""0""
""focus"",""0"",""0""
""fullscreenenter"",""5"",""8434""
","""event"",""trial"",""time""
""blur"",""0"",""0""
","""event"",""trial"",""time""
""focus"",""0"",""0""
""focus"",""0"",""0""
","""event"",""trial"",""time""
""fullscreenenter"",""5"",""8434""
","
","296.30000001192093","","49","","","3000","1","","","images/tutyellowplanet.jpg","images/tutalien4","images/tutalien3","images/tutrocket2","images/tutalien3","images/nothing.png","2","practice","false","1","rare","0","2022-12-20 03:42:21.929"
"two-step-fixation","90","293022","0.0-61.0-2.9","2360","4975","17","Male","true","false","false","true","""event"",""trial"",""time""
""focus"",""0"",""0""
""blur"",""0"",""0""
""focus"",""0"",""0""
""fullscreenenter"",""5"",""8434""
","""event"",""trial"",""time""
""blur"",""0"",""0""
","""event"",""trial"",""time""
""focus"",""0"",""0""
""focus"",""0"",""0""
","""event"",""trial"",""time""
""fullscreenenter"",""5"",""8434""
","
","","images/earth.jpg","","","","","","","","","","","","","","fixation","","","","","",""
"d3-animate-choice","91","295312","0.0-61.0-0.10","2360","4975","17","Male","true","false","false","true","""event"",""trial"",""time""
""focus"",""0"",""0""
""blur"",""0"",""0""
""focus"",""0"",""0""
""fullscreenenter"",""5"",""8434""
","""event"",""trial"",""time""
""blur"",""0"",""0""
","""event"",""trial"",""time""
""focus"",""0"",""0""
""focus"",""0"",""0""
","""event"",""trial"",""time""
""fullscreenenter"",""5"",""8434""
","
","286.10000002384186","","49","","","3000","1","","","images/earth.jpg","images/tutrocket1","images/tutrocket2","null","images/tutrocket2","","1","practice","null","1","","",""
"d3-animate-choice","92","297623","0.0-61.0-1.10","2360","4975","17","Male","true","false","false","true","""event"",""trial"",""time""
""focus"",""0"",""0""
""blur"",""0"",""0""
""focus"",""0"",""0""
""fullscreenenter"",""5"",""8434""
","""event"",""trial"",""time""
""blur"",""0"",""0""
","""event"",""trial"",""time""
""focus"",""0"",""0""
""focus"",""0"",""0""
","""event"",""trial"",""time""
""fullscreenenter"",""5"",""8434""
","
","305.39999997615814","","48","","","3000","1","","","images/tutgreenplanet.jpg","images/tutalien2","images/tutalien1","images/tutrocket2","images/tutalien2","images/nothing.png","2","practice","true","2","common","0","2022-12-20 03:42:27.536"
"two-step-fixation","93","298632","0.0-61.0-2.10","2360","4975","17","Male","true","false","false","true","""event"",""trial"",""time""
""focus"",""0"",""0""
""blur"",""0"",""0""
""focus"",""0"",""0""
""fullscreenenter"",""5"",""8434""
","""event"",""trial"",""time""
""blur"",""0"",""0""
","""event"",""trial"",""time""
""focus"",""0"",""0""
""focus"",""0"",""0""
","""event"",""trial"",""time""
""fullscreenenter"",""5"",""8434""
","
","","images/earth.jpg","","","","","","","","","","","","","","fixation","","","","","",""
"d3-animate-choice","94","300920","0.0-61.0-0.11","2360","4975","17","Male","true","false","false","true","""event"",""trial"",""time""
""focus"",""0"",""0""
""blur"",""0"",""0""
""focus"",""0"",""0""
""fullscreenenter"",""5"",""8434""
","""event"",""trial"",""time""
""blur"",""0"",""0""
","""event"",""trial"",""time""
""focus"",""0"",""0""
""focus"",""0"",""0""
","""event"",""trial"",""time""
""fullscreenenter"",""5"",""8434""
","
","284.69999998807907","","49","","","3000","1","","","images/earth.jpg","images/tutrocket1","images/tutrocket2","null","images/tutrocket2","","1","practice","null","1","","",""
"d3-animate-choice","95","303536","0.0-61.0-1.11","2360","4975","17","Male","true","false","false","true","""event"",""trial"",""time""
""focus"",""0"",""0""
""blur"",""0"",""0""
""focus"",""0"",""0""
""fullscreenenter"",""5"",""8434""
","""event"",""trial"",""time""
""blur"",""0"",""0""
","""event"",""trial"",""time""
""focus"",""0"",""0""
""focus"",""0"",""0""
","""event"",""trial"",""time""
""fullscreenenter"",""5"",""8434""
","
","613.0999999642372","","49","","","3000","1","","","images/tutgreenplanet.jpg","images/tutalien2","images/tutalien1","images/tutrocket2","images/tutalien1","images/nothing.png","2","practice","true","1","common","0","2022-12-20 03:42:33.449"
"two-step-fixation","96","304540","0.0-61.0-2.11","2360","4975","17","Male","true","false","false","true","""event"",""trial"",""time""
""focus"",""0"",""0""
""blur"",""0"",""0""
""focus"",""0"",""0""
""fullscreenenter"",""5"",""8434""
","""event"",""trial"",""time""
""blur"",""0"",""0""
","""event"",""trial"",""time""
""focus"",""0"",""0""
""focus"",""0"",""0""
","""event"",""trial"",""time""
""fullscreenenter"",""5"",""8434""
","
","","images/earth.jpg","","","","","","","","","","","","","","fixation","","","","","",""
"d3-animate-choice","97","306960","0.0-61.0-0.12","2360","4975","17","Male","true","false","false","true","""event"",""trial"",""time""
""focus"",""0"",""0""
""blur"",""0"",""0""
""focus"",""0"",""0""
""fullscreenenter"",""5"",""8434""
","""event"",""trial"",""time""
""blur"",""0"",""0""
","""event"",""trial"",""time""
""focus"",""0"",""0""
""focus"",""0"",""0""
","""event"",""trial"",""time""
""fullscreenenter"",""5"",""8434""
","
","417.19999998807907","","49","","","3000","1","2309.399999976158","48","images/earth.jpg","images/tutrocket1","images/tutrocket2","null","images/tutrocket2","","1","practice","null","1","","",""
"d3-animate-choice","98","309192","0.0-61.0-1.12","2360","4975","17","Male","true","false","false","true","""event"",""trial"",""time""
""focus"",""0"",""0""
""blur"",""0"",""0""
""focus"",""0"",""0""
""fullscreenenter"",""5"",""8434""
","""event"",""trial"",""time""
""blur"",""0"",""0""
","""event"",""trial"",""time""
""focus"",""0"",""0""
""focus"",""0"",""0""
","""event"",""trial"",""time""
""fullscreenenter"",""5"",""8434""
","
","224.5","","48","","","3000","1","","","images/tutyellowplanet.jpg","images/tutalien4","images/tutalien3","images/tutrocket2","images/tutalien4","images/nothing.png","2","practice","false","2","rare","0","2022-12-20 03:42:39.105"
"two-step-fixation","99","310200","0.0-61.0-2.12","2360","4975","17","Male","true","false","false","true","""event"",""trial"",""time""
""focus"",""0"",""0""
""blur"",""0"",""0""
""focus"",""0"",""0""
""fullscreenenter"",""5"",""8434""
","""event"",""trial"",""time""
""blur"",""0"",""0""
","""event"",""trial"",""time""
""focus"",""0"",""0""
""focus"",""0"",""0""
","""event"",""trial"",""time""
""fullscreenenter"",""5"",""8434""
","
","","images/earth.jpg","","","","","","","","","","","","","","fixation","","","","","",""
"d3-animate-choice","100","312544","0.0-61.0-0.13","2360","4975","17","Male","true","false","false","true","""event"",""trial"",""time""
""focus"",""0"",""0""
""blur"",""0"",""0""
""focus"",""0"",""0""
""fullscreenenter"",""5"",""8434""
","""event"",""trial"",""time""
""blur"",""0"",""0""
","""event"",""trial"",""time""
""focus"",""0"",""0""
""focus"",""0"",""0""
","""event"",""trial"",""time""
""fullscreenenter"",""5"",""8434""
","
","340.89999997615814","","49","","","3000","1","","","images/earth.jpg","images/tutrocket1","images/tutrocket2","null","images/tutrocket2","","1","practice","null","1","","",""
"d3-animate-choice","101","315000","0.0-61.0-1.13","2360","4975","17","Male","true","false","false","true","""event"",""trial"",""time""
""focus"",""0"",""0""
""blur"",""0"",""0""
""focus"",""0"",""0""
""fullscreenenter"",""5"",""8434""
","""event"",""trial"",""time""
""blur"",""0"",""0""
","""event"",""trial"",""time""
""focus"",""0"",""0""
""focus"",""0"",""0""
","""event"",""trial"",""time""
""fullscreenenter"",""5"",""8434""
","
","446.39999997615814","","48","","","3000","1","","","images/tutgreenplanet.jpg","images/tutalien2","images/tutalien1","images/tutrocket2","images/tutalien2","images/nothing.png","2","practice","true","2","common","0","2022-12-20 03:42:44.913"
"two-step-fixation","102","316007","0.0-61.0-2.13","2360","4975","17","Male","true","false","false","true","""event"",""trial"",""time""
""focus"",""0"",""0""
""blur"",""0"",""0""
""focus"",""0"",""0""
""fullscreenenter"",""5"",""8434""
","""event"",""trial"",""time""
""blur"",""0"",""0""
","""event"",""trial"",""time""
""focus"",""0"",""0""
""focus"",""0"",""0""
","""event"",""trial"",""time""
""fullscreenenter"",""5"",""8434""
","
","","images/earth.jpg","","","","","","","","","","","","","","fixation","","","","","",""
"d3-animate-choice","103","318304","0.0-61.0-0.14","2360","4975","17","Male","true","false","false","true","""event"",""trial"",""time""
""focus"",""0"",""0""
""blur"",""0"",""0""
""focus"",""0"",""0""
""fullscreenenter"",""5"",""8434""
","""event"",""trial"",""time""
""blur"",""0"",""0""
","""event"",""trial"",""time""
""focus"",""0"",""0""
""focus"",""0"",""0""
","""event"",""trial"",""time""
""fullscreenenter"",""5"",""8434""
","
","290.60000002384186","","49","","","3000","1","","","images/earth.jpg","images/tutrocket1","images/tutrocket2","null","images/tutrocket2","","1","practice","null","1","","",""
"d3-animate-choice","104","320656","0.0-61.0-1.14","2360","4975","17","Male","true","false","false","true","""event"",""trial"",""time""
""focus"",""0"",""0""
""blur"",""0"",""0""
""focus"",""0"",""0""
""fullscreenenter"",""5"",""8434""
","""event"",""trial"",""time""
""blur"",""0"",""0""
","""event"",""trial"",""time""
""focus"",""0"",""0""
""focus"",""0"",""0""
","""event"",""trial"",""time""
""fullscreenenter"",""5"",""8434""
","
","348.89999997615814","","48","","","3000","1","","","images/tutgreenplanet.jpg","images/tutalien2","images/tutalien1","images/tutrocket2","images/tutalien2","images/nothing.png","2","practice","true","2","common","0","2022-12-20 03:42:50.569"
"two-step-fixation","105","321664","0.0-61.0-2.14","2360","4975","17","Male","true","false","false","true","""event"",""trial"",""time""
""focus"",""0"",""0""
""blur"",""0"",""0""
""focus"",""0"",""0""
""fullscreenenter"",""5"",""8434""
","""event"",""trial"",""time""
""blur"",""0"",""0""
","""event"",""trial"",""time""
""focus"",""0"",""0""
""focus"",""0"",""0""
","""event"",""trial"",""time""
""fullscreenenter"",""5"",""8434""
","
","","images/earth.jpg","","","","","","","","","","","","","","fixation","","","","","",""
"d3-animate-choice","106","323969","0.0-61.0-0.15","2360","4975","17","Male","true","false","false","true","""event"",""trial"",""time""
""focus"",""0"",""0""
""blur"",""0"",""0""
""focus"",""0"",""0""
""fullscreenenter"",""5"",""8434""
","""event"",""trial"",""time""
""blur"",""0"",""0""
","""event"",""trial"",""time""
""focus"",""0"",""0""
""focus"",""0"",""0""
","""event"",""trial"",""time""
""fullscreenenter"",""5"",""8434""
","
","297.30000001192093","","49","","","3000","1","","","images/earth.jpg","images/tutrocket1","images/tutrocket2","null","images/tutrocket2","","1","practice","null","1","","",""
"d3-animate-choice","107","326240","0.0-61.0-1.15","2360","4975","17","Male","true","false","false","true","""event"",""trial"",""time""
""focus"",""0"",""0""
""blur"",""0"",""0""
""focus"",""0"",""0""
""fullscreenenter"",""5"",""8434""
","""event"",""trial"",""time""
""blur"",""0"",""0""
","""event"",""trial"",""time""
""focus"",""0"",""0""
""focus"",""0"",""0""
","""event"",""trial"",""time""
""fullscreenenter"",""5"",""8434""
","
","263","","49","","","3000","1","","","images/tutgreenplanet.jpg","images/tutalien2","images/tutalien1","images/tutrocket2","images/tutalien1","images/t.png","2","practice","true","1","common","1","2022-12-20 03:42:56.153"
"two-step-fixation","108","327248","0.0-61.0-2.15","2360","4975","17","Male","true","false","false","true","""event"",""trial"",""time""
""focus"",""0"",""0""
""blur"",""0"",""0""
""focus"",""0"",""0""
""fullscreenenter"",""5"",""8434""
","""event"",""trial"",""time""
""blur"",""0"",""0""
","""event"",""trial"",""time""
""focus"",""0"",""0""
""focus"",""0"",""0""
","""event"",""trial"",""time""
""fullscreenenter"",""5"",""8434""
","
","","images/earth.jpg","","","","","","","","","","","","","","fixation","","","","","",""
"d3-animate-choice","109","329552","0.0-61.0-0.16","2360","4975","17","Male","true","false","false","true","""event"",""trial"",""time""
""focus"",""0"",""0""
""blur"",""0"",""0""
""focus"",""0"",""0""
""fullscreenenter"",""5"",""8434""
","""event"",""trial"",""time""
""blur"",""0"",""0""
","""event"",""trial"",""time""
""focus"",""0"",""0""
""focus"",""0"",""0""
","""event"",""trial"",""time""
""fullscreenenter"",""5"",""8434""
","
","295.19999998807907","","49","","","3000","1","","","images/earth.jpg","images/tutrocket1","images/tutrocket2","null","images/tutrocket2","","1","practice","null","1","","",""
"d3-animate-choice","110","331920","0.0-61.0-1.16","2360","4975","17","Male","true","false","false","true","""event"",""trial"",""time""
""focus"",""0"",""0""
""blur"",""0"",""0""
""focus"",""0"",""0""
""fullscreenenter"",""5"",""8434""
","""event"",""trial"",""time""
""blur"",""0"",""0""
","""event"",""trial"",""time""
""focus"",""0"",""0""
""focus"",""0"",""0""
","""event"",""trial"",""time""
""fullscreenenter"",""5"",""8434""
","
","362.39999997615814","","49","","","3000","1","","","images/tutgreenplanet.jpg","images/tutalien2","images/tutalien1","images/tutrocket2","images/tutalien1","images/nothing.png","2","practice","true","1","common","0","2022-12-20 03:43:01.833"
"two-step-fixation","111","332924","0.0-61.0-2.16","2360","4975","17","Male","true","false","false","true","""event"",""trial"",""time""
""focus"",""0"",""0""
""blur"",""0"",""0""
""focus"",""0"",""0""
""fullscreenenter"",""5"",""8434""
","""event"",""trial"",""time""
""blur"",""0"",""0""
","""event"",""trial"",""time""
""focus"",""0"",""0""
""focus"",""0"",""0""
","""event"",""trial"",""time""
""fullscreenenter"",""5"",""8434""
","
","","images/earth.jpg","","","","","","","","","","","","","","fixation","","","","","",""
"d3-animate-choice","112","335039","0.0-61.0-0.17","2360","4975","17","Male","true","false","false","true","""event"",""trial"",""time""
""focus"",""0"",""0""
""blur"",""0"",""0""
""focus"",""0"",""0""
""fullscreenenter"",""5"",""8434""
","""event"",""trial"",""time""
""blur"",""0"",""0""
","""event"",""trial"",""time""
""focus"",""0"",""0""
""focus"",""0"",""0""
","""event"",""trial"",""time""
""fullscreenenter"",""5"",""8434""
","
","108.5","","49","","","3000","1","438.30000001192093,1623.5999999642372,1938.5","49,49,49","images/earth.jpg","images/tutrocket1","images/tutrocket2","null","images/tutrocket2","","1","practice","null","1","","",""
"d3-animate-choice","113","337312","0.0-61.0-1.17","2360","4975","17","Male","true","false","false","true","""event"",""trial"",""time""
""focus"",""0"",""0""
""blur"",""0"",""0""
""focus"",""0"",""0""
""fullscreenenter"",""5"",""8434""
","""event"",""trial"",""time""
""blur"",""0"",""0""
","""event"",""trial"",""time""
""focus"",""0"",""0""
""focus"",""0"",""0""
","""event"",""trial"",""time""
""fullscreenenter"",""5"",""8434""
","
","268.89999997615814","","49","","","3000","1","","","images/tutyellowplanet.jpg","images/tutalien4","images/tutalien3","images/tutrocket2","images/tutalien3","images/nothing.png","2","practice","false","1","rare","0","2022-12-20 03:43:07.225"
"two-step-fixation","114","338320","0.0-61.0-2.17","2360","4975","17","Male","true","false","false","true","""event"",""trial"",""time""
""focus"",""0"",""0""
""blur"",""0"",""0""
""focus"",""0"",""0""
""fullscreenenter"",""5"",""8434""
","""event"",""trial"",""time""
""blur"",""0"",""0""
","""event"",""trial"",""time""
""focus"",""0"",""0""
""focus"",""0"",""0""
","""event"",""trial"",""time""
""fullscreenenter"",""5"",""8434""
","
","","images/earth.jpg","","","","","","","","","","","","","","fixation","","","","","",""
"d3-animate-choice","115","340488","0.0-61.0-0.18","2360","4975","17","Male","true","false","false","true","""event"",""trial"",""time""
""focus"",""0"",""0""
""blur"",""0"",""0""
""focus"",""0"",""0""
""fullscreenenter"",""5"",""8434""
","""event"",""trial"",""time""
""blur"",""0"",""0""
","""event"",""trial"",""time""
""focus"",""0"",""0""
""focus"",""0"",""0""
","""event"",""trial"",""time""
""fullscreenenter"",""5"",""8434""
","
","158.19999998807907","","48","","","3000","1","","","images/earth.jpg","images/tutrocket1","images/tutrocket2","null","images/tutrocket1","","1","practice","null","2","","",""
"d3-animate-choice","116","343120","0.0-61.0-1.18","2360","4975","17","Male","true","false","false","true","""event"",""trial"",""time""
""focus"",""0"",""0""
""blur"",""0"",""0""
""focus"",""0"",""0""
""fullscreenenter"",""5"",""8434""
","""event"",""trial"",""time""
""blur"",""0"",""0""
","""event"",""trial"",""time""
""focus"",""0"",""0""
""focus"",""0"",""0""
","""event"",""trial"",""time""
""fullscreenenter"",""5"",""8434""
","
","629.6999999880791","","48","","","3000","1","","","images/tutyellowplanet.jpg","images/tutalien4","images/tutalien3","images/tutrocket1","images/tutalien4","images/t.png","2","practice","true","2","common","1","2022-12-20 03:43:13.033"
"two-step-fixation","117","344128","0.0-61.0-2.18","2360","4975","17","Male","true","false","false","true","""event"",""trial"",""time""
""focus"",""0"",""0""
""blur"",""0"",""0""
""focus"",""0"",""0""
""fullscreenenter"",""5"",""8434""
","""event"",""trial"",""time""
""blur"",""0"",""0""
","""event"",""trial"",""time""
""focus"",""0"",""0""
""focus"",""0"",""0""
","""event"",""trial"",""time""
""fullscreenenter"",""5"",""8434""
","
","","images/earth.jpg","","","","","","","","","","","","","","fixation","","","","","",""
"d3-animate-choice","118","346448","0.0-61.0-0.19","2360","4975","17","Male","true","false","false","true","""event"",""trial"",""time""
""focus"",""0"",""0""
""blur"",""0"",""0""
""focus"",""0"",""0""
""fullscreenenter"",""5"",""8434""
","""event"",""trial"",""time""
""blur"",""0"",""0""
","""event"",""trial"",""time""
""focus"",""0"",""0""
""focus"",""0"",""0""
","""event"",""trial"",""time""
""fullscreenenter"",""5"",""8434""
","
","318.4000000357628","","48","","","3000","1","","","images/earth.jpg","images/tutrocket1","images/tutrocket2","null","images/tutrocket1","","1","practice","null","2","","",""
"d3-animate-choice","119","348856","0.0-61.0-1.19","2360","4975","17","Male","true","false","false","true","""event"",""trial"",""time""
""focus"",""0"",""0""
""blur"",""0"",""0""
""focus"",""0"",""0""
""fullscreenenter"",""5"",""8434""
","""event"",""trial"",""time""
""blur"",""0"",""0""
","""event"",""trial"",""time""
""focus"",""0"",""0""
""focus"",""0"",""0""
","""event"",""trial"",""time""
""fullscreenenter"",""5"",""8434""
","
","405","","48","","","3000","1","","","images/tutyellowplanet.jpg","images/tutalien4","images/tutalien3","images/tutrocket1","images/tutalien4","images/nothing.png","2","practice","true","2","common","0","2022-12-20 03:43:18.769"
"two-step-fixation","120","349864","0.0-61.0-2.19","2360","4975","17","Male","true","false","false","true","""event"",""trial"",""time""
""focus"",""0"",""0""
""blur"",""0"",""0""
""focus"",""0"",""0""
""fullscreenenter"",""5"",""8434""
","""event"",""trial"",""time""
""blur"",""0"",""0""
","""event"",""trial"",""time""
""focus"",""0"",""0""
""focus"",""0"",""0""
","""event"",""trial"",""time""
""fullscreenenter"",""5"",""8434""
","
","","images/earth.jpg","","","","","","","","","","","","","","fixation","","","","","",""
"d3-instructions","121","352857","0.0-62.0","2360","4975","17","Male","true","false","false","true","""event"",""trial"",""time""
""focus"",""0"",""0""
""blur"",""0"",""0""
""focus"",""0"",""0""
""fullscreenenter"",""5"",""8434""
","""event"",""trial"",""time""
""blur"",""0"",""0""
","""event"",""trial"",""time""
""focus"",""0"",""0""
""focus"",""0"",""0""
","""event"",""trial"",""time""
""fullscreenenter"",""5"",""8434""
","
","","","","","","","","","","","","","","","","","","","","","",""
"audio-keyboard-response","122","354376","0.0-63.0","2360","4975","17","Male","true","false","false","true","""event"",""trial"",""time""
""focus"",""0"",""0""
""blur"",""0"",""0""
""focus"",""0"",""0""
""fullscreenenter"",""5"",""8434""
","""event"",""trial"",""time""
""blur"",""0"",""0""
","""event"",""trial"",""time""
""focus"",""0"",""0""
""focus"",""0"",""0""
","""event"",""trial"",""time""
""fullscreenenter"",""5"",""8434""
","
","1512","audio/instructions/treasure_feedback.wav","32","","","","","","","","","","","","","","","","","","",""
"d3-instructions","123","359343","0.0-64.0","2360","4975","17","Male","true","false","false","true","""event"",""trial"",""time""
""focus"",""0"",""0""
""blur"",""0"",""0""
""focus"",""0"",""0""
""fullscreenenter"",""5"",""8434""
","""event"",""trial"",""time""
""blur"",""0"",""0""
","""event"",""trial"",""time""
""focus"",""0"",""0""
""focus"",""0"",""0""
","""event"",""trial"",""time""
""fullscreenenter"",""5"",""8434""
","
","","","","","","","","","","","","","","","","","","","","","",""
"d3-instructions","124","365161","0.0-65.0","2360","4975","17","Male","true","false","false","true","""event"",""trial"",""time""
""focus"",""0"",""0""
""blur"",""0"",""0""
""focus"",""0"",""0""
""fullscreenenter"",""5"",""8434""
","""event"",""trial"",""time""
""blur"",""0"",""0""
","""event"",""trial"",""time""
""focus"",""0"",""0""
""focus"",""0"",""0""
","""event"",""trial"",""time""
""fullscreenenter"",""5"",""8434""
","
","","","","","","","","","","","","","","","","","","","","","",""
"d3-instructions","125","373646","0.0-66.0","2360","4975","17","Male","true","false","false","true","""event"",""trial"",""time""
""focus"",""0"",""0""
""blur"",""0"",""0""
""focus"",""0"",""0""
""fullscreenenter"",""5"",""8434""
","""event"",""trial"",""time""
""blur"",""0"",""0""
","""event"",""trial"",""time""
""focus"",""0"",""0""
""focus"",""0"",""0""
","""event"",""trial"",""time""
""fullscreenenter"",""5"",""8434""
","
","","","","","","","","","","","","","","","","","","","","","",""
"d3-instructions","126","378423","0.0-67.0","2360","4975","17","Male","true","false","false","true","""event"",""trial"",""time""
""focus"",""0"",""0""
""blur"",""0"",""0""
""focus"",""0"",""0""
""fullscreenenter"",""5"",""8434""
","""event"",""trial"",""time""
""blur"",""0"",""0""
","""event"",""trial"",""time""
""focus"",""0"",""0""
""focus"",""0"",""0""
","""event"",""trial"",""time""
""fullscreenenter"",""5"",""8434""
","
","","","","","","","","","","","","","","","","","","","","","",""
"d3-instructions","127","380861","0.0-68.0","2360","4975","17","Male","true","false","false","true","""event"",""trial"",""time""
""focus"",""0"",""0""
""blur"",""0"",""0""
""focus"",""0"",""0""
""fullscreenenter"",""5"",""8434""
","""event"",""trial"",""time""
""blur"",""0"",""0""
","""event"",""trial"",""time""
""focus"",""0"",""0""
""focus"",""0"",""0""
","""event"",""trial"",""time""
""fullscreenenter"",""5"",""8434""
","
","","","","","","","","","","","","","","","","","","","","","",""
"instructions-quiz","128","383107","0.0-69.0","2360","4975","17","Male","true","false","false","true","""event"",""trial"",""time""
""focus"",""0"",""0""
""blur"",""0"",""0""
""focus"",""0"",""0""
""fullscreenenter"",""5"",""8434""
","""event"",""trial"",""time""
""blur"",""0"",""0""
","""event"",""trial"",""time""
""focus"",""0"",""0""
""focus"",""0"",""0""
","""event"",""trial"",""time""
""fullscreenenter"",""5"",""8434""
","
","2244.5","audio/quiz/Q1_Prompt.wav","","1","","","","","","","","","","","","","","","","","",""
"audio-keyboard-response","129","384245","0.0-70.0","2360","4975","17","Male","true","false","false","true","""event"",""trial"",""time""
""focus"",""0"",""0""
""blur"",""0"",""0""
""focus"",""0"",""0""
""fullscreenenter"",""5"",""8434""
","""event"",""trial"",""time""
""blur"",""0"",""0""
","""event"",""trial"",""time""
""focus"",""0"",""0""
""focus"",""0"",""0""
","""event"",""trial"",""time""
""fullscreenenter"",""5"",""8434""
","
","1131","audio/quiz/Q1_Correct.wav","32","","","","","","","","","","","","","","","","","","",""
"instructions-quiz","130","388435","0.0-71.0","2360","4975","17","Male","true","false","false","true","""event"",""trial"",""time""
""focus"",""0"",""0""
""blur"",""0"",""0""
""focus"",""0"",""0""
""fullscreenenter"",""5"",""8434""
","""event"",""trial"",""time""
""blur"",""0"",""0""
","""event"",""trial"",""time""
""focus"",""0"",""0""
""focus"",""0"",""0""
","""event"",""trial"",""time""
""fullscreenenter"",""5"",""8434""
","
","4188.599999964237","audio/quiz/Q2_Prompt.wav","","1","","","","","","","","","","","","","","","","","",""
"audio-keyboard-response","131","392559","0.0-72.0","2360","4975","17","Male","true","false","false","true","""event"",""trial"",""time""
""focus"",""0"",""0""
""blur"",""0"",""0""
""focus"",""0"",""0""
""fullscreenenter"",""5"",""8434""
","""event"",""trial"",""time""
""blur"",""0"",""0""
","""event"",""trial"",""time""
""focus"",""0"",""0""
""focus"",""0"",""0""
","""event"",""trial"",""time""
""fullscreenenter"",""5"",""8434""
","
","4131","audio/quiz/Q2_Incorrect.wav","32","","","","","","","","","","","","","","","","","","",""
"instructions-quiz","132","396724","0.0-73.0","2360","4975","17","Male","true","false","false","true","""event"",""trial"",""time""
""focus"",""0"",""0""
""blur"",""0"",""0""
""focus"",""0"",""0""
""fullscreenenter"",""5"",""8434""
","""event"",""trial"",""time""
""blur"",""0"",""0""
","""event"",""trial"",""time""
""focus"",""0"",""0""
""focus"",""0"",""0""
","""event"",""trial"",""time""
""fullscreenenter"",""5"",""8434""
","
","4163.899999976158","audio/quiz/Q3_Prompt.wav","","0","","","","","","","","","","","","","","","","","",""
"audio-keyboard-response","133","398003","0.0-74.0","2360","4975","17","Male","true","false","false","true","""event"",""trial"",""time""
""focus"",""0"",""0""
""blur"",""0"",""0""
""focus"",""0"",""0""
""fullscreenenter"",""5"",""8434""
","""event"",""trial"",""time""
""blur"",""0"",""0""
","""event"",""trial"",""time""
""focus"",""0"",""0""
""focus"",""0"",""0""
","""event"",""trial"",""time""
""fullscreenenter"",""5"",""8434""
","
","1280","audio/quiz/Q3_Incorrect.wav","32","","","","","","","","","","","","","","","","","","",""
"d3-instructions","134","400717","0.0-75.0","2360","4975","17","Male","true","false","false","true","""event"",""trial"",""time""
""focus"",""0"",""0""
""blur"",""0"",""0""
""focus"",""0"",""0""
""fullscreenenter"",""5"",""8434""
","""event"",""trial"",""time""
""blur"",""0"",""0""
","""event"",""trial"",""time""
""focus"",""0"",""0""
""focus"",""0"",""0""
","""event"",""trial"",""time""
""fullscreenenter"",""5"",""8434""
","
","","","","","","","","","","","","","","","","","","","","","",""
"d3-animate-choice","135","403552","0.0-76.0-0.0","2360","4975","17","Male","true","false","false","true","""event"",""trial"",""time""
""focus"",""0"",""0""
""blur"",""0"",""0""
""focus"",""0"",""0""
""fullscreenenter"",""5"",""8434""
","""event"",""trial"",""time""
""blur"",""0"",""0""
","""event"",""trial"",""time""
""focus"",""0"",""0""
""focus"",""0"",""0""
","""event"",""trial"",""time""
""fullscreenenter"",""5"",""8434""
","
","826.3000000119209","","49","","","3000","1","","","images/earth.jpg","images/rocket2","images/rocket1","null","images/rocket1","","1","real","null","1","","",""
"d3-animate-choice","136","406120","0.0-76.0-1.0","2360","4975","17","Male","true","false","false","true","""event"",""trial"",""time""
""focus"",""0"",""0""
""blur"",""0"",""0""
""focus"",""0"",""0""
""fullscreenenter"",""5"",""8434""
","""event"",""trial"",""time""
""blur"",""0"",""0""
","""event"",""trial"",""time""
""focus"",""0"",""0""
""focus"",""0"",""0""
","""event"",""trial"",""time""
""fullscreenenter"",""5"",""8434""
","
","563.7999999523163","","49","","","3000","1","","","images/purpleplanet.jpg","images/alien4","images/alien3","images/rocket1","images/alien3","images/t.png","2","real","true","1","common","1","2022-12-20 03:44:16.033"
"two-step-fixation","137","407128","0.0-76.0-2.0","2360","4975","17","Male","true","false","false","true","""event"",""trial"",""time""
""focus"",""0"",""0""
""blur"",""0"",""0""
""focus"",""0"",""0""
""fullscreenenter"",""5"",""8434""
","""event"",""trial"",""time""
""blur"",""0"",""0""
","""event"",""trial"",""time""
""focus"",""0"",""0""
""focus"",""0"",""0""
","""event"",""trial"",""time""
""fullscreenenter"",""5"",""8434""
","
","","images/earth.jpg","","","","","","","","","","","","","","fixation","","","","","",""
"d3-animate-choice","138","409360","0.0-76.0-0.1","2360","4975","17","Male","true","false","false","true","""event"",""trial"",""time""
""focus"",""0"",""0""
""blur"",""0"",""0""
""focus"",""0"",""0""
""fullscreenenter"",""5"",""8434""
","""event"",""trial"",""time""
""blur"",""0"",""0""
","""event"",""trial"",""time""
""focus"",""0"",""0""
""focus"",""0"",""0""
","""event"",""trial"",""time""
""fullscreenenter"",""5"",""8434""
","
","223","","49","","","3000","1","","","images/earth.jpg","images/rocket2","images/rocket1","null","images/rocket1","","1","real","null","1","","",""
"d3-animate-choice","139","411680","0.0-76.0-1.1","2360","4975","17","Male","true","false","false","true","""event"",""trial"",""time""
""focus"",""0"",""0""
""blur"",""0"",""0""
""focus"",""0"",""0""
""fullscreenenter"",""5"",""8434""
","""event"",""trial"",""time""
""blur"",""0"",""0""
","""event"",""trial"",""time""
""focus"",""0"",""0""
""focus"",""0"",""0""
","""event"",""trial"",""time""
""fullscreenenter"",""5"",""8434""
","
","315.10000002384186","","49","","","3000","1","","","images/purpleplanet.jpg","images/alien4","images/alien3","images/rocket1","images/alien3","images/nothing.png","2","real","true","1","common","0","2022-12-20 03:44:21.593"
"two-step-fixation","140","412688","0.0-76.0-2.1","2360","4975","17","Male","true","false","false","true","""event"",""trial"",""time""
""focus"",""0"",""0""
""blur"",""0"",""0""
""focus"",""0"",""0""
""fullscreenenter"",""5"",""8434""
","""event"",""trial"",""time""
""blur"",""0"",""0""
","""event"",""trial"",""time""
""focus"",""0"",""0""
""focus"",""0"",""0""
","""event"",""trial"",""time""
""fullscreenenter"",""5"",""8434""
","
","","images/earth.jpg","","","","","","","","","","","","","","fixation","","","","","",""
"d3-animate-choice","141","415040","0.0-76.0-0.2","2360","4975","17","Male","true","false","false","true","""event"",""trial"",""time""
""focus"",""0"",""0""
""blur"",""0"",""0""
""focus"",""0"",""0""
""fullscreenenter"",""5"",""8434""
","""event"",""trial"",""time""
""blur"",""0"",""0""
","""event"",""trial"",""time""
""focus"",""0"",""0""
""focus"",""0"",""0""
","""event"",""trial"",""time""
""fullscreenenter"",""5"",""8434""
","
","345.19999998807907","","49","","","3000","1","","","images/earth.jpg","images/rocket2","images/rocket1","null","images/rocket1","","1","real","null","1","","",""
"d3-animate-choice","142","417264","0.0-76.0-1.2","2360","4975","17","Male","true","false","false","true","""event"",""trial"",""time""
""focus"",""0"",""0""
""blur"",""0"",""0""
""focus"",""0"",""0""
""fullscreenenter"",""5"",""8434""
","""event"",""trial"",""time""
""blur"",""0"",""0""
","""event"",""trial"",""time""
""focus"",""0"",""0""
""focus"",""0"",""0""
","""event"",""trial"",""time""
""fullscreenenter"",""5"",""8434""
","
","217.30000001192093","","49","","","3000","1","","","images/redplanet1.jpg","images/alien2","images/alien1","images/rocket1","images/alien1","images/nothing.png","2","real","false","1","rare","0","2022-12-20 03:44:27.177"
"two-step-fixation","143","418272","0.0-76.0-2.2","2360","4975","17","Male","true","false","false","true","""event"",""trial"",""time""
""focus"",""0"",""0""
""blur"",""0"",""0""
""focus"",""0"",""0""
""fullscreenenter"",""5"",""8434""
","""event"",""trial"",""time""
""blur"",""0"",""0""
","""event"",""trial"",""time""
""focus"",""0"",""0""
""focus"",""0"",""0""
","""event"",""trial"",""time""
""fullscreenenter"",""5"",""8434""
","
","","images/earth.jpg","","","","","","","","","","","","","","fixation","","","","","",""
"d3-animate-choice","144","420541","0.0-76.0-0.3","2360","4975","17","Male","true","false","false","true","""event"",""trial"",""time""
""focus"",""0"",""0""
""blur"",""0"",""0""
""focus"",""0"",""0""
""fullscreenenter"",""5"",""8434""
","""event"",""trial"",""time""
""blur"",""0"",""0""
","""event"",""trial"",""time""
""focus"",""0"",""0""
""focus"",""0"",""0""
","""event"",""trial"",""time""
""fullscreenenter"",""5"",""8434""
","
","253","","49","","","3000","1","","","images/earth.jpg","images/rocket2","images/rocket1","null","images/rocket1","","1","real","null","1","","",""
"d3-animate-choice","145","422901","0.0-76.0-1.3","2360","4975","17","Male","true","false","false","true","""event"",""trial"",""time""
""focus"",""0"",""0""
""blur"",""0"",""0""
""focus"",""0"",""0""
""fullscreenenter"",""5"",""8434""
","""event"",""trial"",""time""
""blur"",""0"",""0""
","""event"",""trial"",""time""
""focus"",""0"",""0""
""focus"",""0"",""0""
","""event"",""trial"",""time""
""fullscreenenter"",""5"",""8434""
","
","352","","49","","","3000","1","","","images/purpleplanet.jpg","images/alien4","images/alien3","images/rocket1","images/alien3","images/nothing.png","2","real","true","1","common","0","2022-12-20 03:44:32.814"
"two-step-fixation","146","423911","0.0-76.0-2.3","2360","4975","17","Male","true","false","false","true","""event"",""trial"",""time""
""focus"",""0"",""0""
""blur"",""0"",""0""
""focus"",""0"",""0""
""fullscreenenter"",""5"",""8434""
","""event"",""trial"",""time""
""blur"",""0"",""0""
","""event"",""trial"",""time""
""focus"",""0"",""0""
""focus"",""0"",""0""
","""event"",""trial"",""time""
""fullscreenenter"",""5"",""8434""
","
","","images/earth.jpg","","","","","","","","","","","","","","fixation","","","","","",""
"d3-animate-choice","147","426080","0.0-76.0-0.4","2360","4975","17","Male","true","false","false","true","""event"",""trial"",""time""
""focus"",""0"",""0""
""blur"",""0"",""0""
""focus"",""0"",""0""
""fullscreenenter"",""5"",""8434""
","""event"",""trial"",""time""
""blur"",""0"",""0""
","""event"",""trial"",""time""
""focus"",""0"",""0""
""focus"",""0"",""0""
","""event"",""trial"",""time""
""fullscreenenter"",""5"",""8434""
","
","160.89999997615814","","49","","","3000","1","","","images/earth.jpg","images/rocket2","images/rocket1","null","images/rocket1","","1","real","null","1","","",""
"d3-animate-choice","148","428295","0.0-76.0-1.4","2360","4975","17","Male","true","false","false","true","""event"",""trial"",""time""
""focus"",""0"",""0""
""blur"",""0"",""0""
""focus"",""0"",""0""
""fullscreenenter"",""5"",""8434""
","""event"",""trial"",""time""
""blur"",""0"",""0""
","""event"",""trial"",""time""
""focus"",""0"",""0""
""focus"",""0"",""0""
","""event"",""trial"",""time""
""fullscreenenter"",""5"",""8434""
","
","206.4000000357628","","49","","","3000","1","","","images/redplanet1.jpg","images/alien2","images/alien1","images/rocket1","images/alien1","images/nothing.png","2","real","false","1","rare","0","2022-12-20 03:44:38.208"
"two-step-fixation","149","429304","0.0-76.0-2.4","2360","4975","17","Male","true","false","false","true","""event"",""trial"",""time""
""focus"",""0"",""0""
""blur"",""0"",""0""
""focus"",""0"",""0""
""fullscreenenter"",""5"",""8434""
","""event"",""trial"",""time""
""blur"",""0"",""0""
","""event"",""trial"",""time""
""focus"",""0"",""0""
""focus"",""0"",""0""
","""event"",""trial"",""time""
""fullscreenenter"",""5"",""8434""
","
","","images/earth.jpg","","","","","","","","","","","","","","fixation","","","","","",""
"d3-animate-choice","150","431360","0.0-76.0-0.5","2360","4975","17","Male","true","false","false","true","""event"",""trial"",""time""
""focus"",""0"",""0""
""blur"",""0"",""0""
""focus"",""0"",""0""
""fullscreenenter"",""5"",""8434""
","""event"",""trial"",""time""
""blur"",""0"",""0""
","""event"",""trial"",""time""
""focus"",""0"",""0""
""focus"",""0"",""0""
","""event"",""trial"",""time""
""fullscreenenter"",""5"",""8434""
","
","47.19999998807907","","49","","","3000","1","","","images/earth.jpg","images/rocket2","images/rocket1","null","images/rocket1","","1","real","null","1","","",""
"d3-animate-choice","151","433424","0.0-76.0-1.5","2360","4975","17","Male","true","false","false","true","""event"",""trial"",""time""
""focus"",""0"",""0""
""blur"",""0"",""0""
""focus"",""0"",""0""
""fullscreenenter"",""5"",""8434""
","""event"",""trial"",""time""
""blur"",""0"",""0""
","""event"",""trial"",""time""
""focus"",""0"",""0""
""focus"",""0"",""0""
","""event"",""trial"",""time""
""fullscreenenter"",""5"",""8434""
","
","54.40000003576279","","49","","","3000","1","","","images/purpleplanet.jpg","images/alien4","images/alien3","images/rocket1","images/alien3","images/nothing.png","2","real","true","1","common","0","2022-12-20 03:44:43.337"
"two-step-fixation","152","434429","0.0-76.0-2.5","2360","4975","17","Male","true","false","false","true","""event"",""trial"",""time""
""focus"",""0"",""0""
""blur"",""0"",""0""
""focus"",""0"",""0""
""fullscreenenter"",""5"",""8434""
","""event"",""trial"",""time""
""blur"",""0"",""0""
","""event"",""trial"",""time""
""focus"",""0"",""0""
""focus"",""0"",""0""
","""event"",""trial"",""time""
""fullscreenenter"",""5"",""8434""
","
","","images/earth.jpg","","","","","","","","","","","","","","fixation","","","","","",""
"d3-animate-choice","153","436545","0.0-76.0-0.6","2360","4975","17","Male","true","false","false","true","""event"",""trial"",""time""
""focus"",""0"",""0""
""blur"",""0"",""0""
""focus"",""0"",""0""
""fullscreenenter"",""5"",""8434""
","""event"",""trial"",""time""
""blur"",""0"",""0""
","""event"",""trial"",""time""
""focus"",""0"",""0""
""focus"",""0"",""0""
","""event"",""trial"",""time""
""fullscreenenter"",""5"",""8434""
","
","105.29999995231628","","49","","","3000","1","","","images/earth.jpg","images/rocket2","images/rocket1","null","images/rocket1","","1","real","null","1","","",""
"d3-animate-choice","154","438812","0.0-76.0-1.6","2360","4975","17","Male","true","false","false","true","""event"",""trial"",""time""
""focus"",""0"",""0""
""blur"",""0"",""0""
""focus"",""0"",""0""
""fullscreenenter"",""5"",""8434""
","""event"",""trial"",""time""
""blur"",""0"",""0""
","""event"",""trial"",""time""
""focus"",""0"",""0""
""focus"",""0"",""0""
","""event"",""trial"",""time""
""fullscreenenter"",""5"",""8434""
","
","261.39999997615814","","48","","","3000","1","","","images/purpleplanet.jpg","images/alien4","images/alien3","images/rocket1","images/alien4","images/t.png","2","real","true","2","common","1","2022-12-20 03:44:48.725"
"two-step-fixation","155","439816","0.0-76.0-2.6","2360","4975","17","Male","true","false","false","true","""event"",""trial"",""time""
""focus"",""0"",""0""
""blur"",""0"",""0""
""focus"",""0"",""0""
""fullscreenenter"",""5"",""8434""
","""event"",""trial"",""time""
""blur"",""0"",""0""
","""event"",""trial"",""time""
""focus"",""0"",""0""
""focus"",""0"",""0""
","""event"",""trial"",""time""
""fullscreenenter"",""5"",""8434""
","
","","images/earth.jpg","","","","","","","","","","","","","","fixation","","","","","",""
"d3-animate-choice","156","441872","0.0-76.0-0.7","2360","4975","17","Male","true","false","false","true","""event"",""trial"",""time""
""focus"",""0"",""0""
""blur"",""0"",""0""
""focus"",""0"",""0""
""fullscreenenter"",""5"",""8434""
","""event"",""trial"",""time""
""blur"",""0"",""0""
","""event"",""trial"",""time""
""focus"",""0"",""0""
""focus"",""0"",""0""
","""event"",""trial"",""time""
""fullscreenenter"",""5"",""8434""
","
","48.69999998807907","","49","","","3000","1","","","images/earth.jpg","images/rocket2","images/rocket1","null","images/rocket1","","1","real","null","1","","",""
"d3-animate-choice","157","444136","0.0-76.0-1.7","2360","4975","17","Male","true","false","false","true","""event"",""trial"",""time""
""focus"",""0"",""0""
""blur"",""0"",""0""
""focus"",""0"",""0""
""fullscreenenter"",""5"",""8434""
","""event"",""trial"",""time""
""blur"",""0"",""0""
","""event"",""trial"",""time""
""focus"",""0"",""0""
""focus"",""0"",""0""
","""event"",""trial"",""time""
""fullscreenenter"",""5"",""8434""
","
","258.60000002384186","","48","","","3000","1","","","images/purpleplanet.jpg","images/alien4","images/alien3","images/rocket1","images/alien4","images/nothing.png","2","real","true","2","common","0","2022-12-20 03:44:54.049"
"two-step-fixation","158","445144","0.0-76.0-2.7","2360","4975","17","Male","true","false","false","true","""event"",""trial"",""time""
""focus"",""0"",""0""
""blur"",""0"",""0""
""focus"",""0"",""0""
""fullscreenenter"",""5"",""8434""
","""event"",""trial"",""time""
""blur"",""0"",""0""
","""event"",""trial"",""time""
""focus"",""0"",""0""
""focus"",""0"",""0""
","""event"",""trial"",""time""
""fullscreenenter"",""5"",""8434""
","
","","images/earth.jpg","","","","","","","","","","","","","","fixation","","","","","",""
"d3-animate-choice","159","447313","0.0-76.0-0.8","2360","4975","17","Male","true","false","false","true","""event"",""trial"",""time""
""focus"",""0"",""0""
""blur"",""0"",""0""
""focus"",""0"",""0""
""fullscreenenter"",""5"",""8434""
","""event"",""trial"",""time""
""blur"",""0"",""0""
","""event"",""trial"",""time""
""focus"",""0"",""0""
""focus"",""0"",""0""
","""event"",""trial"",""time""
""fullscreenenter"",""5"",""8434""
","
","165.10000002384186","","49","","","3000","1","","","images/earth.jpg","images/rocket2","images/rocket1","null","images/rocket1","","1","real","null","1","","",""
"d3-animate-choice","160","449432","0.0-76.0-1.8","2360","4975","17","Male","true","false","false","true","""event"",""trial"",""time""
""focus"",""0"",""0""
""blur"",""0"",""0""
""focus"",""0"",""0""
""fullscreenenter"",""5"",""8434""
","""event"",""trial"",""time""
""blur"",""0"",""0""
","""event"",""trial"",""time""
""focus"",""0"",""0""
""focus"",""0"",""0""
","""event"",""trial"",""time""
""fullscreenenter"",""5"",""8434""
","
","115.19999998807907","","48","","","3000","1","","","images/redplanet1.jpg","images/alien2","images/alien1","images/rocket1","images/alien2","images/nothing.png","2","real","false","2","rare","0","2022-12-20 03:44:59.345"
"two-step-fixation","161","450440","0.0-76.0-2.8","2360","4975","17","Male","true","false","false","true","""event"",""trial"",""time""
""focus"",""0"",""0""
""blur"",""0"",""0""
""focus"",""0"",""0""
""fullscreenenter"",""5"",""8434""
","""event"",""trial"",""time""
""blur"",""0"",""0""
","""event"",""trial"",""time""
""focus"",""0"",""0""
""focus"",""0"",""0""
","""event"",""trial"",""time""
""fullscreenenter"",""5"",""8434""
","
","","images/earth.jpg","","","","","","","","","","","","","","fixation","","","","","",""
"d3-animate-choice","162","452552","0.0-76.0-0.9","2360","4975","17","Male","true","false","false","true","""event"",""trial"",""time""
""focus"",""0"",""0""
""blur"",""0"",""0""
""focus"",""0"",""0""
""fullscreenenter"",""5"",""8434""
","""event"",""trial"",""time""
""blur"",""0"",""0""
","""event"",""trial"",""time""
""focus"",""0"",""0""
""focus"",""0"",""0""
","""event"",""trial"",""time""
""fullscreenenter"",""5"",""8434""
","
","108","","49","","","3000","1","","","images/earth.jpg","images/rocket2","images/rocket1","null","images/rocket1","","1","real","null","1","","",""
"d3-animate-choice","163","454880","0.0-76.0-1.9","2360","4975","17","Male","true","false","false","true","""event"",""trial"",""time""
""focus"",""0"",""0""
""blur"",""0"",""0""
""focus"",""0"",""0""
""fullscreenenter"",""5"",""8434""
","""event"",""trial"",""time""
""blur"",""0"",""0""
","""event"",""trial"",""time""
""focus"",""0"",""0""
""focus"",""0"",""0""
","""event"",""trial"",""time""
""fullscreenenter"",""5"",""8434""
","
","319.39999997615814","","48","","","3000","1","","","images/purpleplanet.jpg","images/alien4","images/alien3","images/rocket1","images/alien4","images/t.png","2","real","true","2","common","1","2022-12-20 03:45:04.793"
"two-step-fixation","164","455888","0.0-76.0-2.9","2360","4975","17","Male","true","false","false","true","""event"",""trial"",""time""
""focus"",""0"",""0""
""blur"",""0"",""0""
""focus"",""0"",""0""
""fullscreenenter"",""5"",""8434""
","""event"",""trial"",""time""
""blur"",""0"",""0""
","""event"",""trial"",""time""
""focus"",""0"",""0""
""focus"",""0"",""0""
","""event"",""trial"",""time""
""fullscreenenter"",""5"",""8434""
","
","","images/earth.jpg","","","","","","","","","","","","","","fixation","","","","","",""
"d3-animate-choice","165","457944","0.0-76.0-0.10","2360","4975","17","Male","true","false","false","true","""event"",""trial"",""time""
""focus"",""0"",""0""
""blur"",""0"",""0""
""focus"",""0"",""0""
""fullscreenenter"",""5"",""8434""
","""event"",""trial"",""time""
""blur"",""0"",""0""
","""event"",""trial"",""time""
""focus"",""0"",""0""
""focus"",""0"",""0""
","""event"",""trial"",""time""
""fullscreenenter"",""5"",""8434""
","
","46.69999998807907","","49","","","3000","1","","","images/earth.jpg","images/rocket2","images/rocket1","null","images/rocket1","","1","real","null","1","","",""
"d3-animate-choice","166","460320","0.0-76.0-1.10","2360","4975","17","Male","true","false","false","true","""event"",""trial"",""time""
""focus"",""0"",""0""
""blur"",""0"",""0""
""focus"",""0"",""0""
""fullscreenenter"",""5"",""8434""
","""event"",""trial"",""time""
""blur"",""0"",""0""
","""event"",""trial"",""time""
""focus"",""0"",""0""
""focus"",""0"",""0""
","""event"",""trial"",""time""
""fullscreenenter"",""5"",""8434""
","
","369.19999998807907","","48","","","3000","1","","","images/purpleplanet.jpg","images/alien4","images/alien3","images/rocket1","images/alien4","images/nothing.png","2","real","true","2","common","0","2022-12-20 03:45:10.233"
"two-step-fixation","167","461328","0.0-76.0-2.10","2360","4975","17","Male","true","false","false","true","""event"",""trial"",""time""
""focus"",""0"",""0""
""blur"",""0"",""0""
""focus"",""0"",""0""
""fullscreenenter"",""5"",""8434""
","""event"",""trial"",""time""
""blur"",""0"",""0""
","""event"",""trial"",""time""
""focus"",""0"",""0""
""focus"",""0"",""0""
","""event"",""trial"",""time""
""fullscreenenter"",""5"",""8434""
","
","","images/earth.jpg","","","","","","","","","","","","","","fixation","","","","","",""
"d3-animate-choice","168","463673","0.0-76.0-0.11","2360","4975","17","Male","true","false","false","true","""event"",""trial"",""time""
""focus"",""0"",""0""
""blur"",""0"",""0""
""focus"",""0"",""0""
""fullscreenenter"",""5"",""8434""
","""event"",""trial"",""time""
""blur"",""0"",""0""
