"trial_type","trial_index","time_elapsed","internal_node_id","participant_id","subject_id","age","gender","rocket_sides","red_planet_first_rocket","red_display_order","purple_display_order","interactions","blur_events","focus_events","fullscreenenter_events","fullscreenexit_events","rt","stimulus","key_press","button_pressed","success","duration","valid_pressed","rts","keys","planet_text","right_text","left_text","center_text","chosen_text","reward_text","trial_stage","practice_trial","transition_type","choice","transition","reward","timestamp"
"pavlovia","0","4","0.0-0.0","1124","3557","10","Female","true","true","true","true","
","
","
","
","
","","","","","","","","","","","","","","","","","","","","","",""
"html-keyboard-response","1","2039","0.0-1.0","1124","3557","10","Female","true","true","true","true","
","
","
","
","
","2034.2000000029802","Welcome! Press the space bar to begin.","32","","","","","","","","","","","","","","","","","","",""
"audio-keyboard-response","2","5711","0.0-2.0","1124","3557","10","Female","true","true","true","true","
","
","
","
","
","3616","audio/beep_loop.wav","32","","","","","","","","","","","","","","","","","","",""
"audio-button-response","3","9298","0.0-3.0","1124","3557","10","Female","true","true","true","true","
","
","
","
","
","NaN","audio/fish.mp3","","1","","","","","","","","","","","","","","","","","",""
"audio-button-response","4","12687","0.0-4.0","1124","3557","10","Female","true","true","true","true","""event"",""trial"",""time""
""fullscreenenter"",""5"",""15221""
","
","
","""event"",""trial"",""time""
""fullscreenenter"",""5"",""15221""
","
","NaN","audio/tiger.mp3","","4","","","","","","","","","","","","","","","","","",""
"fullscreen","5","16211","0.0-5.0","1124","3557","10","Female","true","true","true","true","""event"",""trial"",""time""
""fullscreenenter"",""5"",""15221""
","
","
","""event"",""trial"",""time""
""fullscreenenter"",""5"",""15221""
","
","","","","","true","","","","","","","","","","","","","","","","",""
"d3-instructions","6","32417","0.0-6.0","1124","3557","10","Female","true","true","true","true","""event"",""trial"",""time""
""fullscreenenter"",""5"",""15221""
","
","
","""event"",""trial"",""time""
""fullscreenenter"",""5"",""15221""
","
","","","","","","","","","","","","","","","","","","","","","",""
"d3-instructions","7","40962","0.0-7.0","1124","3557","10","Female","true","true","true","true","""event"",""trial"",""time""
""fullscreenenter"",""5"",""15221""
","
","
","""event"",""trial"",""time""
""fullscreenenter"",""5"",""15221""
","
","","","","","","","","","","","","","","","","","","","","","",""
"d3-instructions","8","48371","0.0-8.0","1124","3557","10","Female","true","true","true","true","""event"",""trial"",""time""
""fullscreenenter"",""5"",""15221""
","
","
","""event"",""trial"",""time""
""fullscreenenter"",""5"",""15221""
","
","","","","","","","","","","","","","","","","","","","","","",""
"d3-instructions","9","59539","0.0-9.0","1124","3557","10","Female","true","true","true","true","""event"",""trial"",""time""
""fullscreenenter"",""5"",""15221""
","
","
","""event"",""trial"",""time""
""fullscreenenter"",""5"",""15221""
","
","","","","","","","","","","","","","","","","","","","","","",""
"d3-instructions","10","81858","0.0-10.0","1124","3557","10","Female","true","true","true","true","""event"",""trial"",""time""
""fullscreenenter"",""5"",""15221""
","
","
","""event"",""trial"",""time""
""fullscreenenter"",""5"",""15221""
","
","","","","","","","","","","","","","","","","","","","","","",""
"d3-animate-choice","11","84526","0.0-11.0","1124","3557","10","Female","true","true","true","true","""event"",""trial"",""time""
""fullscreenenter"",""5"",""15221""
","
","
","""event"",""trial"",""time""
""fullscreenenter"",""5"",""15221""
","
","657.5999999940395","","49","","","3000","1","","","images/tutgreenplanet.jpg","images/tutalien1","images/tutalien2","null","images/tutalien2","","NA","practice","null","","","",""
"d3-animate-choice","12","88995","0.0-12.0","1124","3557","10","Female","true","true","true","true","""event"",""trial"",""time""
""fullscreenenter"",""5"",""15221""
","
","
","""event"",""trial"",""time""
""fullscreenenter"",""5"",""15221""
","
","917.3000000119209","","50","","","3000","1","2461.800000011921","48","images/tutgreenplanet.jpg","images/tutalien1","images/tutalien2","null","images/tutalien1","","NA","practice","null","","","",""
"d3-animate-choice","13","91870","0.0-13.0","1124","3557","10","Female","true","true","true","true","""event"",""trial"",""time""
""fullscreenenter"",""5"",""15221""
","
","
","""event"",""trial"",""time""
""fullscreenenter"",""5"",""15221""
","
","870","","49","","","3000","1","","","images/tutgreenplanet.jpg","images/tutalien1","images/tutalien2","null","images/tutalien2","","NA","practice","null","","","",""
"d3-animate-choice","14","94173","0.0-14.0","1124","3557","10","Female","true","true","true","true","""event"",""trial"",""time""
""fullscreenenter"",""5"",""15221""
","
","
","""event"",""trial"",""time""
""fullscreenenter"",""5"",""15221""
","
","298.29999999701977","","48","","","3000","1","","","images/tutgreenplanet.jpg","images/tutalien1","images/tutalien2","null","images/tutalien1","","NA","practice","null","","","",""
"d3-instructions","15","101668","0.0-15.0","1124","3557","10","Female","true","true","true","true","""event"",""trial"",""time""
""fullscreenenter"",""5"",""15221""
","
","
","""event"",""trial"",""time""
""fullscreenenter"",""5"",""15221""
","
","","","","","","","","","","","","","","","","","","","","","",""
"d3-instructions","16","111395","0.0-16.0","1124","3557","10","Female","true","true","true","true","""event"",""trial"",""time""
""fullscreenenter"",""5"",""15221""
","
","
","""event"",""trial"",""time""
""fullscreenenter"",""5"",""15221""
","
","","","","","","","","","","","","","","","","","","","","","",""
"d3-instructions","17","120356","0.0-17.0","1124","3557","10","Female","true","true","true","true","""event"",""trial"",""time""
""fullscreenenter"",""5"",""15221""
","
","
","""event"",""trial"",""time""
""fullscreenenter"",""5"",""15221""
","
","","","","","","","","","","","","","","","","","","","","","",""
"d3-instructions","18","132478","0.0-18.0","1124","3557","10","Female","true","true","true","true","""event"",""trial"",""time""
""fullscreenenter"",""5"",""15221""
","
","
","""event"",""trial"",""time""
""fullscreenenter"",""5"",""15221""
","
","","","","","","","","","","","","","","","","","","","","","",""
"d3-instructions","19","145482","0.0-19.0","1124","3557","10","Female","true","true","true","true","""event"",""trial"",""time""
""fullscreenenter"",""5"",""15221""
","
","
","""event"",""trial"",""time""
""fullscreenenter"",""5"",""15221""
","
","","","","","","","","","","","","","","","","","","","","","",""
"d3-animate-choice","20","148906","0.0-20.0","1124","3557","10","Female","true","true","true","true","""event"",""trial"",""time""
""fullscreenenter"",""5"",""15221""
","
","
","""event"",""trial"",""time""
""fullscreenenter"",""5"",""15221""
","
","1417.9000000059605","","49","","","3000","1","1557.5","49","images/tutyellowplanet.jpg","null","images/tutalien3","null","images/tutalien3","images/t.png","NA","practice","null","","","",""
"d3-animate-choice","21","151519","0.0-21.0","1124","3557","10","Female","true","true","true","true","""event"",""trial"",""time""
""fullscreenenter"",""5"",""15221""
","
","
","""event"",""trial"",""time""
""fullscreenenter"",""5"",""15221""
","
","607.6000000089407","","49","","","3000","1","","","images/tutyellowplanet.jpg","null","images/tutalien3","null","images/tutalien3","images/t.png","NA","practice","null","","","",""
"d3-animate-choice","22","154126","0.0-22.0","1124","3557","10","Female","true","true","true","true","""event"",""trial"",""time""
""fullscreenenter"",""5"",""15221""
","
","
","""event"",""trial"",""time""
""fullscreenenter"",""5"",""15221""
","
","600.7000000029802","","49","","","3000","1","","","images/tutyellowplanet.jpg","null","images/tutalien3","null","images/tutalien3","images/t.png","NA","practice","null","","","",""
"d3-animate-choice","23","156975","0.0-23.0","1124","3557","10","Female","true","true","true","true","""event"",""trial"",""time""
""fullscreenenter"",""5"",""15221""
","
","
","""event"",""trial"",""time""
""fullscreenenter"",""5"",""15221""
","
","842.7999999970198","","49","","","3000","1","2282.7999999970198","49","images/tutyellowplanet.jpg","null","images/tutalien3","null","images/tutalien3","images/t.png","NA","practice","null","","","",""
"d3-animate-choice","24","159316","0.0-24.0","1124","3557","10","Female","true","true","true","true","""event"",""trial"",""time""
""fullscreenenter"",""5"",""15221""
","
","
","""event"",""trial"",""time""
""fullscreenenter"",""5"",""15221""
","
","334.70000000298023","","49","","","3000","1","","","images/tutyellowplanet.jpg","null","images/tutalien3","null","images/tutalien3","images/t.png","NA","practice","null","","","",""
"d3-animate-choice","25","161668","0.0-25.0","1124","3557","10","Female","true","true","true","true","""event"",""trial"",""time""
""fullscreenenter"",""5"",""15221""
","
","
","""event"",""trial"",""time""
""fullscreenenter"",""5"",""15221""
","
","345.5","","49","","","3000","1","","","images/tutyellowplanet.jpg","null","images/tutalien3","null","images/tutalien3","images/t.png","NA","practice","null","","","",""
"d3-animate-choice","26","164009","0.0-26.0","1124","3557","10","Female","true","true","true","true","""event"",""trial"",""time""
""fullscreenenter"",""5"",""15221""
","
","
","""event"",""trial"",""time""
""fullscreenenter"",""5"",""15221""
","
","336.70000000298023","","49","","","3000","1","","","images/tutyellowplanet.jpg","null","images/tutalien3","null","images/tutalien3","images/t.png","NA","practice","null","","","",""
"d3-animate-choice","27","166344","0.0-27.0","1124","3557","10","Female","true","true","true","true","""event"",""trial"",""time""
""fullscreenenter"",""5"",""15221""
","
","
","""event"",""trial"",""time""
""fullscreenenter"",""5"",""15221""
","
","328.20000000298023","","49","","","3000","1","","","images/tutyellowplanet.jpg","null","images/tutalien3","null","images/tutalien3","images/nothing.png","NA","practice","null","","","",""
"d3-animate-choice","28","168680","0.0-28.0","1124","3557","10","Female","true","true","true","true","""event"",""trial"",""time""
""fullscreenenter"",""5"",""15221""
","
","
","""event"",""trial"",""time""
""fullscreenenter"",""5"",""15221""
","
","327.09999999403954","","49","","","3000","1","","","images/tutyellowplanet.jpg","null","images/tutalien3","null","images/tutalien3","images/t.png","NA","practice","null","","","",""
"d3-animate-choice","29","171011","0.0-29.0","1124","3557","10","Female","true","true","true","true","""event"",""trial"",""time""
""fullscreenenter"",""5"",""15221""
","
","
","""event"",""trial"",""time""
""fullscreenenter"",""5"",""15221""
","
","325.90000000596046","","49","","","3000","1","","","images/tutyellowplanet.jpg","null","images/tutalien3","null","images/tutalien3","images/t.png","NA","practice","null","","","",""
"d3-instructions","30","176948","0.0-30.0","1124","3557","10","Female","true","true","true","true","""event"",""trial"",""time""
""fullscreenenter"",""5"",""15221""
","
","
","""event"",""trial"",""time""
""fullscreenenter"",""5"",""15221""
","
","","","","","","","","","","","","","","","","","","","","","",""
"d3-instructions","31","186039","0.0-31.0","1124","3557","10","Female","true","true","true","true","""event"",""trial"",""time""
""fullscreenenter"",""5"",""15221""
","
","
","""event"",""trial"",""time""
""fullscreenenter"",""5"",""15221""
","
","","","","","","","","","","","","","","","","","","","","","",""
"d3-instructions","32","194222","0.0-32.0","1124","3557","10","Female","true","true","true","true","""event"",""trial"",""time""
""fullscreenenter"",""5"",""15221""
","
","
","""event"",""trial"",""time""
""fullscreenenter"",""5"",""15221""
","
","","","","","","","","","","","","","","","","","","","","","",""
"d3-instructions","33","201010","0.0-33.0","1124","3557","10","Female","true","true","true","true","""event"",""trial"",""time""
""fullscreenenter"",""5"",""15221""
","
","
","""event"",""trial"",""time""
""fullscreenenter"",""5"",""15221""
","
","","","","","","","","","","","","","","","","","","","","","",""
"d3-animate-choice","34","204736","0.0-34.0","1124","3557","10","Female","true","true","true","true","""event"",""trial"",""time""
""fullscreenenter"",""5"",""15221""
","
","
","""event"",""trial"",""time""
""fullscreenenter"",""5"",""15221""
","
","1722.5","","49","","","3000","1","","","images/tutgreenplanet.jpg","images/tutalien1","images/tutalien2","null","images/tutalien2","images/t.png","NA","practice","null","","","",""
"d3-animate-choice","35","207200","0.0-35.0","1124","3557","10","Female","true","true","true","true","""event"",""trial"",""time""
""fullscreenenter"",""5"",""15221""
","
","
","""event"",""trial"",""time""
""fullscreenenter"",""5"",""15221""
","
","458.40000000596046","","49","","","3000","1","","","images/tutgreenplanet.jpg","images/tutalien1","images/tutalien2","null","images/tutalien2","images/t.png","NA","practice","null","","","",""
"d3-animate-choice","36","209504","0.0-36.0","1124","3557","10","Female","true","true","true","true","""event"",""trial"",""time""
""fullscreenenter"",""5"",""15221""
","
","
","""event"",""trial"",""time""
""fullscreenenter"",""5"",""15221""
","
","296.5","","49","","","3000","1","","","images/tutgreenplanet.jpg","images/tutalien1","images/tutalien2","null","images/tutalien2","images/t.png","NA","practice","null","","","",""
"d3-animate-choice","37","211813","0.0-37.0","1124","3557","10","Female","true","true","true","true","""event"",""trial"",""time""
""fullscreenenter"",""5"",""15221""
","
","
","""event"",""trial"",""time""
""fullscreenenter"",""5"",""15221""
","
","304.59999999403954","","49","","","3000","1","","","images/tutgreenplanet.jpg","images/tutalien1","images/tutalien2","null","images/tutalien2","images/t.png","NA","practice","null","","","",""
"d3-animate-choice","38","214101","0.0-38.0","1124","3557","10","Female","true","true","true","true","""event"",""trial"",""time""
""fullscreenenter"",""5"",""15221""
","
","
","""event"",""trial"",""time""
""fullscreenenter"",""5"",""15221""
","
","281.09999999403954","","49","","","3000","1","","","images/tutgreenplanet.jpg","images/tutalien1","images/tutalien2","null","images/tutalien2","images/t.png","NA","practice","null","","","",""
"d3-animate-choice","39","216455","0.0-39.0","1124","3557","10","Female","true","true","true","true","""event"",""trial"",""time""
""fullscreenenter"",""5"",""15221""
","
","
","""event"",""trial"",""time""
""fullscreenenter"",""5"",""15221""
","
","350.5","","49","","","3000","1","","","images/tutgreenplanet.jpg","images/tutalien1","images/tutalien2","null","images/tutalien2","images/t.png","NA","practice","null","","","",""
"d3-animate-choice","40","218858","0.0-40.0","1124","3557","10","Female","true","true","true","true","""event"",""trial"",""time""
""fullscreenenter"",""5"",""15221""
","
","
","""event"",""trial"",""time""
""fullscreenenter"",""5"",""15221""
","
","398.59999999403954","","49","","","3000","1","","","images/tutgreenplanet.jpg","images/tutalien1","images/tutalien2","null","images/tutalien2","images/nothing.png","NA","practice","null","","","",""
"d3-animate-choice","41","221429","0.0-41.0","1124","3557","10","Female","true","true","true","true","""event"",""trial"",""time""
""fullscreenenter"",""5"",""15221""
","
","
","""event"",""trial"",""time""
""fullscreenenter"",""5"",""15221""
","
","563","","49","","","3000","1","","","images/tutgreenplanet.jpg","images/tutalien1","images/tutalien2","null","images/tutalien2","images/t.png","NA","practice","null","","","",""
"d3-animate-choice","42","223762","0.0-42.0","1124","3557","10","Female","true","true","true","true","""event"",""trial"",""time""
""fullscreenenter"",""5"",""15221""
","
","
","""event"",""trial"",""time""
""fullscreenenter"",""5"",""15221""
","
","326.70000000298023","","49","","","3000","1","","","images/tutgreenplanet.jpg","images/tutalien1","images/tutalien2","null","images/tutalien2","images/nothing.png","NA","practice","null","","","",""
"d3-animate-choice","43","226026","0.0-43.0","1124","3557","10","Female","true","true","true","true","""event"",""trial"",""time""
""fullscreenenter"",""5"",""15221""
","
","
","""event"",""trial"",""time""
""fullscreenenter"",""5"",""15221""
","
","257.8999999910593","","49","","","3000","1","","","images/tutgreenplanet.jpg","images/tutalien1","images/tutalien2","null","images/tutalien2","images/t.png","NA","practice","null","","","",""
"d3-instructions","44","237816","0.0-44.0","1124","3557","10","Female","true","true","true","true","""event"",""trial"",""time""
""fullscreenenter"",""5"",""15221""
","
","
","""event"",""trial"",""time""
""fullscreenenter"",""5"",""15221""
","
","","","","","","","","","","","","","","","","","","","","","",""
"d3-instructions","45","240917","0.0-45.0","1124","3557","10","Female","true","true","true","true","""event"",""trial"",""time""
""fullscreenenter"",""5"",""15221""
","
","
","""event"",""trial"",""time""
""fullscreenenter"",""5"",""15221""
","
","","","","","","","","","","","","","","","","","","","","","",""
"d3-instructions","46","245264","0.0-46.0","1124","3557","10","Female","true","true","true","true","""event"",""trial"",""time""
""fullscreenenter"",""5"",""15221""
","
","
","""event"",""trial"",""time""
""fullscreenenter"",""5"",""15221""
","
","","","","","","","","","","","","","","","","","","","","","",""
"d3-instructions","47","261695","0.0-47.0","1124","3557","10","Female","true","true","true","true","""event"",""trial"",""time""
""fullscreenenter"",""5"",""15221""
","
","
","""event"",""trial"",""time""
""fullscreenenter"",""5"",""15221""
","
","","","","","","","","","","","","","","","","","","","","","",""
"d3-instructions","48","268575","0.0-48.0","1124","3557","10","Female","true","true","true","true","""event"",""trial"",""time""
""fullscreenenter"",""5"",""15221""
","
","
","""event"",""trial"",""time""
""fullscreenenter"",""5"",""15221""
","
","","","","","","","","","","","","","","","","","","","","","",""
"d3-instructions","49","279956","0.0-49.0","1124","3557","10","Female","true","true","true","true","""event"",""trial"",""time""
""fullscreenenter"",""5"",""15221""
","
","
","""event"",""trial"",""time""
""fullscreenenter"",""5"",""15221""
","
","","","","","","","","","","","","","","","","","","","","","",""
"d3-instructions","50","289442","0.0-50.0","1124","3557","10","Female","true","true","true","true","""event"",""trial"",""time""
""fullscreenenter"",""5"",""15221""
","
","
","""event"",""trial"",""time""
""fullscreenenter"",""5"",""15221""
","
","","","","","","","","","","","","","","","","","","","","","",""
"d3-instructions","51","292044","0.0-51.0","1124","3557","10","Female","true","true","true","true","""event"",""trial"",""time""
""fullscreenenter"",""5"",""15221""
","
","
","""event"",""trial"",""time""
""fullscreenenter"",""5"",""15221""
","
","","","","","","","","","","","","","","","","","","","","","",""
"d3-instructions","52","294496","0.0-52.0","1124","3557","10","Female","true","true","true","true","""event"",""trial"",""time""
""fullscreenenter"",""5"",""15221""
","
","
","""event"",""trial"",""time""
""fullscreenenter"",""5"",""15221""
","
","","","","","","","","","","","","","","","","","","","","","",""
"d3-instructions","53","307568","0.0-53.0","1124","3557","10","Female","true","true","true","true","""event"",""trial"",""time""
""fullscreenenter"",""5"",""15221""
","
","
","""event"",""trial"",""time""
""fullscreenenter"",""5"",""15221""
","
","","","","","","","","","","","","","","","","","","","","","",""
"d3-instructions","54","319635","0.0-54.0","1124","3557","10","Female","true","true","true","true","""event"",""trial"",""time""
""fullscreenenter"",""5"",""15221""
","
","
","""event"",""trial"",""time""
""fullscreenenter"",""5"",""15221""
","
","","","","","","","","","","","","","","","","","","","","","",""
"d3-instructions","55","329394","0.0-55.0","1124","3557","10","Female","true","true","true","true","""event"",""trial"",""time""
""fullscreenenter"",""5"",""15221""
","
","
","""event"",""trial"",""time""
""fullscreenenter"",""5"",""15221""
","
","","","","","","","","","","","","","","","","","","","","","",""
"d3-instructions","56","338022","0.0-56.0","1124","3557","10","Female","true","true","true","true","""event"",""trial"",""time""
""fullscreenenter"",""5"",""15221""
","
","
","""event"",""trial"",""time""
""fullscreenenter"",""5"",""15221""
","
","","","","","","","","","","","","","","","","","","","","","",""
"d3-instructions","57","347913","0.0-57.0","1124","3557","10","Female","true","true","true","true","""event"",""trial"",""time""
""fullscreenenter"",""5"",""15221""
","
","
","""event"",""trial"",""time""
""fullscreenenter"",""5"",""15221""
","
","","","","","","","","","","","","","","","","","","","","","",""
"d3-instructions","58","359503","0.0-58.0","1124","3557","10","Female","true","true","true","true","""event"",""trial"",""time""
""fullscreenenter"",""5"",""15221""
","
","
","""event"",""trial"",""time""
""fullscreenenter"",""5"",""15221""
","
","","","","","","","","","","","","","","","","","","","","","",""
"d3-instructions","59","364674","0.0-59.0","1124","3557","10","Female","true","true","true","true","""event"",""trial"",""time""
""fullscreenenter"",""5"",""15221""
","
","
","""event"",""trial"",""time""
""fullscreenenter"",""5"",""15221""
","
","","","","","","","","","","","","","","","","","","","","","",""
"d3-instructions","60","367720","0.0-60.0","1124","3557","10","Female","true","true","true","true","""event"",""trial"",""time""
""fullscreenenter"",""5"",""15221""
","
","
","""event"",""trial"",""time""
""fullscreenenter"",""5"",""15221""
","
","","","","","","","","","","","","","","","","","","","","","",""
"d3-animate-choice","61","371096","0.0-61.0-0.0","1124","3557","10","Female","true","true","true","true","""event"",""trial"",""time""
""fullscreenenter"",""5"",""15221""
","
","
","""event"",""trial"",""time""
""fullscreenenter"",""5"",""15221""
","
","1368","","49","","","3000","1","","","images/earth.jpg","images/tutrocket1","images/tutrocket2","null","images/tutrocket2","","1","practice","null","1","","",""
"d3-animate-choice","62","374459","0.0-61.0-1.0","1124","3557","10","Female","true","true","true","true","""event"",""trial"",""time""
""fullscreenenter"",""5"",""15221""
","
","
","""event"",""trial"",""time""
""fullscreenenter"",""5"",""15221""
","
","1353.3999999910593","","48","","","3000","1","","","images/tutyellowplanet.jpg","images/tutalien4","images/tutalien3","images/tutrocket2","images/tutalien4","images/t.png","2","practice","true","2","common","1","2022-11-02 23:49:46.151"
"two-step-fixation","63","375466","0.0-61.0-2.0","1124","3557","10","Female","true","true","true","true","""event"",""trial"",""time""
""fullscreenenter"",""5"",""15221""
","
","
","""event"",""trial"",""time""
""fullscreenenter"",""5"",""15221""
","
","","images/earth.jpg","","","","","","","","","","","","","","fixation","","","","","",""
"d3-animate-choice","64","378495","0.0-61.0-0.1","1124","3557","10","Female","true","true","true","true","""event"",""trial"",""time""
""fullscreenenter"",""5"",""15221""
","
","
","""event"",""trial"",""time""
""fullscreenenter"",""5"",""15221""
","
","1024.800000011921","","48","","","3000","1","","","images/earth.jpg","images/tutrocket1","images/tutrocket2","null","images/tutrocket1","","1","practice","null","2","","",""
"d3-animate-choice","65","381102","0.0-61.0-1.1","1124","3557","10","Female","true","true","true","true","""event"",""trial"",""time""
""fullscreenenter"",""5"",""15221""
","
","
","""event"",""trial"",""time""
""fullscreenenter"",""5"",""15221""
","
","602.7000000029802","","49","","","3000","1","","","images/tutyellowplanet.jpg","images/tutalien4","images/tutalien3","images/tutrocket1","images/tutalien3","images/t.png","2","practice","false","1","rare","1","2022-11-02 23:49:52.795"
"two-step-fixation","66","382108","0.0-61.0-2.1","1124","3557","10","Female","true","true","true","true","""event"",""trial"",""time""
""fullscreenenter"",""5"",""15221""
","
","
","""event"",""trial"",""time""
""fullscreenenter"",""5"",""15221""
","
","","images/earth.jpg","","","","","","","","","","","","","","fixation","","","","","",""
"d3-animate-choice","67","384479","0.0-61.0-0.2","1124","3557","10","Female","true","true","true","true","""event"",""trial"",""time""
""fullscreenenter"",""5"",""15221""
","
","
","""event"",""trial"",""time""
""fullscreenenter"",""5"",""15221""
","
","362.90000000596046","","49","","","3000","1","","","images/earth.jpg","images/tutrocket1","images/tutrocket2","null","images/tutrocket2","","1","practice","null","1","","",""
"d3-animate-choice","68","387057","0.0-61.0-1.2","1124","3557","10","Female","true","true","true","true","""event"",""trial"",""time""
""fullscreenenter"",""5"",""15221""
","
","
","""event"",""trial"",""time""
""fullscreenenter"",""5"",""15221""
","
","573.3999999910593","","48","","","3000","1","","","images/tutyellowplanet.jpg","images/tutalien4","images/tutalien3","images/tutrocket2","images/tutalien4","images/t.png","2","practice","true","2","common","1","2022-11-02 23:49:58.750"
"two-step-fixation","69","388067","0.0-61.0-2.2","1124","3557","10","Female","true","true","true","true","""event"",""trial"",""time""
""fullscreenenter"",""5"",""15221""
","
","
","""event"",""trial"",""time""
""fullscreenenter"",""5"",""15221""
","
","","images/earth.jpg","","","","","","","","","","","","","","fixation","","","","","",""
"d3-animate-choice","70","390450","0.0-61.0-0.3","1124","3557","10","Female","true","true","true","true","""event"",""trial"",""time""
""fullscreenenter"",""5"",""15221""
","
","
","""event"",""trial"",""time""
""fullscreenenter"",""5"",""15221""
","
","377.8999999910593","","48","","","3000","1","","","images/earth.jpg","images/tutrocket1","images/tutrocket2","null","images/tutrocket1","","1","practice","null","2","","",""
"d3-animate-choice","71","393375","0.0-61.0-1.3","1124","3557","10","Female","true","true","true","true","""event"",""trial"",""time""
""fullscreenenter"",""5"",""15221""
","
","
","""event"",""trial"",""time""
""fullscreenenter"",""5"",""15221""
","
","918","","49","","","3000","1","","","images/tutgreenplanet.jpg","images/tutalien2","images/tutalien1","images/tutrocket1","images/tutalien1","images/nothing.png","2","practice","true","1","common","0","2022-11-02 23:50:05.067"
"two-step-fixation","72","394383","0.0-61.0-2.3","1124","3557","10","Female","true","true","true","true","""event"",""trial"",""time""
""fullscreenenter"",""5"",""15221""
","
","
","""event"",""trial"",""time""
""fullscreenenter"",""5"",""15221""
","
","","images/earth.jpg","","","","","","","","","","","","","","fixation","","","","","",""
"d3-animate-choice","73","396739","0.0-61.0-0.4","1124","3557","10","Female","true","true","true","true","""event"",""trial"",""time""
""fullscreenenter"",""5"",""15221""
","
","
","""event"",""trial"",""time""
""fullscreenenter"",""5"",""15221""
","
","351","","49","","","3000","1","","","images/earth.jpg","images/tutrocket1","images/tutrocket2","null","images/tutrocket2","","1","practice","null","1","","",""
"d3-animate-choice","74","399303","0.0-61.0-1.4","1124","3557","10","Female","true","true","true","true","""event"",""trial"",""time""
""fullscreenenter"",""5"",""15221""
","
","
","""event"",""trial"",""time""
""fullscreenenter"",""5"",""15221""
","
","558.0999999940395","","48","","","3000","1","","","images/tutyellowplanet.jpg","images/tutalien4","images/tutalien3","images/tutrocket2","images/tutalien4","images/t.png","2","practice","true","2","common","1","2022-11-02 23:50:10.995"
"two-step-fixation","75","400309","0.0-61.0-2.4","1124","3557","10","Female","true","true","true","true","""event"",""trial"",""time""
""fullscreenenter"",""5"",""15221""
","
","
","""event"",""trial"",""time""
""fullscreenenter"",""5"",""15221""
","
","","images/earth.jpg","","","","","","","","","","","","","","fixation","","","","","",""
"d3-animate-choice","76","402881","0.0-61.0-0.5","1124","3557","10","Female","true","true","true","true","""event"",""trial"",""time""
""fullscreenenter"",""5"",""15221""
","
","
","""event"",""trial"",""time""
""fullscreenenter"",""5"",""15221""
","
","562.1999999880791","","48","","","3000","1","","","images/earth.jpg","images/tutrocket1","images/tutrocket2","null","images/tutrocket1","","1","practice","null","2","","",""
"d3-animate-choice","77","405882","0.0-61.0-1.5","1124","3557","10","Female","true","true","true","true","""event"",""trial"",""time""
""fullscreenenter"",""5"",""15221""
","
","
","""event"",""trial"",""time""
""fullscreenenter"",""5"",""15221""
","
","992.7999999970198","","49","","","3000","1","","","images/tutgreenplanet.jpg","images/tutalien2","images/tutalien1","images/tutrocket1","images/tutalien1","images/t.png","2","practice","true","1","common","1","2022-11-02 23:50:17.574"
"two-step-fixation","78","406890","0.0-61.0-2.5","1124","3557","10","Female","true","true","true","true","""event"",""trial"",""time""
""fullscreenenter"",""5"",""15221""
","
","
","""event"",""trial"",""time""
""fullscreenenter"",""5"",""15221""
","
","","images/earth.jpg","","","","","","","","","","","","","","fixation","","","","","",""
"d3-animate-choice","79","409318","0.0-61.0-0.6","1124","3557","10","Female","true","true","true","true","""event"",""trial"",""time""
""fullscreenenter"",""5"",""15221""
","
","
","""event"",""trial"",""time""
""fullscreenenter"",""5"",""15221""
","
","419.1000000089407","","49","","","3000","1","","","images/earth.jpg","images/tutrocket1","images/tutrocket2","null","images/tutrocket2","","1","practice","null","1","","",""
"d3-animate-choice","80","411846","0.0-61.0-1.6","1124","3557","10","Female","true","true","true","true","""event"",""trial"",""time""
""fullscreenenter"",""5"",""15221""
","
","
","""event"",""trial"",""time""
""fullscreenenter"",""5"",""15221""
","
","522.2000000029802","","48","","","3000","1","","","images/tutyellowplanet.jpg","images/tutalien4","images/tutalien3","images/tutrocket2","images/tutalien4","images/t.png","2","practice","true","2","common","1","2022-11-02 23:50:23.538"
"two-step-fixation","81","412852","0.0-61.0-2.6","1124","3557","10","Female","true","true","true","true","""event"",""trial"",""time""
""fullscreenenter"",""5"",""15221""
","
","
","""event"",""trial"",""time""
""fullscreenenter"",""5"",""15221""
","
","","images/earth.jpg","","","","","","","","","","","","","","fixation","","","","","",""
"d3-animate-choice","82","415185","0.0-61.0-0.7","1124","3557","10","Female","true","true","true","true","""event"",""trial"",""time""
""fullscreenenter"",""5"",""15221""
","
","
","""event"",""trial"",""time""
""fullscreenenter"",""5"",""15221""
","
","322.30000001192093","","49","","","3000","1","","","images/earth.jpg","images/tutrocket1","images/tutrocket2","null","images/tutrocket2","","1","practice","null","1","","",""
"d3-animate-choice","83","418190","0.0-61.0-1.7","1124","3557","10","Female","true","true","true","true","""event"",""trial"",""time""
""fullscreenenter"",""5"",""15221""
","
","
","""event"",""trial"",""time""
""fullscreenenter"",""5"",""15221""
","
","999.5","","49","","","3000","1","","","images/tutgreenplanet.jpg","images/tutalien2","images/tutalien1","images/tutrocket2","images/tutalien1","images/nothing.png","2","practice","false","1","rare","0","2022-11-02 23:50:29.882"
"two-step-fixation","84","419198","0.0-61.0-2.7","1124","3557","10","Female","true","true","true","true","""event"",""trial"",""time""
""fullscreenenter"",""5"",""15221""
","
","
","""event"",""trial"",""time""
""fullscreenenter"",""5"",""15221""
","
","","images/earth.jpg","","","","","","","","","","","","","","fixation","","","","","",""
"d3-animate-choice","85","421918","0.0-61.0-0.8","1124","3557","10","Female","true","true","true","true","""event"",""trial"",""time""
""fullscreenenter"",""5"",""15221""
","
","
","""event"",""trial"",""time""
""fullscreenenter"",""5"",""15221""
","
","711.2000000029802","","48","","","3000","1","","","images/earth.jpg","images/tutrocket1","images/tutrocket2","null","images/tutrocket1","","1","practice","null","2","","",""
"d3-animate-choice","86","424429","0.0-61.0-1.8","1124","3557","10","Female","true","true","true","true","""event"",""trial"",""time""
""fullscreenenter"",""5"",""15221""
","
","
","""event"",""trial"",""time""
""fullscreenenter"",""5"",""15221""
","
","506.70000000298023","","48","","","3000","1","","","images/tutgreenplanet.jpg","images/tutalien2","images/tutalien1","images/tutrocket1","images/tutalien2","images/nothing.png","2","practice","true","2","common","0","2022-11-02 23:50:36.121"
"two-step-fixation","87","425436","0.0-61.0-2.8","1124","3557","10","Female","true","true","true","true","""event"",""trial"",""time""
""fullscreenenter"",""5"",""15221""
","
","
","""event"",""trial"",""time""
""fullscreenenter"",""5"",""15221""
","
","","images/earth.jpg","","","","","","","","","","","","","","fixation","","","","","",""
"d3-animate-choice","88","427763","0.0-61.0-0.9","1124","3557","10","Female","true","true","true","true","""event"",""trial"",""time""
""fullscreenenter"",""5"",""15221""
","
","
","""event"",""trial"",""time""
""fullscreenenter"",""5"",""15221""
","
","322.29999999701977","","49","","","3000","1","","","images/earth.jpg","images/tutrocket1","images/tutrocket2","null","images/tutrocket2","","1","practice","null","1","","",""
"d3-animate-choice","89","430613","0.0-61.0-1.9","1124","3557","10","Female","true","true","true","true","""event"",""trial"",""time""
""fullscreenenter"",""5"",""15221""
","
","
","""event"",""trial"",""time""
""fullscreenenter"",""5"",""15221""
","
","846.6000000089407","","49","","","3000","1","","","images/tutgreenplanet.jpg","images/tutalien2","images/tutalien1","images/tutrocket2","images/tutalien1","images/t.png","2","practice","false","1","rare","1","2022-11-02 23:50:42.305"
"two-step-fixation","90","431619","0.0-61.0-2.9","1124","3557","10","Female","true","true","true","true","""event"",""trial"",""time""
""fullscreenenter"",""5"",""15221""
","
","
","""event"",""trial"",""time""
""fullscreenenter"",""5"",""15221""
","
","","images/earth.jpg","","","","","","","","","","","","","","fixation","","","","","",""
"d3-animate-choice","91","434026","0.0-61.0-0.10","1124","3557","10","Female","true","true","true","true","""event"",""trial"",""time""
""fullscreenenter"",""5"",""15221""
","
","
","""event"",""trial"",""time""
""fullscreenenter"",""5"",""15221""
","
","398.40000000596046","","48","","","3000","1","","","images/earth.jpg","images/tutrocket1","images/tutrocket2","null","images/tutrocket1","","1","practice","null","2","","",""
"d3-animate-choice","92","436481","0.0-61.0-1.10","1124","3557","10","Female","true","true","true","true","""event"",""trial"",""time""
""fullscreenenter"",""5"",""15221""
","
","
","""event"",""trial"",""time""
""fullscreenenter"",""5"",""15221""
","
","448.1000000089407","","48","","","3000","1","","","images/tutgreenplanet.jpg","images/tutalien2","images/tutalien1","images/tutrocket1","images/tutalien2","images/nothing.png","2","practice","true","2","common","0","2022-11-02 23:50:48.173"
"two-step-fixation","93","437490","0.0-61.0-2.10","1124","3557","10","Female","true","true","true","true","""event"",""trial"",""time""
""fullscreenenter"",""5"",""15221""
","
","
","""event"",""trial"",""time""
""fullscreenenter"",""5"",""15221""
","
","","images/earth.jpg","","","","","","","","","","","","","","fixation","","","","","",""
"d3-animate-choice","94","439805","0.0-61.0-0.11","1124","3557","10","Female","true","true","true","true","""event"",""trial"",""time""
""fullscreenenter"",""5"",""15221""
","
","
","""event"",""trial"",""time""
""fullscreenenter"",""5"",""15221""
","
","310.70000000298023","","49","","","3000","1","","","images/earth.jpg","images/tutrocket1","images/tutrocket2","null","images/tutrocket2","","1","practice","null","1","","",""
"d3-animate-choice","95","442131","0.0-61.0-1.11","1124","3557","10","Female","true","true","true","true","""event"",""trial"",""time""
""fullscreenenter"",""5"",""15221""
","
","
","""event"",""trial"",""time""
""fullscreenenter"",""5"",""15221""
","
","322.20000000298023","","49","","","3000","1","","","images/tutyellowplanet.jpg","images/tutalien4","images/tutalien3","images/tutrocket2","images/tutalien3","images/nothing.png","2","practice","true","1","common","0","2022-11-02 23:50:53.823"
"two-step-fixation","96","443136","0.0-61.0-2.11","1124","3557","10","Female","true","true","true","true","""event"",""trial"",""time""
""fullscreenenter"",""5"",""15221""
","
","
","""event"",""trial"",""time""
""fullscreenenter"",""5"",""15221""
","
","","images/earth.jpg","","","","","","","","","","","","","","fixation","","","","","",""
"d3-animate-choice","97","446384","0.0-61.0-0.12","1124","3557","10","Female","true","true","true","true","""event"",""trial"",""time""
""fullscreenenter"",""5"",""15221""
","
","
","""event"",""trial"",""time""
""fullscreenenter"",""5"",""15221""
","
","1239.4000000059605","","48","","","3000","1","","","images/earth.jpg","images/tutrocket1","images/tutrocket2","null","images/tutrocket1","","1","practice","null","2","","",""
"d3-animate-choice","98","448990","0.0-61.0-1.12","1124","3557","10","Female","true","true","true","true","""event"",""trial"",""time""
""fullscreenenter"",""5"",""15221""
","
","
","""event"",""trial"",""time""
""fullscreenenter"",""5"",""15221""
","
","595.7999999970198","","48","","","3000","1","","","images/tutgreenplanet.jpg","images/tutalien2","images/tutalien1","images/tutrocket1","images/tutalien2","images/t.png","2","practice","true","2","common","1","2022-11-02 23:51:00.682"
"two-step-fixation","99","449996","0.0-61.0-2.12","1124","3557","10","Female","true","true","true","true","""event"",""trial"",""time""
""fullscreenenter"",""5"",""15221""
","
","
","""event"",""trial"",""time""
""fullscreenenter"",""5"",""15221""
","
","","images/earth.jpg","","","","","","","","","","","","","","fixation","","","","","",""
"d3-animate-choice","100","452359","0.0-61.0-0.13","1124","3557","10","Female","true","true","true","true","""event"",""trial"",""time""
""fullscreenenter"",""5"",""15221""
","
","
","""event"",""trial"",""time""
""fullscreenenter"",""5"",""15221""
","
","356.09999999403954","","49","","","3000","1","","","images/earth.jpg","images/tutrocket1","images/tutrocket2","null","images/tutrocket2","","1","practice","null","1","","",""
"d3-animate-choice","101","455247","0.0-61.0-1.13","1124","3557","10","Female","true","true","true","true","""event"",""trial"",""time""
""fullscreenenter"",""5"",""15221""
","
","
","""event"",""trial"",""time""
""fullscreenenter"",""5"",""15221""
","
","882.7000000029802","","48","","","3000","1","","","images/tutgreenplanet.jpg","images/tutalien2","images/tutalien1","images/tutrocket2","images/tutalien2","images/nothing.png","2","practice","false","2","rare","0","2022-11-02 23:51:06.939"
"two-step-fixation","102","456252","0.0-61.0-2.13","1124","3557","10","Female","true","true","true","true","""event"",""trial"",""time""
""fullscreenenter"",""5"",""15221""
","
","
","""event"",""trial"",""time""
""fullscreenenter"",""5"",""15221""
","
","","images/earth.jpg","","","","","","","","","","","","","","fixation","","","","","",""
"d3-animate-choice","103","458558","0.0-61.0-0.14","1124","3557","10","Female","true","true","true","true","""event"",""trial"",""time""
""fullscreenenter"",""5"",""15221""
","
","
","""event"",""trial"",""time""
""fullscreenenter"",""5"",""15221""
","
","300.5","","49","","","3000","1","","","images/earth.jpg","images/tutrocket1","images/tutrocket2","null","images/tutrocket2","","1","practice","null","1","","",""
"d3-animate-choice","104","461133","0.0-61.0-1.14","1124","3557","10","Female","true","true","true","true","""event"",""trial"",""time""
""fullscreenenter"",""5"",""15221""
","
","
","""event"",""trial"",""time""
""fullscreenenter"",""5"",""15221""
","
","571.5","","49","","","3000","1","","","images/tutyellowplanet.jpg","images/tutalien4","images/tutalien3","images/tutrocket2","images/tutalien3","images/nothing.png","2","practice","true","1","common","0","2022-11-02 23:51:12.825"
"two-step-fixation","105","462138","0.0-61.0-2.14","1124","3557","10","Female","true","true","true","true","""event"",""trial"",""time""
""fullscreenenter"",""5"",""15221""
","
","
","""event"",""trial"",""time""
""fullscreenenter"",""5"",""15221""
","
","","images/earth.jpg","","","","","","","","","","","","","","fixation","","","","","",""
"d3-animate-choice","106","464464","0.0-61.0-0.15","1124","3557","10","Female","true","true","true","true","""event"",""trial"",""time""
""fullscreenenter"",""5"",""15221""
","
","
","""event"",""trial"",""time""
""fullscreenenter"",""5"",""15221""
","
","319.70000000298023","","49","","","3000","1","","","images/earth.jpg","images/tutrocket1","images/tutrocket2","null","images/tutrocket2","","1","practice","null","1","","",""
"d3-animate-choice","107","466875","0.0-61.0-1.15","1124","3557","10","Female","true","true","true","true","""event"",""trial"",""time""
""fullscreenenter"",""5"",""15221""
","
","
","""event"",""trial"",""time""
""fullscreenenter"",""5"",""15221""
","
","404.5","","48","","","3000","1","","","images/tutyellowplanet.jpg","images/tutalien4","images/tutalien3","images/tutrocket2","images/tutalien4","images/nothing.png","2","practice","true","2","common","0","2022-11-02 23:51:18.567"
"two-step-fixation","108","467885","0.0-61.0-2.15","1124","3557","10","Female","true","true","true","true","""event"",""trial"",""time""
""fullscreenenter"",""5"",""15221""
","
","
","""event"",""trial"",""time""
""fullscreenenter"",""5"",""15221""
","
","","images/earth.jpg","","","","","","","","","","","","","","fixation","","","","","",""
"d3-animate-choice","109","470390","0.0-61.0-0.16","1124","3557","10","Female","true","true","true","true","""event"",""trial"",""time""
""fullscreenenter"",""5"",""15221""
","
","
","""event"",""trial"",""time""
""fullscreenenter"",""5"",""15221""
","
","497.79999999701977","","49","","","3000","1","","","images/earth.jpg","images/tutrocket1","images/tutrocket2","null","images/tutrocket2","","1","practice","null","1","","",""
"d3-animate-choice","110","473325","0.0-61.0-1.16","1124","3557","10","Female","true","true","true","true","""event"",""trial"",""time""
""fullscreenenter"",""5"",""15221""
","
","
","""event"",""trial"",""time""
""fullscreenenter"",""5"",""15221""
","
","927.8000000119209","","49","","","3000","1","","","images/tutyellowplanet.jpg","images/tutalien4","images/tutalien3","images/tutrocket2","images/tutalien3","images/nothing.png","2","practice","true","1","common","0","2022-11-02 23:51:25.017"
"two-step-fixation","111","474331","0.0-61.0-2.16","1124","3557","10","Female","true","true","true","true","""event"",""trial"",""time""
""fullscreenenter"",""5"",""15221""
","
","
","""event"",""trial"",""time""
""fullscreenenter"",""5"",""15221""
","
","","images/earth.jpg","","","","","","","","","","","","","","fixation","","","","","",""
"d3-animate-choice","112","476652","0.0-61.0-0.17","1124","3557","10","Female","true","true","true","true","""event"",""trial"",""time""
""fullscreenenter"",""5"",""15221""
","
","
","""event"",""trial"",""time""
""fullscreenenter"",""5"",""15221""
","
","316.70000000298023","","48","","","3000","1","","","images/earth.jpg","images/tutrocket1","images/tutrocket2","null","images/tutrocket1","","1","practice","null","2","","",""
"d3-animate-choice","113","478948","0.0-61.0-1.17","1124","3557","10","Female","true","true","true","true","""event"",""trial"",""time""
""fullscreenenter"",""5"",""15221""
","
","
","""event"",""trial"",""time""
""fullscreenenter"",""5"",""15221""
","
","290.79999999701977","","48","","","3000","1","","","images/tutgreenplanet.jpg","images/tutalien2","images/tutalien1","images/tutrocket1","images/tutalien2","images/t.png","2","practice","true","2","common","1","2022-11-02 23:51:30.640"
"two-step-fixation","114","479954","0.0-61.0-2.17","1124","3557","10","Female","true","true","true","true","""event"",""trial"",""time""
""fullscreenenter"",""5"",""15221""
","
","
","""event"",""trial"",""time""
""fullscreenenter"",""5"",""15221""
","
","","images/earth.jpg","","","","","","","","","","","","","","fixation","","","","","",""
"d3-animate-choice","115","482306","0.0-61.0-0.18","1124","3557","10","Female","true","true","true","true","""event"",""trial"",""time""
""fullscreenenter"",""5"",""15221""
","
","
","""event"",""trial"",""time""
""fullscreenenter"",""5"",""15221""
","
","345.59999999403954","","48","","","3000","1","","","images/earth.jpg","images/tutrocket1","images/tutrocket2","null","images/tutrocket1","","1","practice","null","2","","",""
"d3-animate-choice","116","484773","0.0-61.0-1.18","1124","3557","10","Female","true","true","true","true","""event"",""trial"",""time""
""fullscreenenter"",""5"",""15221""
","
","
","""event"",""trial"",""time""
""fullscreenenter"",""5"",""15221""
","
","462.09999999403954","","49","","","3000","1","","","images/tutgreenplanet.jpg","images/tutalien2","images/tutalien1","images/tutrocket1","images/tutalien1","images/t.png","2","practice","true","1","common","1","2022-11-02 23:51:36.465"
"two-step-fixation","117","485778","0.0-61.0-2.18","1124","3557","10","Female","true","true","true","true","""event"",""trial"",""time""
""fullscreenenter"",""5"",""15221""
","
","
","""event"",""trial"",""time""
""fullscreenenter"",""5"",""15221""
","
","","images/earth.jpg","","","","","","","","","","","","","","fixation","","","","","",""
"d3-animate-choice","118","488175","0.0-61.0-0.19","1124","3557","10","Female","true","true","true","true","""event"",""trial"",""time""
""fullscreenenter"",""5"",""15221""
","
","
","""event"",""trial"",""time""
""fullscreenenter"",""5"",""15221""
","
","392.8999999910593","","48","","","3000","1","","","images/earth.jpg","images/tutrocket1","images/tutrocket2","null","images/tutrocket1","","1","practice","null","2","","",""
"d3-animate-choice","119","490650","0.0-61.0-1.19","1124","3557","10","Female","true","true","true","true","""event"",""trial"",""time""
""fullscreenenter"",""5"",""15221""
","
","
","""event"",""trial"",""time""
""fullscreenenter"",""5"",""15221""
","
","470.29999999701977","","48","","","3000","1","","","images/tutyellowplanet.jpg","images/tutalien4","images/tutalien3","images/tutrocket1","images/tutalien4","images/t.png","2","practice","false","2","rare","1","2022-11-02 23:51:42.342"
"two-step-fixation","120","491658","0.0-61.0-2.19","1124","3557","10","Female","true","true","true","true","""event"",""trial"",""time""
""fullscreenenter"",""5"",""15221""
","
","
","""event"",""trial"",""time""
""fullscreenenter"",""5"",""15221""
","
","","images/earth.jpg","","","","","","","","","","","","","","fixation","","","","","",""
"d3-instructions","121","498576","0.0-62.0","1124","3557","10","Female","true","true","true","true","""event"",""trial"",""time""
""fullscreenenter"",""5"",""15221""
","
","
","""event"",""trial"",""time""
""fullscreenenter"",""5"",""15221""
","
","","","","","","","","","","","","","","","","","","","","","",""
"audio-keyboard-response","122","504277","0.0-63.0","1124","3557","10","Female","true","true","true","true","""event"",""trial"",""time""
""fullscreenenter"",""5"",""15221""
","
","
","""event"",""trial"",""time""
""fullscreenenter"",""5"",""15221""
","
","5701","audio/instructions/treasure_feedback.wav","32","","","","","","","","","","","","","","","","","","",""
"d3-instructions","123","523685","0.0-64.0","1124","3557","10","Female","true","true","true","true","""event"",""trial"",""time""
""fullscreenenter"",""5"",""15221""
","
","
","""event"",""trial"",""time""
""fullscreenenter"",""5"",""15221""
","
","","","","","","","","","","","","","","","","","","","","","",""
"d3-instructions","124","542959","0.0-65.0","1124","3557","10","Female","true","true","true","true","""event"",""trial"",""time""
""fullscreenenter"",""5"",""15221""
","
","
","""event"",""trial"",""time""
""fullscreenenter"",""5"",""15221""
","
","","","","","","","","","","","","","","","","","","","","","",""
"d3-instructions","125","567619","0.0-66.0","1124","3557","10","Female","true","true","true","true","""event"",""trial"",""time""
""fullscreenenter"",""5"",""15221""
","
","
","""event"",""trial"",""time""
""fullscreenenter"",""5"",""15221""
","
","","","","","","","","","","","","","","","","","","","","","",""
"d3-instructions","126","584060","0.0-67.0","1124","3557","10","Female","true","true","true","true","""event"",""trial"",""time""
""fullscreenenter"",""5"",""15221""
","
","
","""event"",""trial"",""time""
""fullscreenenter"",""5"",""15221""
","
","","","","","","","","","","","","","","","","","","","","","",""
"d3-instructions","127","593321","0.0-68.0","1124","3557","10","Female","true","true","true","true","""event"",""trial"",""time""
""fullscreenenter"",""5"",""15221""
","
","
","""event"",""trial"",""time""
""fullscreenenter"",""5"",""15221""
","
","","","","","","","","","","","","","","","","","","","","","",""
"instructions-quiz","128","598448","0.0-69.0","1124","3557","10","Female","true","true","true","true","""event"",""trial"",""time""
""fullscreenenter"",""5"",""15221""
","
","
","""event"",""trial"",""time""
""fullscreenenter"",""5"",""15221""
","
","5122.899999991059","audio/quiz/Q1_Prompt.wav","","1","","","","","","","","","","","","","","","","","",""
"audio-keyboard-response","129","607613","0.0-70.0","1124","3557","10","Female","true","true","true","true","""event"",""trial"",""time""
""fullscreenenter"",""5"",""15221""
","
","
","""event"",""trial"",""time""
""fullscreenenter"",""5"",""15221""
","
","null","audio/quiz/Q1_Correct.wav","null","","","","","","","","","","","","","","","","","","",""
"instructions-quiz","130","616524","0.0-71.0","1124","3557","10","Female","true","true","true","true","""event"",""trial"",""time""
""fullscreenenter"",""5"",""15221""
","
","
","""event"",""trial"",""time""
""fullscreenenter"",""5"",""15221""
","
","8909.300000011921","audio/quiz/Q2_Prompt.wav","","1","","","","","","","","","","","","","","","","","",""
"audio-keyboard-response","131","630603","0.0-72.0","1124","3557","10","Female","true","true","true","true","""event"",""trial"",""time""
""fullscreenenter"",""5"",""15221""
","
","
","""event"",""trial"",""time""
""fullscreenenter"",""5"",""15221""
","
","null","audio/quiz/Q2_Incorrect.wav","null","","","","","","","","","","","","","","","","","","",""
"instructions-quiz","132","635303","0.0-73.0","1124","3557","10","Female","true","true","true","true","""event"",""trial"",""time""
""fullscreenenter"",""5"",""15221""
","
","
","""event"",""trial"",""time""
""fullscreenenter"",""5"",""15221""
","
","4696.300000011921","audio/quiz/Q3_Prompt.wav","","1","","","","","","","","","","","","","","","","","",""
"audio-keyboard-response","133","641109","0.0-74.0","1124","3557","10","Female","true","true","true","true","""event"",""trial"",""time""
""fullscreenenter"",""5"",""15221""
","
","
","""event"",""trial"",""time""
""fullscreenenter"",""5"",""15221""
","
","null","audio/quiz/Q3_Correct.wav","null","","","","","","","","","","","","","","","","","","",""
"d3-instructions","134","655025","0.0-75.0","1124","3557","10","Female","true","true","true","true","""event"",""trial"",""time""
""fullscreenenter"",""5"",""15221""
","
","
","""event"",""trial"",""time""
""fullscreenenter"",""5"",""15221""
","
","","","","","","","","","","","","","","","","","","","","","",""
"d3-animate-choice","135","657811","0.0-76.0-0.0","1124","3557","10","Female","true","true","true","true","""event"",""trial"",""time""
""fullscreenenter"",""5"",""15221""
","
","
","""event"",""trial"",""time""
""fullscreenenter"",""5"",""15221""
","
","779.2999999970198","","48","","","3000","1","","","images/earth.jpg","images/rocket2","images/rocket1","null","images/rocket2","","1","real","null","2","","",""
"d3-animate-choice","136","660361","0.0-76.0-1.0","1124","3557","10","Female","true","true","true","true","""event"",""trial"",""time""
""fullscreenenter"",""5"",""15221""
","
","
","""event"",""trial"",""time""
""fullscreenenter"",""5"",""15221""
","
","545.0999999940395","","48","","","3000","1","","","images/redplanet1.jpg","images/alien2","images/alien1","images/rocket2","images/alien2","images/nothing.png","2","real","false","2","rare","0","2022-11-02 23:54:32.053"
"two-step-fixation","137","661369","0.0-76.0-2.0","1124","3557","10","Female","true","true","true","true","""event"",""trial"",""time""
""fullscreenenter"",""5"",""15221""
","
","
","""event"",""trial"",""time""
""fullscreenenter"",""5"",""15221""
","
","","images/earth.jpg","","","","","","","","","","","","","","fixation","","","","","",""
"d3-animate-choice","138","663677","0.0-76.0-0.1","1124","3557","10","Female","true","true","true","true","""event"",""trial"",""time""
""fullscreenenter"",""5"",""15221""
","
","
","""event"",""trial"",""time""
""fullscreenenter"",""5"",""15221""
","
","302.20000000298023","","49","","","3000","1","","","images/earth.jpg","images/rocket2","images/rocket1","null","images/rocket1","","1","real","null","1","","",""
"d3-animate-choice","139","666630","0.0-76.0-1.1","1124","3557","10","Female","true","true","true","true","""event"",""trial"",""time""
""fullscreenenter"",""5"",""15221""
","
","
","""event"",""trial"",""time""
""fullscreenenter"",""5"",""15221""
","
","947.5","","49","","","3000","1","","","images/redplanet1.jpg","images/alien2","images/alien1","images/rocket1","images/alien1","images/nothing.png","2","real","true","1","common","0","2022-11-02 23:54:38.323"
"two-step-fixation","140","667635","0.0-76.0-2.1","1124","3557","10","Female","true","true","true","true","""event"",""trial"",""time""
""fullscreenenter"",""5"",""15221""
","
","
","""event"",""trial"",""time""
""fullscreenenter"",""5"",""15221""
","
","","images/earth.jpg","","","","","","","","","","","","","","fixation","","","","","",""
"d3-animate-choice","141","670046","0.0-76.0-0.2","1124","3557","10","Female","true","true","true","true","""event"",""trial"",""time""
""fullscreenenter"",""5"",""15221""
","
","
","""event"",""trial"",""time""
""fullscreenenter"",""5"",""15221""
","
","405.70000000298023","","49","","","3000","1","","","images/earth.jpg","images/rocket2","images/rocket1","null","images/rocket1","","1","real","null","1","","",""
"d3-animate-choice","142","672852","0.0-76.0-1.2","1124","3557","10","Female","true","true","true","true","""event"",""trial"",""time""
""fullscreenenter"",""5"",""15221""
","
","
","""event"",""trial"",""time""
""fullscreenenter"",""5"",""15221""
","
","801.7999999970198","","48","","","3000","1","","","images/purpleplanet.jpg","images/alien4","images/alien3","images/rocket1","images/alien4","images/t.png","2","real","false","2","rare","1","2022-11-02 23:54:44.544"
"two-step-fixation","143","673857","0.0-76.0-2.2","1124","3557","10","Female","true","true","true","true","""event"",""trial"",""time""
""fullscreenenter"",""5"",""15221""
","
","
","""event"",""trial"",""time""
""fullscreenenter"",""5"",""15221""
","
","","images/earth.jpg","","","","","","","","","","","","","","fixation","","","","","",""
"d3-animate-choice","144","676141","0.0-76.0-0.3","1124","3557","10","Female","true","true","true","true","""event"",""trial"",""time""
""fullscreenenter"",""5"",""15221""
","
","
","""event"",""trial"",""time""
""fullscreenenter"",""5"",""15221""
","
","277.8999999910593","","49","","","3000","1","","","images/earth.jpg","images/rocket2","images/rocket1","null","images/rocket1","","1","real","null","1","","",""
"d3-animate-choice","145","678661","0.0-76.0-1.3","1124","3557","10","Female","true","true","true","true","""event"",""trial"",""time""
""fullscreenenter"",""5"",""15221""
","
","
","""event"",""trial"",""time""
""fullscreenenter"",""5"",""15221""
","
","515.5","","49","","","3000","1","","","images/redplanet1.jpg","images/alien2","images/alien1","images/rocket1","images/alien1","images/nothing.png","2","real","true","1","common","0","2022-11-02 23:54:50.353"
"two-step-fixation","146","679666","0.0-76.0-2.3","1124","3557","10","Female","true","true","true","true","""event"",""trial"",""time""
""fullscreenenter"",""5"",""15221""
","
","
","""event"",""trial"",""time""
""fullscreenenter"",""5"",""15221""
","
","","images/earth.jpg","","","","","","","","","","","","","","fixation","","","","","",""
"d3-animate-choice","147","681901","0.0-76.0-0.4","1124","3557","10","Female","true","true","true","true","""event"",""trial"",""time""
""fullscreenenter"",""5"",""15221""
","
","
","""event"",""trial"",""time""
""fullscreenenter"",""5"",""15221""
","
","228.20000000298023","","49","","","3000","1","","","images/earth.jpg","images/rocket2","images/rocket1","null","images/rocket1","","1","real","null","1","","",""
"d3-animate-choice","148","684360","0.0-76.0-1.4","1124","3557","10","Female","true","true","true","true","""event"",""trial"",""time""
""fullscreenenter"",""5"",""15221""
","
","
","""event"",""trial"",""time""
""fullscreenenter"",""5"",""15221""
","
","451.59999999403954","","48","","","3000","1","","","images/purpleplanet.jpg","images/alien4","images/alien3","images/rocket1","images/alien4","images/t.png","2","real","false","2","rare","1","2022-11-02 23:54:56.052"
"two-step-fixation","149","685365","0.0-76.0-2.4","1124","3557","10","Female","true","true","true","true","""event"",""trial"",""time""
""fullscreenenter"",""5"",""15221""
","
","
","""event"",""trial"",""time""
""fullscreenenter"",""5"",""15221""
","
","","images/earth.jpg","","","","","","","","","","","","","","fixation","","","","","",""
"d3-animate-choice","150","687699","0.0-76.0-0.5","1124","3557","10","Female","true","true","true","true","""event"",""trial"",""time""
""fullscreenenter"",""5"",""15221""
","
","
","""event"",""trial"",""time""
""fullscreenenter"",""5"",""15221""
","
","329","","49","","","3000","1","","","images/earth.jpg","images/rocket2","images/rocket1","null","images/rocket1","","1","real","null","1","","",""
"d3-animate-choice","151","690136","0.0-76.0-1.5","1124","3557","10","Female","true","true","true","true","""event"",""trial"",""time""
""fullscreenenter"",""5"",""15221""
","
","
","""event"",""trial"",""time""
""fullscreenenter"",""5"",""15221""
","
","430.20000000298023","","48","","","3000","1","","","images/purpleplanet.jpg","images/alien4","images/alien3","images/rocket1","images/alien4","images/nothing.png","2","real","false","2","rare","0","2022-11-02 23:55:01.828"
"two-step-fixation","152","691142","0.0-76.0-2.5","1124","3557","10","Female","true","true","true","true","""event"",""trial"",""time""
""fullscreenenter"",""5"",""15221""
","
","
","""event"",""trial"",""time""
""fullscreenenter"",""5"",""15221""
","
","","images/earth.jpg","","","","","","","","","","","","","","fixation","","","","","",""
"d3-animate-choice","153","693480","0.0-76.0-0.6","1124","3557","10","Female","true","true","true","true","""event"",""trial"",""time""
""fullscreenenter"",""5"",""15221""
","
","
","""event"",""trial"",""time""
""fullscreenenter"",""5"",""15221""
","
","333.09999999403954","","49","","","3000","1","","","images/earth.jpg","images/rocket2","images/rocket1","null","images/rocket1","","1","real","null","1","","",""
"d3-animate-choice","154","695814","0.0-76.0-1.6","1124","3557","10","Female","true","true","true","true","""event"",""trial"",""time""
""fullscreenenter"",""5"",""15221""
","
","
","""event"",""trial"",""time""
""fullscreenenter"",""5"",""15221""
","
","328.09999999403954","","48","","","3000","1","","","images/redplanet1.jpg","images/alien2","images/alien1","images/rocket1","images/alien2","images/t.png","2","real","true","2","common","1","2022-11-02 23:55:07.506"
"two-step-fixation","155","696819","0.0-76.0-2.6","1124","3557","10","Female","true","true","true","true","""event"",""trial"",""time""
""fullscreenenter"",""5"",""15221""
","
","
","""event"",""trial"",""time""
""fullscreenenter"",""5"",""15221""
","
","","images/earth.jpg","","","","","","","","","","","","","","fixation","","","","","",""
"d3-animate-choice","156","699304","0.0-76.0-0.7","1124","3557","10","Female","true","true","true","true","""event"",""trial"",""time""
""fullscreenenter"",""5"",""15221""
","
","
","""event"",""trial"",""time""
""fullscreenenter"",""5"",""15221""
","
","476.40000000596046","","49","","","3000","1","","","images/earth.jpg","images/rocket2","images/rocket1","null","images/rocket1","","1","real","null","1","","",""
"d3-animate-choice","157","701639","0.0-76.0-1.7","1124","3557","10","Female","true","true","true","true","""event"",""trial"",""time""
""fullscreenenter"",""5"",""15221""
","
","
","""event"",""trial"",""time""
""fullscreenenter"",""5"",""15221""
","
","329.90000000596046","","48","","","3000","1","","","images/redplanet1.jpg","images/alien2","images/alien1","images/rocket1","images/alien2","images/nothing.png","2","real","true","2","common","0","2022-11-02 23:55:13.331"
"two-step-fixation","158","702648","0.0-76.0-2.7","1124","3557","10","Female","true","true","true","true","""event"",""trial"",""time""
""fullscreenenter"",""5"",""15221""
","
","
","""event"",""trial"",""time""
""fullscreenenter"",""5"",""15221""
","
","","images/earth.jpg","","","","","","","","","","","","","","fixation","","","","","",""
"d3-animate-choice","159","704996","0.0-76.0-0.8","1124","3557","10","Female","true","true","true","true","""event"",""trial"",""time""
""fullscreenenter"",""5"",""15221""
","
","
","""event"",""trial"",""time""
""fullscreenenter"",""5"",""15221""
","
","342.79999999701977","","48","","","3000","1","","","images/earth.jpg","images/rocket2","images/rocket1","null","images/rocket2","","1","real","null","2","","",""
"d3-animate-choice","160","707462","0.0-76.0-1.8","1124","3557","10","Female","true","true","true","true","""event"",""trial"",""time""
""fullscreenenter"",""5"",""15221""
","
","
","""event"",""trial"",""time""
""fullscreenenter"",""5"",""15221""
","
","460.59999999403954","","49","","","3000","1","","","images/redplanet1.jpg","images/alien2","images/alien1","images/rocket2","images/alien1","images/t.png","2","real","false","1","rare","1","2022-11-02 23:55:19.154"
"two-step-fixation","161","708469","0.0-76.0-2.8","1124","3557","10","Female","true","true","true","true","""event"",""trial"",""time""
""fullscreenenter"",""5"",""15221""
","
","
","""event"",""trial"",""time""
""fullscreenenter"",""5"",""15221""
","
","","images/earth.jpg","","","","","","","","","","","","","","fixation","","","","","",""
"d3-animate-choice","162","710789","0.0-76.0-0.9","1124","3557","10","Female","true","true","true","true","""event"",""trial"",""time""
""fullscreenenter"",""5"",""15221""
","
","
","""event"",""trial"",""time""
""fullscreenenter"",""5"",""15221""
","
","314.30000001192093","","48","","","3000","1","","","images/earth.jpg","images/rocket2","images/rocket1","null","images/rocket2","","1","real","null","2","","",""
"d3-animate-choice","163","713161","0.0-76.0-1.9","1124","3557","10","Female","true","true","true","true","""event"",""trial"",""time""
""fullscreenenter"",""5"",""15221""
","
","
","""event"",""trial"",""time""
""fullscreenenter"",""5"",""15221""
","
","367.79999999701977","","49","","","3000","1","","","images/redplanet1.jpg","images/alien2","images/alien1","images/rocket2","images/alien1","images/t.png","2","real","false","1","rare","1","2022-11-02 23:55:24.853"
"two-step-fixation","164","714167","0.0-76.0-2.9","1124","3557","10","Female","true","true","true","true","""event"",""trial"",""time""
""fullscreenenter"",""5"",""15221""
","
","
","""event"",""trial"",""time""
""fullscreenenter"",""5"",""15221""
","
","","images/earth.jpg","","","","","","","","","","","","","","fixation","","","","","",""
"d3-animate-choice","165","716524","0.0-76.0-0.10","1124","3557","10","Female","true","true","true","true","""event"",""trial"",""time""
""fullscreenenter"",""5"",""15221""
","
","
","""event"",""trial"",""time""
""fullscreenenter"",""5"",""15221""
","
","351.09999999403954","","48","","","3000","1","","","images/earth.jpg","images/rocket2","images/rocket1","null","images/rocket2","","1","real","null","2","","",""
"d3-animate-choice","166","718868","0.0-76.0-1.10","1124","3557","10","Female","true","true","true","true","""event"",""trial"",""time""
""fullscreenenter"",""5"",""15221""
","
","
","""event"",""trial"",""time""
""fullscreenenter"",""5"",""15221""
","
","336.70000000298023","","49","","","3000","1","","","images/redplanet1.jpg","images/alien2","images/alien1","images/rocket2","images/alien1","images/nothing.png","2","real","false","1","rare","0","2022-11-02 23:55:30.560"
"two-step-fixation","167","719873","0.0-76.0-2.10","1124","3557","10","Female","true","true","true","true","""event"",""trial"",""time""
""fullscreenenter"",""5"",""15221""
","
","
","""event"",""trial"",""time""
""fullscreenenter"",""5"",""15221""
","
","","images/earth.jpg","","","","","","","","","","","","","","fixation","","","","","",""
"d3-animate-choice","168","722348","0.0-76.0-0.11","1124","3557","10","Female","true","true","true","true","""event"",""trial"",""time""
""fullscreenenter"",""5"",""15221""
","
","
","""event"",""trial"",""time""
""fullscreenenter"",""5"",""15221""
","
","470","","48","","","3000","1","","","images/earth.jpg","images/rocket2","images/rocket1","null","images/rocket2","","1","real","null","2","","",""
"d3-animate-choice","169","724657","0.0-76.0-1.11","1124","3557","10","Female","true","true","true","true","""event"",""trial"",""time""
""fullscreenenter"",""5"",""15221""
","
","
","""event"",""trial"",""time""
""fullscreenenter"",""5"",""15221""
","
","303","","49","","","3000","1","","","images/redplanet1.jpg","images/alien2","images/alien1","images/rocket2","images/alien1","images/t.png","2","real","false","1","rare","1","2022-11-02 23:55:36.349"
"two-step-fixation","170","725662","0.0-76.0-2.11","1124","3557","10","Female","true","true","true","true","""event"",""trial"",""time""
""fullscreenenter"",""5"",""15221""
","
","
","""event"",""trial"",""time""
""fullscreenenter"",""5"",""15221""
","
","","images/earth.jpg","","","","","","","","","","","","","","fixation","","","","","",""
"d3-animate-choice","171","727985","0.0-76.0-0.12","1124","3557","10","Female","true","true","true","true","""event"",""trial"",""time""
""fullscreenenter"",""5"",""15221""
","
","
","""event"",""trial"",""time""
""fullscreenenter"",""5"",""15221""
","
","316.20000000298023","","48","","","3000","1","","","images/earth.jpg","images/rocket2","images/rocket1","null","images/rocket2","","1","real","null","2","","",""
"d3-animate-choice","172","730249","0.0-76.0-1.12","1124","3557","10","Female","true","true","true","true","""event"",""trial"",""time""
""fullscreenenter"",""5"",""15221""
","
","
","""event"",""trial"",""time""
""fullscreenenter"",""5"",""15221""
","
","258.6000000089407","","49","","","3000","1","","","images/redplanet1.jpg","images/alien2","images/alien1","images/rocket2","images/alien1","images/nothing.png","2","real","false","1","rare","0","2022-11-02 23:55:41.941"
"two-step-fixation","173","731254","0.0-76.0-2.12","1124","3557","10","Female","true","true","true","true","""event"",""trial"",""time""
""fullscreenenter"",""5"",""15221""
","
","
","""event"",""trial"",""time""
""fullscreenenter"",""5"",""15221""
","
","","images/earth.jpg","","","","","","","","","","","","","","fixation","","","","","",""
"d3-animate-choice","174","733559","0.0-76.0-0.13","1124","3557","10","Female","true","true","true","true","""event"",""trial"",""time""
""fullscreenenter"",""5"",""15221""
","
","
","""event"",""trial"",""time""
""fullscreenenter"",""5"",""15221""
","
","299.79999999701977","","48","","","3000","1","","","images/earth.jpg","images/rocket2","images/rocket1","null","images/rocket2","","1","real","null","2","","",""
"d3-animate-choice","175","735859","0.0-76.0-1.13","1124","3557","10","Female","true","true","true","true","""event"",""trial"",""time""
""fullscreenenter"",""5"",""15221""
","
","
","""event"",""trial"",""time""
""fullscreenenter"",""5"",""15221""
","
","295.5","","49","","","3000","1","","","images/redplanet1.jpg","images/alien2","images/alien1","images/rocket2","images/alien1","images/t.png","2","real","false","1","rare","1","2022-11-02 23:55:47.552"
"two-step-fixation","176","736864","0.0-76.0-2.13","1124","3557","10","Female","true","true","true","true","""event"",""trial"",""time""
""fullscreenenter"",""5"",""15221""
","
","
","""event"",""trial"",""time""
""fullscreenenter"",""5"",""15221""
","
","","images/earth.jpg","","","","","","","","","","","","","","fixation","","","","","",""
"d3-animate-choice","177","739199","0.0-76.0-0.14","1124","3557","10","Female","true","true","true","true","""event"",""trial"",""time""
""fullscreenenter"",""5"",""15221""
","
","
","""event"",""trial"",""time""
""fullscreenenter"",""5"",""15221""
","
","329.3999999910593","","48","","","3000","1","","","images/earth.jpg","images/rocket2","images/rocket1","null","images/rocket2","","1","real","null","2","","",""
"d3-animate-choice","178","741835","0.0-76.0-1.14","1124","3557","10","Female","true","true","true","true","""event"",""trial"",""time""
""fullscreenenter"",""5"",""15221""
","
","
","""event"",""trial"",""time""
""fullscreenenter"",""5"",""15221""
","
","626.8999999910593","","49","","","3000","1","","","images/redplanet1.jpg","images/alien2","images/alien1","images/rocket2","images/alien1","images/t.png","2","real","false","1","rare","1","2022-11-02 23:55:53.527"
"two-step-fixation","179","742840","0.0-76.0-2.14","1124","3557","10","Female","true","true","true","true","""event"",""trial"",""time""
""fullscreenenter"",""5"",""15221""
","
","
","""event"",""trial"",""time""
""fullscreenenter"",""5"",""15221""
","
","","images/earth.jpg","","","","","","","","","","","","","","fixation","","","","","",""
"d3-animate-choice","180","745152","0.0-76.0-0.15","1124","3557","10","Female","true","true","true","true","""event"",""trial"",""time""
""fullscreenenter"",""5"",""15221""
","
","
","""event"",""trial"",""time""
""fullscreenenter"",""5"",""15221""
","
","306.8999999910593","","48","","","3000","1","","","images/earth.jpg","images/rocket2","images/rocket1","null","images/rocket2","","1","real","null","2","","",""
"d3-animate-choice","181","748154","0.0-76.0-1.15","1124","3557","10","Female","true","true","true","true","""event"",""trial"",""time""
""fullscreenenter"",""5"",""15221""
","
","
","""event"",""trial"",""time""
""fullscreenenter"",""5"",""15221""
","
","997.2000000029802","","49","","","3000","1","","","images/purpleplanet.jpg","images/alien4","images/alien3","images/rocket2","images/alien3","images/nothing.png","2","real","true","1","common","0","2022-11-02 23:55:59.847"
"two-step-fixation","182","749160","0.0-76.0-2.15","1124","3557","10","Female","true","true","true","true","""event"",""trial"",""time""
""fullscreenenter"",""5"",""15221""
","
","
","""event"",""trial"",""time""
""fullscreenenter"",""5"",""15221""
","
","","images/earth.jpg","","","","","","","","","","","","","","fixation","","","","","",""
"d3-animate-choice","183","751495","0.0-76.0-0.16","1124","3557","10","Female","true","true","true","true","""event"",""trial"",""time""
""fullscreenenter"",""5"",""15221""
","
","
","""event"",""trial"",""time""
""fullscreenenter"",""5"",""15221""
","
","328.09999999403954","","48","","","3000","1","","","images/earth.jpg","images/rocket2","images/rocket1","null","images/rocket2","","1","real","null","2","","",""
"d3-animate-choice","184","754038","0.0-76.0-1.16","1124","3557","10","Female","true","true","true","true","""event"",""trial"",""time""
""fullscreenenter"",""5"",""15221""
","
","
","""event"",""trial"",""time""
""fullscreenenter"",""5"",""15221""
","
","538.4000000059605","","48","","","3000","1","","","images/purpleplanet.jpg","images/alien4","images/alien3","images/rocket2","images/alien4","images/t.png","2","real","true","2","common","1","2022-11-02 23:56:05.730"
"two-step-fixation","185","755044","0.0-76.0-2.16","1124","3557","10","Female","true","true","true","true","""event"",""trial"",""time""
""fullscreenenter"",""5"",""15221""
","
","
","""event"",""trial"",""time""
""fullscreenenter"",""5"",""15221""
","
","","images/earth.jpg","","","","","","","","","","","","","","fixation","","","","","",""
"d3-animate-choice","186","757365","0.0-76.0-0.17","1124","3557","10","Female","true","true","true","true","""event"",""trial"",""time""
""fullscreenenter"",""5"",""15221""
","
","
","""event"",""trial"",""time""
""fullscreenenter"",""5"",""15221""
","
","312","","48","","","3000","1","","","images/earth.jpg","images/rocket2","images/rocket1","null","images/rocket2","","1","real","null","2","","",""
"d3-animate-choice","187","759820","0.0-76.0-1.17","1124","3557","10","Female","true","true","true","true","""event"",""trial"",""time""
""fullscreenenter"",""5"",""15221""
","
","
","""event"",""trial"",""time""
""fullscreenenter"",""5"",""15221""
","
","449.6000000089407","","48","","","3000","1","","","images/purpleplanet.jpg","images/alien4","images/alien3","images/rocket2","images/alien4","images/nothing.png","2","real","true","2","common","0","2022-11-02 23:56:11.512"
"two-step-fixation","188","760826","0.0-76.0-2.17","1124","3557","10","Female","true","true","true","true","""event"",""trial"",""time""
""fullscreenenter"",""5"",""15221""
","
","
","""event"",""trial"",""time""
""fullscreenenter"",""5"",""15221""
","
","","images/earth.jpg","","","","","","","","","","","","","","fixation","","","","","",""
"d3-animate-choice","189","763204","0.0-76.0-0.18","1124","3557","10","Female","true","true","true","true","""event"",""trial"",""time""
""fullscreenenter"",""5"",""15221""
","
","
","""event"",""trial"",""time""
""fullscreenenter"",""5"",""15221""
","
","372.40000000596046","","48","","","3000","1","","","images/earth.jpg","images/rocket2","images/rocket1","null","images/rocket2","","1","real","null","2","","",""
"d3-animate-choice","190","765855","0.0-76.0-1.18","1124","3557","10","Female","true","true","true","true","""event"",""trial"",""time""
""fullscreenenter"",""5"",""15221""
","
","
","""event"",""trial"",""time""
""fullscreenenter"",""5"",""15221""
","
","644.3999999910593","","49","","","3000","1","","","images/redplanet1.jpg","images/alien2","images/alien1","images/rocket2","images/alien1","images/nothing.png","2","real","false","1","rare","0","2022-11-02 23:56:17.547"
"two-step-fixation","191","766863","0.0-76.0-2.18","1124","3557","10","Female","true","true","true","true","""event"",""trial"",""time""
""fullscreenenter"",""5"",""15221""
","
","
","""event"",""trial"",""time""
""fullscreenenter"",""5"",""15221""
","
","","images/earth.jpg","","","","","","","","","","","","","","fixation","","","","","",""
"d3-animate-choice","192","769257","0.0-76.0-0.19","1124","3557","10","Female","true","true","true","true","""event"",""trial"",""time""
""fullscreenenter"",""5"",""15221""
","
","
","""event"",""trial"",""time""
""fullscreenenter"",""5"",""15221""
","
","389.19999998807907","","48","","","3000","1","","","images/earth.jpg","images/rocket2","images/rocket1","null","images/rocket2","","1","real","null","2","","",""
"d3-animate-choice","193","771830","0.0-76.0-1.19","1124","3557","10","Female","true","true","true","true","""event"",""trial"",""time""
""fullscreenenter"",""5"",""15221""
","
","
","""event"",""trial"",""time""
""fullscreenenter"",""5"",""15221""
","
","568","","49","","","3000","1","","","images/purpleplanet.jpg","images/alien4","images/alien3","images/rocket2","images/alien3","images/nothing.png","2","real","true","1","common","0","2022-11-02 23:56:23.522"
"two-step-fixation","194","772835","0.0-76.0-2.19","1124","3557","10","Female","true","true","true","true","""event"",""trial"",""time""
""fullscreenenter"",""5"",""15221""
","
","
","""event"",""trial"",""time""
""fullscreenenter"",""5"",""15221""
","
","","images/earth.jpg","","","","","","","","","","","","","","fixation","","","","","",""
"d3-animate-choice","195","775157","0.0-76.0-0.20","1124","3557","10","Female","true","true","true","true","""event"",""trial"",""time""
""fullscreenenter"",""5"",""15221""
","
","
","""event"",""trial"",""time""
""fullscreenenter"",""5"",""15221""
","
","317.3999999910593","","49","","","3000","1","","","images/earth.jpg","images/rocket2","images/rocket1","null","images/rocket1","","1","real","null","1","","",""
"d3-animate-choice","196","778478","0.0-76.0-1.20","1124","3557","10","Female","true","true","true","true","""event"",""trial"",""time""
""fullscreenenter"",""5"",""15221""
","
","
","""event"",""trial"",""time""
""fullscreenenter"",""5"",""15221""
","
","1311.7999999970198","","48","","","3000","1","","","images/redplanet1.jpg","images/alien2","images/alien1","images/rocket1","images/alien2","images/t.png","2","real","true","2","common","1","2022-11-02 23:56:30.170"
"two-step-fixation","197","779483","0.0-76.0-2.20","1124","3557","10","Female","true","true","true","true","""event"",""trial"",""time""
""fullscreenenter"",""5"",""15221""
","
","
","""event"",""trial"",""time""
""fullscreenenter"",""5"",""15221""
","
","","images/earth.jpg","","","","","","","","","","","","","","fixation","","","","","",""
"d3-animate-choice","198","781810","0.0-76.0-0.21","1124","3557","10","Female","true","true","true","true","""event"",""trial"",""time""
""fullscreenenter"",""5"",""15221""
","
","
","""event"",""trial"",""time""
""fullscreenenter"",""5"",""15221""
","
","320.79999999701977","","49","","","3000","1","","","images/earth.jpg","images/rocket2","images/rocket1","null","images/rocket1","","1","real","null","1","","",""
"d3-animate-choice","199","784501","0.0-76.0-1.21","1124","3557","10","Female","true","true","true","true","""event"",""trial"",""time""
""fullscreenenter"",""5"",""15221""
","
","
","""event"",""trial"",""time""
""fullscreenenter"",""5"",""15221""
","
","681.8000000119209","","48","","","3000","1","","","images/redplanet1.jpg","images/alien2","images/alien1","images/rocket1","images/alien2","images/t.png","2","real","true","2","common","1","2022-11-02 23:56:36.193"
"two-step-fixation","200","785507","0.0-76.0-2.21","1124","3557","10","Female","true","true","true","true","""event"",""trial"",""time""
""fullscreenenter"",""5"",""15221""
","
","
","""event"",""trial"",""time""
""fullscreenenter"",""5"",""15221""
","
","","images/earth.jpg","","","","","","","","","","","","","","fixation","","","","","",""
"d3-animate-choice","201","787795","0.0-76.0-0.22","1124","3557","10","Female","true","true","true","true","""event"",""trial"",""time""
""fullscreenenter"",""5"",""15221""
","
","
","""event"",""trial"",""time""
""fullscreenenter"",""5"",""15221""
","
","282.5","","48","","","3000","1","","","images/earth.jpg","images/rocket2","images/rocket1","null","images/rocket2","","1","real","null","2","","",""
"d3-animate-choice","202","790696","0.0-76.0-1.22","1124","3557","10","Female","true","true","true","true","""event"",""trial"",""time""
""fullscreenenter"",""5"",""15221""
","
","
","""event"",""trial"",""time""
""fullscreenenter"",""5"",""15221""
","
","896.6000000089407","","48","","","3000","1","","","images/redplanet1.jpg","images/alien2","images/alien1","images/rocket2","images/alien2","images/nothing.png","2","real","false","2","rare","0","2022-11-02 23:56:42.388"
"two-step-fixation","203","791702","0.0-76.0-2.22","1124","3557","10","Female","true","true","true","true","""event"",""trial"",""time""
""fullscreenenter"",""5"",""15221""
","
","
","""event"",""trial"",""time""
""fullscreenenter"",""5"",""15221""
","
","","images/earth.jpg","","","","","","","","","","","","","","fixation","","","","","",""
"d3-animate-choice","204","794090","0.0-76.0-0.23","1124","3557","10","Female","true","true","true","true","""event"",""trial"",""time""
""fullscreenenter"",""5"",""15221""
","
","
","""event"",""trial"",""time""
""fullscreenenter"",""5"",""15221""
","
","380.29999999701977","","48","","","3000","1","","","images/earth.jpg","images/rocket2","images/rocket1","null","images/rocket2","","1","real","null","2","","",""
"d3-animate-choice","205","796509","0.0-76.0-1.23","1124","3557","10","Female","true","true","true","true","""event"",""trial"",""time""
""fullscreenenter"",""5"",""15221""
","
","
","""event"",""trial"",""time""
""fullscreenenter"",""5"",""15221""
","
","411.70000000298023","","48","","","3000","1","","","images/redplanet1.jpg","images/alien2","images/alien1","images/rocket2","images/alien2","images/t.png","2","real","false","2","rare","1","2022-11-02 23:56:48.201"
"two-step-fixation","206","797515","0.0-76.0-2.23","1124","3557","10","Female","true","true","true","true","""event"",""trial"",""time""
""fullscreenenter"",""5"",""15221""
","
","
","""event"",""trial"",""time""
""fullscreenenter"",""5"",""15221""
","
","","images/earth.jpg","","","","","","","","","","","","","","fixation","","","","","",""
"d3-animate-choice","207","799789","0.0-76.0-0.24","1124","3557","10","Female","true","true","true","true","""event"",""trial"",""time""
""fullscreenenter"",""5"",""15221""
","
","
","""event"",""trial"",""time""
""fullscreenenter"",""5"",""15221""
","
","268.8999999910593","","48","","","3000","1","","","images/earth.jpg","images/rocket2","images/rocket1","null","images/rocket2","","1","real","null","2","","",""
"d3-animate-choice","208","803073","0.0-76.0-1.24","1124","3557","10","Female","true","true","true","true","""event"",""trial"",""time""
""fullscreenenter"",""5"",""15221""
","
","
","""event"",""trial"",""time""
""fullscreenenter"",""5"",""15221""
","
","1279.7000000029802","","48","","","3000","1","","","images/purpleplanet.jpg","images/alien4","images/alien3","images/rocket2","images/alien4","images/t.png","2","real","true","2","common","1","2022-11-02 23:56:54.765"
"two-step-fixation","209","804080","0.0-76.0-2.24","1124","3557","10","Female","true","true","true","true","""event"",""trial"",""time""
""fullscreenenter"",""5"",""15221""
","
","
","""event"",""trial"",""time""
""fullscreenenter"",""5"",""15221""
","
","","images/earth.jpg","","","","","","","","","","","","","","fixation","","","","","",""
"d3-animate-choice","210","806490","0.0-76.0-0.25","1124","3557","10","Female","true","true","true","true","""event"",""trial"",""time""
""fullscreenenter"",""5"",""15221""
","
","
","""event"",""trial"",""time""
""fullscreenenter"",""5"",""15221""
","
","404.29999999701977","","48","","","3000","1","","","images/earth.jpg","images/rocket2","images/rocket1","null","images/rocket2","","1","real","null","2","","",""
"d3-animate-choice","211","809142","0.0-76.0-1.25","1124","3557","10","Female","true","true","true","true","""event"",""trial"",""time""
""fullscreenenter"",""5"",""15221""
","
","
","""event"",""trial"",""time""
""fullscreenenter"",""5"",""15221""
","
","646","","48","","","3000","1","","","images/purpleplanet.jpg","images/alien4","images/alien3","images/rocket2","images/alien4","images/nothing.png","2","real","true","2","common","0","2022-11-02 23:57:00.834"
"two-step-fixation","212","810148","0.0-76.0-2.25","1124","3557","10","Female","true","true","true","true","""event"",""trial"",""time""
""fullscreenenter"",""5"",""15221""
","
","
","""event"",""trial"",""time""
""fullscreenenter"",""5"",""15221""
","
","","images/earth.jpg","","","","","","","","","","","","","","fixation","","","","","",""
"d3-animate-choice","213","812548","0.0-76.0-0.26","1124","3557","10","Female","true","true","true","true","""event"",""trial"",""time""
""fullscreenenter"",""5"",""15221""
","
","
","""event"",""trial"",""time""
""fullscreenenter"",""5"",""15221""
","
","395","","48","","","3000","1","","","images/earth.jpg","images/rocket2","images/rocket1","null","images/rocket2","","1","real","null","2","","",""
"d3-animate-choice","214","815662","0.0-76.0-1.26","1124","3557","10","Female","true","true","true","true","""event"",""trial"",""time""
""fullscreenenter"",""5"",""15221""
","
","
","""event"",""trial"",""time""
""fullscreenenter"",""5"",""15221""
","
","1110.7999999970198","","48","","","3000","1","","","images/purpleplanet.jpg","images/alien4","images/alien3","images/rocket2","images/alien4","images/nothing.png","2","real","true","2","common","0","2022-11-02 23:57:07.355"
"two-step-fixation","215","816667","0.0-76.0-2.26","1124","3557","10","Female","true","true","true","true","""event"",""trial"",""time""
""fullscreenenter"",""5"",""15221""
","
","
","""event"",""trial"",""time""
""fullscreenenter"",""5"",""15221""
","
","","images/earth.jpg","","","","","","","","","","","","","","fixation","","","","","",""
"d3-animate-choice","216","819001","0.0-76.0-0.27","1124","3557","10","Female","true","true","true","true","""event"",""trial"",""time""
""fullscreenenter"",""5"",""15221""
","
","
","""event"",""trial"",""time""
""fullscreenenter"",""5"",""15221""
","
","324","","48","","","3000","1","","","images/earth.jpg","images/rocket2","images/rocket1","null","images/rocket2","","1","real","null","2","","",""
"d3-animate-choice","217","821679","0.0-76.0-1.27","1124","3557","10","Female","true","true","true","true","""event"",""trial"",""time""
""fullscreenenter"",""5"",""15221""
","
","
","""event"",""trial"",""time""
""fullscreenenter"",""5"",""15221""
","
","673","","49","","","3000","1","","","images/purpleplanet.jpg","images/alien4","images/alien3","images/rocket2","images/alien3","images/nothing.png","2","real","true","1","common","0","2022-11-02 23:57:13.371"
"two-step-fixation","218","822684","0.0-76.0-2.27","1124","3557","10","Female","true","true","true","true","""event"",""trial"",""time""
""fullscreenenter"",""5"",""15221""
","
","
","""event"",""trial"",""time""
""fullscreenenter"",""5"",""15221""
","
","","images/earth.jpg","","","","","","","","","","","","","","fixation","","","","","",""
"d3-animate-choice","219","825091","0.0-76.0-0.28","1124","3557","10","Female","true","true","true","true","""event"",""trial"",""time""
""fullscreenenter"",""5"",""15221""
","
","
","""event"",""trial"",""time""
""fullscreenenter"",""5"",""15221""
","
","401.79999999701977","","49","","","3000","1","","","images/earth.jpg","images/rocket2","images/rocket1","null","images/rocket1","","1","real","null","1","","",""
"d3-animate-choice","220","827912","0.0-76.0-1.28","1124","3557","10","Female","true","true","true","true","""event"",""trial"",""time""
""fullscreenenter"",""5"",""15221""
","
","
","""event"",""trial"",""time""
""fullscreenenter"",""5"",""15221""
","
","815.7999999970198","","49","","","3000","1","","","images/redplanet1.jpg","images/alien2","images/alien1","images/rocket1","images/alien1","images/t.png","2","real","true","1","common","1","2022-11-02 23:57:19.604"
"two-step-fixation","221","828918","0.0-76.0-2.28","1124","3557","10","Female","true","true","true","true","""event"",""trial"",""time""
""fullscreenenter"",""5"",""15221""
","
","
","""event"",""trial"",""time""
""fullscreenenter"",""5"",""15221""
","
","","images/earth.jpg","","","","","","","","","","","","","","fixation","","","","","",""
"d3-animate-choice","222","831314","0.0-76.0-0.29","1124","3557","10","Female","true","true","true","true","""event"",""trial"",""time""
""fullscreenenter"",""5"",""15221""
","
","
","""event"",""trial"",""time""
""fullscreenenter"",""5"",""15221""
","
","391","","49","","","3000","1","","","images/earth.jpg","images/rocket2","images/rocket1","null","images/rocket1","","1","real","null","1","","",""
"d3-animate-choice","223","833926","0.0-76.0-1.29","1124","3557","10","Female","true","true","true","true","""event"",""trial"",""time""
""fullscreenenter"",""5"",""15221""
","
","
","""event"",""trial"",""time""
""fullscreenenter"",""5"",""15221""
","
","607.8000000119209","","49","","","3000","1","","","images/purpleplanet.jpg","images/alien4","images/alien3","images/rocket1","images/alien3","images/t.png","2","real","false","1","rare","1","2022-11-02 23:57:25.618"
"two-step-fixation","224","834932","0.0-76.0-2.29","1124","3557","10","Female","true","true","true","true","""event"",""trial"",""time""
""fullscreenenter"",""5"",""15221""
","
","
","""event"",""trial"",""time""
""fullscreenenter"",""5"",""15221""
","
","","images/earth.jpg","","","","","","","","","","","","","","fixation","","","","","",""
"d3-animate-choice","225","837265","0.0-76.0-0.30","1124","3557","10","Female","true","true","true","true","""event"",""trial"",""time""
""fullscreenenter"",""5"",""15221""
","
","
","""event"",""trial"",""time""
""fullscreenenter"",""5"",""15221""
","
","329.30000001192093","","49","","","3000","1","","","images/earth.jpg","images/rocket2","images/rocket1","null","images/rocket1","","1","real","null","1","","",""
"d3-animate-choice","226","839565","0.0-76.0-1.30","1124","3557","10","Female","true","true","true","true","""event"",""trial"",""time""
""fullscreenenter"",""5"",""15221""
","
","
","""event"",""trial"",""time""
""fullscreenenter"",""5"",""15221""
","
","291.6000000089407","","49","","","3000","1","","","images/redplanet1.jpg","images/alien2","images/alien1","images/rocket1","images/alien1","images/nothing.png","2","real","true","1","common","0","2022-11-02 23:57:31.257"
"two-step-fixation","227","840570","0.0-76.0-2.30","1124","3557","10","Female","true","true","true","true","""event"",""trial"",""time""
""fullscreenenter"",""5"",""15221""
","
","
","""event"",""trial"",""time""
""fullscreenenter"",""5"",""15221""
","
","","images/earth.jpg","","","","","","","","","","","","","","fixation","","","","","",""
"d3-animate-choice","228","842888","0.0-76.0-0.31","1124","3557","10","Female","true","true","true","true","""event"",""trial"",""time""
""fullscreenenter"",""5"",""15221""
","
","
","""event"",""trial"",""time""
""fullscreenenter"",""5"",""15221""
","
","313.5","","49","","","3000","1","","","images/earth.jpg","images/rocket2","images/rocket1","null","images/rocket1","","1","real","null","1","","",""
"d3-animate-choice","229","845295","0.0-76.0-1.31","1124","3557","10","Female","true","true","true","true","""event"",""trial"",""time""
""fullscreenenter"",""5"",""15221""
","
","
","""event"",""trial"",""time""
""fullscreenenter"",""5"",""15221""
","
","402.6000000089407","","48","","","3000","1","","","images/redplanet1.jpg","images/alien2","images/alien1","images/rocket1","images/alien2","images/t.png","2","real","true","2","common","1","2022-11-02 23:57:36.988"
"two-step-fixation","230","846301","0.0-76.0-2.31","1124","3557","10","Female","true","true","true","true","""event"",""trial"",""time""
""fullscreenenter"",""5"",""15221""
","
","
","""event"",""trial"",""time""
""fullscreenenter"",""5"",""15221""
","
","","images/earth.jpg","","","","","","","","","","","","","","fixation","","","","","",""
"d3-animate-choice","231","848613","0.0-76.0-0.32","1124","3557","10","Female","true","true","true","true","""event"",""trial"",""time""
""fullscreenenter"",""5"",""15221""
","
","
","""event"",""trial"",""time""
""fullscreenenter"",""5"",""15221""
","
","307.40000000596046","","49","","","3000","1","","","images/earth.jpg","images/rocket2","images/rocket1","null","images/rocket1","","1","real","null","1","","",""
"d3-animate-choice","232","851047","0.0-76.0-1.32","1124","3557","10","Female","true","true","true","true","""event"",""trial"",""time""
""fullscreenenter"",""5"",""15221""
","
","
","""event"",""trial"",""time""
""fullscreenenter"",""5"",""15221""
","
","429.1000000089407","","48","","","3000","1","","","images/redplanet1.jpg","images/alien2","images/alien1","images/rocket1","images/alien2","images/t.png","2","real","true","2","common","1","2022-11-02 23:57:42.740"
"two-step-fixation","233","852052","0.0-76.0-2.32","1124","3557","10","Female","true","true","true","true","""event"",""trial"",""time""
""fullscreenenter"",""5"",""15221""
","
","
","""event"",""trial"",""time""
""fullscreenenter"",""5"",""15221""
","
","","images/earth.jpg","","","","","","","","","","","","","","fixation","","","","","",""
"d3-animate-choice","234","854406","0.0-76.0-0.33","1124","3557","10","Female","true","true","true","true","""event"",""trial"",""time""
""fullscreenenter"",""5"",""15221""
","
","
","""event"",""trial"",""time""
""fullscreenenter"",""5"",""15221""
","
","348.59999999403954","","49","","","3000","1","","","images/earth.jpg","images/rocket2","images/rocket1","null","images/rocket1","","1","real","null","1","","",""
"d3-animate-choice","235","856961","0.0-76.0-1.33","1124","3557","10","Female","true","true","true","true","""event"",""trial"",""time""
""fullscreenenter"",""5"",""15221""
","
","
","""event"",""trial"",""time""
""fullscreenenter"",""5"",""15221""
","
","546.2999999970198","","48","","","3000","1","","","images/redplanet1.jpg","images/alien2","images/alien1","images/rocket1","images/alien2","images/nothing.png","2","real","true","2","common","0","2022-11-02 23:57:48.653"
"two-step-fixation","236","857967","0.0-76.0-2.33","1124","3557","10","Female","true","true","true","true","""event"",""trial"",""time""
""fullscreenenter"",""5"",""15221""
","
","
","""event"",""trial"",""time""
""fullscreenenter"",""5"",""15221""
","
","","images/earth.jpg","","","","","","","","","","","","","","fixation","","","","","",""
"d3-animate-choice","237","860143","0.0-76.0-0.34","1124","3557","10","Female","true","true","true","true","""event"",""trial"",""time""
""fullscreenenter"",""5"",""15221""
","
","
","""event"",""trial"",""time""
""fullscreenenter"",""5"",""15221""
","
","170.90000000596046","","49","","","3000","1","","","images/earth.jpg","images/rocket2","images/rocket1","null","images/rocket1","","1","real","null","1","","",""
"d3-animate-choice","238","862493","0.0-76.0-1.34","1124","3557","10","Female","true","true","true","true","""event"",""trial"",""time""
""fullscreenenter"",""5"",""15221""
","
","
","""event"",""trial"",""time""
""fullscreenenter"",""5"",""15221""
","
","346.29999999701977","","48","","","3000","1","","","images/redplanet1.jpg","images/alien2","images/alien1","images/rocket1","images/alien2","images/t.png","2","real","true","2","common","1","2022-11-02 23:57:54.185"
"two-step-fixation","239","863501","0.0-76.0-2.34","1124","3557","10","Female","true","true","true","true","""event"",""trial"",""time""
""fullscreenenter"",""5"",""15221""
","
","
","""event"",""trial"",""time""
""fullscreenenter"",""5"",""15221""
","
","","images/earth.jpg","","","","","","","","","","","","","","fixation","","","","","",""
"d3-animate-choice","240","865875","0.0-76.0-0.35","1124","3557","10","Female","true","true","true","true","""event"",""trial"",""time""
""fullscreenenter"",""5"",""15221""
","
","
","""event"",""trial"",""time""
""fullscreenenter"",""5"",""15221""
","
","369.20000000298023","","49","","","3000","1","","","images/earth.jpg","images/rocket2","images/rocket1","null","images/rocket1","","1","real","null","1","","",""
"d3-animate-choice","241","868255","0.0-76.0-1.35","1124","3557","10","Female","true","true","true","true","""event"",""trial"",""time""
""fullscreenenter"",""5"",""15221""
","
","
","""event"",""trial"",""time""
""fullscreenenter"",""5"",""15221""
","
","376.30000001192093","","48","","","3000","1","","","images/redplanet1.jpg","images/alien2","images/alien1","images/rocket1","images/alien2","images/nothing.png","2","real","true","2","common","0","2022-11-02 23:57:59.947"
"two-step-fixation","242","869260","0.0-76.0-2.35","1124","3557","10","Female","true","true","true","true","""event"",""trial"",""time""
""fullscreenenter"",""5"",""15221""
","
","
","""event"",""trial"",""time""
""fullscreenenter"",""5"",""15221""
","
","","images/earth.jpg","","","","","","","","","","","","","","fixation","","","","","",""
"d3-animate-choice","243","871571","0.0-76.0-0.36","1124","3557","10","Female","true","true","true","true","""event"",""trial"",""time""
""fullscreenenter"",""5"",""15221""
","
","
","""event"",""trial"",""time""
""fullscreenenter"",""5"",""15221""
","
","306","","49","","","3000","1","","","images/earth.jpg","images/rocket2","images/rocket1","null","images/rocket1","","1","real","null","1","","",""
"d3-animate-choice","244","874062","0.0-76.0-1.36","1124","3557","10","Female","true","true","true","true","""event"",""trial"",""time""
""fullscreenenter"",""5"",""15221""
","
","
","""event"",""trial"",""time""
""fullscreenenter"",""5"",""15221""
","
","485.5","","48","","","3000","1","","","images/redplanet1.jpg","images/alien2","images/alien1","images/rocket1","images/alien2","images/t.png","2","real","true","2","common","1","2022-11-02 23:58:05.754"
"two-step-fixation","245","875068","0.0-76.0-2.36","1124","3557","10","Female","true","true","true","true","""event"",""trial"",""time""
""fullscreenenter"",""5"",""15221""
","
","
","""event"",""trial"",""time""
""fullscreenenter"",""5"",""15221""
","
","","images/earth.jpg","","","","","","","","","","","","","","fixation","","","","","",""
"d3-animate-choice","246","877358","0.0-76.0-0.37","1124","3557","10","Female","true","true","true","true","""event"",""trial"",""time""
""fullscreenenter"",""5"",""15221""
","
","
","""event"",""trial"",""time""
""fullscreenenter"",""5"",""15221""
","
