"trial_type","trial_index","time_elapsed","internal_node_id","participant_id","subject_id","age","gender","rocket_sides","red_planet_first_rocket","red_display_order","purple_display_order","interactions","blur_events","focus_events","fullscreenenter_events","fullscreenexit_events","rt","stimulus","key_press","button_pressed","success","duration","valid_pressed","rts","keys","planet_text","right_text","left_text","center_text","chosen_text","reward_text","trial_stage","practice_trial","transition_type","choice","transition","reward","timestamp"
"pavlovia","0","7","0.0-0.0","259","687","12","Male","false","true","false","true","
","
","
","
","
","","","","","","","","","","","","","","","","","","","","","",""
"html-keyboard-response","1","1362","0.0-1.0","259","687","12","Male","false","true","false","true","
","
","
","
","
","1352.3000000044703","Welcome! Press the space bar to begin.","32","","","","","","","","","","","","","","","","","","",""
"audio-keyboard-response","2","3575","0.0-2.0","259","687","12","Male","false","true","false","true","
","
","
","
","
","2069","audio/beep_loop.wav","32","","","","","","","","","","","","","","","","","","",""
"audio-button-response","3","5723","0.0-3.0","259","687","12","Male","false","true","false","true","
","
","
","
","
","NaN","audio/fish.mp3","","1","","","","","","","","","","","","","","","","","",""
"audio-button-response","4","8197","0.0-4.0","259","687","12","Male","false","true","false","true","""event"",""trial"",""time""
""blur"",""5"",""53684""
""focus"",""5"",""56311""
""blur"",""5"",""58476""
""focus"",""5"",""62787""
""blur"",""5"",""68372""
""focus"",""5"",""70656""
""fullscreenenter"",""5"",""81071""
","""event"",""trial"",""time""
""blur"",""5"",""53684""
""blur"",""5"",""58476""
""blur"",""5"",""68372""
","""event"",""trial"",""time""
""focus"",""5"",""56311""
""focus"",""5"",""62787""
""focus"",""5"",""70656""
","""event"",""trial"",""time""
""fullscreenenter"",""5"",""81071""
","
","NaN","audio/tiger.mp3","","4","","","","","","","","","","","","","","","","","",""
"fullscreen","5","82014","0.0-5.0","259","687","12","Male","false","true","false","true","""event"",""trial"",""time""
""blur"",""5"",""53684""
""focus"",""5"",""56311""
""blur"",""5"",""58476""
""focus"",""5"",""62787""
""blur"",""5"",""68372""
""focus"",""5"",""70656""
""fullscreenenter"",""5"",""81071""
","""event"",""trial"",""time""
""blur"",""5"",""53684""
""blur"",""5"",""58476""
""blur"",""5"",""68372""
","""event"",""trial"",""time""
""focus"",""5"",""56311""
""focus"",""5"",""62787""
""focus"",""5"",""70656""
","""event"",""trial"",""time""
""fullscreenenter"",""5"",""81071""
","
","","","","","true","","","","","","","","","","","","","","","","",""
"d3-instructions","6","91308","0.0-6.0","259","687","12","Male","false","true","false","true","""event"",""trial"",""time""
""blur"",""5"",""53684""
""focus"",""5"",""56311""
""blur"",""5"",""58476""
""focus"",""5"",""62787""
""blur"",""5"",""68372""
""focus"",""5"",""70656""
""fullscreenenter"",""5"",""81071""
","""event"",""trial"",""time""
""blur"",""5"",""53684""
""blur"",""5"",""58476""
""blur"",""5"",""68372""
","""event"",""trial"",""time""
""focus"",""5"",""56311""
""focus"",""5"",""62787""
""focus"",""5"",""70656""
","""event"",""trial"",""time""
""fullscreenenter"",""5"",""81071""
","
","","","","","","","","","","","","","","","","","","","","","",""
"d3-instructions","7","98098","0.0-7.0","259","687","12","Male","false","true","false","true","""event"",""trial"",""time""
""blur"",""5"",""53684""
""focus"",""5"",""56311""
""blur"",""5"",""58476""
""focus"",""5"",""62787""
""blur"",""5"",""68372""
""focus"",""5"",""70656""
""fullscreenenter"",""5"",""81071""
","""event"",""trial"",""time""
""blur"",""5"",""53684""
""blur"",""5"",""58476""
""blur"",""5"",""68372""
","""event"",""trial"",""time""
""focus"",""5"",""56311""
""focus"",""5"",""62787""
""focus"",""5"",""70656""
","""event"",""trial"",""time""
""fullscreenenter"",""5"",""81071""
","
","","","","","","","","","","","","","","","","","","","","","",""
"d3-instructions","8","100431","0.0-8.0","259","687","12","Male","false","true","false","true","""event"",""trial"",""time""
""blur"",""5"",""53684""
""focus"",""5"",""56311""
""blur"",""5"",""58476""
""focus"",""5"",""62787""
""blur"",""5"",""68372""
""focus"",""5"",""70656""
""fullscreenenter"",""5"",""81071""
""fullscreenexit"",""9"",""108841""
","""event"",""trial"",""time""
""blur"",""5"",""53684""
""blur"",""5"",""58476""
""blur"",""5"",""68372""
","""event"",""trial"",""time""
""focus"",""5"",""56311""
""focus"",""5"",""62787""
""focus"",""5"",""70656""
","""event"",""trial"",""time""
""fullscreenenter"",""5"",""81071""
","""event"",""trial"",""time""
""fullscreenexit"",""9"",""108841""
","","","","","","","","","","","","","","","","","","","","","",""
"d3-instructions","9","116083","0.0-9.0","259","687","12","Male","false","true","false","true","""event"",""trial"",""time""
""blur"",""5"",""53684""
""focus"",""5"",""56311""
""blur"",""5"",""58476""
""focus"",""5"",""62787""
""blur"",""5"",""68372""
""focus"",""5"",""70656""
""fullscreenenter"",""5"",""81071""
""fullscreenexit"",""9"",""108841""
","""event"",""trial"",""time""
""blur"",""5"",""53684""
""blur"",""5"",""58476""
""blur"",""5"",""68372""
","""event"",""trial"",""time""
""focus"",""5"",""56311""
""focus"",""5"",""62787""
""focus"",""5"",""70656""
","""event"",""trial"",""time""
""fullscreenenter"",""5"",""81071""
","""event"",""trial"",""time""
""fullscreenexit"",""9"",""108841""
","","","","","","","","","","","","","","","","","","","","","",""
"d3-instructions","10","126258","0.0-10.0","259","687","12","Male","false","true","false","true","""event"",""trial"",""time""
""blur"",""5"",""53684""
""focus"",""5"",""56311""
""blur"",""5"",""58476""
""focus"",""5"",""62787""
""blur"",""5"",""68372""
""focus"",""5"",""70656""
""fullscreenenter"",""5"",""81071""
""fullscreenexit"",""9"",""108841""
","""event"",""trial"",""time""
""blur"",""5"",""53684""
""blur"",""5"",""58476""
""blur"",""5"",""68372""
","""event"",""trial"",""time""
""focus"",""5"",""56311""
""focus"",""5"",""62787""
""focus"",""5"",""70656""
","""event"",""trial"",""time""
""fullscreenenter"",""5"",""81071""
","""event"",""trial"",""time""
""fullscreenexit"",""9"",""108841""
","","","","","","","","","","","","","","","","","","","","","",""
"d3-animate-choice","11","131114","0.0-11.0","259","687","12","Male","false","true","false","true","""event"",""trial"",""time""
""blur"",""5"",""53684""
""focus"",""5"",""56311""
""blur"",""5"",""58476""
""focus"",""5"",""62787""
""blur"",""5"",""68372""
""focus"",""5"",""70656""
""fullscreenenter"",""5"",""81071""
""fullscreenexit"",""9"",""108841""
","""event"",""trial"",""time""
""blur"",""5"",""53684""
""blur"",""5"",""58476""
""blur"",""5"",""68372""
","""event"",""trial"",""time""
""focus"",""5"",""56311""
""focus"",""5"",""62787""
""focus"",""5"",""70656""
","""event"",""trial"",""time""
""fullscreenenter"",""5"",""81071""
","""event"",""trial"",""time""
""fullscreenexit"",""9"",""108841""
","2835.10000000149","","48","","","3000","1","4126.39999999851","13","images/tutgreenplanet.jpg","images/tutalien1","images/tutalien2","null","images/tutalien1","","NA","practice","null","","","",""
"d3-animate-choice","12","134381","0.0-12.0","259","687","12","Male","false","true","false","true","""event"",""trial"",""time""
""blur"",""5"",""53684""
""focus"",""5"",""56311""
""blur"",""5"",""58476""
""focus"",""5"",""62787""
""blur"",""5"",""68372""
""focus"",""5"",""70656""
""fullscreenenter"",""5"",""81071""
""fullscreenexit"",""9"",""108841""
","""event"",""trial"",""time""
""blur"",""5"",""53684""
""blur"",""5"",""58476""
""blur"",""5"",""68372""
","""event"",""trial"",""time""
""focus"",""5"",""56311""
""focus"",""5"",""62787""
""focus"",""5"",""70656""
","""event"",""trial"",""time""
""fullscreenenter"",""5"",""81071""
","""event"",""trial"",""time""
""fullscreenexit"",""9"",""108841""
","1251.3999999985099","","49","","","3000","1","","","images/tutgreenplanet.jpg","images/tutalien1","images/tutalien2","null","images/tutalien2","","NA","practice","null","","","",""
"d3-animate-choice","13","137504","0.0-13.0","259","687","12","Male","false","true","false","true","""event"",""trial"",""time""
""blur"",""5"",""53684""
""focus"",""5"",""56311""
""blur"",""5"",""58476""
""focus"",""5"",""62787""
""blur"",""5"",""68372""
""focus"",""5"",""70656""
""fullscreenenter"",""5"",""81071""
""fullscreenexit"",""9"",""108841""
","""event"",""trial"",""time""
""blur"",""5"",""53684""
""blur"",""5"",""58476""
""blur"",""5"",""68372""
","""event"",""trial"",""time""
""focus"",""5"",""56311""
""focus"",""5"",""62787""
""focus"",""5"",""70656""
","""event"",""trial"",""time""
""fullscreenenter"",""5"",""81071""
","""event"",""trial"",""time""
""fullscreenexit"",""9"",""108841""
","1116.8000000044703","","48","","","3000","1","","","images/tutgreenplanet.jpg","images/tutalien1","images/tutalien2","null","images/tutalien1","","NA","practice","null","","","",""
"d3-animate-choice","14","139793","0.0-14.0","259","687","12","Male","false","true","false","true","""event"",""trial"",""time""
""blur"",""5"",""53684""
""focus"",""5"",""56311""
""blur"",""5"",""58476""
""focus"",""5"",""62787""
""blur"",""5"",""68372""
""focus"",""5"",""70656""
""fullscreenenter"",""5"",""81071""
""fullscreenexit"",""9"",""108841""
","""event"",""trial"",""time""
""blur"",""5"",""53684""
""blur"",""5"",""58476""
""blur"",""5"",""68372""
","""event"",""trial"",""time""
""focus"",""5"",""56311""
""focus"",""5"",""62787""
""focus"",""5"",""70656""
","""event"",""trial"",""time""
""fullscreenenter"",""5"",""81071""
","""event"",""trial"",""time""
""fullscreenexit"",""9"",""108841""
","285","","49","","","3000","1","","","images/tutgreenplanet.jpg","images/tutalien1","images/tutalien2","null","images/tutalien2","","NA","practice","null","","","",""
"d3-instructions","15","145488","0.0-15.0","259","687","12","Male","false","true","false","true","""event"",""trial"",""time""
""blur"",""5"",""53684""
""focus"",""5"",""56311""
""blur"",""5"",""58476""
""focus"",""5"",""62787""
""blur"",""5"",""68372""
""focus"",""5"",""70656""
""fullscreenenter"",""5"",""81071""
""fullscreenexit"",""9"",""108841""
","""event"",""trial"",""time""
""blur"",""5"",""53684""
""blur"",""5"",""58476""
""blur"",""5"",""68372""
","""event"",""trial"",""time""
""focus"",""5"",""56311""
""focus"",""5"",""62787""
""focus"",""5"",""70656""
","""event"",""trial"",""time""
""fullscreenenter"",""5"",""81071""
","""event"",""trial"",""time""
""fullscreenexit"",""9"",""108841""
","","","","","","","","","","","","","","","","","","","","","",""
"d3-instructions","16","147966","0.0-16.0","259","687","12","Male","false","true","false","true","""event"",""trial"",""time""
""blur"",""5"",""53684""
""focus"",""5"",""56311""
""blur"",""5"",""58476""
""focus"",""5"",""62787""
""blur"",""5"",""68372""
""focus"",""5"",""70656""
""fullscreenenter"",""5"",""81071""
""fullscreenexit"",""9"",""108841""
","""event"",""trial"",""time""
""blur"",""5"",""53684""
""blur"",""5"",""58476""
""blur"",""5"",""68372""
","""event"",""trial"",""time""
""focus"",""5"",""56311""
""focus"",""5"",""62787""
""focus"",""5"",""70656""
","""event"",""trial"",""time""
""fullscreenenter"",""5"",""81071""
","""event"",""trial"",""time""
""fullscreenexit"",""9"",""108841""
","","","","","","","","","","","","","","","","","","","","","",""
"d3-instructions","17","149134","0.0-17.0","259","687","12","Male","false","true","false","true","""event"",""trial"",""time""
""blur"",""5"",""53684""
""focus"",""5"",""56311""
""blur"",""5"",""58476""
""focus"",""5"",""62787""
""blur"",""5"",""68372""
""focus"",""5"",""70656""
""fullscreenenter"",""5"",""81071""
""fullscreenexit"",""9"",""108841""
","""event"",""trial"",""time""
""blur"",""5"",""53684""
""blur"",""5"",""58476""
""blur"",""5"",""68372""
","""event"",""trial"",""time""
""focus"",""5"",""56311""
""focus"",""5"",""62787""
""focus"",""5"",""70656""
","""event"",""trial"",""time""
""fullscreenenter"",""5"",""81071""
","""event"",""trial"",""time""
""fullscreenexit"",""9"",""108841""
","","","","","","","","","","","","","","","","","","","","","",""
"d3-instructions","18","150004","0.0-18.0","259","687","12","Male","false","true","false","true","""event"",""trial"",""time""
""blur"",""5"",""53684""
""focus"",""5"",""56311""
""blur"",""5"",""58476""
""focus"",""5"",""62787""
""blur"",""5"",""68372""
""focus"",""5"",""70656""
""fullscreenenter"",""5"",""81071""
""fullscreenexit"",""9"",""108841""
","""event"",""trial"",""time""
""blur"",""5"",""53684""
""blur"",""5"",""58476""
""blur"",""5"",""68372""
","""event"",""trial"",""time""
""focus"",""5"",""56311""
""focus"",""5"",""62787""
""focus"",""5"",""70656""
","""event"",""trial"",""time""
""fullscreenenter"",""5"",""81071""
","""event"",""trial"",""time""
""fullscreenexit"",""9"",""108841""
","","","","","","","","","","","","","","","","","","","","","",""
"d3-instructions","19","158494","0.0-19.0","259","687","12","Male","false","true","false","true","""event"",""trial"",""time""
""blur"",""5"",""53684""
""focus"",""5"",""56311""
""blur"",""5"",""58476""
""focus"",""5"",""62787""
""blur"",""5"",""68372""
""focus"",""5"",""70656""
""fullscreenenter"",""5"",""81071""
""fullscreenexit"",""9"",""108841""
","""event"",""trial"",""time""
""blur"",""5"",""53684""
""blur"",""5"",""58476""
""blur"",""5"",""68372""
","""event"",""trial"",""time""
""focus"",""5"",""56311""
""focus"",""5"",""62787""
""focus"",""5"",""70656""
","""event"",""trial"",""time""
""fullscreenenter"",""5"",""81071""
","""event"",""trial"",""time""
""fullscreenexit"",""9"",""108841""
","","","","","","","","","","","","","","","","","","","","","",""
"d3-animate-choice","20","161919","0.0-20.0","259","687","12","Male","false","true","false","true","""event"",""trial"",""time""
""blur"",""5"",""53684""
""focus"",""5"",""56311""
""blur"",""5"",""58476""
""focus"",""5"",""62787""
""blur"",""5"",""68372""
""focus"",""5"",""70656""
""fullscreenenter"",""5"",""81071""
""fullscreenexit"",""9"",""108841""
","""event"",""trial"",""time""
""blur"",""5"",""53684""
""blur"",""5"",""58476""
""blur"",""5"",""68372""
","""event"",""trial"",""time""
""focus"",""5"",""56311""
""focus"",""5"",""62787""
""focus"",""5"",""70656""
","""event"",""trial"",""time""
""fullscreenenter"",""5"",""81071""
","""event"",""trial"",""time""
""fullscreenexit"",""9"",""108841""
","1407.5","","49","","","3000","1","","","images/tutyellowplanet.jpg","null","images/tutalien3","null","images/tutalien3","images/nothing.png","NA","practice","null","","","",""
"d3-animate-choice","21","164425","0.0-21.0","259","687","12","Male","false","true","false","true","""event"",""trial"",""time""
""blur"",""5"",""53684""
""focus"",""5"",""56311""
""blur"",""5"",""58476""
""focus"",""5"",""62787""
""blur"",""5"",""68372""
""focus"",""5"",""70656""
""fullscreenenter"",""5"",""81071""
""fullscreenexit"",""9"",""108841""
","""event"",""trial"",""time""
""blur"",""5"",""53684""
""blur"",""5"",""58476""
""blur"",""5"",""68372""
","""event"",""trial"",""time""
""focus"",""5"",""56311""
""focus"",""5"",""62787""
""focus"",""5"",""70656""
","""event"",""trial"",""time""
""fullscreenenter"",""5"",""81071""
","""event"",""trial"",""time""
""fullscreenexit"",""9"",""108841""
","497.70000000298023","","49","","","3000","1","2191.7000000029802","49","images/tutyellowplanet.jpg","null","images/tutalien3","null","images/tutalien3","images/t.png","NA","practice","null","","","",""
"d3-animate-choice","22","166594","0.0-22.0","259","687","12","Male","false","true","false","true","""event"",""trial"",""time""
""blur"",""5"",""53684""
""focus"",""5"",""56311""
""blur"",""5"",""58476""
""focus"",""5"",""62787""
""blur"",""5"",""68372""
""focus"",""5"",""70656""
""fullscreenenter"",""5"",""81071""
""fullscreenexit"",""9"",""108841""
","""event"",""trial"",""time""
""blur"",""5"",""53684""
""blur"",""5"",""58476""
""blur"",""5"",""68372""
","""event"",""trial"",""time""
""focus"",""5"",""56311""
""focus"",""5"",""62787""
""focus"",""5"",""70656""
","""event"",""trial"",""time""
""fullscreenenter"",""5"",""81071""
","""event"",""trial"",""time""
""fullscreenexit"",""9"",""108841""
","148.59999999403954","","49","","","3000","1","357.29999999701977,675.1999999955297,846.0999999940395,1056.2999999970198,1262.3999999985099,1486.0999999940395,1688.5,1867.0999999940395,2119.1999999955297","49,49,49,49,49,49,49,49,49","images/tutyellowplanet.jpg","null","images/tutalien3","null","images/tutalien3","images/t.png","NA","practice","null","","","",""
"d3-animate-choice","23","168779","0.0-23.0","259","687","12","Male","false","true","false","true","""event"",""trial"",""time""
""blur"",""5"",""53684""
""focus"",""5"",""56311""
""blur"",""5"",""58476""
""focus"",""5"",""62787""
""blur"",""5"",""68372""
""focus"",""5"",""70656""
""fullscreenenter"",""5"",""81071""
""fullscreenexit"",""9"",""108841""
","""event"",""trial"",""time""
""blur"",""5"",""53684""
""blur"",""5"",""58476""
""blur"",""5"",""68372""
","""event"",""trial"",""time""
""focus"",""5"",""56311""
""focus"",""5"",""62787""
""focus"",""5"",""70656""
","""event"",""trial"",""time""
""fullscreenenter"",""5"",""81071""
","""event"",""trial"",""time""
""fullscreenexit"",""9"",""108841""
","179.90000000596046","","49","","","3000","1","347.80000000447035,544,977.4000000059605,1200.7000000029802,1431.6000000014901,1658.8000000044703,1859.5,2065.7000000029802","49,49,49,49,49,49,49,49","images/tutyellowplanet.jpg","null","images/tutalien3","null","images/tutalien3","images/nothing.png","NA","practice","null","","","",""
"d3-animate-choice","24","170876","0.0-24.0","259","687","12","Male","false","true","false","true","""event"",""trial"",""time""
""blur"",""5"",""53684""
""focus"",""5"",""56311""
""blur"",""5"",""58476""
""focus"",""5"",""62787""
""blur"",""5"",""68372""
""focus"",""5"",""70656""
""fullscreenenter"",""5"",""81071""
""fullscreenexit"",""9"",""108841""
","""event"",""trial"",""time""
""blur"",""5"",""53684""
""blur"",""5"",""58476""
""blur"",""5"",""68372""
","""event"",""trial"",""time""
""focus"",""5"",""56311""
""focus"",""5"",""62787""
""focus"",""5"",""70656""
","""event"",""trial"",""time""
""fullscreenenter"",""5"",""81071""
","""event"",""trial"",""time""
""fullscreenexit"",""9"",""108841""
","90.39999999850988","","49","","","3000","1","290.5,486.09999999403954,684.3999999985099,871.0999999940395,1077.5,1277.3999999985099,1467.3999999985099,1661.3999999985099,1876.3999999985099,2084.1999999955297","49,49,49,49,49,49,49,49,49,49","images/tutyellowplanet.jpg","null","images/tutalien3","null","images/tutalien3","images/nothing.png","NA","practice","null","","","",""
"d3-animate-choice","25","173105","0.0-25.0","259","687","12","Male","false","true","false","true","""event"",""trial"",""time""
""blur"",""5"",""53684""
""focus"",""5"",""56311""
""blur"",""5"",""58476""
""focus"",""5"",""62787""
""blur"",""5"",""68372""
""focus"",""5"",""70656""
""fullscreenenter"",""5"",""81071""
""fullscreenexit"",""9"",""108841""
","""event"",""trial"",""time""
""blur"",""5"",""53684""
""blur"",""5"",""58476""
""blur"",""5"",""68372""
","""event"",""trial"",""time""
""focus"",""5"",""56311""
""focus"",""5"",""62787""
""focus"",""5"",""70656""
","""event"",""trial"",""time""
""fullscreenenter"",""5"",""81071""
","""event"",""trial"",""time""
""fullscreenexit"",""9"",""108841""
","224","","49","","","3000","1","404.79999999701977,618.2000000029802,830.6000000014901,1052,1275.7000000029802,1711.1000000014901,1929.3999999985099,2135","49,49,49,49,49,49,49,49","images/tutyellowplanet.jpg","null","images/tutalien3","null","images/tutalien3","images/t.png","NA","practice","null","","","",""
"d3-animate-choice","26","175241","0.0-26.0","259","687","12","Male","false","true","false","true","""event"",""trial"",""time""
""blur"",""5"",""53684""
""focus"",""5"",""56311""
""blur"",""5"",""58476""
""focus"",""5"",""62787""
""blur"",""5"",""68372""
""focus"",""5"",""70656""
""fullscreenenter"",""5"",""81071""
""fullscreenexit"",""9"",""108841""
","""event"",""trial"",""time""
""blur"",""5"",""53684""
""blur"",""5"",""58476""
""blur"",""5"",""68372""
","""event"",""trial"",""time""
""focus"",""5"",""56311""
""focus"",""5"",""62787""
""focus"",""5"",""70656""
","""event"",""trial"",""time""
""fullscreenenter"",""5"",""81071""
","""event"",""trial"",""time""
""fullscreenexit"",""9"",""108841""
","132.70000000298023","","49","","","3000","1","353.20000000298023,555.1000000014901,765.2000000029802,985.1000000014901,1203.6000000014901,1420.6000000014901,1636.3999999985099,1854.8000000044703,2067.89999999851","49,49,49,49,49,49,49,49,49","images/tutyellowplanet.jpg","null","images/tutalien3","null","images/tutalien3","images/t.png","NA","practice","null","","","",""
"d3-animate-choice","27","177378","0.0-27.0","259","687","12","Male","false","true","false","true","""event"",""trial"",""time""
""blur"",""5"",""53684""
""focus"",""5"",""56311""
""blur"",""5"",""58476""
""focus"",""5"",""62787""
""blur"",""5"",""68372""
""focus"",""5"",""70656""
""fullscreenenter"",""5"",""81071""
""fullscreenexit"",""9"",""108841""
","""event"",""trial"",""time""
""blur"",""5"",""53684""
""blur"",""5"",""58476""
""blur"",""5"",""68372""
","""event"",""trial"",""time""
""focus"",""5"",""56311""
""focus"",""5"",""62787""
""focus"",""5"",""70656""
","""event"",""trial"",""time""
""fullscreenenter"",""5"",""81071""
","""event"",""trial"",""time""
""fullscreenexit"",""9"",""108841""
","131.79999999701977","","49","","","3000","1","378.5","49","images/tutyellowplanet.jpg","null","images/tutalien3","null","images/tutalien3","images/t.png","NA","practice","null","","","",""
"d3-animate-choice","28","179578","0.0-28.0","259","687","12","Male","false","true","false","true","""event"",""trial"",""time""
""blur"",""5"",""53684""
""focus"",""5"",""56311""
""blur"",""5"",""58476""
""focus"",""5"",""62787""
""blur"",""5"",""68372""
""focus"",""5"",""70656""
""fullscreenenter"",""5"",""81071""
""fullscreenexit"",""9"",""108841""
","""event"",""trial"",""time""
""blur"",""5"",""53684""
""blur"",""5"",""58476""
""blur"",""5"",""68372""
","""event"",""trial"",""time""
""focus"",""5"",""56311""
""focus"",""5"",""62787""
""focus"",""5"",""70656""
","""event"",""trial"",""time""
""fullscreenenter"",""5"",""81071""
","""event"",""trial"",""time""
""fullscreenexit"",""9"",""108841""
","193.20000000298023","","49","","","3000","1","","","images/tutyellowplanet.jpg","null","images/tutalien3","null","images/tutalien3","images/t.png","NA","practice","null","","","",""
"d3-animate-choice","29","183065","0.0-29.0","259","687","12","Male","false","true","false","true","""event"",""trial"",""time""
""blur"",""5"",""53684""
""focus"",""5"",""56311""
""blur"",""5"",""58476""
""focus"",""5"",""62787""
""blur"",""5"",""68372""
""focus"",""5"",""70656""
""fullscreenenter"",""5"",""81071""
""fullscreenexit"",""9"",""108841""
","""event"",""trial"",""time""
""blur"",""5"",""53684""
""blur"",""5"",""58476""
""blur"",""5"",""68372""
","""event"",""trial"",""time""
""focus"",""5"",""56311""
""focus"",""5"",""62787""
""focus"",""5"",""70656""
","""event"",""trial"",""time""
""fullscreenenter"",""5"",""81071""
","""event"",""trial"",""time""
""fullscreenexit"",""9"",""108841""
","243.29999999701977","","48","","","3000","1","626.2999999970198,859.6999999955297,1044.3999999985099,1249.5,1477.1999999955297,2282.7999999970198,2422.7999999970198,2654.39999999851,2772.1999999955297,2944.39999999851,3096.60000000149,3298.7999999970198","48,48,48,48,49,48,49,48,49,48,49,48","images/tutyellowplanet.jpg","null","images/tutalien3","null","images/tutalien3","images/t.png","NA","practice","null","","","",""
"d3-instructions","30","190392","0.0-30.0","259","687","12","Male","false","true","false","true","""event"",""trial"",""time""
""blur"",""5"",""53684""
""focus"",""5"",""56311""
""blur"",""5"",""58476""
""focus"",""5"",""62787""
""blur"",""5"",""68372""
""focus"",""5"",""70656""
""fullscreenenter"",""5"",""81071""
""fullscreenexit"",""9"",""108841""
","""event"",""trial"",""time""
""blur"",""5"",""53684""
""blur"",""5"",""58476""
""blur"",""5"",""68372""
","""event"",""trial"",""time""
""focus"",""5"",""56311""
""focus"",""5"",""62787""
""focus"",""5"",""70656""
","""event"",""trial"",""time""
""fullscreenenter"",""5"",""81071""
","""event"",""trial"",""time""
""fullscreenexit"",""9"",""108841""
","","","","","","","","","","","","","","","","","","","","","",""
"d3-instructions","31","201368","0.0-31.0","259","687","12","Male","false","true","false","true","""event"",""trial"",""time""
""blur"",""5"",""53684""
""focus"",""5"",""56311""
""blur"",""5"",""58476""
""focus"",""5"",""62787""
""blur"",""5"",""68372""
""focus"",""5"",""70656""
""fullscreenenter"",""5"",""81071""
""fullscreenexit"",""9"",""108841""
","""event"",""trial"",""time""
""blur"",""5"",""53684""
""blur"",""5"",""58476""
""blur"",""5"",""68372""
","""event"",""trial"",""time""
""focus"",""5"",""56311""
""focus"",""5"",""62787""
""focus"",""5"",""70656""
","""event"",""trial"",""time""
""fullscreenenter"",""5"",""81071""
","""event"",""trial"",""time""
""fullscreenexit"",""9"",""108841""
","","","","","","","","","","","","","","","","","","","","","",""
"d3-instructions","32","206883","0.0-32.0","259","687","12","Male","false","true","false","true","""event"",""trial"",""time""
""blur"",""5"",""53684""
""focus"",""5"",""56311""
""blur"",""5"",""58476""
""focus"",""5"",""62787""
""blur"",""5"",""68372""
""focus"",""5"",""70656""
""fullscreenenter"",""5"",""81071""
""fullscreenexit"",""9"",""108841""
","""event"",""trial"",""time""
""blur"",""5"",""53684""
""blur"",""5"",""58476""
""blur"",""5"",""68372""
","""event"",""trial"",""time""
""focus"",""5"",""56311""
""focus"",""5"",""62787""
""focus"",""5"",""70656""
","""event"",""trial"",""time""
""fullscreenenter"",""5"",""81071""
","""event"",""trial"",""time""
""fullscreenexit"",""9"",""108841""
","","","","","","","","","","","","","","","","","","","","","",""
"d3-instructions","33","208716","0.0-33.0","259","687","12","Male","false","true","false","true","""event"",""trial"",""time""
""blur"",""5"",""53684""
""focus"",""5"",""56311""
""blur"",""5"",""58476""
""focus"",""5"",""62787""
""blur"",""5"",""68372""
""focus"",""5"",""70656""
""fullscreenenter"",""5"",""81071""
""fullscreenexit"",""9"",""108841""
","""event"",""trial"",""time""
""blur"",""5"",""53684""
""blur"",""5"",""58476""
""blur"",""5"",""68372""
","""event"",""trial"",""time""
""focus"",""5"",""56311""
""focus"",""5"",""62787""
""focus"",""5"",""70656""
","""event"",""trial"",""time""
""fullscreenenter"",""5"",""81071""
","""event"",""trial"",""time""
""fullscreenexit"",""9"",""108841""
","","","","","","","","","","","","","","","","","","","","","",""
"d3-animate-choice","34","212168","0.0-34.0","259","687","12","Male","false","true","false","true","""event"",""trial"",""time""
""blur"",""5"",""53684""
""focus"",""5"",""56311""
""blur"",""5"",""58476""
""focus"",""5"",""62787""
""blur"",""5"",""68372""
""focus"",""5"",""70656""
""fullscreenenter"",""5"",""81071""
""fullscreenexit"",""9"",""108841""
","""event"",""trial"",""time""
""blur"",""5"",""53684""
""blur"",""5"",""58476""
""blur"",""5"",""68372""
","""event"",""trial"",""time""
""focus"",""5"",""56311""
""focus"",""5"",""62787""
""focus"",""5"",""70656""
","""event"",""trial"",""time""
""fullscreenenter"",""5"",""81071""
","""event"",""trial"",""time""
""fullscreenexit"",""9"",""108841""
","1437.0999999940395","","49","","","3000","1","1572.7999999970198,1762.5999999940395,1998.6999999955297,2158.5999999940395,2480.1999999955297,2722.1999999955297,2765.5999999940395,2979.89999999851,3143","48,48,48,48,49,49,48,48,48","images/tutgreenplanet.jpg","images/tutalien1","images/tutalien2","null","images/tutalien2","images/t.png","NA","practice","null","","","",""
"d3-animate-choice","35","214320","0.0-35.0","259","687","12","Male","false","true","false","true","""event"",""trial"",""time""
""blur"",""5"",""53684""
""focus"",""5"",""56311""
""blur"",""5"",""58476""
""focus"",""5"",""62787""
""blur"",""5"",""68372""
""focus"",""5"",""70656""
""fullscreenenter"",""5"",""81071""
""fullscreenexit"",""9"",""108841""
","""event"",""trial"",""time""
""blur"",""5"",""53684""
""blur"",""5"",""58476""
""blur"",""5"",""68372""
","""event"",""trial"",""time""
""focus"",""5"",""56311""
""focus"",""5"",""62787""
""focus"",""5"",""70656""
","""event"",""trial"",""time""
""fullscreenenter"",""5"",""81071""
","""event"",""trial"",""time""
""fullscreenexit"",""9"",""108841""
","133.19999999552965","","48","","","3000","1","335.09999999403954,507.3999999985099,628.7999999970198,812,909.6999999955297,1059.3999999985099,1214.5,1376.6999999955297,1557.2999999970198,1744.0999999940395,1898.7999999970198,2058.39999999851","49,48,49,48,49,48,49,48,49,48,49,48","images/tutgreenplanet.jpg","images/tutalien1","images/tutalien2","null","images/tutalien1","images/nothing.png","NA","practice","null","","","",""
"d3-animate-choice","36","216370","0.0-36.0","259","687","12","Male","false","true","false","true","""event"",""trial"",""time""
""blur"",""5"",""53684""
""focus"",""5"",""56311""
""blur"",""5"",""58476""
""focus"",""5"",""62787""
""blur"",""5"",""68372""
""focus"",""5"",""70656""
""fullscreenenter"",""5"",""81071""
""fullscreenexit"",""9"",""108841""
","""event"",""trial"",""time""
""blur"",""5"",""53684""
""blur"",""5"",""58476""
""blur"",""5"",""68372""
","""event"",""trial"",""time""
""focus"",""5"",""56311""
""focus"",""5"",""62787""
""focus"",""5"",""70656""
","""event"",""trial"",""time""
""fullscreenenter"",""5"",""81071""
","""event"",""trial"",""time""
""fullscreenexit"",""9"",""108841""
","37.600000001490116","","49","","","3000","1","118.60000000149012,228.79999999701977,291.6000000014901,410.1000000014901,454.3999999985099,592.6999999955297,593.5,756.3999999985099,786.8999999985099,949.6000000014901,991.7999999970198,1126.2999999970198,1176.2999999970198,1364.8999999985099,1537.6000000014901,1576.2999999970198,1722.6000000014901,1951.1999999955297,2023.1999999955297","48,49,48,49,48,49,48,48,49,48,49,48,49,48,48,49,48,48,49","images/tutgreenplanet.jpg","images/tutalien1","images/tutalien2","null","images/tutalien2","images/t.png","NA","practice","null","","","",""
"d3-animate-choice","37","218493","0.0-37.0","259","687","12","Male","false","true","false","true","""event"",""trial"",""time""
""blur"",""5"",""53684""
""focus"",""5"",""56311""
""blur"",""5"",""58476""
""focus"",""5"",""62787""
""blur"",""5"",""68372""
""focus"",""5"",""70656""
""fullscreenenter"",""5"",""81071""
""fullscreenexit"",""9"",""108841""
","""event"",""trial"",""time""
""blur"",""5"",""53684""
""blur"",""5"",""58476""
""blur"",""5"",""68372""
","""event"",""trial"",""time""
""focus"",""5"",""56311""
""focus"",""5"",""62787""
""focus"",""5"",""70656""
","""event"",""trial"",""time""
""fullscreenenter"",""5"",""81071""
","""event"",""trial"",""time""
""fullscreenexit"",""9"",""108841""
","117","","48","","","3000","1","246.60000000149012,334.70000000298023,495.6000000014901,527.5,741.6000000014901,753.7999999970198,947.5,1027.8999999985099,1168.1000000014901,1228.8999999985099,1371.2999999970198,1477.5,1590.5,1806.2999999970198,1836.3999999985099,2012.2999999970198,2084.7000000029802","49,48,49,48,48,49,48,49,48,49,48,49,48,48,49,48,49","images/tutgreenplanet.jpg","images/tutalien1","images/tutalien2","null","images/tutalien1","images/nothing.png","NA","practice","null","","","",""
"d3-animate-choice","38","220593","0.0-38.0","259","687","12","Male","false","true","false","true","""event"",""trial"",""time""
""blur"",""5"",""53684""
""focus"",""5"",""56311""
""blur"",""5"",""58476""
""focus"",""5"",""62787""
""blur"",""5"",""68372""
""focus"",""5"",""70656""
""fullscreenenter"",""5"",""81071""
""fullscreenexit"",""9"",""108841""
","""event"",""trial"",""time""
""blur"",""5"",""53684""
""blur"",""5"",""58476""
""blur"",""5"",""68372""
","""event"",""trial"",""time""
""focus"",""5"",""56311""
""focus"",""5"",""62787""
""focus"",""5"",""70656""
","""event"",""trial"",""time""
""fullscreenenter"",""5"",""81071""
","""event"",""trial"",""time""
""fullscreenexit"",""9"",""108841""
","92.39999999850988","","48","","","3000","1","230.30000000447035,321.3999999985099,460.1000000014901,1439.7000000029802,1725,1951.8999999985099","49,48,49,49,49,49","images/tutgreenplanet.jpg","images/tutalien1","images/tutalien2","null","images/tutalien1","images/nothing.png","NA","practice","null","","","",""
"d3-animate-choice","39","222646","0.0-39.0","259","687","12","Male","false","true","false","true","""event"",""trial"",""time""
""blur"",""5"",""53684""
""focus"",""5"",""56311""
""blur"",""5"",""58476""
""focus"",""5"",""62787""
""blur"",""5"",""68372""
""focus"",""5"",""70656""
""fullscreenenter"",""5"",""81071""
""fullscreenexit"",""9"",""108841""
","""event"",""trial"",""time""
""blur"",""5"",""53684""
""blur"",""5"",""58476""
""blur"",""5"",""68372""
","""event"",""trial"",""time""
""focus"",""5"",""56311""
""focus"",""5"",""62787""
""focus"",""5"",""70656""
","""event"",""trial"",""time""
""fullscreenenter"",""5"",""81071""
","""event"",""trial"",""time""
""fullscreenexit"",""9"",""108841""
","44.399999998509884","","49","","","3000","1","229.19999999552965,278.79999999701977,456.3999999985099,698.5,813.3999999985099,919.5,1164.6000000014901,1394.1999999955297,1640.2999999970198,1876.8999999985099","49,16,49,49,16,49,49,49,49,49","images/tutgreenplanet.jpg","images/tutalien1","images/tutalien2","null","images/tutalien2","images/t.png","NA","practice","null","","","",""
"d3-animate-choice","40","224667","0.0-40.0","259","687","12","Male","false","true","false","true","""event"",""trial"",""time""
""blur"",""5"",""53684""
""focus"",""5"",""56311""
""blur"",""5"",""58476""
""focus"",""5"",""62787""
""blur"",""5"",""68372""
""focus"",""5"",""70656""
""fullscreenenter"",""5"",""81071""
""fullscreenexit"",""9"",""108841""
","""event"",""trial"",""time""
""blur"",""5"",""53684""
""blur"",""5"",""58476""
""blur"",""5"",""68372""
","""event"",""trial"",""time""
""focus"",""5"",""56311""
""focus"",""5"",""62787""
""focus"",""5"",""70656""
","""event"",""trial"",""time""
""fullscreenenter"",""5"",""81071""
","""event"",""trial"",""time""
""fullscreenexit"",""9"",""108841""
","8.600000001490116","","49","","","3000","1","248.5,468.30000000447035,727.1000000014901,965.7000000029802,1165.2000000029802,1403.2000000029802,1660.7000000029802,1908.6000000014901","49,49,49,49,49,49,49,49","images/tutgreenplanet.jpg","images/tutalien1","images/tutalien2","null","images/tutalien2","images/t.png","NA","practice","null","","","",""
"d3-animate-choice","41","226788","0.0-41.0","259","687","12","Male","false","true","false","true","""event"",""trial"",""time""
""blur"",""5"",""53684""
""focus"",""5"",""56311""
""blur"",""5"",""58476""
""focus"",""5"",""62787""
""blur"",""5"",""68372""
""focus"",""5"",""70656""
""fullscreenenter"",""5"",""81071""
""fullscreenexit"",""9"",""108841""
","""event"",""trial"",""time""
""blur"",""5"",""53684""
""blur"",""5"",""58476""
""blur"",""5"",""68372""
","""event"",""trial"",""time""
""focus"",""5"",""56311""
""focus"",""5"",""62787""
""focus"",""5"",""70656""
","""event"",""trial"",""time""
""fullscreenenter"",""5"",""81071""
","""event"",""trial"",""time""
""fullscreenexit"",""9"",""108841""
","112.60000000149012","","49","","","3000","1","326.20000000298023,587.5,849.3999999985099,1100.5,1336.7999999970198,1579.5,1822.7000000029802,2094.39999999851","49,49,49,49,49,49,49,49","images/tutgreenplanet.jpg","images/tutalien1","images/tutalien2","null","images/tutalien2","images/t.png","NA","practice","null","","","",""
"d3-animate-choice","42","229030","0.0-42.0","259","687","12","Male","false","true","false","true","""event"",""trial"",""time""
""blur"",""5"",""53684""
""focus"",""5"",""56311""
""blur"",""5"",""58476""
""focus"",""5"",""62787""
""blur"",""5"",""68372""
""focus"",""5"",""70656""
""fullscreenenter"",""5"",""81071""
""fullscreenexit"",""9"",""108841""
","""event"",""trial"",""time""
""blur"",""5"",""53684""
""blur"",""5"",""58476""
""blur"",""5"",""68372""
","""event"",""trial"",""time""
""focus"",""5"",""56311""
""focus"",""5"",""62787""
""focus"",""5"",""70656""
","""event"",""trial"",""time""
""fullscreenenter"",""5"",""81071""
","""event"",""trial"",""time""
""fullscreenexit"",""9"",""108841""
","228.5","","49","","","3000","1","483.29999999701977,739.5,749.6999999955297,991.8999999985099,1298,1501.5999999940395,1763.5999999940395,1996.5999999940395","49,16,49,49,49,49,49,49","images/tutgreenplanet.jpg","images/tutalien1","images/tutalien2","null","images/tutalien2","images/t.png","NA","practice","null","","","",""
"d3-animate-choice","43","231048","0.0-43.0","259","687","12","Male","false","true","false","true","""event"",""trial"",""time""
""blur"",""5"",""53684""
""focus"",""5"",""56311""
""blur"",""5"",""58476""
""focus"",""5"",""62787""
""blur"",""5"",""68372""
""focus"",""5"",""70656""
""fullscreenenter"",""5"",""81071""
""fullscreenexit"",""9"",""108841""
","""event"",""trial"",""time""
""blur"",""5"",""53684""
""blur"",""5"",""58476""
""blur"",""5"",""68372""
","""event"",""trial"",""time""
""focus"",""5"",""56311""
""focus"",""5"",""62787""
""focus"",""5"",""70656""
","""event"",""trial"",""time""
""fullscreenenter"",""5"",""81071""
","""event"",""trial"",""time""
""fullscreenexit"",""9"",""108841""
","2.399999998509884","","49","","","3000","1","258.6000000014901,491.79999999701977,741.3999999985099,1001.3999999985099,1248.5,1518.6000000014901,1775","49,49,49,49,49,49,49","images/tutgreenplanet.jpg","images/tutalien1","images/tutalien2","null","images/tutalien2","images/t.png","NA","practice","null","","","",""
"d3-instructions","44","241973","0.0-44.0","259","687","12","Male","false","true","false","true","""event"",""trial"",""time""
""blur"",""5"",""53684""
""focus"",""5"",""56311""
""blur"",""5"",""58476""
""focus"",""5"",""62787""
""blur"",""5"",""68372""
""focus"",""5"",""70656""
""fullscreenenter"",""5"",""81071""
""fullscreenexit"",""9"",""108841""
","""event"",""trial"",""time""
""blur"",""5"",""53684""
""blur"",""5"",""58476""
""blur"",""5"",""68372""
","""event"",""trial"",""time""
""focus"",""5"",""56311""
""focus"",""5"",""62787""
""focus"",""5"",""70656""
","""event"",""trial"",""time""
""fullscreenenter"",""5"",""81071""
","""event"",""trial"",""time""
""fullscreenexit"",""9"",""108841""
","","","","","","","","","","","","","","","","","","","","","",""
"d3-instructions","45","244602","0.0-45.0","259","687","12","Male","false","true","false","true","""event"",""trial"",""time""
""blur"",""5"",""53684""
""focus"",""5"",""56311""
""blur"",""5"",""58476""
""focus"",""5"",""62787""
""blur"",""5"",""68372""
""focus"",""5"",""70656""
""fullscreenenter"",""5"",""81071""
""fullscreenexit"",""9"",""108841""
","""event"",""trial"",""time""
""blur"",""5"",""53684""
""blur"",""5"",""58476""
""blur"",""5"",""68372""
","""event"",""trial"",""time""
""focus"",""5"",""56311""
""focus"",""5"",""62787""
""focus"",""5"",""70656""
","""event"",""trial"",""time""
""fullscreenenter"",""5"",""81071""
","""event"",""trial"",""time""
""fullscreenexit"",""9"",""108841""
","","","","","","","","","","","","","","","","","","","","","",""
"d3-instructions","46","248128","0.0-46.0","259","687","12","Male","false","true","false","true","""event"",""trial"",""time""
""blur"",""5"",""53684""
""focus"",""5"",""56311""
""blur"",""5"",""58476""
""focus"",""5"",""62787""
""blur"",""5"",""68372""
""focus"",""5"",""70656""
""fullscreenenter"",""5"",""81071""
""fullscreenexit"",""9"",""108841""
","""event"",""trial"",""time""
""blur"",""5"",""53684""
""blur"",""5"",""58476""
""blur"",""5"",""68372""
","""event"",""trial"",""time""
""focus"",""5"",""56311""
""focus"",""5"",""62787""
""focus"",""5"",""70656""
","""event"",""trial"",""time""
""fullscreenenter"",""5"",""81071""
","""event"",""trial"",""time""
""fullscreenexit"",""9"",""108841""
","","","","","","","","","","","","","","","","","","","","","",""
"d3-instructions","47","251822","0.0-47.0","259","687","12","Male","false","true","false","true","""event"",""trial"",""time""
""blur"",""5"",""53684""
""focus"",""5"",""56311""
""blur"",""5"",""58476""
""focus"",""5"",""62787""
""blur"",""5"",""68372""
""focus"",""5"",""70656""
""fullscreenenter"",""5"",""81071""
""fullscreenexit"",""9"",""108841""
","""event"",""trial"",""time""
""blur"",""5"",""53684""
""blur"",""5"",""58476""
""blur"",""5"",""68372""
","""event"",""trial"",""time""
""focus"",""5"",""56311""
""focus"",""5"",""62787""
""focus"",""5"",""70656""
","""event"",""trial"",""time""
""fullscreenenter"",""5"",""81071""
","""event"",""trial"",""time""
""fullscreenexit"",""9"",""108841""
","","","","","","","","","","","","","","","","","","","","","",""
"d3-instructions","48","253440","0.0-48.0","259","687","12","Male","false","true","false","true","""event"",""trial"",""time""
""blur"",""5"",""53684""
""focus"",""5"",""56311""
""blur"",""5"",""58476""
""focus"",""5"",""62787""
""blur"",""5"",""68372""
""focus"",""5"",""70656""
""fullscreenenter"",""5"",""81071""
""fullscreenexit"",""9"",""108841""
","""event"",""trial"",""time""
""blur"",""5"",""53684""
""blur"",""5"",""58476""
""blur"",""5"",""68372""
","""event"",""trial"",""time""
""focus"",""5"",""56311""
""focus"",""5"",""62787""
""focus"",""5"",""70656""
","""event"",""trial"",""time""
""fullscreenenter"",""5"",""81071""
","""event"",""trial"",""time""
""fullscreenexit"",""9"",""108841""
","","","","","","","","","","","","","","","","","","","","","",""
"d3-instructions","49","255151","0.0-49.0","259","687","12","Male","false","true","false","true","""event"",""trial"",""time""
""blur"",""5"",""53684""
""focus"",""5"",""56311""
""blur"",""5"",""58476""
""focus"",""5"",""62787""
""blur"",""5"",""68372""
""focus"",""5"",""70656""
""fullscreenenter"",""5"",""81071""
""fullscreenexit"",""9"",""108841""
","""event"",""trial"",""time""
""blur"",""5"",""53684""
""blur"",""5"",""58476""
""blur"",""5"",""68372""
","""event"",""trial"",""time""
""focus"",""5"",""56311""
""focus"",""5"",""62787""
""focus"",""5"",""70656""
","""event"",""trial"",""time""
""fullscreenenter"",""5"",""81071""
","""event"",""trial"",""time""
""fullscreenexit"",""9"",""108841""
","","","","","","","","","","","","","","","","","","","","","",""
"d3-instructions","50","256014","0.0-50.0","259","687","12","Male","false","true","false","true","""event"",""trial"",""time""
""blur"",""5"",""53684""
""focus"",""5"",""56311""
""blur"",""5"",""58476""
""focus"",""5"",""62787""
""blur"",""5"",""68372""
""focus"",""5"",""70656""
""fullscreenenter"",""5"",""81071""
""fullscreenexit"",""9"",""108841""
","""event"",""trial"",""time""
""blur"",""5"",""53684""
""blur"",""5"",""58476""
""blur"",""5"",""68372""
","""event"",""trial"",""time""
""focus"",""5"",""56311""
""focus"",""5"",""62787""
""focus"",""5"",""70656""
","""event"",""trial"",""time""
""fullscreenenter"",""5"",""81071""
","""event"",""trial"",""time""
""fullscreenexit"",""9"",""108841""
","","","","","","","","","","","","","","","","","","","","","",""
"d3-instructions","51","256601","0.0-51.0","259","687","12","Male","false","true","false","true","""event"",""trial"",""time""
""blur"",""5"",""53684""
""focus"",""5"",""56311""
""blur"",""5"",""58476""
""focus"",""5"",""62787""
""blur"",""5"",""68372""
""focus"",""5"",""70656""
""fullscreenenter"",""5"",""81071""
""fullscreenexit"",""9"",""108841""
","""event"",""trial"",""time""
""blur"",""5"",""53684""
""blur"",""5"",""58476""
""blur"",""5"",""68372""
","""event"",""trial"",""time""
""focus"",""5"",""56311""
""focus"",""5"",""62787""
""focus"",""5"",""70656""
","""event"",""trial"",""time""
""fullscreenenter"",""5"",""81071""
","""event"",""trial"",""time""
""fullscreenexit"",""9"",""108841""
","","","","","","","","","","","","","","","","","","","","","",""
"d3-instructions","52","257204","0.0-52.0","259","687","12","Male","false","true","false","true","""event"",""trial"",""time""
""blur"",""5"",""53684""
""focus"",""5"",""56311""
""blur"",""5"",""58476""
""focus"",""5"",""62787""
""blur"",""5"",""68372""
""focus"",""5"",""70656""
""fullscreenenter"",""5"",""81071""
""fullscreenexit"",""9"",""108841""
","""event"",""trial"",""time""
""blur"",""5"",""53684""
""blur"",""5"",""58476""
""blur"",""5"",""68372""
","""event"",""trial"",""time""
""focus"",""5"",""56311""
""focus"",""5"",""62787""
""focus"",""5"",""70656""
","""event"",""trial"",""time""
""fullscreenenter"",""5"",""81071""
","""event"",""trial"",""time""
""fullscreenexit"",""9"",""108841""
","","","","","","","","","","","","","","","","","","","","","",""
"d3-instructions","53","263072","0.0-53.0","259","687","12","Male","false","true","false","true","""event"",""trial"",""time""
""blur"",""5"",""53684""
""focus"",""5"",""56311""
""blur"",""5"",""58476""
""focus"",""5"",""62787""
""blur"",""5"",""68372""
""focus"",""5"",""70656""
""fullscreenenter"",""5"",""81071""
""fullscreenexit"",""9"",""108841""
","""event"",""trial"",""time""
""blur"",""5"",""53684""
""blur"",""5"",""58476""
""blur"",""5"",""68372""
","""event"",""trial"",""time""
""focus"",""5"",""56311""
""focus"",""5"",""62787""
""focus"",""5"",""70656""
","""event"",""trial"",""time""
""fullscreenenter"",""5"",""81071""
","""event"",""trial"",""time""
""fullscreenexit"",""9"",""108841""
","","","","","","","","","","","","","","","","","","","","","",""
"d3-instructions","54","266941","0.0-54.0","259","687","12","Male","false","true","false","true","""event"",""trial"",""time""
""blur"",""5"",""53684""
""focus"",""5"",""56311""
""blur"",""5"",""58476""
""focus"",""5"",""62787""
""blur"",""5"",""68372""
""focus"",""5"",""70656""
""fullscreenenter"",""5"",""81071""
""fullscreenexit"",""9"",""108841""
","""event"",""trial"",""time""
""blur"",""5"",""53684""
""blur"",""5"",""58476""
""blur"",""5"",""68372""
","""event"",""trial"",""time""
""focus"",""5"",""56311""
""focus"",""5"",""62787""
""focus"",""5"",""70656""
","""event"",""trial"",""time""
""fullscreenenter"",""5"",""81071""
","""event"",""trial"",""time""
""fullscreenexit"",""9"",""108841""
","","","","","","","","","","","","","","","","","","","","","",""
"d3-instructions","55","268000","0.0-55.0","259","687","12","Male","false","true","false","true","""event"",""trial"",""time""
""blur"",""5"",""53684""
""focus"",""5"",""56311""
""blur"",""5"",""58476""
""focus"",""5"",""62787""
""blur"",""5"",""68372""
""focus"",""5"",""70656""
""fullscreenenter"",""5"",""81071""
""fullscreenexit"",""9"",""108841""
","""event"",""trial"",""time""
""blur"",""5"",""53684""
""blur"",""5"",""58476""
""blur"",""5"",""68372""
","""event"",""trial"",""time""
""focus"",""5"",""56311""
""focus"",""5"",""62787""
""focus"",""5"",""70656""
","""event"",""trial"",""time""
""fullscreenenter"",""5"",""81071""
","""event"",""trial"",""time""
""fullscreenexit"",""9"",""108841""
","","","","","","","","","","","","","","","","","","","","","",""
"d3-instructions","56","268699","0.0-56.0","259","687","12","Male","false","true","false","true","""event"",""trial"",""time""
""blur"",""5"",""53684""
""focus"",""5"",""56311""
""blur"",""5"",""58476""
""focus"",""5"",""62787""
""blur"",""5"",""68372""
""focus"",""5"",""70656""
""fullscreenenter"",""5"",""81071""
""fullscreenexit"",""9"",""108841""
","""event"",""trial"",""time""
""blur"",""5"",""53684""
""blur"",""5"",""58476""
""blur"",""5"",""68372""
","""event"",""trial"",""time""
""focus"",""5"",""56311""
""focus"",""5"",""62787""
""focus"",""5"",""70656""
","""event"",""trial"",""time""
""fullscreenenter"",""5"",""81071""
","""event"",""trial"",""time""
""fullscreenexit"",""9"",""108841""
","","","","","","","","","","","","","","","","","","","","","",""
"d3-instructions","57","269393","0.0-57.0","259","687","12","Male","false","true","false","true","""event"",""trial"",""time""
""blur"",""5"",""53684""
""focus"",""5"",""56311""
""blur"",""5"",""58476""
""focus"",""5"",""62787""
""blur"",""5"",""68372""
""focus"",""5"",""70656""
""fullscreenenter"",""5"",""81071""
""fullscreenexit"",""9"",""108841""
","""event"",""trial"",""time""
""blur"",""5"",""53684""
""blur"",""5"",""58476""
""blur"",""5"",""68372""
","""event"",""trial"",""time""
""focus"",""5"",""56311""
""focus"",""5"",""62787""
""focus"",""5"",""70656""
","""event"",""trial"",""time""
""fullscreenenter"",""5"",""81071""
","""event"",""trial"",""time""
""fullscreenexit"",""9"",""108841""
","","","","","","","","","","","","","","","","","","","","","",""
"d3-instructions","58","270287","0.0-58.0","259","687","12","Male","false","true","false","true","""event"",""trial"",""time""
""blur"",""5"",""53684""
""focus"",""5"",""56311""
""blur"",""5"",""58476""
""focus"",""5"",""62787""
""blur"",""5"",""68372""
""focus"",""5"",""70656""
""fullscreenenter"",""5"",""81071""
""fullscreenexit"",""9"",""108841""
","""event"",""trial"",""time""
""blur"",""5"",""53684""
""blur"",""5"",""58476""
""blur"",""5"",""68372""
","""event"",""trial"",""time""
""focus"",""5"",""56311""
""focus"",""5"",""62787""
""focus"",""5"",""70656""
","""event"",""trial"",""time""
""fullscreenenter"",""5"",""81071""
","""event"",""trial"",""time""
""fullscreenexit"",""9"",""108841""
","","","","","","","","","","","","","","","","","","","","","",""
"d3-instructions","59","271020","0.0-59.0","259","687","12","Male","false","true","false","true","""event"",""trial"",""time""
""blur"",""5"",""53684""
""focus"",""5"",""56311""
""blur"",""5"",""58476""
""focus"",""5"",""62787""
""blur"",""5"",""68372""
""focus"",""5"",""70656""
""fullscreenenter"",""5"",""81071""
""fullscreenexit"",""9"",""108841""
","""event"",""trial"",""time""
""blur"",""5"",""53684""
""blur"",""5"",""58476""
""blur"",""5"",""68372""
","""event"",""trial"",""time""
""focus"",""5"",""56311""
""focus"",""5"",""62787""
""focus"",""5"",""70656""
","""event"",""trial"",""time""
""fullscreenenter"",""5"",""81071""
","""event"",""trial"",""time""
""fullscreenexit"",""9"",""108841""
","","","","","","","","","","","","","","","","","","","","","",""
"d3-instructions","60","271776","0.0-60.0","259","687","12","Male","false","true","false","true","""event"",""trial"",""time""
""blur"",""5"",""53684""
""focus"",""5"",""56311""
""blur"",""5"",""58476""
""focus"",""5"",""62787""
""blur"",""5"",""68372""
""focus"",""5"",""70656""
""fullscreenenter"",""5"",""81071""
""fullscreenexit"",""9"",""108841""
","""event"",""trial"",""time""
""blur"",""5"",""53684""
""blur"",""5"",""58476""
""blur"",""5"",""68372""
","""event"",""trial"",""time""
""focus"",""5"",""56311""
""focus"",""5"",""62787""
""focus"",""5"",""70656""
","""event"",""trial"",""time""
""fullscreenenter"",""5"",""81071""
","""event"",""trial"",""time""
""fullscreenexit"",""9"",""108841""
","","","","","","","","","","","","","","","","","","","","","",""
"d3-animate-choice","61","275783","0.0-61.0-0.0","259","687","12","Male","false","true","false","true","""event"",""trial"",""time""
""blur"",""5"",""53684""
""focus"",""5"",""56311""
""blur"",""5"",""58476""
""focus"",""5"",""62787""
""blur"",""5"",""68372""
""focus"",""5"",""70656""
""fullscreenenter"",""5"",""81071""
""fullscreenexit"",""9"",""108841""
","""event"",""trial"",""time""
""blur"",""5"",""53684""
""blur"",""5"",""58476""
""blur"",""5"",""68372""
","""event"",""trial"",""time""
""focus"",""5"",""56311""
""focus"",""5"",""62787""
""focus"",""5"",""70656""
","""event"",""trial"",""time""
""fullscreenenter"",""5"",""81071""
","""event"",""trial"",""time""
""fullscreenexit"",""9"",""108841""
","1119.3000000044703","","50","","","3000","1","2354.7000000029802,3875","49,48","images/earth.jpg","images/tutrocket2","images/tutrocket1","null","images/tutrocket1","","1","practice","null","","","",""
"d3-animate-choice","62","277911","0.0-61.0-1.0","259","687","12","Male","false","true","false","true","""event"",""trial"",""time""
""blur"",""5"",""53684""
""focus"",""5"",""56311""
""blur"",""5"",""58476""
""focus"",""5"",""62787""
""blur"",""5"",""68372""
""focus"",""5"",""70656""
""fullscreenenter"",""5"",""81071""
""fullscreenexit"",""9"",""108841""
","""event"",""trial"",""time""
""blur"",""5"",""53684""
""blur"",""5"",""58476""
""blur"",""5"",""68372""
","""event"",""trial"",""time""
""focus"",""5"",""56311""
""focus"",""5"",""62787""
""focus"",""5"",""70656""
","""event"",""trial"",""time""
""fullscreenenter"",""5"",""81071""
","""event"",""trial"",""time""
""fullscreenexit"",""9"",""108841""
","118.5","","48","","","3000","1","316.6000000014901,524.7000000029802","48,48","images/tutgreenplanet.jpg","images/tutalien2","images/tutalien1","images/tutrocket1","images/tutalien2","images/nothing.png","2","practice","true","2","common","0","2022-02-08 02:00:07.468"
"two-step-fixation","63","278919","0.0-61.0-2.0","259","687","12","Male","false","true","false","true","""event"",""trial"",""time""
""blur"",""5"",""53684""
""focus"",""5"",""56311""
""blur"",""5"",""58476""
""focus"",""5"",""62787""
""blur"",""5"",""68372""
""focus"",""5"",""70656""
""fullscreenenter"",""5"",""81071""
""fullscreenexit"",""9"",""108841""
","""event"",""trial"",""time""
""blur"",""5"",""53684""
""blur"",""5"",""58476""
""blur"",""5"",""68372""
","""event"",""trial"",""time""
""focus"",""5"",""56311""
""focus"",""5"",""62787""
""focus"",""5"",""70656""
","""event"",""trial"",""time""
""fullscreenenter"",""5"",""81071""
","""event"",""trial"",""time""
""fullscreenexit"",""9"",""108841""
","","images/earth.jpg","","","","","","","","","","","","","","fixation","","","","","",""
"d3-animate-choice","64","281441","0.0-61.0-0.1","259","687","12","Male","false","true","false","true","""event"",""trial"",""time""
""blur"",""5"",""53684""
""focus"",""5"",""56311""
""blur"",""5"",""58476""
""focus"",""5"",""62787""
""blur"",""5"",""68372""
""focus"",""5"",""70656""
""fullscreenenter"",""5"",""81071""
""fullscreenexit"",""9"",""108841""
","""event"",""trial"",""time""
""blur"",""5"",""53684""
""blur"",""5"",""58476""
""blur"",""5"",""68372""
","""event"",""trial"",""time""
""focus"",""5"",""56311""
""focus"",""5"",""62787""
""focus"",""5"",""70656""
","""event"",""trial"",""time""
""fullscreenenter"",""5"",""81071""
","""event"",""trial"",""time""
""fullscreenexit"",""9"",""108841""
","517","","48","","","3000","1","","","images/earth.jpg","images/tutrocket2","images/tutrocket1","null","images/tutrocket2","","1","practice","null","2","","",""
"d3-animate-choice","65","283704","0.0-61.0-1.1","259","687","12","Male","false","true","false","true","""event"",""trial"",""time""
""blur"",""5"",""53684""
""focus"",""5"",""56311""
""blur"",""5"",""58476""
""focus"",""5"",""62787""
""blur"",""5"",""68372""
""focus"",""5"",""70656""
""fullscreenenter"",""5"",""81071""
""fullscreenexit"",""9"",""108841""
","""event"",""trial"",""time""
""blur"",""5"",""53684""
""blur"",""5"",""58476""
""blur"",""5"",""68372""
","""event"",""trial"",""time""
""focus"",""5"",""56311""
""focus"",""5"",""62787""
""focus"",""5"",""70656""
","""event"",""trial"",""time""
""fullscreenenter"",""5"",""81071""
","""event"",""trial"",""time""
""fullscreenexit"",""9"",""108841""
","257.6000000014901","","48","","","3000","1","","","images/tutgreenplanet.jpg","images/tutalien2","images/tutalien1","images/tutrocket2","images/tutalien2","images/nothing.png","2","practice","false","2","rare","0","2022-02-08 02:00:13.261"
"two-step-fixation","66","284710","0.0-61.0-2.1","259","687","12","Male","false","true","false","true","""event"",""trial"",""time""
""blur"",""5"",""53684""
""focus"",""5"",""56311""
""blur"",""5"",""58476""
""focus"",""5"",""62787""
""blur"",""5"",""68372""
""focus"",""5"",""70656""
""fullscreenenter"",""5"",""81071""
""fullscreenexit"",""9"",""108841""
","""event"",""trial"",""time""
""blur"",""5"",""53684""
""blur"",""5"",""58476""
""blur"",""5"",""68372""
","""event"",""trial"",""time""
""focus"",""5"",""56311""
""focus"",""5"",""62787""
""focus"",""5"",""70656""
","""event"",""trial"",""time""
""fullscreenenter"",""5"",""81071""
","""event"",""trial"",""time""
""fullscreenexit"",""9"",""108841""
","","images/earth.jpg","","","","","","","","","","","","","","fixation","","","","","",""
"d3-animate-choice","67","287003","0.0-61.0-0.2","259","687","12","Male","false","true","false","true","""event"",""trial"",""time""
""blur"",""5"",""53684""
""focus"",""5"",""56311""
""blur"",""5"",""58476""
""focus"",""5"",""62787""
""blur"",""5"",""68372""
""focus"",""5"",""70656""
""fullscreenenter"",""5"",""81071""
""fullscreenexit"",""9"",""108841""
","""event"",""trial"",""time""
""blur"",""5"",""53684""
""blur"",""5"",""58476""
""blur"",""5"",""68372""
","""event"",""trial"",""time""
""focus"",""5"",""56311""
""focus"",""5"",""62787""
""focus"",""5"",""70656""
","""event"",""trial"",""time""
""fullscreenenter"",""5"",""81071""
","""event"",""trial"",""time""
""fullscreenexit"",""9"",""108841""
","286.59999999403954","","48","","","3000","1","","","images/earth.jpg","images/tutrocket2","images/tutrocket1","null","images/tutrocket2","","1","practice","null","2","","",""
"d3-animate-choice","68","289563","0.0-61.0-1.2","259","687","12","Male","false","true","false","true","""event"",""trial"",""time""
""blur"",""5"",""53684""
""focus"",""5"",""56311""
""blur"",""5"",""58476""
""focus"",""5"",""62787""
""blur"",""5"",""68372""
""focus"",""5"",""70656""
""fullscreenenter"",""5"",""81071""
""fullscreenexit"",""9"",""108841""
","""event"",""trial"",""time""
""blur"",""5"",""53684""
""blur"",""5"",""58476""
""blur"",""5"",""68372""
","""event"",""trial"",""time""
""focus"",""5"",""56311""
""focus"",""5"",""62787""
""focus"",""5"",""70656""
","""event"",""trial"",""time""
""fullscreenenter"",""5"",""81071""
","""event"",""trial"",""time""
""fullscreenexit"",""9"",""108841""
","553.1000000014901","","49","","","3000","1","","","images/tutgreenplanet.jpg","images/tutalien2","images/tutalien1","images/tutrocket2","images/tutalien1","images/nothing.png","2","practice","false","1","rare","0","2022-02-08 02:00:19.119"
"two-step-fixation","69","290569","0.0-61.0-2.2","259","687","12","Male","false","true","false","true","""event"",""trial"",""time""
""blur"",""5"",""53684""
""focus"",""5"",""56311""
""blur"",""5"",""58476""
""focus"",""5"",""62787""
""blur"",""5"",""68372""
""focus"",""5"",""70656""
""fullscreenenter"",""5"",""81071""
""fullscreenexit"",""9"",""108841""
","""event"",""trial"",""time""
""blur"",""5"",""53684""
""blur"",""5"",""58476""
""blur"",""5"",""68372""
","""event"",""trial"",""time""
""focus"",""5"",""56311""
""focus"",""5"",""62787""
""focus"",""5"",""70656""
","""event"",""trial"",""time""
""fullscreenenter"",""5"",""81071""
","""event"",""trial"",""time""
""fullscreenexit"",""9"",""108841""
","","images/earth.jpg","","","","","","","","","","","","","","fixation","","","","","",""
"d3-animate-choice","70","292891","0.0-61.0-0.3","259","687","12","Male","false","true","false","true","""event"",""trial"",""time""
""blur"",""5"",""53684""
""focus"",""5"",""56311""
""blur"",""5"",""58476""
""focus"",""5"",""62787""
""blur"",""5"",""68372""
""focus"",""5"",""70656""
""fullscreenenter"",""5"",""81071""
""fullscreenexit"",""9"",""108841""
","""event"",""trial"",""time""
""blur"",""5"",""53684""
""blur"",""5"",""58476""
""blur"",""5"",""68372""
","""event"",""trial"",""time""
""focus"",""5"",""56311""
""focus"",""5"",""62787""
""focus"",""5"",""70656""
","""event"",""trial"",""time""
""fullscreenenter"",""5"",""81071""
","""event"",""trial"",""time""
""fullscreenexit"",""9"",""108841""
","315","","48","","","3000","1","433.70000000298023","49","images/earth.jpg","images/tutrocket2","images/tutrocket1","null","images/tutrocket2","","1","practice","null","2","","",""
"d3-animate-choice","71","295263","0.0-61.0-1.3","259","687","12","Male","false","true","false","true","""event"",""trial"",""time""
""blur"",""5"",""53684""
""focus"",""5"",""56311""
""blur"",""5"",""58476""
""focus"",""5"",""62787""
""blur"",""5"",""68372""
""focus"",""5"",""70656""
""fullscreenenter"",""5"",""81071""
""fullscreenexit"",""9"",""108841""
","""event"",""trial"",""time""
""blur"",""5"",""53684""
""blur"",""5"",""58476""
""blur"",""5"",""68372""
","""event"",""trial"",""time""
""focus"",""5"",""56311""
""focus"",""5"",""62787""
""focus"",""5"",""70656""
","""event"",""trial"",""time""
""fullscreenenter"",""5"",""81071""
","""event"",""trial"",""time""
""fullscreenexit"",""9"",""108841""
","366.3999999985099","","48","","","3000","1","","","images/tutgreenplanet.jpg","images/tutalien2","images/tutalien1","images/tutrocket2","images/tutalien2","images/nothing.png","2","practice","false","2","rare","0","2022-02-08 02:00:24.819"
"two-step-fixation","72","296268","0.0-61.0-2.3","259","687","12","Male","false","true","false","true","""event"",""trial"",""time""
""blur"",""5"",""53684""
""focus"",""5"",""56311""
""blur"",""5"",""58476""
""focus"",""5"",""62787""
""blur"",""5"",""68372""
""focus"",""5"",""70656""
""fullscreenenter"",""5"",""81071""
""fullscreenexit"",""9"",""108841""
","""event"",""trial"",""time""
""blur"",""5"",""53684""
""blur"",""5"",""58476""
""blur"",""5"",""68372""
","""event"",""trial"",""time""
""focus"",""5"",""56311""
""focus"",""5"",""62787""
""focus"",""5"",""70656""
","""event"",""trial"",""time""
""fullscreenenter"",""5"",""81071""
","""event"",""trial"",""time""
""fullscreenexit"",""9"",""108841""
","","images/earth.jpg","","","","","","","","","","","","","","fixation","","","","","",""
"d3-animate-choice","73","298388","0.0-61.0-0.4","259","687","12","Male","false","true","false","true","""event"",""trial"",""time""
""blur"",""5"",""53684""
""focus"",""5"",""56311""
""blur"",""5"",""58476""
""focus"",""5"",""62787""
""blur"",""5"",""68372""
""focus"",""5"",""70656""
""fullscreenenter"",""5"",""81071""
""fullscreenexit"",""9"",""108841""
","""event"",""trial"",""time""
""blur"",""5"",""53684""
""blur"",""5"",""58476""
""blur"",""5"",""68372""
","""event"",""trial"",""time""
""focus"",""5"",""56311""
""focus"",""5"",""62787""
""focus"",""5"",""70656""
","""event"",""trial"",""time""
""fullscreenenter"",""5"",""81071""
","""event"",""trial"",""time""
""fullscreenexit"",""9"",""108841""
","113.30000000447035","","49","","","3000","1","299","49","images/earth.jpg","images/tutrocket2","images/tutrocket1","null","images/tutrocket1","","1","practice","null","1","","",""
"d3-animate-choice","74","300744","0.0-61.0-1.4","259","687","12","Male","false","true","false","true","""event"",""trial"",""time""
""blur"",""5"",""53684""
""focus"",""5"",""56311""
""blur"",""5"",""58476""
""focus"",""5"",""62787""
""blur"",""5"",""68372""
""focus"",""5"",""70656""
""fullscreenenter"",""5"",""81071""
""fullscreenexit"",""9"",""108841""
","""event"",""trial"",""time""
""blur"",""5"",""53684""
""blur"",""5"",""58476""
""blur"",""5"",""68372""
","""event"",""trial"",""time""
""focus"",""5"",""56311""
""focus"",""5"",""62787""
""focus"",""5"",""70656""
","""event"",""trial"",""time""
""fullscreenenter"",""5"",""81071""
","""event"",""trial"",""time""
""fullscreenexit"",""9"",""108841""
","350.40000000596046","","49","","","3000","1","","","images/tutyellowplanet.jpg","images/tutalien4","images/tutalien3","images/tutrocket1","images/tutalien3","images/nothing.png","2","practice","false","1","rare","0","2022-02-08 02:00:30.301"
"two-step-fixation","75","301749","0.0-61.0-2.4","259","687","12","Male","false","true","false","true","""event"",""trial"",""time""
""blur"",""5"",""53684""
""focus"",""5"",""56311""
""blur"",""5"",""58476""
""focus"",""5"",""62787""
""blur"",""5"",""68372""
""focus"",""5"",""70656""
""fullscreenenter"",""5"",""81071""
""fullscreenexit"",""9"",""108841""
","""event"",""trial"",""time""
""blur"",""5"",""53684""
""blur"",""5"",""58476""
""blur"",""5"",""68372""
","""event"",""trial"",""time""
""focus"",""5"",""56311""
""focus"",""5"",""62787""
""focus"",""5"",""70656""
","""event"",""trial"",""time""
""fullscreenenter"",""5"",""81071""
","""event"",""trial"",""time""
""fullscreenexit"",""9"",""108841""
","","images/earth.jpg","","","","","","","","","","","","","","fixation","","","","","",""
"d3-animate-choice","76","303999","0.0-61.0-0.5","259","687","12","Male","false","true","false","true","""event"",""trial"",""time""
""blur"",""5"",""53684""
""focus"",""5"",""56311""
""blur"",""5"",""58476""
""focus"",""5"",""62787""
""blur"",""5"",""68372""
""focus"",""5"",""70656""
""fullscreenenter"",""5"",""81071""
""fullscreenexit"",""9"",""108841""
","""event"",""trial"",""time""
""blur"",""5"",""53684""
""blur"",""5"",""58476""
""blur"",""5"",""68372""
","""event"",""trial"",""time""
""focus"",""5"",""56311""
""focus"",""5"",""62787""
""focus"",""5"",""70656""
","""event"",""trial"",""time""
""fullscreenenter"",""5"",""81071""
","""event"",""trial"",""time""
""fullscreenexit"",""9"",""108841""
","244.10000000149012","","48","","","3000","1","","","images/earth.jpg","images/tutrocket2","images/tutrocket1","null","images/tutrocket2","","1","practice","null","2","","",""
"d3-animate-choice","77","306834","0.0-61.0-1.5","259","687","12","Male","false","true","false","true","""event"",""trial"",""time""
""blur"",""5"",""53684""
""focus"",""5"",""56311""
""blur"",""5"",""58476""
""focus"",""5"",""62787""
""blur"",""5"",""68372""
""focus"",""5"",""70656""
""fullscreenenter"",""5"",""81071""
""fullscreenexit"",""9"",""108841""
","""event"",""trial"",""time""
""blur"",""5"",""53684""
""blur"",""5"",""58476""
""blur"",""5"",""68372""
","""event"",""trial"",""time""
""focus"",""5"",""56311""
""focus"",""5"",""62787""
""focus"",""5"",""70656""
","""event"",""trial"",""time""
""fullscreenenter"",""5"",""81071""
","""event"",""trial"",""time""
""fullscreenexit"",""9"",""108841""
","830.1999999955297","","48","","","3000","1","","","images/tutyellowplanet.jpg","images/tutalien4","images/tutalien3","images/tutrocket2","images/tutalien4","images/nothing.png","2","practice","true","2","common","0","2022-02-08 02:00:36.390"
"two-step-fixation","78","307840","0.0-61.0-2.5","259","687","12","Male","false","true","false","true","""event"",""trial"",""time""
""blur"",""5"",""53684""
""focus"",""5"",""56311""
""blur"",""5"",""58476""
""focus"",""5"",""62787""
""blur"",""5"",""68372""
""focus"",""5"",""70656""
""fullscreenenter"",""5"",""81071""
""fullscreenexit"",""9"",""108841""
","""event"",""trial"",""time""
""blur"",""5"",""53684""
""blur"",""5"",""58476""
""blur"",""5"",""68372""
","""event"",""trial"",""time""
""focus"",""5"",""56311""
""focus"",""5"",""62787""
""focus"",""5"",""70656""
","""event"",""trial"",""time""
""fullscreenenter"",""5"",""81071""
","""event"",""trial"",""time""
""fullscreenexit"",""9"",""108841""
","","images/earth.jpg","","","","","","","","","","","","","","fixation","","","","","",""
"d3-animate-choice","79","309960","0.0-61.0-0.6","259","687","12","Male","false","true","false","true","""event"",""trial"",""time""
""blur"",""5"",""53684""
""focus"",""5"",""56311""
""blur"",""5"",""58476""
""focus"",""5"",""62787""
""blur"",""5"",""68372""
""focus"",""5"",""70656""
""fullscreenenter"",""5"",""81071""
""fullscreenexit"",""9"",""108841""
","""event"",""trial"",""time""
""blur"",""5"",""53684""
""blur"",""5"",""58476""
""blur"",""5"",""68372""
","""event"",""trial"",""time""
""focus"",""5"",""56311""
""focus"",""5"",""62787""
""focus"",""5"",""70656""
","""event"",""trial"",""time""
""fullscreenenter"",""5"",""81071""
","""event"",""trial"",""time""
""fullscreenexit"",""9"",""108841""
","114.39999999850988","","48","","","3000","1","328.80000000447035","49","images/earth.jpg","images/tutrocket2","images/tutrocket1","null","images/tutrocket2","","1","practice","null","2","","",""
"d3-animate-choice","80","312349","0.0-61.0-1.6","259","687","12","Male","false","true","false","true","""event"",""trial"",""time""
""blur"",""5"",""53684""
""focus"",""5"",""56311""
""blur"",""5"",""58476""
""focus"",""5"",""62787""
""blur"",""5"",""68372""
""focus"",""5"",""70656""
""fullscreenenter"",""5"",""81071""
""fullscreenexit"",""9"",""108841""
","""event"",""trial"",""time""
""blur"",""5"",""53684""
""blur"",""5"",""58476""
""blur"",""5"",""68372""
","""event"",""trial"",""time""
""focus"",""5"",""56311""
""focus"",""5"",""62787""
""focus"",""5"",""70656""
","""event"",""trial"",""time""
""fullscreenenter"",""5"",""81071""
","""event"",""trial"",""time""
""fullscreenexit"",""9"",""108841""
","382.5","","49","","","3000","1","","","images/tutyellowplanet.jpg","images/tutalien4","images/tutalien3","images/tutrocket2","images/tutalien3","images/nothing.png","2","practice","true","1","common","0","2022-02-08 02:00:41.905"
"two-step-fixation","81","313354","0.0-61.0-2.6","259","687","12","Male","false","true","false","true","""event"",""trial"",""time""
""blur"",""5"",""53684""
""focus"",""5"",""56311""
""blur"",""5"",""58476""
""focus"",""5"",""62787""
""blur"",""5"",""68372""
""focus"",""5"",""70656""
""fullscreenenter"",""5"",""81071""
""fullscreenexit"",""9"",""108841""
","""event"",""trial"",""time""
""blur"",""5"",""53684""
""blur"",""5"",""58476""
""blur"",""5"",""68372""
","""event"",""trial"",""time""
""focus"",""5"",""56311""
""focus"",""5"",""62787""
""focus"",""5"",""70656""
","""event"",""trial"",""time""
""fullscreenenter"",""5"",""81071""
","""event"",""trial"",""time""
""fullscreenexit"",""9"",""108841""
","","images/earth.jpg","","","","","","","","","","","","","","fixation","","","","","",""
"d3-animate-choice","82","315439","0.0-61.0-0.7","259","687","12","Male","false","true","false","true","""event"",""trial"",""time""
""blur"",""5"",""53684""
""focus"",""5"",""56311""
""blur"",""5"",""58476""
""focus"",""5"",""62787""
""blur"",""5"",""68372""
""focus"",""5"",""70656""
""fullscreenenter"",""5"",""81071""
""fullscreenexit"",""9"",""108841""
","""event"",""trial"",""time""
""blur"",""5"",""53684""
""blur"",""5"",""58476""
""blur"",""5"",""68372""
","""event"",""trial"",""time""
""focus"",""5"",""56311""
""focus"",""5"",""62787""
""focus"",""5"",""70656""
","""event"",""trial"",""time""
""fullscreenenter"",""5"",""81071""
","""event"",""trial"",""time""
""fullscreenexit"",""9"",""108841""
","79","","48","","","3000","1","280.3999999985099,736.7999999970198,742.1000000014901,941.8999999985099,984.6000000014901,1131.3999999985099,1193.2999999970198,1342.1999999955297,1407.3999999985099,1599.3999999985099,1656.8999999985099,1817.1999999955297,1975.1000000014901","48,49,48,48,49,48,49,48,49,48,49,48,49","images/earth.jpg","images/tutrocket2","images/tutrocket1","null","images/tutrocket2","","1","practice","null","2","","",""
"d3-animate-choice","83","317554","0.0-61.0-1.7","259","687","12","Male","false","true","false","true","""event"",""trial"",""time""
""blur"",""5"",""53684""
""focus"",""5"",""56311""
""blur"",""5"",""58476""
""focus"",""5"",""62787""
""blur"",""5"",""68372""
""focus"",""5"",""70656""
""fullscreenenter"",""5"",""81071""
""fullscreenexit"",""9"",""108841""
","""event"",""trial"",""time""
""blur"",""5"",""53684""
""blur"",""5"",""58476""
""blur"",""5"",""68372""
","""event"",""trial"",""time""
""focus"",""5"",""56311""
""focus"",""5"",""62787""
""focus"",""5"",""70656""
","""event"",""trial"",""time""
""fullscreenenter"",""5"",""81071""
","""event"",""trial"",""time""
""fullscreenexit"",""9"",""108841""
","108.79999999701977","","48","","","3000","1","226.79999999701977,393.5,458.5,604.6000000014901,675.1000000014901,828.5,911,1104.6000000014901,1267.8999999985099,1444,1529,1677,1727.3999999985099,1854.1000000014901,1901.6000000014901,2028.2999999970198","49,48,49,48,49,48,49,48,49,48,49,48,49,48,49,48","images/tutyellowplanet.jpg","images/tutalien4","images/tutalien3","images/tutrocket2","images/tutalien4","images/t.png","2","practice","true","2","common","1","2022-02-08 02:00:47.110"
"two-step-fixation","84","318560","0.0-61.0-2.7","259","687","12","Male","false","true","false","true","""event"",""trial"",""time""
""blur"",""5"",""53684""
""focus"",""5"",""56311""
""blur"",""5"",""58476""
""focus"",""5"",""62787""
""blur"",""5"",""68372""
""focus"",""5"",""70656""
""fullscreenenter"",""5"",""81071""
""fullscreenexit"",""9"",""108841""
","""event"",""trial"",""time""
""blur"",""5"",""53684""
""blur"",""5"",""58476""
""blur"",""5"",""68372""
","""event"",""trial"",""time""
""focus"",""5"",""56311""
""focus"",""5"",""62787""
""focus"",""5"",""70656""
","""event"",""trial"",""time""
""fullscreenenter"",""5"",""81071""
","""event"",""trial"",""time""
""fullscreenexit"",""9"",""108841""
","","images/earth.jpg","","","","","","","","","","","","","","fixation","","","","","",""
"d3-animate-choice","85","320638","0.0-61.0-0.8","259","687","12","Male","false","true","false","true","""event"",""trial"",""time""
""blur"",""5"",""53684""
""focus"",""5"",""56311""
""blur"",""5"",""58476""
""focus"",""5"",""62787""
""blur"",""5"",""68372""
""focus"",""5"",""70656""
""fullscreenenter"",""5"",""81071""
""fullscreenexit"",""9"",""108841""
","""event"",""trial"",""time""
""blur"",""5"",""53684""
""blur"",""5"",""58476""
""blur"",""5"",""68372""
","""event"",""trial"",""time""
""focus"",""5"",""56311""
""focus"",""5"",""62787""
""focus"",""5"",""70656""
","""event"",""trial"",""time""
""fullscreenenter"",""5"",""81071""
","""event"",""trial"",""time""
""fullscreenexit"",""9"",""108841""
","71.30000000447035","","49","","","3000","1","150.10000000149012,287.6000000014901,353.5,508.5,586.6000000014901,722.9000000059605,752.8000000044703,924.3000000044703,936.6000000014901,1107.8000000044703,1168.2000000029802,1309.6000000014901,1389.5,1497.8000000044703,1725.9000000059605,1822.2000000029802,1944.2000000029802,2044.3000000044703","48,49,48,49,48,49,48,48,49,48,49,48,49,48,48,49,48,49","images/earth.jpg","images/tutrocket2","images/tutrocket1","null","images/tutrocket1","","1","practice","null","1","","",""
"d3-animate-choice","86","322742","0.0-61.0-1.8","259","687","12","Male","false","true","false","true","""event"",""trial"",""time""
""blur"",""5"",""53684""
""focus"",""5"",""56311""
""blur"",""5"",""58476""
""focus"",""5"",""62787""
""blur"",""5"",""68372""
""focus"",""5"",""70656""
""fullscreenenter"",""5"",""81071""
""fullscreenexit"",""9"",""108841""
","""event"",""trial"",""time""
""blur"",""5"",""53684""
""blur"",""5"",""58476""
""blur"",""5"",""68372""
","""event"",""trial"",""time""
""focus"",""5"",""56311""
""focus"",""5"",""62787""
""focus"",""5"",""70656""
","""event"",""trial"",""time""
""fullscreenenter"",""5"",""81071""
","""event"",""trial"",""time""
""fullscreenexit"",""9"",""108841""
","97.10000000149012","","48","","","3000","1","205.10000000149012,313.6000000014901,437,509.8999999985099,655.7000000029802,708.3999999985099,886.3999999985099,927,1132.5,1310.7000000029802,1451.3999999985099,1654.3999999985099,1797.5,1993.7000000029802","49,48,49,48,49,48,49,48,49,48,49,48,49,48","images/tutgreenplanet.jpg","images/tutalien2","images/tutalien1","images/tutrocket1","images/tutalien2","images/t.png","2","practice","true","2","common","1","2022-02-08 02:00:52.298"
"two-step-fixation","87","323747","0.0-61.0-2.8","259","687","12","Male","false","true","false","true","""event"",""trial"",""time""
""blur"",""5"",""53684""
""focus"",""5"",""56311""
""blur"",""5"",""58476""
""focus"",""5"",""62787""
""blur"",""5"",""68372""
""focus"",""5"",""70656""
""fullscreenenter"",""5"",""81071""
""fullscreenexit"",""9"",""108841""
","""event"",""trial"",""time""
""blur"",""5"",""53684""
""blur"",""5"",""58476""
""blur"",""5"",""68372""
","""event"",""trial"",""time""
""focus"",""5"",""56311""
""focus"",""5"",""62787""
""focus"",""5"",""70656""
","""event"",""trial"",""time""
""fullscreenenter"",""5"",""81071""
","""event"",""trial"",""time""
""fullscreenexit"",""9"",""108841""
","","images/earth.jpg","","","","","","","","","","","","","","fixation","","","","","",""
"d3-animate-choice","88","325955","0.0-61.0-0.9","259","687","12","Male","false","true","false","true","""event"",""trial"",""time""
""blur"",""5"",""53684""
""focus"",""5"",""56311""
""blur"",""5"",""58476""
""focus"",""5"",""62787""
""blur"",""5"",""68372""
""focus"",""5"",""70656""
""fullscreenenter"",""5"",""81071""
""fullscreenexit"",""9"",""108841""
","""event"",""trial"",""time""
""blur"",""5"",""53684""
""blur"",""5"",""58476""
""blur"",""5"",""68372""
","""event"",""trial"",""time""
""focus"",""5"",""56311""
""focus"",""5"",""62787""
""focus"",""5"",""70656""
","""event"",""trial"",""time""
""fullscreenenter"",""5"",""81071""
","""event"",""trial"",""time""
""fullscreenexit"",""9"",""108841""
","202.20000000298023","","48","","","3000","1","274.5,477.90000000596046,588.3000000044703,712.2000000029802,794.6000000014901,893.8000000044703,988.8000000044703,1074.8000000044703,1174.9000000059605,1258.5,1391.6000000014901,1480.4000000059605,1608,1678.6000000014901,1851.6000000014901","49,48,49,48,49,48,49,48,49,48,49,48,49,48,49","images/earth.jpg","images/tutrocket2","images/tutrocket1","null","images/tutrocket2","","1","practice","null","2","","",""
"d3-animate-choice","89","328122","0.0-61.0-1.9","259","687","12","Male","false","true","false","true","""event"",""trial"",""time""
""blur"",""5"",""53684""
""focus"",""5"",""56311""
""blur"",""5"",""58476""
""focus"",""5"",""62787""
""blur"",""5"",""68372""
""focus"",""5"",""70656""
""fullscreenenter"",""5"",""81071""
""fullscreenexit"",""9"",""108841""
","""event"",""trial"",""time""
""blur"",""5"",""53684""
""blur"",""5"",""58476""
""blur"",""5"",""68372""
","""event"",""trial"",""time""
""focus"",""5"",""56311""
""focus"",""5"",""62787""
""focus"",""5"",""70656""
","""event"",""trial"",""time""
""fullscreenenter"",""5"",""81071""
","""event"",""trial"",""time""
""fullscreenexit"",""9"",""108841""
","160.10000000149012","","48","","","3000","1","393.3999999985099,405.69999999552965,561.6000000014901,609.2999999970198,768.1000000014901,810.6999999955297,963.7999999970198,991.6999999955297,1157.3999999985099,1265.1999999955297,1358.1999999955297,1459.1999999955297,1597.6000000014901,1677.1999999955297,1813.1999999955297,1878.6999999955297,2093.10000000149","48,49,48,49,48,49,48,49,48,49,48,49,48,49,48,49,49","images/tutyellowplanet.jpg","images/tutalien4","images/tutalien3","images/tutrocket2","images/tutalien4","images/t.png","2","practice","true","2","common","1","2022-02-08 02:00:57.678"
"two-step-fixation","90","329127","0.0-61.0-2.9","259","687","12","Male","false","true","false","true","""event"",""trial"",""time""
""blur"",""5"",""53684""
""focus"",""5"",""56311""
""blur"",""5"",""58476""
""focus"",""5"",""62787""
""blur"",""5"",""68372""
""focus"",""5"",""70656""
""fullscreenenter"",""5"",""81071""
""fullscreenexit"",""9"",""108841""
","""event"",""trial"",""time""
""blur"",""5"",""53684""
""blur"",""5"",""58476""
""blur"",""5"",""68372""
","""event"",""trial"",""time""
""focus"",""5"",""56311""
""focus"",""5"",""62787""
""focus"",""5"",""70656""
","""event"",""trial"",""time""
""fullscreenenter"",""5"",""81071""
","""event"",""trial"",""time""
""fullscreenexit"",""9"",""108841""
","","images/earth.jpg","","","","","","","","","","","","","","fixation","","","","","",""
"d3-animate-choice","91","331172","0.0-61.0-0.10","259","687","12","Male","false","true","false","true","""event"",""trial"",""time""
""blur"",""5"",""53684""
""focus"",""5"",""56311""
""blur"",""5"",""58476""
""focus"",""5"",""62787""
""blur"",""5"",""68372""
""focus"",""5"",""70656""
""fullscreenenter"",""5"",""81071""
""fullscreenexit"",""9"",""108841""
","""event"",""trial"",""time""
""blur"",""5"",""53684""
""blur"",""5"",""58476""
""blur"",""5"",""68372""
","""event"",""trial"",""time""
""focus"",""5"",""56311""
""focus"",""5"",""62787""
""focus"",""5"",""70656""
","""event"",""trial"",""time""
""fullscreenenter"",""5"",""81071""
","""event"",""trial"",""time""
""fullscreenexit"",""9"",""108841""
","38.30000000447035","","49","","","3000","1","100.5,247.20000000298023,275.5,453.1000000014901,463.20000000298023,647.3000000044703,665,836.6000000014901,901.3000000044703,1029.4000000059605,1145.1000000014901,1282.6000000014901,1381.6000000014901,1517.4000000059605,1623.3000000044703,1716.5,1877.6000000014901,1918.5","48,49,48,48,49,48,49,48,49,48,49,48,49,48,49,48,49,48","images/earth.jpg","images/tutrocket2","images/tutrocket1","null","images/tutrocket1","","1","practice","null","1","","",""
"d3-animate-choice","92","333246","0.0-61.0-1.10","259","687","12","Male","false","true","false","true","""event"",""trial"",""time""
""blur"",""5"",""53684""
""focus"",""5"",""56311""
""blur"",""5"",""58476""
""focus"",""5"",""62787""
""blur"",""5"",""68372""
""focus"",""5"",""70656""
""fullscreenenter"",""5"",""81071""
""fullscreenexit"",""9"",""108841""
","""event"",""trial"",""time""
""blur"",""5"",""53684""
""blur"",""5"",""58476""
""blur"",""5"",""68372""
","""event"",""trial"",""time""
""focus"",""5"",""56311""
""focus"",""5"",""62787""
""focus"",""5"",""70656""
","""event"",""trial"",""time""
""fullscreenenter"",""5"",""81071""
","""event"",""trial"",""time""
""fullscreenexit"",""9"",""108841""
","67.80000000447035","","49","","","3000","1","241.70000000298023,368.90000000596046,546,614.7000000029802,772.7000000029802,845.1000000014901,954.1000000014901,1089.5,1162.7000000029802,1338,1361.1000000014901,1562,1619.4000000059605,1768.3000000044703,1968.6000000014901,1988.8000000044703","48,49,48,49,48,49,48,49,48,49,48,48,49,48,48,49","images/tutgreenplanet.jpg","images/tutalien2","images/tutalien1","images/tutrocket1","images/tutalien1","images/nothing.png","2","practice","true","1","common","0","2022-02-08 02:01:02.803"
"two-step-fixation","93","334251","0.0-61.0-2.10","259","687","12","Male","false","true","false","true","""event"",""trial"",""time""
""blur"",""5"",""53684""
""focus"",""5"",""56311""
""blur"",""5"",""58476""
""focus"",""5"",""62787""
""blur"",""5"",""68372""
""focus"",""5"",""70656""
""fullscreenenter"",""5"",""81071""
""fullscreenexit"",""9"",""108841""
","""event"",""trial"",""time""
""blur"",""5"",""53684""
""blur"",""5"",""58476""
""blur"",""5"",""68372""
","""event"",""trial"",""time""
""focus"",""5"",""56311""
""focus"",""5"",""62787""
""focus"",""5"",""70656""
","""event"",""trial"",""time""
""fullscreenenter"",""5"",""81071""
","""event"",""trial"",""time""
""fullscreenexit"",""9"",""108841""
","","images/earth.jpg","","","","","","","","","","","","","","fixation","","","","","",""
"d3-animate-choice","94","338257","0.0-61.0-0.11","259","687","12","Male","false","true","false","true","""event"",""trial"",""time""
""blur"",""5"",""53684""
""focus"",""5"",""56311""
""blur"",""5"",""58476""
""focus"",""5"",""62787""
""blur"",""5"",""68372""
""focus"",""5"",""70656""
""fullscreenenter"",""5"",""81071""
""fullscreenexit"",""9"",""108841""
","""event"",""trial"",""time""
""blur"",""5"",""53684""
""blur"",""5"",""58476""
""blur"",""5"",""68372""
","""event"",""trial"",""time""
""focus"",""5"",""56311""
""focus"",""5"",""62787""
""focus"",""5"",""70656""
","""event"",""trial"",""time""
""fullscreenenter"",""5"",""81071""
","""event"",""trial"",""time""
""fullscreenexit"",""9"",""108841""
","2096.10000000149","","48","","","3000","1","2244.10000000149,2291.8000000044703,2411.7000000029802,2452.9000000059605,2614.2000000029802,2623.2000000029802,2782.4000000059605,2900,2970.2000000029802,3153.60000000149,3161.5,3327.3000000044703,3360.10000000149,3520.3000000044703,3530.8000000044703,3689.2000000029802,3729.9000000059605,3856.3000000044703,3918.8000000044703","50,48,50,48,50,48,48,49,48,48,49,48,49,48,49,48,49,48,49","images/earth.jpg","images/tutrocket2","images/tutrocket1","null","images/tutrocket2","","1","practice","null","2","","",""
"d3-animate-choice","95","340311","0.0-61.0-1.11","259","687","12","Male","false","true","false","true","""event"",""trial"",""time""
""blur"",""5"",""53684""
""focus"",""5"",""56311""
""blur"",""5"",""58476""
""focus"",""5"",""62787""
""blur"",""5"",""68372""
""focus"",""5"",""70656""
""fullscreenenter"",""5"",""81071""
""fullscreenexit"",""9"",""108841""
","""event"",""trial"",""time""
""blur"",""5"",""53684""
""blur"",""5"",""58476""
""blur"",""5"",""68372""
","""event"",""trial"",""time""
""focus"",""5"",""56311""
""focus"",""5"",""62787""
""focus"",""5"",""70656""
","""event"",""trial"",""time""
""fullscreenenter"",""5"",""81071""
","""event"",""trial"",""time""
""fullscreenexit"",""9"",""108841""
","47.19999999552965","","48","","","3000","1","120.09999999403954,221.39999999850988,317.29999999701977,392.79999999701977,570.8999999985099,586.3999999985099,806.0999999940395,955,1088.1999999955297,1201.0999999940395,1298,1411.0999999940395,1535.1999999955297,1671.0999999940395,1746.6999999955297,1901.5999999940395,1952.1999999955297","49,48,49,48,49,48,48,49,48,49,48,49,48,49,48,49,48","images/tutyellowplanet.jpg","images/tutalien4","images/tutalien3","images/tutrocket2","images/tutalien4","images/t.png","2","practice","true","2","common","1","2022-02-08 02:01:09.867"
"two-step-fixation","96","341316","0.0-61.0-2.11","259","687","12","Male","false","true","false","true","""event"",""trial"",""time""
""blur"",""5"",""53684""
""focus"",""5"",""56311""
""blur"",""5"",""58476""
""focus"",""5"",""62787""
""blur"",""5"",""68372""
""focus"",""5"",""70656""
""fullscreenenter"",""5"",""81071""
""fullscreenexit"",""9"",""108841""
","""event"",""trial"",""time""
""blur"",""5"",""53684""
""blur"",""5"",""58476""
""blur"",""5"",""68372""
","""event"",""trial"",""time""
""focus"",""5"",""56311""
""focus"",""5"",""62787""
""focus"",""5"",""70656""
","""event"",""trial"",""time""
""fullscreenenter"",""5"",""81071""
","""event"",""trial"",""time""
""fullscreenexit"",""9"",""108841""
","","images/earth.jpg","","","","","","","","","","","","","","fixation","","","","","",""
"d3-animate-choice","97","343643","0.0-61.0-0.12","259","687","12","Male","false","true","false","true","""event"",""trial"",""time""
""blur"",""5"",""53684""
""focus"",""5"",""56311""
""blur"",""5"",""58476""
""focus"",""5"",""62787""
""blur"",""5"",""68372""
""focus"",""5"",""70656""
""fullscreenenter"",""5"",""81071""
""fullscreenexit"",""9"",""108841""
","""event"",""trial"",""time""
""blur"",""5"",""53684""
""blur"",""5"",""58476""
""blur"",""5"",""68372""
","""event"",""trial"",""time""
""focus"",""5"",""56311""
""focus"",""5"",""62787""
""focus"",""5"",""70656""
","""event"",""trial"",""time""
""fullscreenenter"",""5"",""81071""
","""event"",""trial"",""time""
""fullscreenexit"",""9"",""108841""
","165.20000000298023","","50","","","3000","1","318.20000000298023,630.6000000014901,723.2999999970198,853.7000000029802,945.2000000029802,1040.6000000014901,1121.7999999970198,1242.2999999970198,1358.2000000029802,1423.6000000014901,1509.5,1641,1696.6000000014901,1834.6000000014901,1890.5,2039.1000000014901,2089.7000000029802,2243.60000000149,2273.5","48,49,48,49,48,49,48,49,48,49,48,49,48,49,48,49,48,49,48","images/earth.jpg","images/tutrocket2","images/tutrocket1","null","images/tutrocket2","","1","practice","null","","","",""
"d3-animate-choice","98","345777","0.0-61.0-1.12","259","687","12","Male","false","true","false","true","""event"",""trial"",""time""
""blur"",""5"",""53684""
""focus"",""5"",""56311""
""blur"",""5"",""58476""
""focus"",""5"",""62787""
""blur"",""5"",""68372""
""focus"",""5"",""70656""
""fullscreenenter"",""5"",""81071""
""fullscreenexit"",""9"",""108841""
","""event"",""trial"",""time""
""blur"",""5"",""53684""
""blur"",""5"",""58476""
""blur"",""5"",""68372""
","""event"",""trial"",""time""
""focus"",""5"",""56311""
""focus"",""5"",""62787""
""focus"",""5"",""70656""
","""event"",""trial"",""time""
""fullscreenenter"",""5"",""81071""
","""event"",""trial"",""time""
""fullscreenexit"",""9"",""108841""
","126.30000000447035","","49","","","3000","1","128.90000000596046,315.20000000298023,316.30000000447035,516.7000000029802,526.3000000044703,699.8000000044703,712,889.3000000044703,931.5,1080.4000000059605,1135.9000000059605,1286.6000000014901,1339.5,1485.8000000044703,1540.5,1727.5,1760.2000000029802,1958.6000000014901,1986","48,49,48,48,49,48,49,48,49,48,49,48,49,48,49,48,49,48,49","images/tutyellowplanet.jpg","images/tutalien4","images/tutalien3","images/tutrocket2","images/tutalien3","images/nothing.png","2","practice","true","1","common","0","2022-02-08 02:01:15.333"
"two-step-fixation","99","346782","0.0-61.0-2.12","259","687","12","Male","false","true","false","true","""event"",""trial"",""time""
""blur"",""5"",""53684""
""focus"",""5"",""56311""
""blur"",""5"",""58476""
""focus"",""5"",""62787""
""blur"",""5"",""68372""
""focus"",""5"",""70656""
""fullscreenenter"",""5"",""81071""
""fullscreenexit"",""9"",""108841""
""blur"",""100"",""363781""
","""event"",""trial"",""time""
""blur"",""5"",""53684""
""blur"",""5"",""58476""
""blur"",""5"",""68372""
""blur"",""100"",""363781""
","""event"",""trial"",""time""
""focus"",""5"",""56311""
""focus"",""5"",""62787""
""focus"",""5"",""70656""
","""event"",""trial"",""time""
""fullscreenenter"",""5"",""81071""
","""event"",""trial"",""time""
""fullscreenexit"",""9"",""108841""
","","images/earth.jpg","","","","","","","","","","","","","","fixation","","","","","",""
"d3-animate-choice","100","363783","0.0-61.0-0.13","259","687","12","Male","false","true","false","true","""event"",""trial"",""time""
""blur"",""5"",""53684""
""focus"",""5"",""56311""
""blur"",""5"",""58476""
""focus"",""5"",""62787""
""blur"",""5"",""68372""
""focus"",""5"",""70656""
""fullscreenenter"",""5"",""81071""
""fullscreenexit"",""9"",""108841""
""blur"",""100"",""363781""
""focus"",""101"",""363793""
","""event"",""trial"",""time""
""blur"",""5"",""53684""
""blur"",""5"",""58476""
""blur"",""5"",""68372""
""blur"",""100"",""363781""
","""event"",""trial"",""time""
""focus"",""5"",""56311""
""focus"",""5"",""62787""
""focus"",""5"",""70656""
""focus"",""101"",""363793""
","""event"",""trial"",""time""
""fullscreenenter"",""5"",""81071""
","""event"",""trial"",""time""
""fullscreenexit"",""9"",""108841""
","99.89999999850988","","48","","","3000","1","187.89999999850988,353.29999999701977,403.29999999701977,566.8999999985099,630.1999999955297,781.2999999970198,1019.8999999985099","49,48,49,48,49,48,48","images/earth.jpg","images/tutrocket2","images/tutrocket1","null","images/tutrocket2","","1","practice","null","2","","",""
"d3-animate-choice","101","367788","0.0-61.0-1.13","259","687","12","Male","false","true","false","true","""event"",""trial"",""time""
""blur"",""5"",""53684""
""focus"",""5"",""56311""
""blur"",""5"",""58476""
""focus"",""5"",""62787""
""blur"",""5"",""68372""
""focus"",""5"",""70656""
""fullscreenenter"",""5"",""81071""
""fullscreenexit"",""9"",""108841""
""blur"",""100"",""363781""
""focus"",""101"",""363793""
","""event"",""trial"",""time""
""blur"",""5"",""53684""
""blur"",""5"",""58476""
""blur"",""5"",""68372""
""blur"",""100"",""363781""
","""event"",""trial"",""time""
""focus"",""5"",""56311""
""focus"",""5"",""62787""
""focus"",""5"",""70656""
""focus"",""101"",""363793""
","""event"",""trial"",""time""
""fullscreenenter"",""5"",""81071""
","""event"",""trial"",""time""
""fullscreenexit"",""9"",""108841""
","2035.1000000014901","","49","","","3000","1","","","images/tutyellowplanet.jpg","images/tutalien4","images/tutalien3","images/tutrocket2","images/tutalien3","images/t.png","2","practice","true","1","common","1","2022-02-08 02:01:37.344"
"two-step-fixation","102","368793","0.0-61.0-2.13","259","687","12","Male","false","true","false","true","""event"",""trial"",""time""
""blur"",""5"",""53684""
""focus"",""5"",""56311""
""blur"",""5"",""58476""
""focus"",""5"",""62787""
""blur"",""5"",""68372""
""focus"",""5"",""70656""
""fullscreenenter"",""5"",""81071""
""fullscreenexit"",""9"",""108841""
""blur"",""100"",""363781""
""focus"",""101"",""363793""
","""event"",""trial"",""time""
""blur"",""5"",""53684""
""blur"",""5"",""58476""
""blur"",""5"",""68372""
""blur"",""100"",""363781""
","""event"",""trial"",""time""
""focus"",""5"",""56311""
""focus"",""5"",""62787""
""focus"",""5"",""70656""
""focus"",""101"",""363793""
","""event"",""trial"",""time""
""fullscreenenter"",""5"",""81071""
","""event"",""trial"",""time""
""fullscreenexit"",""9"",""108841""
","","images/earth.jpg","","","","","","","","","","","","","","fixation","","","","","",""
"d3-animate-choice","103","370935","0.0-61.0-0.14","259","687","12","Male","false","true","false","true","""event"",""trial"",""time""
""blur"",""5"",""53684""
""focus"",""5"",""56311""
""blur"",""5"",""58476""
""focus"",""5"",""62787""
""blur"",""5"",""68372""
""focus"",""5"",""70656""
""fullscreenenter"",""5"",""81071""
""fullscreenexit"",""9"",""108841""
""blur"",""100"",""363781""
""focus"",""101"",""363793""
","""event"",""trial"",""time""
""blur"",""5"",""53684""
""blur"",""5"",""58476""
""blur"",""5"",""68372""
""blur"",""100"",""363781""
","""event"",""trial"",""time""
""focus"",""5"",""56311""
""focus"",""5"",""62787""
""focus"",""5"",""70656""
""focus"",""101"",""363793""
","""event"",""trial"",""time""
""fullscreenenter"",""5"",""81071""
","""event"",""trial"",""time""
""fullscreenexit"",""9"",""108841""
","136.5","","48","","","3000","1","249.80000000447035,349.90000000596046,490.80000000447035,541.4000000059605,700.2000000029802,732.8000000044703,874,901.6000000014901,1070.8000000044703,1318.3000000044703,1463.7000000029802,1533.7000000029802,1649.1000000014901,1817.8000000044703,1888.3000000044703,2026.9000000059605,2097.4000000059605","49,48,49,48,49,48,48,49,48,48,49,48,49,57,49,48,49","images/earth.jpg","images/tutrocket2","images/tutrocket1","null","images/tutrocket2","","1","practice","null","2","","",""
"d3-animate-choice","104","373012","0.0-61.0-1.14","259","687","12","Male","false","true","false","true","""event"",""trial"",""time""
""blur"",""5"",""53684""
""focus"",""5"",""56311""
""blur"",""5"",""58476""
""focus"",""5"",""62787""
""blur"",""5"",""68372""
""focus"",""5"",""70656""
""fullscreenenter"",""5"",""81071""
""fullscreenexit"",""9"",""108841""
""blur"",""100"",""363781""
""focus"",""101"",""363793""
","""event"",""trial"",""time""
""blur"",""5"",""53684""
""blur"",""5"",""58476""
""blur"",""5"",""68372""
""blur"",""100"",""363781""
","""event"",""trial"",""time""
""focus"",""5"",""56311""
""focus"",""5"",""62787""
""focus"",""5"",""70656""
""focus"",""101"",""363793""
","""event"",""trial"",""time""
""fullscreenenter"",""5"",""81071""
","""event"",""trial"",""time""
""fullscreenexit"",""9"",""108841""
","69.89999999850988","","48","","","3000","1","158.10000000149012,268.8999999985099,382.29999999701977,465.6000000014901,526.2000000029802,659,744.7000000029802,828.1000000014901,908.2999999970198,1038.3999999985099,1233.5,1306.2999999970198,1440.7000000029802,1528.1000000014901,1645,1785.1000000014901,1971.7999999970198","49,48,49,48,49,48,49,48,49,48,48,49,48,49,48,49,48","images/tutyellowplanet.jpg","images/tutalien4","images/tutalien3","images/tutrocket2","images/tutalien4","images/nothing.png","2","practice","true","2","common","0","2022-02-08 02:01:42.568"
"two-step-fixation","105","374017","0.0-61.0-2.14","259","687","12","Male","false","true","false","true","""event"",""trial"",""time""
""blur"",""5"",""53684""
""focus"",""5"",""56311""
""blur"",""5"",""58476""
""focus"",""5"",""62787""
""blur"",""5"",""68372""
""focus"",""5"",""70656""
""fullscreenenter"",""5"",""81071""
""fullscreenexit"",""9"",""108841""
""blur"",""100"",""363781""
""focus"",""101"",""363793""
","""event"",""trial"",""time""
""blur"",""5"",""53684""
""blur"",""5"",""58476""
""blur"",""5"",""68372""
""blur"",""100"",""363781""
","""event"",""trial"",""time""
""focus"",""5"",""56311""
""focus"",""5"",""62787""
""focus"",""5"",""70656""
""focus"",""101"",""363793""
","""event"",""trial"",""time""
""fullscreenenter"",""5"",""81071""
","""event"",""trial"",""time""
""fullscreenexit"",""9"",""108841""
","","images/earth.jpg","","","","","","","","","","","","","","fixation","","","","","",""
"d3-animate-choice","106","376074","0.0-61.0-0.15","259","687","12","Male","false","true","false","true","""event"",""trial"",""time""
""blur"",""5"",""53684""
""focus"",""5"",""56311""
""blur"",""5"",""58476""
""focus"",""5"",""62787""
""blur"",""5"",""68372""
""focus"",""5"",""70656""
""fullscreenenter"",""5"",""81071""
""fullscreenexit"",""9"",""108841""
""blur"",""100"",""363781""
""focus"",""101"",""363793""
","""event"",""trial"",""time""
""blur"",""5"",""53684""
""blur"",""5"",""58476""
""blur"",""5"",""68372""
""blur"",""100"",""363781""
","""event"",""trial"",""time""
""focus"",""5"",""56311""
""focus"",""5"",""62787""
""focus"",""5"",""70656""
""focus"",""101"",""363793""
","""event"",""trial"",""time""
""fullscreenenter"",""5"",""81071""
","""event"",""trial"",""time""
""fullscreenexit"",""9"",""108841""
","50.100000001490116","","49","","","3000","1","153.60000000149012,391.69999999552965,600.1000000014901,748.2999999970198,1045.7999999970198,1159.1000000014901,1457.8999999985099,1658.6999999955297,1934.1000000014901","48,49,48,49,48,49,48,49,48","images/earth.jpg","images/tutrocket2","images/tutrocket1","null","images/tutrocket1","","1","practice","null","1","","",""
"d3-animate-choice","107","378116","0.0-61.0-1.15","259","687","12","Male","false","true","false","true","""event"",""trial"",""time""
""blur"",""5"",""53684""
""focus"",""5"",""56311""
""blur"",""5"",""58476""
""focus"",""5"",""62787""
""blur"",""5"",""68372""
