"trial_type","trial_index","time_elapsed","internal_node_id","participant_id","subject_id","age","gender","rocket_sides","red_planet_first_rocket","red_display_order","purple_display_order","interactions","blur_events","focus_events","fullscreenenter_events","fullscreenexit_events","rt","stimulus","key_press","button_pressed","success","duration","valid_pressed","rts","keys","planet_text","right_text","left_text","center_text","chosen_text","reward_text","trial_stage","practice_trial","transition_type","reward","timestamp","choice","transition"
"pavlovia","0","2","0.0-0.0","337","691","25","Male","false","true","false","true","
","
","
","
","
","","","","","","","","","","","","","","","","","","","","","",""
"html-keyboard-response","1","524","0.0-1.0","337","691","25","Male","false","true","false","true","
","
","
","
","
","521.5","Welcome! Press the space bar to begin.","32","","","","","","","","","","","","","","","","","","",""
"audio-keyboard-response","2","772","0.0-2.0","337","691","25","Male","false","true","false","true","
","
","
","
","
","109","audio/beep_loop.wav","32","","","","","","","","","","","","","","","","","","",""
"audio-button-response","3","3331","0.0-3.0","337","691","25","Male","false","true","false","true","
","
","
","
","
","NaN","audio/fish.mp3","","1","","","","","","","","","","","","","","","","","",""
"audio-button-response","4","5995","0.0-4.0","337","691","25","Male","false","true","false","true","""event"",""trial"",""time""
""fullscreenenter"",""5"",""9912""
","
","
","""event"",""trial"",""time""
""fullscreenenter"",""5"",""9912""
","
","NaN","audio/tiger.mp3","","4","","","","","","","","","","","","","","","","","",""
"fullscreen","5","10909","0.0-5.0","337","691","25","Male","false","true","false","true","""event"",""trial"",""time""
""fullscreenenter"",""5"",""9912""
","
","
","""event"",""trial"",""time""
""fullscreenenter"",""5"",""9912""
","
","","","","","true","","","","","","","","","","","","","","","","",""
"d3-instructions","6","13092","0.0-6.0","337","691","25","Male","false","true","false","true","""event"",""trial"",""time""
""fullscreenenter"",""5"",""9912""
","
","
","""event"",""trial"",""time""
""fullscreenenter"",""5"",""9912""
","
","","","","","","","","","","","","","","","","","","","","","",""
"d3-instructions","7","14942","0.0-7.0","337","691","25","Male","false","true","false","true","""event"",""trial"",""time""
""fullscreenenter"",""5"",""9912""
","
","
","""event"",""trial"",""time""
""fullscreenenter"",""5"",""9912""
","
","","","","","","","","","","","","","","","","","","","","","",""
"d3-instructions","8","16720","0.0-8.0","337","691","25","Male","false","true","false","true","""event"",""trial"",""time""
""fullscreenenter"",""5"",""9912""
","
","
","""event"",""trial"",""time""
""fullscreenenter"",""5"",""9912""
","
","","","","","","","","","","","","","","","","","","","","","",""
"d3-instructions","9","18226","0.0-9.0","337","691","25","Male","false","true","false","true","""event"",""trial"",""time""
""fullscreenenter"",""5"",""9912""
","
","
","""event"",""trial"",""time""
""fullscreenenter"",""5"",""9912""
","
","","","","","","","","","","","","","","","","","","","","","",""
"d3-instructions","10","19962","0.0-10.0","337","691","25","Male","false","true","false","true","""event"",""trial"",""time""
""fullscreenenter"",""5"",""9912""
","
","
","""event"",""trial"",""time""
""fullscreenenter"",""5"",""9912""
","
","","","","","","","","","","","","","","","","","","","","","",""
"d3-animate-choice","11","23550","0.0-11.0","337","691","25","Male","false","true","false","true","""event"",""trial"",""time""
""fullscreenenter"",""5"",""9912""
","
","
","""event"",""trial"",""time""
""fullscreenenter"",""5"",""9912""
","
","1562.7999999523163","","49","","","3000","1","","","images/tutgreenplanet.jpg","images/tutalien1","images/tutalien2","null","images/tutalien2","","NA","practice","null","","","",""
"d3-animate-choice","12","25939","0.0-12.0","337","691","25","Male","false","true","false","true","""event"",""trial"",""time""
""fullscreenenter"",""5"",""9912""
","
","
","""event"",""trial"",""time""
""fullscreenenter"",""5"",""9912""
","
","373.10000002384186","","48","","","3000","1","642.7000000476837,839.3000000715256,1069.3000000715256,1300.8000000715256,1565.6000000238419,1791.3999999761581,2065.899999976158,2306.5","48,48,48,48,48,48,48,48","images/tutgreenplanet.jpg","images/tutalien1","images/tutalien2","null","images/tutalien1","","NA","practice","null","","","",""
"d3-animate-choice","13","28114","0.0-13.0","337","691","25","Male","false","true","false","true","""event"",""trial"",""time""
""fullscreenenter"",""5"",""9912""
","
","
","""event"",""trial"",""time""
""fullscreenenter"",""5"",""9912""
","
","159.60000002384186","","48","","","3000","1","403.2000000476837,619.5,836.2000000476837,1046.2000000476837,1261.8000000715256,1499,1720.7000000476837,1985.7000000476837","48,48,48,48,48,48,48,48","images/tutgreenplanet.jpg","images/tutalien1","images/tutalien2","null","images/tutalien1","","NA","practice","null","","","",""
"d3-animate-choice","14","30152","0.0-14.0","337","691","25","Male","false","true","false","true","""event"",""trial"",""time""
""fullscreenenter"",""5"",""9912""
","
","
","""event"",""trial"",""time""
""fullscreenenter"",""5"",""9912""
","
","35.09999990463257","","48","","","3000","1","302.39999997615814,588.1999999284744,972.3999999761581,1245.1999999284744,1552.1999999284744,1813.0999999046326,2037.0999999046326","48,48,48,48,48,48,48","images/tutgreenplanet.jpg","images/tutalien1","images/tutalien2","null","images/tutalien1","","NA","practice","null","","","",""
"d3-instructions","15","32063","0.0-15.0","337","691","25","Male","false","true","false","true","""event"",""trial"",""time""
""fullscreenenter"",""5"",""9912""
","
","
","""event"",""trial"",""time""
""fullscreenenter"",""5"",""9912""
","
","","","","","","","","","","","","","","","","","","","","","",""
"d3-instructions","16","34875","0.0-16.0","337","691","25","Male","false","true","false","true","""event"",""trial"",""time""
""fullscreenenter"",""5"",""9912""
","
","
","""event"",""trial"",""time""
""fullscreenenter"",""5"",""9912""
","
","","","","","","","","","","","","","","","","","","","","","",""
"d3-instructions","17","37581","0.0-17.0","337","691","25","Male","false","true","false","true","""event"",""trial"",""time""
""fullscreenenter"",""5"",""9912""
","
","
","""event"",""trial"",""time""
""fullscreenenter"",""5"",""9912""
","
","","","","","","","","","","","","","","","","","","","","","",""
"d3-instructions","18","47326","0.0-18.0","337","691","25","Male","false","true","false","true","""event"",""trial"",""time""
""fullscreenenter"",""5"",""9912""
","
","
","""event"",""trial"",""time""
""fullscreenenter"",""5"",""9912""
","
","","","","","","","","","","","","","","","","","","","","","",""
"d3-instructions","19","49911","0.0-19.0","337","691","25","Male","false","true","false","true","""event"",""trial"",""time""
""fullscreenenter"",""5"",""9912""
","
","
","""event"",""trial"",""time""
""fullscreenenter"",""5"",""9912""
","
","","","","","","","","","","","","","","","","","","","","","",""
"d3-animate-choice","20","59541","0.0-20.0","337","691","25","Male","false","true","false","true","""event"",""trial"",""time""
""fullscreenenter"",""5"",""9912""
","
","
","""event"",""trial"",""time""
""fullscreenenter"",""5"",""9912""
","
","6537.599999904633","","66","","","3000","1","7608.199999928474","49","images/tutyellowplanet.jpg","null","images/tutalien3","null","images/tutalien3","images/t.png","NA","practice","null","","","",""
"d3-animate-choice","21","63079","0.0-21.0","337","691","25","Male","false","true","false","true","""event"",""trial"",""time""
""fullscreenenter"",""5"",""9912""
","
","
","""event"",""trial"",""time""
""fullscreenenter"",""5"",""9912""
","
","1524.8999999761581","","49","","","3000","1","1765.6000000238419,1991.1000000238419,2201.7000000476837","49,49,49","images/tutyellowplanet.jpg","null","images/tutalien3","null","images/tutalien3","images/t.png","NA","practice","null","","","",""
"d3-animate-choice","22","66808","0.0-22.0","337","691","25","Male","false","true","false","true","""event"",""trial"",""time""
""fullscreenenter"",""5"",""9912""
","
","
","""event"",""trial"",""time""
""fullscreenenter"",""5"",""9912""
","
","1714.2999999523163","","49","","","3000","1","","","images/tutyellowplanet.jpg","null","images/tutalien3","null","images/tutalien3","images/t.png","NA","practice","null","","","",""
"d3-animate-choice","23","69757","0.0-23.0","337","691","25","Male","false","true","false","true","""event"",""trial"",""time""
""fullscreenenter"",""5"",""9912""
","
","
","""event"",""trial"",""time""
""fullscreenenter"",""5"",""9912""
","
","938.1000000238419","","49","","","3000","1","","","images/tutyellowplanet.jpg","null","images/tutalien3","null","images/tutalien3","images/nothing.png","NA","practice","null","","","",""
"d3-animate-choice","24","72190","0.0-24.0","337","691","25","Male","false","true","false","true","""event"",""trial"",""time""
""fullscreenenter"",""5"",""9912""
","
","
","""event"",""trial"",""time""
""fullscreenenter"",""5"",""9912""
","
","425.1999999284744","","49","","","3000","1","","","images/tutyellowplanet.jpg","null","images/tutalien3","null","images/tutalien3","images/t.png","NA","practice","null","","","",""
"d3-animate-choice","25","75382","0.0-25.0","337","691","25","Male","false","true","false","true","""event"",""trial"",""time""
""fullscreenenter"",""5"",""9912""
","
","
","""event"",""trial"",""time""
""fullscreenenter"",""5"",""9912""
","
","1180.2000000476837","","49","","","3000","1","","","images/tutyellowplanet.jpg","null","images/tutalien3","null","images/tutalien3","images/nothing.png","NA","practice","null","","","",""
"d3-animate-choice","26","77461","0.0-26.0","337","691","25","Male","false","true","false","true","""event"",""trial"",""time""
""fullscreenenter"",""5"",""9912""
","
","
","""event"",""trial"",""time""
""fullscreenenter"",""5"",""9912""
","
","60.5","","49","","","3000","1","1717.2000000476837","49","images/tutyellowplanet.jpg","null","images/tutalien3","null","images/tutalien3","images/t.png","NA","practice","null","","","",""
"d3-animate-choice","27","79901","0.0-27.0","337","691","25","Male","false","true","false","true","""event"",""trial"",""time""
""fullscreenenter"",""5"",""9912""
","
","
","""event"",""trial"",""time""
""fullscreenenter"",""5"",""9912""
","
","425.39999997615814","","49","","","3000","1","","","images/tutyellowplanet.jpg","null","images/tutalien3","null","images/tutalien3","images/t.png","NA","practice","null","","","",""
"d3-animate-choice","28","82349","0.0-28.0","337","691","25","Male","false","true","false","true","""event"",""trial"",""time""
""fullscreenenter"",""5"",""9912""
","
","
","""event"",""trial"",""time""
""fullscreenenter"",""5"",""9912""
","
","445.40000009536743","","49","","","3000","1","2392.5","49","images/tutyellowplanet.jpg","null","images/tutalien3","null","images/tutalien3","images/t.png","NA","practice","null","","","",""
"d3-animate-choice","29","84945","0.0-29.0","337","691","25","Male","false","true","false","true","""event"",""trial"",""time""
""fullscreenenter"",""5"",""9912""
","
","
","""event"",""trial"",""time""
""fullscreenenter"",""5"",""9912""
","
","592.3999999761581","","49","","","3000","1","","","images/tutyellowplanet.jpg","null","images/tutalien3","null","images/tutalien3","images/t.png","NA","practice","null","","","",""
"d3-instructions","30","110852","0.0-30.0","337","691","25","Male","false","true","false","true","""event"",""trial"",""time""
""fullscreenenter"",""5"",""9912""
","
","
","""event"",""trial"",""time""
""fullscreenenter"",""5"",""9912""
","
","","","","","","","","","","","","","","","","","","","","","",""
"d3-instructions","31","126074","0.0-31.0","337","691","25","Male","false","true","false","true","""event"",""trial"",""time""
""fullscreenenter"",""5"",""9912""
","
","
","""event"",""trial"",""time""
""fullscreenenter"",""5"",""9912""
","
","","","","","","","","","","","","","","","","","","","","","",""
"d3-instructions","32","134001","0.0-32.0","337","691","25","Male","false","true","false","true","""event"",""trial"",""time""
""fullscreenenter"",""5"",""9912""
","
","
","""event"",""trial"",""time""
""fullscreenenter"",""5"",""9912""
","
","","","","","","","","","","","","","","","","","","","","","",""
"d3-instructions","33","135577","0.0-33.0","337","691","25","Male","false","true","false","true","""event"",""trial"",""time""
""fullscreenenter"",""5"",""9912""
","
","
","""event"",""trial"",""time""
""fullscreenenter"",""5"",""9912""
","
","","","","","","","","","","","","","","","","","","","","","",""
"d3-animate-choice","34","140969","0.0-34.0","337","691","25","Male","false","true","false","true","""event"",""trial"",""time""
""fullscreenenter"",""5"",""9912""
","
","
","""event"",""trial"",""time""
""fullscreenenter"",""5"",""9912""
","
","2541.2000000476837","","32","","","3000","1","3384.8000000715256","48","images/tutgreenplanet.jpg","images/tutalien1","images/tutalien2","null","images/tutalien1","images/nothing.png","NA","practice","null","","","",""
"d3-animate-choice","35","142999","0.0-35.0","337","691","25","Male","false","true","false","true","""event"",""trial"",""time""
""fullscreenenter"",""5"",""9912""
","
","
","""event"",""trial"",""time""
""fullscreenenter"",""5"",""9912""
","
","7.5","","48","","","3000","1","1996.1000000238419","48","images/tutgreenplanet.jpg","images/tutalien1","images/tutalien2","null","images/tutalien1","images/nothing.png","NA","practice","null","","","",""
"d3-animate-choice","36","145979","0.0-36.0","337","691","25","Male","false","true","false","true","""event"",""trial"",""time""
""fullscreenenter"",""5"",""9912""
","
","
","""event"",""trial"",""time""
""fullscreenenter"",""5"",""9912""
","
","967.8999999761581","","48","","","3000","1","2616","48","images/tutgreenplanet.jpg","images/tutalien1","images/tutalien2","null","images/tutalien1","images/nothing.png","NA","practice","null","","","",""
"d3-animate-choice","37","148560","0.0-37.0","337","691","25","Male","false","true","false","true","""event"",""trial"",""time""
""fullscreenenter"",""5"",""9912""
","
","
","""event"",""trial"",""time""
""fullscreenenter"",""5"",""9912""
","
","575.7999999523163","","48","","","3000","1","","","images/tutgreenplanet.jpg","images/tutalien1","images/tutalien2","null","images/tutalien1","images/nothing.png","NA","practice","null","","","",""
"d3-animate-choice","38","150900","0.0-38.0","337","691","25","Male","false","true","false","true","""event"",""trial"",""time""
""fullscreenenter"",""5"",""9912""
","
","
","""event"",""trial"",""time""
""fullscreenenter"",""5"",""9912""
","
","326.2000000476837","","48","","","3000","1","","","images/tutgreenplanet.jpg","images/tutalien1","images/tutalien2","null","images/tutalien1","images/nothing.png","NA","practice","null","","","",""
"d3-animate-choice","39","153184","0.0-39.0","337","691","25","Male","false","true","false","true","""event"",""trial"",""time""
""fullscreenenter"",""5"",""9912""
","
","
","""event"",""trial"",""time""
""fullscreenenter"",""5"",""9912""
","
","264.8000000715256","","48","","","3000","1","","","images/tutgreenplanet.jpg","images/tutalien1","images/tutalien2","null","images/tutalien1","images/nothing.png","NA","practice","null","","","",""
"d3-animate-choice","40","155730","0.0-40.0","337","691","25","Male","false","true","false","true","""event"",""trial"",""time""
""fullscreenenter"",""5"",""9912""
","
","
","""event"",""trial"",""time""
""fullscreenenter"",""5"",""9912""
","
","538.6000000238419","","48","","","3000","1","2380.100000023842","48","images/tutgreenplanet.jpg","images/tutalien1","images/tutalien2","null","images/tutalien1","images/nothing.png","NA","practice","null","","","",""
"d3-animate-choice","41","159470","0.0-41.0","337","691","25","Male","false","true","false","true","""event"",""trial"",""time""
""fullscreenenter"",""5"",""9912""
","
","
","""event"",""trial"",""time""
""fullscreenenter"",""5"",""9912""
","
","1731.8999999761581","","48","","","3000","1","3124.7999999523163","48","images/tutgreenplanet.jpg","images/tutalien1","images/tutalien2","null","images/tutalien1","images/nothing.png","NA","practice","null","","","",""
"d3-animate-choice","42","161816","0.0-42.0","337","691","25","Male","false","true","false","true","""event"",""trial"",""time""
""fullscreenenter"",""5"",""9912""
","
","
","""event"",""trial"",""time""
""fullscreenenter"",""5"",""9912""
","
","336.6999999284744","","48","","","3000","1","","","images/tutgreenplanet.jpg","images/tutalien1","images/tutalien2","null","images/tutalien1","images/nothing.png","NA","practice","null","","","",""
"d3-animate-choice","43","163824","0.0-43.0","337","691","25","Male","false","true","false","true","""event"",""trial"",""time""
""fullscreenenter"",""5"",""9912""
","
","
","""event"",""trial"",""time""
""fullscreenenter"",""5"",""9912""
","
","0.10000002384185791","","48","","","3000","1","1406.5","48","images/tutgreenplanet.jpg","images/tutalien1","images/tutalien2","null","images/tutalien1","images/nothing.png","NA","practice","null","","","",""
"d3-instructions","44","165675","0.0-44.0","337","691","25","Male","false","true","false","true","""event"",""trial"",""time""
""fullscreenenter"",""5"",""9912""
","
","
","""event"",""trial"",""time""
""fullscreenenter"",""5"",""9912""
","
","","","","","","","","","","","","","","","","","","","","","",""
"d3-instructions","45","168169","0.0-45.0","337","691","25","Male","false","true","false","true","""event"",""trial"",""time""
""fullscreenenter"",""5"",""9912""
","
","
","""event"",""trial"",""time""
""fullscreenenter"",""5"",""9912""
","
","","","","","","","","","","","","","","","","","","","","","",""
"d3-instructions","46","173388","0.0-46.0","337","691","25","Male","false","true","false","true","""event"",""trial"",""time""
""fullscreenenter"",""5"",""9912""
","
","
","""event"",""trial"",""time""
""fullscreenenter"",""5"",""9912""
","
","","","","","","","","","","","","","","","","","","","","","",""
"d3-instructions","47","176305","0.0-47.0","337","691","25","Male","false","true","false","true","""event"",""trial"",""time""
""fullscreenenter"",""5"",""9912""
","
","
","""event"",""trial"",""time""
""fullscreenenter"",""5"",""9912""
","
","","","","","","","","","","","","","","","","","","","","","",""
"d3-instructions","48","179488","0.0-48.0","337","691","25","Male","false","true","false","true","""event"",""trial"",""time""
""fullscreenenter"",""5"",""9912""
","
","
","""event"",""trial"",""time""
""fullscreenenter"",""5"",""9912""
","
","","","","","","","","","","","","","","","","","","","","","",""
"d3-instructions","49","182719","0.0-49.0","337","691","25","Male","false","true","false","true","""event"",""trial"",""time""
""fullscreenenter"",""5"",""9912""
","
","
","""event"",""trial"",""time""
""fullscreenenter"",""5"",""9912""
","
","","","","","","","","","","","","","","","","","","","","","",""
"d3-instructions","50","185258","0.0-50.0","337","691","25","Male","false","true","false","true","""event"",""trial"",""time""
""fullscreenenter"",""5"",""9912""
","
","
","""event"",""trial"",""time""
""fullscreenenter"",""5"",""9912""
","
","","","","","","","","","","","","","","","","","","","","","",""
"d3-instructions","51","187773","0.0-51.0","337","691","25","Male","false","true","false","true","""event"",""trial"",""time""
""fullscreenenter"",""5"",""9912""
","
","
","""event"",""trial"",""time""
""fullscreenenter"",""5"",""9912""
","
","","","","","","","","","","","","","","","","","","","","","",""
"d3-instructions","52","190103","0.0-52.0","337","691","25","Male","false","true","false","true","""event"",""trial"",""time""
""fullscreenenter"",""5"",""9912""
","
","
","""event"",""trial"",""time""
""fullscreenenter"",""5"",""9912""
","
","","","","","","","","","","","","","","","","","","","","","",""
"d3-instructions","53","192553","0.0-53.0","337","691","25","Male","false","true","false","true","""event"",""trial"",""time""
""fullscreenenter"",""5"",""9912""
","
","
","""event"",""trial"",""time""
""fullscreenenter"",""5"",""9912""
","
","","","","","","","","","","","","","","","","","","","","","",""
"d3-instructions","54","195313","0.0-54.0","337","691","25","Male","false","true","false","true","""event"",""trial"",""time""
""fullscreenenter"",""5"",""9912""
","
","
","""event"",""trial"",""time""
""fullscreenenter"",""5"",""9912""
","
","","","","","","","","","","","","","","","","","","","","","",""
"d3-instructions","55","200203","0.0-55.0","337","691","25","Male","false","true","false","true","""event"",""trial"",""time""
""fullscreenenter"",""5"",""9912""
","
","
","""event"",""trial"",""time""
""fullscreenenter"",""5"",""9912""
","
","","","","","","","","","","","","","","","","","","","","","",""
"d3-instructions","56","202449","0.0-56.0","337","691","25","Male","false","true","false","true","""event"",""trial"",""time""
""fullscreenenter"",""5"",""9912""
","
","
","""event"",""trial"",""time""
""fullscreenenter"",""5"",""9912""
","
","","","","","","","","","","","","","","","","","","","","","",""
"d3-instructions","57","205111","0.0-57.0","337","691","25","Male","false","true","false","true","""event"",""trial"",""time""
""fullscreenenter"",""5"",""9912""
","
","
","""event"",""trial"",""time""
""fullscreenenter"",""5"",""9912""
","
","","","","","","","","","","","","","","","","","","","","","",""
"d3-instructions","58","209259","0.0-58.0","337","691","25","Male","false","true","false","true","""event"",""trial"",""time""
""fullscreenenter"",""5"",""9912""
","
","
","""event"",""trial"",""time""
""fullscreenenter"",""5"",""9912""
","
","","","","","","","","","","","","","","","","","","","","","",""
"d3-instructions","59","211188","0.0-59.0","337","691","25","Male","false","true","false","true","""event"",""trial"",""time""
""fullscreenenter"",""5"",""9912""
","
","
","""event"",""trial"",""time""
""fullscreenenter"",""5"",""9912""
","
","","","","","","","","","","","","","","","","","","","","","",""
"d3-instructions","60","215640","0.0-60.0","337","691","25","Male","false","true","false","true","""event"",""trial"",""time""
""fullscreenenter"",""5"",""9912""
","
","
","""event"",""trial"",""time""
""fullscreenenter"",""5"",""9912""
","
","","","","","","","","","","","","","","","","","","","","","",""
"d3-animate-choice","61","219654","0.0-61.0-0.0","337","691","25","Male","false","true","false","true","""event"",""trial"",""time""
""fullscreenenter"",""5"",""9912""
","
","
","""event"",""trial"",""time""
""fullscreenenter"",""5"",""9912""
","
","null","","null","","","3000","0","","","images/earth.jpg","images/tutrocket1","images/tutrocket2","null","","","1","practice","null","","","",""
"d3-animate-choice","62","220662","0.0-61.0-1.0","337","691","25","Male","false","true","false","true","""event"",""trial"",""time""
""fullscreenenter"",""5"",""9912""
","
","
","""event"",""trial"",""time""
""fullscreenenter"",""5"",""9912""
","
","null","","null","","","0","0","","","images/earth.jpg","images/tutrocket1","images/tutrocket2","null","","","2","practice","null","0","2022-02-07 23:51:51.612","",""
"two-step-fixation","63","221680","0.0-61.0-2.0","337","691","25","Male","false","true","false","true","""event"",""trial"",""time""
""fullscreenenter"",""5"",""9912""
","
","
","""event"",""trial"",""time""
""fullscreenenter"",""5"",""9912""
","
","","images/earth.jpg","","","","","","","","","","","","","","fixation","","","","","",""
"d3-animate-choice","64","225686","0.0-61.0-0.1","337","691","25","Male","false","true","false","true","""event"",""trial"",""time""
""fullscreenenter"",""5"",""9912""
","
","
","""event"",""trial"",""time""
""fullscreenenter"",""5"",""9912""
","
","null","","null","","","3000","0","","","images/earth.jpg","images/tutrocket1","images/tutrocket2","null","","","1","practice","null","","","",""
"d3-animate-choice","65","226699","0.0-61.0-1.1","337","691","25","Male","false","true","false","true","""event"",""trial"",""time""
""fullscreenenter"",""5"",""9912""
","
","
","""event"",""trial"",""time""
""fullscreenenter"",""5"",""9912""
","
","null","","null","","","0","0","","","images/earth.jpg","images/tutrocket1","images/tutrocket2","null","","","2","practice","null","0","2022-02-07 23:51:57.648","",""
"two-step-fixation","66","227704","0.0-61.0-2.1","337","691","25","Male","false","true","false","true","""event"",""trial"",""time""
""fullscreenenter"",""5"",""9912""
","
","
","""event"",""trial"",""time""
""fullscreenenter"",""5"",""9912""
","
","","images/earth.jpg","","","","","","","","","","","","","","fixation","","","","","",""
"d3-animate-choice","67","231711","0.0-61.0-0.2","337","691","25","Male","false","true","false","true","""event"",""trial"",""time""
""fullscreenenter"",""5"",""9912""
","
","
","""event"",""trial"",""time""
""fullscreenenter"",""5"",""9912""
","
","null","","null","","","3000","0","","","images/earth.jpg","images/tutrocket1","images/tutrocket2","null","","","1","practice","null","","","",""
"d3-animate-choice","68","232720","0.0-61.0-1.2","337","691","25","Male","false","true","false","true","""event"",""trial"",""time""
""fullscreenenter"",""5"",""9912""
","
","
","""event"",""trial"",""time""
""fullscreenenter"",""5"",""9912""
","
","null","","null","","","0","0","","","images/earth.jpg","images/tutrocket1","images/tutrocket2","null","","","2","practice","null","0","2022-02-07 23:52:03.669","",""
"two-step-fixation","69","233730","0.0-61.0-2.2","337","691","25","Male","false","true","false","true","""event"",""trial"",""time""
""fullscreenenter"",""5"",""9912""
","
","
","""event"",""trial"",""time""
""fullscreenenter"",""5"",""9912""
","
","","images/earth.jpg","","","","","","","","","","","","","","fixation","","","","","",""
"d3-animate-choice","70","237743","0.0-61.0-0.3","337","691","25","Male","false","true","false","true","""event"",""trial"",""time""
""fullscreenenter"",""5"",""9912""
","
","
","""event"",""trial"",""time""
""fullscreenenter"",""5"",""9912""
","
","null","","null","","","3000","0","","","images/earth.jpg","images/tutrocket1","images/tutrocket2","null","","","1","practice","null","","","",""
"d3-animate-choice","71","238751","0.0-61.0-1.3","337","691","25","Male","false","true","false","true","""event"",""trial"",""time""
""fullscreenenter"",""5"",""9912""
","
","
","""event"",""trial"",""time""
""fullscreenenter"",""5"",""9912""
","
","878.8000000715256","","48","","","0","0","","","images/earth.jpg","images/tutrocket1","images/tutrocket2","null","","","2","practice","null","0","2022-02-07 23:52:09.700","2",""
"two-step-fixation","72","239766","0.0-61.0-2.3","337","691","25","Male","false","true","false","true","""event"",""trial"",""time""
""fullscreenenter"",""5"",""9912""
","
","
","""event"",""trial"",""time""
""fullscreenenter"",""5"",""9912""
","
","","images/earth.jpg","","","","","","","","","","","","","","fixation","","","","","",""
"d3-animate-choice","73","243785","0.0-61.0-0.4","337","691","25","Male","false","true","false","true","""event"",""trial"",""time""
""fullscreenenter"",""5"",""9912""
","
","
","""event"",""trial"",""time""
""fullscreenenter"",""5"",""9912""
","
","null","","null","","","3000","0","","","images/earth.jpg","images/tutrocket1","images/tutrocket2","null","","","1","practice","null","","","",""
"d3-animate-choice","74","244791","0.0-61.0-1.4","337","691","25","Male","false","true","false","true","""event"",""trial"",""time""
""fullscreenenter"",""5"",""9912""
","
","
","""event"",""trial"",""time""
""fullscreenenter"",""5"",""9912""
","
","800.6000000238419","","48","","","0","0","","","images/earth.jpg","images/tutrocket1","images/tutrocket2","null","","","2","practice","null","0","2022-02-07 23:52:15.740","2",""
"two-step-fixation","75","245797","0.0-61.0-2.4","337","691","25","Male","false","true","false","true","""event"",""trial"",""time""
""fullscreenenter"",""5"",""9912""
","
","
","""event"",""trial"",""time""
""fullscreenenter"",""5"",""9912""
","
","","images/earth.jpg","","","","","","","","","","","","","","fixation","","","","","",""
"d3-animate-choice","76","249803","0.0-61.0-0.5","337","691","25","Male","false","true","false","true","""event"",""trial"",""time""
""fullscreenenter"",""5"",""9912""
","
","
","""event"",""trial"",""time""
""fullscreenenter"",""5"",""9912""
","
","null","","null","","","3000","0","","","images/earth.jpg","images/tutrocket1","images/tutrocket2","null","","","1","practice","null","","","",""
"d3-animate-choice","77","250812","0.0-61.0-1.5","337","691","25","Male","false","true","false","true","""event"",""trial"",""time""
""fullscreenenter"",""5"",""9912""
","
","
","""event"",""trial"",""time""
""fullscreenenter"",""5"",""9912""
","
","null","","null","","","0","0","","","images/earth.jpg","images/tutrocket1","images/tutrocket2","null","","","2","practice","null","0","2022-02-07 23:52:21.761","",""
"two-step-fixation","78","251816","0.0-61.0-2.5","337","691","25","Male","false","true","false","true","""event"",""trial"",""time""
""fullscreenenter"",""5"",""9912""
","
","
","""event"",""trial"",""time""
""fullscreenenter"",""5"",""9912""
","
","","images/earth.jpg","","","","","","","","","","","","","","fixation","","","","","",""
"d3-animate-choice","79","254311","0.0-61.0-0.6","337","691","25","Male","false","true","false","true","""event"",""trial"",""time""
""fullscreenenter"",""5"",""9912""
","
","
","""event"",""trial"",""time""
""fullscreenenter"",""5"",""9912""
","
","491.09999990463257","","48","","","3000","1","950,1188.5999999046326,1397.5,1581.5999999046326,1787.3999999761581,1958.2999999523163,2159.5,2353.6999999284744","48,48,48,48,48,48,48,48","images/earth.jpg","images/tutrocket1","images/tutrocket2","null","images/tutrocket1","","1","practice","null","","","2",""
"d3-animate-choice","80","256382","0.0-61.0-1.6","337","691","25","Male","false","true","false","true","""event"",""trial"",""time""
""fullscreenenter"",""5"",""9912""
","
","
","""event"",""trial"",""time""
""fullscreenenter"",""5"",""9912""
","
","66.19999992847443","","48","","","3000","1","320.6999999284744,566.8999999761581,806.8999999761581,972.8999999761581,1183.1999999284744,1392,1612.5,1814.6999999284744","48,48,48,48,48,48,48,48","images/tutgreenplanet.jpg","images/tutalien2","images/tutalien1","images/tutrocket1","images/tutalien2","images/nothing.png","2","practice","true","0","2022-02-07 23:52:27.331","2","common"
"two-step-fixation","81","257384","0.0-61.0-2.6","337","691","25","Male","false","true","false","true","""event"",""trial"",""time""
""fullscreenenter"",""5"",""9912""
","
","
","""event"",""trial"",""time""
""fullscreenenter"",""5"",""9912""
","
","","images/earth.jpg","","","","","","","","","","","","","","fixation","","","","","",""
"d3-animate-choice","82","260263","0.0-61.0-0.7","337","691","25","Male","false","true","false","true","""event"",""trial"",""time""
""fullscreenenter"",""5"",""9912""
","
","
","""event"",""trial"",""time""
""fullscreenenter"",""5"",""9912""
","
","875.5","","48","","","3000","1","1728.8999999761581","48","images/earth.jpg","images/tutrocket1","images/tutrocket2","null","images/tutrocket1","","1","practice","null","","","2",""
"d3-animate-choice","83","263657","0.0-61.0-1.7","337","691","25","Male","false","true","false","true","""event"",""trial"",""time""
""fullscreenenter"",""5"",""9912""
","
","
","""event"",""trial"",""time""
""fullscreenenter"",""5"",""9912""
","
","1389.1000000238419","","48","","","3000","1","2921.8000000715256,3173.9000000953674","48,48","images/tutgreenplanet.jpg","images/tutalien2","images/tutalien1","images/tutrocket1","images/tutalien2","images/t.png","2","practice","true","1","2022-02-07 23:52:34.606","2","common"
"two-step-fixation","84","264661","0.0-61.0-2.7","337","691","25","Male","false","true","false","true","""event"",""trial"",""time""
""fullscreenenter"",""5"",""9912""
","
","
","""event"",""trial"",""time""
""fullscreenenter"",""5"",""9912""
","
","","images/earth.jpg","","","","","","","","","","","","","","fixation","","","","","",""
"d3-animate-choice","85","266757","0.0-61.0-0.8","337","691","25","Male","false","true","false","true","""event"",""trial"",""time""
""fullscreenenter"",""5"",""9912""
","
","
","""event"",""trial"",""time""
""fullscreenenter"",""5"",""9912""
","
","91.79999995231628","","48","","","3000","1","383.2000000476837,619.2000000476837,865.6000000238419,1132.2999999523163,1372.1000000238419,1602.6000000238419,1841.2000000476837","48,48,48,48,48,48,48","images/earth.jpg","images/tutrocket1","images/tutrocket2","null","images/tutrocket1","","1","practice","null","","","2",""
"d3-animate-choice","86","268778","0.0-61.0-1.8","337","691","25","Male","false","true","false","true","""event"",""trial"",""time""
""fullscreenenter"",""5"",""9912""
","
","
","""event"",""trial"",""time""
""fullscreenenter"",""5"",""9912""
","
","17","","48","","","3000","1","272,536.1000000238419,774.7000000476837,1044.6000000238419,1292.7000000476837,1538.6000000238419,1770.8000000715256,2004.2000000476837","48,48,48,48,48,48,48,48","images/tutgreenplanet.jpg","images/tutalien2","images/tutalien1","images/tutrocket1","images/tutalien2","images/t.png","2","practice","true","1","2022-02-07 23:52:39.727","2","common"
"two-step-fixation","87","269783","0.0-61.0-2.8","337","691","25","Male","false","true","false","true","""event"",""trial"",""time""
""fullscreenenter"",""5"",""9912""
","
","
","""event"",""trial"",""time""
""fullscreenenter"",""5"",""9912""
","
","","images/earth.jpg","","","","","","","","","","","","","","fixation","","","","","",""
"d3-animate-choice","88","271976","0.0-61.0-0.9","337","691","25","Male","false","true","false","true","""event"",""trial"",""time""
""fullscreenenter"",""5"",""9912""
","
","
","""event"",""trial"",""time""
""fullscreenenter"",""5"",""9912""
","
","188","","48","","","3000","1","411.10000002384186,662.1999999284744,983.3999999761581,1226.8999999761581,1633.1999999284744","48,48,48,48,48","images/earth.jpg","images/tutrocket1","images/tutrocket2","null","images/tutrocket1","","1","practice","null","","","2",""
"d3-animate-choice","89","274334","0.0-61.0-1.9","337","691","25","Male","false","true","false","true","""event"",""trial"",""time""
""fullscreenenter"",""5"",""9912""
","
","
","""event"",""trial"",""time""
""fullscreenenter"",""5"",""9912""
","
","355","","48","","","3000","1","1293.5","48","images/tutyellowplanet.jpg","images/tutalien4","images/tutalien3","images/tutrocket1","images/tutalien4","images/t.png","2","practice","false","1","2022-02-07 23:52:45.284","2","rare"
"two-step-fixation","90","275338","0.0-61.0-2.9","337","691","25","Male","false","true","false","true","""event"",""trial"",""time""
""fullscreenenter"",""5"",""9912""
","
","
","""event"",""trial"",""time""
""fullscreenenter"",""5"",""9912""
","
","","images/earth.jpg","","","","","","","","","","","","","","fixation","","","","","",""
"d3-animate-choice","91","277765","0.0-61.0-0.10","337","691","25","Male","false","true","false","true","""event"",""trial"",""time""
""fullscreenenter"",""5"",""9912""
","
","
","""event"",""trial"",""time""
""fullscreenenter"",""5"",""9912""
","
","423","","48","","","3000","1","2075.399999976158","48","images/earth.jpg","images/tutrocket1","images/tutrocket2","null","images/tutrocket1","","1","practice","null","","","2",""
"d3-animate-choice","92","281455","0.0-61.0-1.10","337","691","25","Male","false","true","false","true","""event"",""trial"",""time""
""fullscreenenter"",""5"",""9912""
","
","
","""event"",""trial"",""time""
""fullscreenenter"",""5"",""9912""
","
","1686.3999999761581","","48","","","3000","1","2873.399999976158","48","images/tutyellowplanet.jpg","images/tutalien4","images/tutalien3","images/tutrocket1","images/tutalien4","images/nothing.png","2","practice","false","0","2022-02-07 23:52:52.404","2","rare"
"two-step-fixation","93","282459","0.0-61.0-2.10","337","691","25","Male","false","true","false","true","""event"",""trial"",""time""
""fullscreenenter"",""5"",""9912""
","
","
","""event"",""trial"",""time""
""fullscreenenter"",""5"",""9912""
","
","","images/earth.jpg","","","","","","","","","","","","","","fixation","","","","","",""
"d3-animate-choice","94","284715","0.0-61.0-0.11","337","691","25","Male","false","true","false","true","""event"",""trial"",""time""
""fullscreenenter"",""5"",""9912""
","
","
","""event"",""trial"",""time""
""fullscreenenter"",""5"",""9912""
","
","251.90000009536743","","48","","","3000","1","1609.8000000715256","48","images/earth.jpg","images/tutrocket1","images/tutrocket2","null","images/tutrocket1","","1","practice","null","","","2",""
"d3-animate-choice","95","287458","0.0-61.0-1.11","337","691","25","Male","false","true","false","true","""event"",""trial"",""time""
""fullscreenenter"",""5"",""9912""
","
","
","""event"",""trial"",""time""
""fullscreenenter"",""5"",""9912""
","
","739.6000000238419","","48","","","3000","1","","","images/tutyellowplanet.jpg","images/tutalien4","images/tutalien3","images/tutrocket1","images/tutalien4","images/t.png","2","practice","false","1","2022-02-07 23:52:58.407","2","rare"
"two-step-fixation","96","288461","0.0-61.0-2.11","337","691","25","Male","false","true","false","true","""event"",""trial"",""time""
""fullscreenenter"",""5"",""9912""
","
","
","""event"",""trial"",""time""
""fullscreenenter"",""5"",""9912""
","
","","images/earth.jpg","","","","","","","","","","","","","","fixation","","","","","",""
"d3-animate-choice","97","292425","0.0-61.0-0.12","337","691","25","Male","false","true","false","true","""event"",""trial"",""time""
""fullscreenenter"",""5"",""9912""
","
","
","""event"",""trial"",""time""
""fullscreenenter"",""5"",""9912""
","
","1958.6999999284744","","48","","","3000","1","","","images/earth.jpg","images/tutrocket1","images/tutrocket2","null","images/tutrocket1","","1","practice","null","","","2",""
"d3-animate-choice","98","295387","0.0-61.0-1.12","337","691","25","Male","false","true","false","true","""event"",""trial"",""time""
""fullscreenenter"",""5"",""9912""
","
","
","""event"",""trial"",""time""
""fullscreenenter"",""5"",""9912""
","
","958.8999999761581","","49","","","3000","1","1246.6000000238419,1454.3999999761581,1691.5","49,49,49","images/tutgreenplanet.jpg","images/tutalien2","images/tutalien1","images/tutrocket1","images/tutalien1","images/t.png","2","practice","true","1","2022-02-07 23:53:06.337","1","common"
"two-step-fixation","99","296392","0.0-61.0-2.12","337","691","25","Male","false","true","false","true","""event"",""trial"",""time""
""fullscreenenter"",""5"",""9912""
","
","
","""event"",""trial"",""time""
""fullscreenenter"",""5"",""9912""
","
","","images/earth.jpg","","","","","","","","","","","","","","fixation","","","","","",""
"d3-animate-choice","100","300398","0.0-61.0-0.13","337","691","25","Male","false","true","false","true","""event"",""trial"",""time""
""fullscreenenter"",""5"",""9912""
","
","
","""event"",""trial"",""time""
""fullscreenenter"",""5"",""9912""
","
","3221.6999999284744","","48","","","3000","0","3562.6999999284744","48","images/earth.jpg","images/tutrocket1","images/tutrocket2","null","","","1","practice","null","","","2",""
"d3-animate-choice","101","301404","0.0-61.0-1.13","337","691","25","Male","false","true","false","true","""event"",""trial"",""time""
""fullscreenenter"",""5"",""9912""
","
","
","""event"",""trial"",""time""
""fullscreenenter"",""5"",""9912""
","
","null","","null","","","0","0","","","images/earth.jpg","images/tutrocket1","images/tutrocket2","null","","","2","practice","null","0","2022-02-07 23:53:12.353","",""
"two-step-fixation","102","302408","0.0-61.0-2.13","337","691","25","Male","false","true","false","true","""event"",""trial"",""time""
""fullscreenenter"",""5"",""9912""
","
","
","""event"",""trial"",""time""
""fullscreenenter"",""5"",""9912""
","
","","images/earth.jpg","","","","","","","","","","","","","","fixation","","","","","",""
"d3-animate-choice","103","306259","0.0-61.0-0.14","337","691","25","Male","false","true","false","true","""event"",""trial"",""time""
""fullscreenenter"",""5"",""9912""
","
","
","""event"",""trial"",""time""
""fullscreenenter"",""5"",""9912""
","
","1846.4000000953674","","48","","","3000","1","2137.9000000953674,2569.4000000953674,3058.8000000715256,3426","48,48,48,48","images/earth.jpg","images/tutrocket1","images/tutrocket2","null","images/tutrocket1","","1","practice","null","","","2",""
"d3-animate-choice","104","308458","0.0-61.0-1.14","337","691","25","Male","false","true","false","true","""event"",""trial"",""time""
""fullscreenenter"",""5"",""9912""
","
","
","""event"",""trial"",""time""
""fullscreenenter"",""5"",""9912""
","
","193.89999997615814","","48","","","3000","1","937.1000000238419,1296.3000000715256","48,48","images/tutyellowplanet.jpg","images/tutalien4","images/tutalien3","images/tutrocket1","images/tutalien4","images/nothing.png","2","practice","false","0","2022-02-07 23:53:19.407","2","rare"
"two-step-fixation","105","309462","0.0-61.0-2.14","337","691","25","Male","false","true","false","true","""event"",""trial"",""time""
""fullscreenenter"",""5"",""9912""
","
","
","""event"",""trial"",""time""
""fullscreenenter"",""5"",""9912""
","
","","images/earth.jpg","","","","","","","","","","","","","","fixation","","","","","",""
"d3-animate-choice","106","312016","0.0-61.0-0.15","337","691","25","Male","false","true","false","true","""event"",""trial"",""time""
""fullscreenenter"",""5"",""9912""
","
","
","""event"",""trial"",""time""
""fullscreenenter"",""5"",""9912""
","
","549.2000000476837","","48","","","3000","1","2298.100000023842","49","images/earth.jpg","images/tutrocket1","images/tutrocket2","null","images/tutrocket1","","1","practice","null","","","2",""
"d3-animate-choice","107","315629","0.0-61.0-1.15","337","691","25","Male","false","true","false","true","""event"",""trial"",""time""
""fullscreenenter"",""5"",""9912""
","
","
","""event"",""trial"",""time""
""fullscreenenter"",""5"",""9912""
","
","1609.1000000238419","","48","","","3000","1","","","images/tutgreenplanet.jpg","images/tutalien2","images/tutalien1","images/tutrocket1","images/tutalien2","images/nothing.png","2","practice","true","0","2022-02-07 23:53:26.578","2","common"
"two-step-fixation","108","316632","0.0-61.0-2.15","337","691","25","Male","false","true","false","true","""event"",""trial"",""time""
""fullscreenenter"",""5"",""9912""
","
","
","""event"",""trial"",""time""
""fullscreenenter"",""5"",""9912""
","
","","images/earth.jpg","","","","","","","","","","","","","","fixation","","","","","",""
"d3-animate-choice","109","319044","0.0-61.0-0.16","337","691","25","Male","false","true","false","true","""event"",""trial"",""time""
""fullscreenenter"",""5"",""9912""
","
","
","""event"",""trial"",""time""
""fullscreenenter"",""5"",""9912""
","
","408","","48","","","3000","1","","","images/earth.jpg","images/tutrocket1","images/tutrocket2","null","images/tutrocket1","","1","practice","null","","","2",""
"d3-animate-choice","110","321517","0.0-61.0-1.16","337","691","25","Male","false","true","false","true","""event"",""trial"",""time""
""fullscreenenter"",""5"",""9912""
","
","
","""event"",""trial"",""time""
""fullscreenenter"",""5"",""9912""
","
","468.2999999523163","","48","","","3000","1","","","images/tutgreenplanet.jpg","images/tutalien2","images/tutalien1","images/tutrocket1","images/tutalien2","images/t.png","2","practice","true","1","2022-02-07 23:53:32.466","2","common"
"two-step-fixation","111","322519","0.0-61.0-2.16","337","691","25","Male","false","true","false","true","""event"",""trial"",""time""
""fullscreenenter"",""5"",""9912""
","
","
","""event"",""trial"",""time""
""fullscreenenter"",""5"",""9912""
","
","","images/earth.jpg","","","","","","","","","","","","","","fixation","","","","","",""
"d3-animate-choice","112","324953","0.0-61.0-0.17","337","691","25","Male","false","true","false","true","""event"",""trial"",""time""
""fullscreenenter"",""5"",""9912""
","
","
","""event"",""trial"",""time""
""fullscreenenter"",""5"",""9912""
","
","431","","48","","","3000","1","","","images/earth.jpg","images/tutrocket1","images/tutrocket2","null","images/tutrocket1","","1","practice","null","","","2",""
"d3-animate-choice","113","327529","0.0-61.0-1.17","337","691","25","Male","false","true","false","true","""event"",""trial"",""time""
""fullscreenenter"",""5"",""9912""
","
","
","""event"",""trial"",""time""
""fullscreenenter"",""5"",""9912""
","
","570.9000000953674","","48","","","3000","1","","","images/tutyellowplanet.jpg","images/tutalien4","images/tutalien3","images/tutrocket1","images/tutalien4","images/t.png","2","practice","false","1","2022-02-07 23:53:38.478","2","rare"
"two-step-fixation","114","328533","0.0-61.0-2.17","337","691","25","Male","false","true","false","true","""event"",""trial"",""time""
""fullscreenenter"",""5"",""9912""
","
","
","""event"",""trial"",""time""
""fullscreenenter"",""5"",""9912""
","
","","images/earth.jpg","","","","","","","","","","","","","","fixation","","","","","",""
"d3-animate-choice","115","331009","0.0-61.0-0.18","337","691","25","Male","false","true","false","true","""event"",""trial"",""time""
""fullscreenenter"",""5"",""9912""
","
","
","""event"",""trial"",""time""
""fullscreenenter"",""5"",""9912""
","
","469.7999999523163","","48","","","3000","1","","","images/earth.jpg","images/tutrocket1","images/tutrocket2","null","images/tutrocket1","","1","practice","null","","","2",""
"d3-animate-choice","116","334445","0.0-61.0-1.18","337","691","25","Male","false","true","false","true","""event"",""trial"",""time""
""fullscreenenter"",""5"",""9912""
","
","
","""event"",""trial"",""time""
""fullscreenenter"",""5"",""9912""
","
","1433.1000000238419","","49","","","3000","1","","","images/tutgreenplanet.jpg","images/tutalien2","images/tutalien1","images/tutrocket1","images/tutalien1","images/nothing.png","2","practice","true","0","2022-02-07 23:53:45.394","1","common"
"two-step-fixation","117","335449","0.0-61.0-2.18","337","691","25","Male","false","true","false","true","""event"",""trial"",""time""
""fullscreenenter"",""5"",""9912""
","
","
","""event"",""trial"",""time""
""fullscreenenter"",""5"",""9912""
","
","","images/earth.jpg","","","","","","","","","","","","","","fixation","","","","","",""
"d3-animate-choice","118","339453","0.0-61.0-0.19","337","691","25","Male","false","true","false","true","""event"",""trial"",""time""
""fullscreenenter"",""5"",""9912""
","
","
","""event"",""trial"",""time""
""fullscreenenter"",""5"",""9912""
","
","2232.7999999523163","","48","","","3000","1","","","images/earth.jpg","images/tutrocket1","images/tutrocket2","null","images/tutrocket1","","1","practice","null","","","2",""
"d3-animate-choice","119","343053","0.0-61.0-1.19","337","691","25","Male","false","true","false","true","""event"",""trial"",""time""
""fullscreenenter"",""5"",""9912""
","
","
","""event"",""trial"",""time""
""fullscreenenter"",""5"",""9912""
","
","1596.7000000476837","","48","","","3000","1","","","images/tutgreenplanet.jpg","images/tutalien2","images/tutalien1","images/tutrocket1","images/tutalien2","images/t.png","2","practice","true","1","2022-02-07 23:53:54.002","2","common"
"two-step-fixation","120","344058","0.0-61.0-2.19","337","691","25","Male","false","true","false","true","""event"",""trial"",""time""
""fullscreenenter"",""5"",""9912""
","
","
","""event"",""trial"",""time""
""fullscreenenter"",""5"",""9912""
","
","","images/earth.jpg","","","","","","","","","","","","","","fixation","","","","","",""
"d3-instructions","121","348719","0.0-62.0","337","691","25","Male","false","true","false","true","""event"",""trial"",""time""
""fullscreenenter"",""5"",""9912""
","
","
","""event"",""trial"",""time""
""fullscreenenter"",""5"",""9912""
","
","","","","","","","","","","","","","","","","","","","","","",""
"audio-keyboard-response","122","352262","0.0-63.0","337","691","25","Male","false","true","false","true","""event"",""trial"",""time""
""fullscreenenter"",""5"",""9912""
","
","
","""event"",""trial"",""time""
""fullscreenenter"",""5"",""9912""
","
","3539","audio/instructions/treasure_feedback.wav","32","","","","","","","","","","","","","","","","","","",""
"d3-instructions","123","368208","0.0-64.0","337","691","25","Male","false","true","false","true","""event"",""trial"",""time""
""fullscreenenter"",""5"",""9912""
","
","
","""event"",""trial"",""time""
""fullscreenenter"",""5"",""9912""
","
","","","","","","","","","","","","","","","","","","","","","",""
"d3-instructions","124","370120","0.0-65.0","337","691","25","Male","false","true","false","true","""event"",""trial"",""time""
""fullscreenenter"",""5"",""9912""
","
","
","""event"",""trial"",""time""
""fullscreenenter"",""5"",""9912""
","
","","","","","","","","","","","","","","","","","","","","","",""
"d3-instructions","125","372721","0.0-66.0","337","691","25","Male","false","true","false","true","""event"",""trial"",""time""
""fullscreenenter"",""5"",""9912""
","
","
","""event"",""trial"",""time""
""fullscreenenter"",""5"",""9912""
","
","","","","","","","","","","","","","","","","","","","","","",""
"d3-instructions","126","375112","0.0-67.0","337","691","25","Male","false","true","false","true","""event"",""trial"",""time""
""fullscreenenter"",""5"",""9912""
","
","
","""event"",""trial"",""time""
""fullscreenenter"",""5"",""9912""
","
","","","","","","","","","","","","","","","","","","","","","",""
"d3-instructions","127","377228","0.0-68.0","337","691","25","Male","false","true","false","true","""event"",""trial"",""time""
""fullscreenenter"",""5"",""9912""
","
","
","""event"",""trial"",""time""
""fullscreenenter"",""5"",""9912""
","
","","","","","","","","","","","","","","","","","","","","","",""
"instructions-quiz","128","380794","0.0-69.0","337","691","25","Male","false","true","false","true","""event"",""trial"",""time""
""fullscreenenter"",""5"",""9912""
","
","
","""event"",""trial"",""time""
""fullscreenenter"",""5"",""9912""
","
","3563.100000023842","audio/quiz/Q1_Prompt.wav","","1","","","","","","","","","","","","","","","","","",""
"audio-keyboard-response","129","389962","0.0-70.0","337","691","25","Male","false","true","false","true","""event"",""trial"",""time""
""fullscreenenter"",""5"",""9912""
","
","
","""event"",""trial"",""time""
""fullscreenenter"",""5"",""9912""
","
","null","audio/quiz/Q1_Correct.wav","null","","","","","","","","","","","","","","","","","","",""
"instructions-quiz","130","395877","0.0-71.0","337","691","25","Male","false","true","false","true","""event"",""trial"",""time""
""fullscreenenter"",""5"",""9912""
","
","
","""event"",""trial"",""time""
""fullscreenenter"",""5"",""9912""
","
","5913","audio/quiz/Q2_Prompt.wav","","1","","","","","","","","","","","","","","","","","",""
"audio-keyboard-response","131","397413","0.0-72.0","337","691","25","Male","false","true","false","true","""event"",""trial"",""time""
""fullscreenenter"",""5"",""9912""
","
","
","""event"",""trial"",""time""
""fullscreenenter"",""5"",""9912""
","
","1539","audio/quiz/Q2_Incorrect.wav","32","","","","","","","","","","","","","","","","","","",""
"instructions-quiz","132","400803","0.0-73.0","337","691","25","Male","false","true","false","true","""event"",""trial"",""time""
""fullscreenenter"",""5"",""9912""
","
","
","""event"",""trial"",""time""
""fullscreenenter"",""5"",""9912""
","
","3389.399999976158","audio/quiz/Q3_Prompt.wav","","1","","","","","","","","","","","","","","","","","",""
"audio-keyboard-response","133","402080","0.0-74.0","337","691","25","Male","false","true","false","true","""event"",""trial"",""time""
""fullscreenenter"",""5"",""9912""
","
","
","""event"",""trial"",""time""
""fullscreenenter"",""5"",""9912""
","
","1269","audio/quiz/Q3_Correct.wav","32","","","","","","","","","","","","","","","","","","",""
"d3-instructions","134","408610","0.0-75.0","337","691","25","Male","false","true","false","true","""event"",""trial"",""time""
""fullscreenenter"",""5"",""9912""
","
","
","""event"",""trial"",""time""
""fullscreenenter"",""5"",""9912""
","
","","","","","","","","","","","","","","","","","","","","","",""
"d3-animate-choice","135","411942","0.0-76.0-0.0","337","691","25","Male","false","true","false","true","""event"",""trial"",""time""
""fullscreenenter"",""5"",""9912""
","
","
","""event"",""trial"",""time""
""fullscreenenter"",""5"",""9912""
","
","1325.8000000715256","","48","","","3000","1","","","images/earth.jpg","images/rocket1","images/rocket2","null","images/rocket1","","1","real","null","","","2",""
"d3-animate-choice","136","414283","0.0-76.0-1.0","337","691","25","Male","false","true","false","true","""event"",""trial"",""time""
""fullscreenenter"",""5"",""9912""
","
","
","""event"",""trial"",""time""
""fullscreenenter"",""5"",""9912""
","
","327.7000000476837","","48","","","3000","1","","","images/redplanet1.jpg","images/alien2","images/alien1","images/rocket1","images/alien2","images/t.png","2","real","true","1","2022-02-07 23:55:05.232","2","common"
"two-step-fixation","137","415288","0.0-76.0-2.0","337","691","25","Male","false","true","false","true","""event"",""trial"",""time""
""fullscreenenter"",""5"",""9912""
","
","
","""event"",""trial"",""time""
""fullscreenenter"",""5"",""9912""
","
","","images/earth.jpg","","","","","","","","","","","","","","fixation","","","","","",""
"d3-animate-choice","138","417391","0.0-76.0-0.1","337","691","25","Male","false","true","false","true","""event"",""trial"",""time""
""fullscreenenter"",""5"",""9912""
","
","
","""event"",""trial"",""time""
""fullscreenenter"",""5"",""9912""
","
","92.19999992847443","","48","","","3000","1","","","images/earth.jpg","images/rocket1","images/rocket2","null","images/rocket1","","1","real","null","","","2",""
"d3-animate-choice","139","419631","0.0-76.0-1.1","337","691","25","Male","false","true","false","true","""event"",""trial"",""time""
""fullscreenenter"",""5"",""9912""
","
","
","""event"",""trial"",""time""
""fullscreenenter"",""5"",""9912""
","
","230.29999995231628","","48","","","3000","1","2083","48","images/redplanet1.jpg","images/alien2","images/alien1","images/rocket1","images/alien2","images/t.png","2","real","true","1","2022-02-07 23:55:10.580","2","common"
"two-step-fixation","140","420651","0.0-76.0-2.1","337","691","25","Male","false","true","false","true","""event"",""trial"",""time""
""fullscreenenter"",""5"",""9912""
","
","
","""event"",""trial"",""time""
""fullscreenenter"",""5"",""9912""
","
","","images/earth.jpg","","","","","","","","","","","","","","fixation","","","","","",""
"d3-animate-choice","141","423000","0.0-76.0-0.2","337","691","25","Male","false","true","false","true","""event"",""trial"",""time""
""fullscreenenter"",""5"",""9912""
","
","
","""event"",""trial"",""time""
""fullscreenenter"",""5"",""9912""
","
","328.10000002384186","","48","","","3000","1","2297.600000023842","48","images/earth.jpg","images/rocket1","images/rocket2","null","images/rocket1","","1","real","null","","","2",""
"d3-animate-choice","142","425475","0.0-76.0-1.2","337","691","25","Male","false","true","false","true","""event"",""trial"",""time""
""fullscreenenter"",""5"",""9912""
","
","
","""event"",""trial"",""time""
""fullscreenenter"",""5"",""9912""
","
","472.60000002384186","","48","","","3000","1","2310.7999999523163","48","images/redplanet1.jpg","images/alien2","images/alien1","images/rocket1","images/alien2","images/t.png","2","real","true","1","2022-02-07 23:55:16.424","2","common"
"two-step-fixation","143","426479","0.0-76.0-2.2","337","691","25","Male","false","true","false","true","""event"",""trial"",""time""
""fullscreenenter"",""5"",""9912""
","
","
","""event"",""trial"",""time""
""fullscreenenter"",""5"",""9912""
","
","","images/earth.jpg","","","","","","","","","","","","","","fixation","","","","","",""
"d3-animate-choice","144","428742","0.0-76.0-0.3","337","691","25","Male","false","true","false","true","""event"",""trial"",""time""
""fullscreenenter"",""5"",""9912""
","
","
","""event"",""trial"",""time""
""fullscreenenter"",""5"",""9912""
","
","257.1999999284744","","48","","","3000","1","2212.2999999523163","48","images/earth.jpg","images/rocket1","images/rocket2","null","images/rocket1","","1","real","null","","","2",""
"d3-animate-choice","145","431784","0.0-76.0-1.3","337","691","25","Male","false","true","false","true","""event"",""trial"",""time""
""fullscreenenter"",""5"",""9912""
","
","
","""event"",""trial"",""time""
""fullscreenenter"",""5"",""9912""
","
","1037.8999999761581","","48","","","3000","1","2914.100000023842","48","images/purpleplanet.jpg","images/alien4","images/alien3","images/rocket1","images/alien4","images/t.png","2","real","false","1","2022-02-07 23:55:22.733","2","rare"
"two-step-fixation","146","432788","0.0-76.0-2.3","337","691","25","Male","false","true","false","true","""event"",""trial"",""time""
""fullscreenenter"",""5"",""9912""
","
","
","""event"",""trial"",""time""
""fullscreenenter"",""5"",""9912""
","
","","images/earth.jpg","","","","","","","","","","","","","","fixation","","","","","",""
"d3-animate-choice","147","435057","0.0-76.0-0.4","337","691","25","Male","false","true","false","true","""event"",""trial"",""time""
""fullscreenenter"",""5"",""9912""
","
","
","""event"",""trial"",""time""
""fullscreenenter"",""5"",""9912""
","
","264.7999999523163","","48","","","3000","1","","","images/earth.jpg","images/rocket1","images/rocket2","null","images/rocket1","","1","real","null","","","2",""
"d3-animate-choice","148","437452","0.0-76.0-1.4","337","691","25","Male","false","true","false","true","""event"",""trial"",""time""
""fullscreenenter"",""5"",""9912""
","
","
","""event"",""trial"",""time""
""fullscreenenter"",""5"",""9912""
","
","375","","48","","","3000","1","2289","48","images/redplanet1.jpg","images/alien2","images/alien1","images/rocket1","images/alien2","images/t.png","2","real","true","1","2022-02-07 23:55:28.401","2","common"
"two-step-fixation","149","438457","0.0-76.0-2.4","337","691","25","Male","false","true","false","true","""event"",""trial"",""time""
""fullscreenenter"",""5"",""9912""
","
","
","""event"",""trial"",""time""
""fullscreenenter"",""5"",""9912""
","
","","images/earth.jpg","","","","","","","","","","","","","","fixation","","","","","",""
"d3-animate-choice","150","441448","0.0-76.0-0.5","337","691","25","Male","false","true","false","true","""event"",""trial"",""time""
""fullscreenenter"",""5"",""9912""
","
","
","""event"",""trial"",""time""
""fullscreenenter"",""5"",""9912""
","
","986.3000000715256","","48","","","3000","1","","","images/earth.jpg","images/rocket1","images/rocket2","null","images/rocket1","","1","real","null","","","2",""
"d3-animate-choice","151","443773","0.0-76.0-1.5","337","691","25","Male","false","true","false","true","""event"",""trial"",""time""
""fullscreenenter"",""5"",""9912""
","
","
","""event"",""trial"",""time""
""fullscreenenter"",""5"",""9912""
","
","320.5","","48","","","3000","1","","","images/redplanet1.jpg","images/alien2","images/alien1","images/rocket1","images/alien2","images/t.png","2","real","true","1","2022-02-07 23:55:34.722","2","common"
"two-step-fixation","152","444779","0.0-76.0-2.5","337","691","25","Male","false","true","false","true","""event"",""trial"",""time""
""fullscreenenter"",""5"",""9912""
","
","
","""event"",""trial"",""time""
""fullscreenenter"",""5"",""9912""
","
","","images/earth.jpg","","","","","","","","","","","","","","fixation","","","","","",""
"d3-animate-choice","153","447200","0.0-76.0-0.6","337","691","25","Male","false","true","false","true","""event"",""trial"",""time""
""fullscreenenter"",""5"",""9912""
","
","
","""event"",""trial"",""time""
""fullscreenenter"",""5"",""9912""
","
","417.7000000476837","","48","","","3000","1","2024.5","48","images/earth.jpg","images/rocket1","images/rocket2","null","images/rocket1","","1","real","null","","","2",""
"d3-animate-choice","154","449737","0.0-76.0-1.6","337","691","25","Male","false","true","false","true","""event"",""trial"",""time""
""fullscreenenter"",""5"",""9912""
","
","
","""event"",""trial"",""time""
""fullscreenenter"",""5"",""9912""
","
","533.1999999284744","","48","","","3000","1","","","images/redplanet1.jpg","images/alien2","images/alien1","images/rocket1","images/alien2","images/t.png","2","real","true","1","2022-02-07 23:55:40.686","2","common"
"two-step-fixation","155","450742","0.0-76.0-2.6","337","691","25","Male","false","true","false","true","""event"",""trial"",""time""
""fullscreenenter"",""5"",""9912""
","
","
","""event"",""trial"",""time""
""fullscreenenter"",""5"",""9912""
","
","","images/earth.jpg","","","","","","","","","","","","","","fixation","","","","","",""
"d3-animate-choice","156","452990","0.0-76.0-0.7","337","691","25","Male","false","true","false","true","""event"",""trial"",""time""
""fullscreenenter"",""5"",""9912""
","
","
","""event"",""trial"",""time""
""fullscreenenter"",""5"",""9912""
","
","243.90000009536743","","48","","","3000","1","2164.7000000476837","48","images/earth.jpg","images/rocket1","images/rocket2","null","images/rocket1","","1","real","null","","","2",""
"d3-animate-choice","157","455613","0.0-76.0-1.7","337","691","25","Male","false","true","false","true","""event"",""trial"",""time""
""fullscreenenter"",""5"",""9912""
","
","
","""event"",""trial"",""time""
""fullscreenenter"",""5"",""9912""
","
","618.5","","48","","","3000","1","","","images/redplanet1.jpg","images/alien2","images/alien1","images/rocket1","images/alien2","images/t.png","2","real","true","1","2022-02-07 23:55:46.562","2","common"
"two-step-fixation","158","456618","0.0-76.0-2.7","337","691","25","Male","false","true","false","true","""event"",""trial"",""time""
""fullscreenenter"",""5"",""9912""
","
","
","""event"",""trial"",""time""
""fullscreenenter"",""5"",""9912""
","
","","images/earth.jpg","","","","","","","","","","","","","","fixation","","","","","",""
"d3-animate-choice","159","459516","0.0-76.0-0.8","337","691","25","Male","false","true","false","true","""event"",""trial"",""time""
""fullscreenenter"",""5"",""9912""
","
","
","""event"",""trial"",""time""
""fullscreenenter"",""5"",""9912""
","
","892.1999999284744","","48","","","3000","1","","","images/earth.jpg","images/rocket1","images/rocket2","null","images/rocket1","","1","real","null","","","2",""
"d3-animate-choice","160","462079","0.0-76.0-1.8","337","691","25","Male","false","true","false","true","""event"",""trial"",""time""
""fullscreenenter"",""5"",""9912""
","
","
","""event"",""trial"",""time""
""fullscreenenter"",""5"",""9912""
","
","559","","48","","","3000","1","","","images/redplanet1.jpg","images/alien2","images/alien1","images/rocket1","images/alien2","images/nothing.png","2","real","true","0","2022-02-07 23:55:53.028","2","common"
"two-step-fixation","161","463083","0.0-76.0-2.8","337","691","25","Male","false","true","false","true","""event"",""trial"",""time""
""fullscreenenter"",""5"",""9912""
","
","
","""event"",""trial"",""time""
""fullscreenenter"",""5"",""9912""
","
","","images/earth.jpg","","","","","","","","","","","","","","fixation","","","","","",""
"d3-animate-choice","162","466858","0.0-76.0-0.9","337","691","25","Male","false","true","false","true","""event"",""trial"",""time""
""fullscreenenter"",""5"",""9912""
","
","
","""event"",""trial"",""time""
""fullscreenenter"",""5"",""9912""
","
","1770.7000000476837","","48","","","3000","1","","","images/earth.jpg","images/rocket1","images/rocket2","null","images/rocket1","","1","real","null","","","2",""
"d3-animate-choice","163","469575","0.0-76.0-1.9","337","691","25","Male","false","true","false","true","""event"",""trial"",""time""
""fullscreenenter"",""5"",""9912""
","
","
","""event"",""trial"",""time""
""fullscreenenter"",""5"",""9912""
","
","711.6999999284744","","48","","","3000","1","","","images/purpleplanet.jpg","images/alien4","images/alien3","images/rocket1","images/alien4","images/t.png","2","real","false","1","2022-02-07 23:56:00.524","2","rare"
"two-step-fixation","164","470580","0.0-76.0-2.9","337","691","25","Male","false","true","false","true","""event"",""trial"",""time""
""fullscreenenter"",""5"",""9912""
","
","
","""event"",""trial"",""time""
""fullscreenenter"",""5"",""9912""
","
","","images/earth.jpg","","","","","","","","","","","","","","fixation","","","","","",""
"d3-animate-choice","165","472813","0.0-76.0-0.10","337","691","25","Male","false","true","false","true","""event"",""trial"",""time""
""fullscreenenter"",""5"",""9912""
","
","
","""event"",""trial"",""time""
""fullscreenenter"",""5"",""9912""
","
","230.80000007152557","","48","","","3000","1","","","images/earth.jpg","images/rocket1","images/rocket2","null","images/rocket1","","1","real","null","","","2",""
"d3-animate-choice","166","475206","0.0-76.0-1.10","337","691","25","Male","false","true","false","true","""event"",""trial"",""time""
""fullscreenenter"",""5"",""9912""
","
","
","""event"",""trial"",""time""
""fullscreenenter"",""5"",""9912""
","
","389.8000000715256","","48","","","3000","1","1993.7000000476837","48","images/redplanet1.jpg","images/alien2","images/alien1","images/rocket1","images/alien2","images/nothing.png","2","real","true","0","2022-02-07 23:56:06.155","2","common"
"two-step-fixation","167","476210","0.0-76.0-2.10","337","691","25","Male","false","true","false","true","""event"",""trial"",""time""
""fullscreenenter"",""5"",""9912""
","
","
","""event"",""trial"",""time""
""fullscreenenter"",""5"",""9912""
","
","","images/earth.jpg","","","","","","","","","","","","","","fixation","","","","","",""
"d3-animate-choice","168","479534","0.0-76.0-0.11","337","691","25","Male","false","true","false","true","""event"",""trial"",""time""
""fullscreenenter"",""5"",""9912""
","
","
","""event"",""trial"",""time""
""fullscreenenter"",""5"",""9912""
","
","1319.2999999523163","","48","","","3000","1","","","images/earth.jpg","images/rocket1","images/rocket2","null","images/rocket1","","1","real","null","","","2",""
"d3-animate-choice","169","483538","0.0-76.0-1.11","337","691","25","Male","false","true","false","true","""event"",""trial"",""time""
""fullscreenenter"",""5"",""9912""
","
","
","""event"",""trial"",""time""
""fullscreenenter"",""5"",""9912""
","
","2260.899999976158","","48","","","3000","1","","","images/purpleplanet.jpg","images/alien4","images/alien3","images/rocket1","images/alien4","images/t.png","2","real","false","1","2022-02-07 23:56:14.487","2","rare"
"two-step-fixation","170","484541","0.0-76.0-2.11","337","691","25","Male","false","true","false","true","""event"",""trial"",""time""
""fullscreenenter"",""5"",""9912""
","
","
","""event"",""trial"",""time""
""fullscreenenter"",""5"",""9912""
","
","","images/earth.jpg","","","","","","","","","","","","","","fixation","","","","","",""
"d3-animate-choice","171","487100","0.0-76.0-0.12","337","691","25","Male","false","true","false","true","""event"",""trial"",""time""
""fullscreenenter"",""5"",""9912""
","
","
","""event"",""trial"",""time""
""fullscreenenter"",""5"",""9912""
","
","554.7999999523163","","48","","","3000","1","","","images/earth.jpg","images/rocket1","images/rocket2","null","images/rocket1","","1","real","null","","","2",""
"d3-animate-choice","172","490239","0.0-76.0-1.12","337","691","25","Male","false","true","false","true","""event"",""trial"",""time""
""fullscreenenter"",""5"",""9912""
","
","
","""event"",""trial"",""time""
""fullscreenenter"",""5"",""9912""
","
","1134.2999999523163","","48","","","3000","1","3070.100000023842","48","images/redplanet1.jpg","images/alien2","images/alien1","images/rocket1","images/alien2","images/t.png","2","real","true","1","2022-02-07 23:56:21.188","2","common"
"two-step-fixation","173","491243","0.0-76.0-2.12","337","691","25","Male","false","true","false","true","""event"",""trial"",""time""
""fullscreenenter"",""5"",""9912""
","
","
","""event"",""trial"",""time""
""fullscreenenter"",""5"",""9912""
","
","","images/earth.jpg","","","","","","","","","","","","","","fixation","","","","","",""
"d3-animate-choice","174","493312","0.0-76.0-0.13","337","691","25","Male","false","true","false","true","""event"",""trial"",""time""
""fullscreenenter"",""5"",""9912""
","
","
","""event"",""trial"",""time""
""fullscreenenter"",""5"",""9912""
","
","65.20000004768372","","48","","","3000","1","","","images/earth.jpg","images/rocket1","images/rocket2","null","images/rocket1","","1","real","null","","","2",""
"d3-animate-choice","175","495935","0.0-76.0-1.13","337","691","25","Male","false","true","false","true","""event"",""trial"",""time""
""fullscreenenter"",""5"",""9912""
","
","
","""event"",""trial"",""time""
""fullscreenenter"",""5"",""9912""
","
","619","","48","","","3000","1","1955.6000000238419","48","images/redplanet1.jpg","images/alien2","images/alien1","images/rocket1","images/alien2","images/nothing.png","2","real","true","0","2022-02-07 23:56:26.884","2","common"
"two-step-fixation","176","496937","0.0-76.0-2.13","337","691","25","Male","false","true","false","true","""event"",""trial"",""time""
""fullscreenenter"",""5"",""9912""
","
","
","""event"",""trial"",""time""
""fullscreenenter"",""5"",""9912""
","
","","images/earth.jpg","","","","","","","","","","","","","","fixation","","","","","",""
"d3-animate-choice","177","499623","0.0-76.0-0.14","337","691","25","Male","false","true","false","true","""event"",""trial"",""time""
""fullscreenenter"",""5"",""9912""
","
","
","""event"",""trial"",""time""
""fullscreenenter"",""5"",""9912""
","
","680.6000000238419","","48","","","3000","1","1724.6999999284744","48","images/earth.jpg","images/rocket1","images/rocket2","null","images/rocket1","","1","real","null","","","2",""
"d3-animate-choice","178","503116","0.0-76.0-1.14","337","691","25","Male","false","true","false","true","""event"",""trial"",""time""
""fullscreenenter"",""5"",""9912""
","
","
","""event"",""trial"",""time""
""fullscreenenter"",""5"",""9912""
","
","1489.5","","48","","","3000","1","","","images/purpleplanet.jpg","images/alien4","images/alien3","images/rocket1","images/alien4","images/t.png","2","real","false","1","2022-02-07 23:56:34.065","2","rare"
"two-step-fixation","179","504119","0.0-76.0-2.14","337","691","25","Male","false","true","false","true","""event"",""trial"",""time""
""fullscreenenter"",""5"",""9912""
","
","
","""event"",""trial"",""time""
""fullscreenenter"",""5"",""9912""
","
","","images/earth.jpg","","","","","","","","","","","","","","fixation","","","","","",""
"d3-animate-choice","180","508124","0.0-76.0-0.15","337","691","25","Male","false","true","false","true","""event"",""trial"",""time""
""fullscreenenter"",""5"",""9912""
","
","
","""event"",""trial"",""time""
""fullscreenenter"",""5"",""9912""
","
","null","","null","","","3000","0","","","images/earth.jpg","images/rocket1","images/rocket2","null","","","1","real","null","","","",""
"d3-animate-choice","181","509132","0.0-76.0-1.15","337","691","25","Male","false","true","false","true","""event"",""trial"",""time""
""fullscreenenter"",""5"",""9912""
","
","
","""event"",""trial"",""time""
""fullscreenenter"",""5"",""9912""
","
","19.799999952316284","","48","","","0","0","","","images/earth.jpg","images/rocket1","images/rocket2","null","","","2","real","null","0","2022-02-07 23:56:40.081","2",""
"two-step-fixation","182","510135","0.0-76.0-2.15","337","691","25","Male","false","true","false","true","""event"",""trial"",""time""
""fullscreenenter"",""5"",""9912""
","
","
","""event"",""trial"",""time""
""fullscreenenter"",""5"",""9912""
","
","","images/earth.jpg","","","","","","","","","","","","","","fixation","","","","","",""
"d3-animate-choice","183","513029","0.0-76.0-0.16","337","691","25","Male","false","true","false","true","""event"",""trial"",""time""
""fullscreenenter"",""5"",""9912""
","
","
","""event"",""trial"",""time""
""fullscreenenter"",""5"",""9912""
","
","892.1999999284744","","48","","","3000","1","2271.5","48","images/earth.jpg","images/rocket1","images/rocket2","null","images/rocket1","","1","real","null","","","2",""
"d3-animate-choice","184","515830","0.0-76.0-1.16","337","691","25","Male","false","true","false","true","""event"",""trial"",""time""
""fullscreenenter"",""5"",""9912""
","
","
","""event"",""trial"",""time""
""fullscreenenter"",""5"",""9912""
","
","797","","48","","","3000","1","","","images/redplanet1.jpg","images/alien2","images/alien1","images/rocket1","images/alien2","images/nothing.png","2","real","true","0","2022-02-07 23:56:46.780","2","common"
"two-step-fixation","185","516834","0.0-76.0-2.16","337","691","25","Male","false","true","false","true","""event"",""trial"",""time""
""fullscreenenter"",""5"",""9912""
","
","
","""event"",""trial"",""time""
""fullscreenenter"",""5"",""9912""
","
","","images/earth.jpg","","","","","","","","","","","","","","fixation","","","","","",""
"d3-animate-choice","186","519738","0.0-76.0-0.17","337","691","25","Male","false","true","false","true","""event"",""trial"",""time""
""fullscreenenter"",""5"",""9912""
","
","
","""event"",""trial"",""time""
""fullscreenenter"",""5"",""9912""
","
","899.3000000715256","","48","","","3000","1","","","images/earth.jpg","images/rocket1","images/rocket2","null","images/rocket1","","1","real","null","","","2",""
"d3-animate-choice","187","522342","0.0-76.0-1.17","337","691","25","Male","false","true","false","true","""event"",""trial"",""time""
""fullscreenenter"",""5"",""9912""
","
","
","""event"",""trial"",""time""
""fullscreenenter"",""5"",""9912""
","
","598.2999999523163","","48","","","3000","1","1849.7999999523163","48","images/redplanet1.jpg","images/alien2","images/alien1","images/rocket1","images/alien2","images/t.png","2","real","true","1","2022-02-07 23:56:53.291","2","common"
"two-step-fixation","188","523346","0.0-76.0-2.17","337","691","25","Male","false","true","false","true","""event"",""trial"",""time""
""fullscreenenter"",""5"",""9912""
","
","
","""event"",""trial"",""time""
""fullscreenenter"",""5"",""9912""
","
","","images/earth.jpg","","","","","","","","","","","","","","fixation","","","","","",""
"d3-animate-choice","189","525709","0.0-76.0-0.18","337","691","25","Male","false","true","false","true","""event"",""trial"",""time""
""fullscreenenter"",""5"",""9912""
","
","
","""event"",""trial"",""time""
""fullscreenenter"",""5"",""9912""
","
","358.7999999523163","","48","","","3000","1","1948.3999999761581","48","images/earth.jpg","images/rocket1","images/rocket2","null","images/rocket1","","1","real","null","","","2",""
"d3-animate-choice","190","528717","0.0-76.0-1.18","337","691","25","Male","false","true","false","true","""event"",""trial"",""time""
""fullscreenenter"",""5"",""9912""
","
","
","""event"",""trial"",""time""
""fullscreenenter"",""5"",""9912""
","
","1004.3999999761581","","48","","","3000","1","","","images/redplanet1.jpg","images/alien2","images/alien1","images/rocket1","images/alien2","images/nothing.png","2","real","true","0","2022-02-07 23:56:59.667","2","common"
"two-step-fixation","191","529722","0.0-76.0-2.18","337","691","25","Male","false","true","false","true","""event"",""trial"",""time""
""fullscreenenter"",""5"",""9912""
","
","
","""event"",""trial"",""time""
""fullscreenenter"",""5"",""9912""
","
","","images/earth.jpg","","","","","","","","","","","","","","fixation","","","","","",""
"d3-animate-choice","192","532034","0.0-76.0-0.19","337","691","25","Male","false","true","false","true","""event"",""trial"",""time""
""fullscreenenter"",""5"",""9912""
","
","
","""event"",""trial"",""time""
""fullscreenenter"",""5"",""9912""
","
","309.60000002384186","","49","","","3000","1","584.1999999284744,796.7999999523163","49,49","images/earth.jpg","images/rocket1","images/rocket2","null","images/rocket2","","1","real","null","","","1",""
"d3-animate-choice","193","534355","0.0-76.0-1.19","337","691","25","Male","false","true","false","true","""event"",""trial"",""time""
""fullscreenenter"",""5"",""9912""
","
","
","""event"",""trial"",""time""
""fullscreenenter"",""5"",""9912""
","
","317.6999999284744","","49","","","3000","1","2263.100000023842","49","images/purpleplanet.jpg","images/alien4","images/alien3","images/rocket2","images/alien3","images/t.png","2","real","true","1","2022-02-07 23:57:05.304","1","common"
"two-step-fixation","194","535360","0.0-76.0-2.19","337","691","25","Male","false","true","false","true","""event"",""trial"",""time""
""fullscreenenter"",""5"",""9912""
","
","
","""event"",""trial"",""time""
""fullscreenenter"",""5"",""9912""
","
","","images/earth.jpg","","","","","","","","","","","","","","fixation","","","","","",""
"d3-animate-choice","195","537509","0.0-76.0-0.20","337","691","25","Male","false","true","false","true","""event"",""trial"",""time""
""fullscreenenter"",""5"",""9912""
","
","
","""event"",""trial"",""time""
""fullscreenenter"",""5"",""9912""
","
","145.90000009536743","","49","","","3000","1","399,642.4000000953674,895.2000000476837,1149.8000000715256,1409.5","49,49,49,49,49","images/earth.jpg","images/rocket1","images/rocket2","null","images/rocket2","","1","real","null","","","1",""
"d3-animate-choice","196","540809","0.0-76.0-1.20","337","691","25","Male","false","true","false","true","""event"",""trial"",""time""
""fullscreenenter"",""5"",""9912""
","
","
","""event"",""trial"",""time""
""fullscreenenter"",""5"",""9912""
","
","1296.5","","49","","","3000","1","2023.4000000953674,2951","49,49","images/purpleplanet.jpg","images/alien4","images/alien3","images/rocket2","images/alien3","images/nothing.png","2","real","true","0","2022-02-07 23:57:11.758","1","common"
"two-step-fixation","197","541812","0.0-76.0-2.20","337","691","25","Male","false","true","false","true","""event"",""trial"",""time""
""fullscreenenter"",""5"",""9912""
","
","
","""event"",""trial"",""time""
""fullscreenenter"",""5"",""9912""
","
","","images/earth.jpg","","","","","","","","","","","","","","fixation","","","","","",""
"d3-animate-choice","198","544310","0.0-76.0-0.21","337","691","25","Male","false","true","false","true","""event"",""trial"",""time""
""fullscreenenter"",""5"",""9912""
","
","
","""event"",""trial"",""time""
""fullscreenenter"",""5"",""9912""
","
","495.10000002384186","","49","","","3000","1","1865.1000000238419","49","images/earth.jpg","images/rocket1","images/rocket2","null","images/rocket2","","1","real","null","","","1",""
"d3-animate-choice","199","546832","0.0-76.0-1.21","337","691","25","Male","false","true","false","true","""event"",""trial"",""time""
""fullscreenenter"",""5"",""9912""
","
","
","""event"",""trial"",""time""
""fullscreenenter"",""5"",""9912""
","
","517.6000000238419","","49","","","3000","1","1505.2999999523163","49","images/redplanet1.jpg","images/alien2","images/alien1","images/rocket2","images/alien1","images/nothing.png","2","real","false","0","2022-02-07 23:57:17.781","1","rare"
"two-step-fixation","200","547837","0.0-76.0-2.21","337","691","25","Male","false","true","false","true","""event"",""trial"",""time""
""fullscreenenter"",""5"",""9912""
","
","
","""event"",""trial"",""time""
""fullscreenenter"",""5"",""9912""
","
","","images/earth.jpg","","","","","","","","","","","","","","fixation","","","","","",""
"d3-animate-choice","201","550689","0.0-76.0-0.22","337","691","25","Male","false","true","false","true","""event"",""trial"",""time""
""fullscreenenter"",""5"",""9912""
","
","
","""event"",""trial"",""time""
""fullscreenenter"",""5"",""9912""
","
","848.8999999761581","","49","","","3000","1","1988","49","images/earth.jpg","images/rocket1","images/rocket2","null","images/rocket2","","1","real","null","","","1",""
"d3-animate-choice","202","553080","0.0-76.0-1.22","337","691","25","Male","false","true","false","true","""event"",""trial"",""time""
""fullscreenenter"",""5"",""9912""
","
","
","""event"",""trial"",""time""
""fullscreenenter"",""5"",""9912""
","
","387","","49","","","3000","1","2147.1999999284744","49","images/redplanet1.jpg","images/alien2","images/alien1","images/rocket2","images/alien1","images/t.png","2","real","false","1","2022-02-07 23:57:24.029","1","rare"
"two-step-fixation","203","554084","0.0-76.0-2.22","337","691","25","Male","false","true","false","true","""event"",""trial"",""time""
""fullscreenenter"",""5"",""9912""
","
","
","""event"",""trial"",""time""
""fullscreenenter"",""5"",""9912""
","
","","images/earth.jpg","","","","","","","","","","","","","","fixation","","","","","",""
"d3-animate-choice","204","556441","0.0-76.0-0.23","337","691","25","Male","false","true","false","true","""event"",""trial"",""time""
""fullscreenenter"",""5"",""9912""
","
","
","""event"",""trial"",""time""
""fullscreenenter"",""5"",""9912""
","
","353","","49","","","3000","1","1625.1999999284744","49","images/earth.jpg","images/rocket1","images/rocket2","null","images/rocket2","","1","real","null","","","1",""
"d3-animate-choice","205","559103","0.0-76.0-1.23","337","691","25","Male","false","true","false","true","""event"",""trial"",""time""
""fullscreenenter"",""5"",""9912""
","
","
","""event"",""trial"",""time""
""fullscreenenter"",""5"",""9912""
","
","658.3999999761581","","49","","","3000","1","2539.5","49","images/purpleplanet.jpg","images/alien4","images/alien3","images/rocket2","images/alien3","images/nothing.png","2","real","true","0","2022-02-07 23:57:30.052","1","common"
"two-step-fixation","206","560107","0.0-76.0-2.23","337","691","25","Male","false","true","false","true","""event"",""trial"",""time""
""fullscreenenter"",""5"",""9912""
","
","
","""event"",""trial"",""time""
""fullscreenenter"",""5"",""9912""
","
","","images/earth.jpg","","","","","","","","","","","","","","fixation","","","","","",""
"d3-animate-choice","207","562431","0.0-76.0-0.24","337","691","25","Male","false","true","false","true","""event"",""trial"",""time""
""fullscreenenter"",""5"",""9912""
","
","
","""event"",""trial"",""time""
""fullscreenenter"",""5"",""9912""
","
","318.7999999523163","","48","","","3000","1","816.8999999761581","48","images/earth.jpg","images/rocket1","images/rocket2","null","images/rocket1","","1","real","null","","","2",""
"d3-animate-choice","208","564516","0.0-76.0-1.24","337","691","25","Male","false","true","false","true","""event"",""trial"",""time""
""fullscreenenter"",""5"",""9912""
","
","
","""event"",""trial"",""time""
""fullscreenenter"",""5"",""9912""
","
","81","","48","","","3000","1","1132.2999999523163","48","images/redplanet1.jpg","images/alien2","images/alien1","images/rocket1","images/alien2","images/t.png","2","real","true","1","2022-02-07 23:57:35.465","2","common"
"two-step-fixation","209","565521","0.0-76.0-2.24","337","691","25","Male","false","true","false","true","""event"",""trial"",""time""
""fullscreenenter"",""5"",""9912""
","
","
","""event"",""trial"",""time""
""fullscreenenter"",""5"",""9912""
","
","","images/earth.jpg","","","","","","","","","","","","","","fixation","","","","","",""
"d3-animate-choice","210","568526","0.0-76.0-0.25","337","691","25","Male","false","true","false","true","""event"",""trial"",""time""
""fullscreenenter"",""5"",""9912""
","
","
","""event"",""trial"",""time""
""fullscreenenter"",""5"",""9912""
","
","1002.2000000476837","","49","","","3000","1","1901.3000000715256,2946.7000000476837","48,49","images/earth.jpg","images/rocket1","images/rocket2","null","images/rocket2","","1","real","null","","","1",""
"d3-animate-choice","211","571389","0.0-76.0-1.25","337","691","25","Male","false","true","false","true","""event"",""trial"",""time""
""fullscreenenter"",""5"",""9912""
","
","
","""event"",""trial"",""time""
""fullscreenenter"",""5"",""9912""
","
","860","","48","","","3000","1","1931","49","images/purpleplanet.jpg","images/alien4","images/alien3","images/rocket2","images/alien4","images/t.png","2","real","true","1","2022-02-07 23:57:42.338","2","common"
"two-step-fixation","212","572392","0.0-76.0-2.25","337","691","25","Male","false","true","false","true","""event"",""trial"",""time""
""fullscreenenter"",""5"",""9912""
","
","
","""event"",""trial"",""time""
""fullscreenenter"",""5"",""9912""
","
","","images/earth.jpg","","","","","","","","","","","","","","fixation","","","","","",""
"d3-animate-choice","213","574777","0.0-76.0-0.26","337","691","25","Male","false","true","false","true","""event"",""trial"",""time""
""fullscreenenter"",""5"",""9912""
","
","
","""event"",""trial"",""time""
""fullscreenenter"",""5"",""9912""
","
","381","","48","","","3000","1","1532.5999999046326","48","images/earth.jpg","images/rocket1","images/rocket2","null","images/rocket1","","1","real","null","","","2",""
"d3-animate-choice","214","577085","0.0-76.0-1.26","337","691","25","Male","false","true","false","true","""event"",""trial"",""time""
""fullscreenenter"",""5"",""9912""
","
","
","""event"",""trial"",""time""
""fullscreenenter"",""5"",""9912""
","
","306","","48","","","3000","1","1065.3000000715256,2102.2000000476837","48,48","images/redplanet1.jpg","images/alien2","images/alien1","images/rocket1","images/alien2","images/t.png","2","real","true","1","2022-02-07 23:57:48.034","2","common"
"two-step-fixation","215","578090","0.0-76.0-2.26","337","691","25","Male","false","true","false","true","""event"",""trial"",""time""
""fullscreenenter"",""5"",""9912""
","
","
","""event"",""trial"",""time""
""fullscreenenter"",""5"",""9912""
","
","","images/earth.jpg","","","","","","","","","","","","","","fixation","","","","","",""
"d3-animate-choice","216","580797","0.0-76.0-0.27","337","691","25","Male","false","true","false","true","""event"",""trial"",""time""
""fullscreenenter"",""5"",""9912""
","
","
","""event"",""trial"",""time""
""fullscreenenter"",""5"",""9912""
","
","703.3000000715256","","48","","","3000","1","2226.5","48","images/earth.jpg","images/rocket1","images/rocket2","null","images/rocket1","","1","real","null","","","2",""
"d3-animate-choice","217","583420","0.0-76.0-1.27","337","691","25","Male","false","true","false","true","""event"",""trial"",""time""
""fullscreenenter"",""5"",""9912""
","
","
","""event"",""trial"",""time""
""fullscreenenter"",""5"",""9912""
","
","620.3000000715256","","48","","","3000","1","","","images/redplanet1.jpg","images/alien2","images/alien1","images/rocket1","images/alien2","images/t.png","2","real","true","1","2022-02-07 23:57:54.369","2","common"
"two-step-fixation","218","584424","0.0-76.0-2.27","337","691","25","Male","false","true","false","true","""event"",""trial"",""time""
""fullscreenenter"",""5"",""9912""
","
","
","""event"",""trial"",""time""
""fullscreenenter"",""5"",""9912""
","
","","images/earth.jpg","","","","","","","","","","","","","","fixation","","","","","",""
"d3-animate-choice","219","586927","0.0-76.0-0.28","337","691","25","Male","false","true","false","true","""event"",""trial"",""time""
""fullscreenenter"",""5"",""9912""
","
","
","""event"",""trial"",""time""
""fullscreenenter"",""5"",""9912""
","
","498.2999999523163","","48","","","3000","1","2315.399999976158","48","images/earth.jpg","images/rocket1","images/rocket2","null","images/rocket1","","1","real","null","","","2",""
"d3-animate-choice","220","590005","0.0-76.0-1.28","337","691","25","Male","false","true","false","true","""event"",""trial"",""time""
""fullscreenenter"",""5"",""9912""
","
","
","""event"",""trial"",""time""
""fullscreenenter"",""5"",""9912""
","
","1073.6999999284744","","48","","","3000","1","2690.600000023842","48","images/purpleplanet.jpg","images/alien4","images/alien3","images/rocket1","images/alien4","images/t.png","2","real","false","1","2022-02-07 23:58:00.954","2","rare"
"two-step-fixation","221","591007","0.0-76.0-2.28","337","691","25","Male","false","true","false","true","""event"",""trial"",""time""
""fullscreenenter"",""5"",""9912""
","
","
","""event"",""trial"",""time""
""fullscreenenter"",""5"",""9912""
","
","","images/earth.jpg","","","","","","","","","","","","","","fixation","","","","","",""
"d3-animate-choice","222","593593","0.0-76.0-0.29","337","691","25","Male","false","true","false","true","""event"",""trial"",""time""
""fullscreenenter"",""5"",""9912""
","
","
","""event"",""trial"",""time""
""fullscreenenter"",""5"",""9912""
","
","580.9000000953674","","48","","","3000","1","1904.8000000715256","48","images/earth.jpg","images/rocket1","images/rocket2","null","images/rocket1","","1","real","null","","","2",""
"d3-animate-choice","223","596747","0.0-76.0-1.29","337","691","25","Male","false","true","false","true","""event"",""trial"",""time""
""fullscreenenter"",""5"",""9912""
","
","
","""event"",""trial"",""time""
""fullscreenenter"",""5"",""9912""
","
","1150.8999999761581","","48","","","3000","1","","","images/redplanet1.jpg","images/alien2","images/alien1","images/rocket1","images/alien2","images/nothing.png","2","real","true","0","2022-02-07 23:58:07.696","2","common"
"two-step-fixation","224","597751","0.0-76.0-2.29","337","691","25","Male","false","true","false","true","""event"",""trial"",""time""
""fullscreenenter"",""5"",""9912""
","
","
","""event"",""trial"",""time""
""fullscreenenter"",""5"",""9912""
","
","","images/earth.jpg","","","","","","","","","","","","","","fixation","","","","","",""
"d3-animate-choice","225","601734","0.0-76.0-0.30","337","691","25","Male","false","true","false","true","""event"",""trial"",""time""
""fullscreenenter"",""5"",""9912""
","
","
","""event"",""trial"",""time""
""fullscreenenter"",""5"",""9912""
","
","1978.8000000715256","","48","","","3000","1","3687.3000000715256","48","images/earth.jpg","images/rocket1","images/rocket2","null","images/rocket1","","1","real","null","","","2",""
"d3-animate-choice","226","604588","0.0-76.0-1.30","337","691","25","Male","false","true","false","true","""event"",""trial"",""time""
""fullscreenenter"",""5"",""9912""
","
","
","""event"",""trial"",""time""
""fullscreenenter"",""5"",""9912""
","
","850.5","","48","","","3000","1","2441.6999999284744","48","images/redplanet1.jpg","images/alien2","images/alien1","images/rocket1","images/alien2","images/t.png","2","real","true","1","2022-02-07 23:58:15.537","2","common"
"two-step-fixation","227","605593","0.0-76.0-2.30","337","691","25","Male","false","true","false","true","""event"",""trial"",""time""
""fullscreenenter"",""5"",""9912""
","
","
","""event"",""trial"",""time""
""fullscreenenter"",""5"",""9912""
","
","","images/earth.jpg","","","","","","","","","","","","","","fixation","","","","","",""
"d3-animate-choice","228","609044","0.0-76.0-0.31","337","691","25","Male","false","true","false","true","""event"",""trial"",""time""
""fullscreenenter"",""5"",""9912""
","
","
","""event"",""trial"",""time""
""fullscreenenter"",""5"",""9912""
","
","1447.2000000476837","","48","","","3000","1","2794.399999976158","48","images/earth.jpg","images/rocket1","images/rocket2","null","images/rocket1","","1","real","null","","","2",""
"d3-animate-choice","229","611959","0.0-76.0-1.31","337","691","25","Male","false","true","false","true","""event"",""trial"",""time""
""fullscreenenter"",""5"",""9912""
","
","
","""event"",""trial"",""time""
""fullscreenenter"",""5"",""9912""
","
","910.3999999761581","","48","","","3000","1","","","images/redplanet1.jpg","images/alien2","images/alien1","images/rocket1","images/alien2","images/t.png","2","real","true","1","2022-02-07 23:58:22.908","2","common"
"two-step-fixation","230","612963","0.0-76.0-2.31","337","691","25","Male","false","true","false","true","""event"",""trial"",""time""
""fullscreenenter"",""5"",""9912""
","
","
","""event"",""trial"",""time""
""fullscreenenter"",""5"",""9912""
","
","","images/earth.jpg","","","","","","","","","","","","","","fixation","","","","","",""
"d3-animate-choice","231","616540","0.0-76.0-0.32","337","691","25","Male","false","true","false","true","""event"",""trial"",""time""
""fullscreenenter"",""5"",""9912""
","
","
","""event"",""trial"",""time""
""fullscreenenter"",""5"",""9912""
","
","1572.5","","48","","","3000","1","3001.5","48","images/earth.jpg","images/rocket1","images/rocket2","null","images/rocket1","","1","real","null","","","2",""
"d3-animate-choice","232","619145","0.0-76.0-1.32","337","691","25","Male","false","true","false","true","""event"",""trial"",""time""
""fullscreenenter"",""5"",""9912""
","
","
","""event"",""trial"",""time""
""fullscreenenter"",""5"",""9912""
","
","602.2999999523163","","48","","","3000","1","2555.1999999284744","48","images/purpleplanet.jpg","images/alien4","images/alien3","images/rocket1","images/alien4","images/t.png","2","real","false","1","2022-02-07 23:58:30.094","2","rare"
"two-step-fixation","233","620150","0.0-76.0-2.32","337","691","25","Male","false","true","false","true","""event"",""trial"",""time""
""fullscreenenter"",""5"",""9912""
","
","
","""event"",""trial"",""time""
""fullscreenenter"",""5"",""9912""
","
","","images/earth.jpg","","","","","","","","","","","","","","fixation","","","","","",""
"d3-animate-choice","234","622696","0.0-76.0-0.33","337","691","25","Male","false","true","false","true","""event"",""trial"",""time""
""fullscreenenter"",""5"",""9912""
","
","
","""event"",""trial"",""time""
""fullscreenenter"",""5"",""9912""
","
","541.8000000715256","","48","","","3000","1","2042.3999999761581","48","images/earth.jpg","images/rocket1","images/rocket2","null","images/rocket1","","1","real","null","","","2",""
"d3-animate-choice","235","626110","0.0-76.0-1.33","337","691","25","Male","false","true","false","true","""event"",""trial"",""time""
""fullscreenenter"",""5"",""9912""
","
","
","""event"",""trial"",""time""
""fullscreenenter"",""5"",""9912""
","
","1411.8000000715256","","48","","","3000","1","2598.7000000476837","48","images/redplanet1.jpg","images/alien2","images/alien1","images/rocket1","images/alien2","images/nothing.png","2","real","true","0","2022-02-07 23:58:37.059","2","common"
"two-step-fixation","236","627115","0.0-76.0-2.33","337","691","25","Male","false","true","false","true","""event"",""trial"",""time""
""fullscreenenter"",""5"",""9912""
","
","
","""event"",""trial"",""time""
""fullscreenenter"",""5"",""9912""
","
","","images/earth.jpg","","","","","","","","","","","","","","fixation","","","","","",""
"d3-animate-choice","237","629173","0.0-76.0-0.34","337","691","25","Male","false","true","false","true","""event"",""trial"",""time""
""fullscreenenter"",""5"",""9912""
","
","
","""event"",""trial"",""time""
""fullscreenenter"",""5"",""9912""
","
","54.800000071525574","","48","","","3000","1","1551.4000000953674","48","images/earth.jpg","images/rocket1","images/rocket2","null","images/rocket1","","1","real","null","","","2",""
"d3-animate-choice","238","631767","0.0-76.0-1.34","337","691","25","Male","false","true","false","true","""event"",""trial"",""time""
""fullscreenenter"",""5"",""9912""
","
","
","""event"",""trial"",""time""
""fullscreenenter"",""5"",""9912""
","
","591","","48","","","3000","1","1601.6000000238419","48","images/redplanet1.jpg","images/alien2","images/alien1","images/rocket1","images/alien2","images/t.png","2","real","true","1","2022-02-07 23:58:42.717","2","common"
"two-step-fixation","239","632772","0.0-76.0-2.34","337","691","25","Male","false","true","false","true","""event"",""trial"",""time""
""fullscreenenter"",""5"",""9912""
","
","
","""event"",""trial"",""time""
""fullscreenenter"",""5"",""9912""
","
","","images/earth.jpg","","","","","","","","","","","","","","fixation","","","","","",""
"d3-animate-choice","240","635548","0.0-76.0-0.35","337","691","25","Male","false","true","false","true","""event"",""trial"",""time""
""fullscreenenter"",""5"",""9912""
","
","
","""event"",""trial"",""time""
""fullscreenenter"",""5"",""9912""
","
","772.4000000953674","","48","","","3000","1","","","images/earth.jpg","images/rocket1","images/rocket2","null","images/rocket1","","1","real","null","","","2",""
"d3-animate-choice","241","637729","0.0-76.0-1.35","337","691","25","Male","false","true","false","true","""event"",""trial"",""time""
""fullscreenenter"",""5"",""9912""
","
","
","""event"",""trial"",""time""
""fullscreenenter"",""5"",""9912""
","
","176.20000004768372","","48","","","3000","1","1508.6000000238419","48","images/purpleplanet.jpg","images/alien4","images/alien3","images/rocket1","images/alien4","images/t.png","2","real","false","1","2022-02-07 23:58:48.678","2","rare"
"two-step-fixation","242","638733","0.0-76.0-2.35","337","691","25","Male","false","true","false","true","""event"",""trial"",""time""
""fullscreenenter"",""5"",""9912""
","
","
","""event"",""trial"",""time""
""fullscreenenter"",""5"",""9912""
","
","","images/earth.jpg","","","","","","","","","","","","","","fixation","","","","","",""
"d3-animate-choice","243","641102","0.0-76.0-0.36","337","691","25","Male","false","true","false","true","""event"",""trial"",""time""
""fullscreenenter"",""5"",""9912""
","
","
","""event"",""trial"",""time""
""fullscreenenter"",""5"",""9912""
","
","365.10000002384186","","48","","","3000","1","1878","48","images/earth.jpg","images/rocket1","images/rocket2","null","images/rocket1","","1","real","null","","","2",""
"d3-animate-choice","244","644054","0.0-76.0-1.36","337","691","25","Male","false","true","false","true","""event"",""trial"",""time""
""fullscreenenter"",""5"",""9912""
","
","
","""event"",""trial"",""time""
""fullscreenenter"",""5"",""9912""
","
