"trial_type","trial_index","time_elapsed","internal_node_id","participant_id","subject_id","age","gender","rocket_sides","red_planet_first_rocket","red_display_order","purple_display_order","interactions","blur_events","focus_events","fullscreenenter_events","fullscreenexit_events","rt","stimulus","key_press","button_pressed","success","duration","valid_pressed","rts","keys","planet_text","right_text","left_text","center_text","chosen_text","reward_text","trial_stage","practice_trial","transition_type","choice","transition","reward","timestamp"
"pavlovia","0","3","0.0-0.0","894","661","21","female","true","false","false","false","
","
","
","
","
","","","","","","","","","","","","","","","","","","","","","",""
"html-keyboard-response","1","13753","0.0-1.0","894","661","21","female","true","false","false","false","
","
","
","
","
","13749.800000000745","Welcome! Press the space bar to begin.","32","","","","","","","","","","","","","","","","","","",""
"audio-keyboard-response","2","15897","0.0-2.0","894","661","21","female","true","false","false","false","
","
","
","
","
","2101","audio/beep_loop.wav","32","","","","","","","","","","","","","","","","","","",""
"audio-button-response","3","18624","0.0-3.0","894","661","21","female","true","false","false","false","
","
","
","
","
","NaN","audio/fish.mp3","","1","","","","","","","","","","","","","","","","","",""
"audio-button-response","4","21174","0.0-4.0","894","661","21","female","true","false","false","false","""event"",""trial"",""time""
""fullscreenenter"",""5"",""26317""
","
","
","""event"",""trial"",""time""
""fullscreenenter"",""5"",""26317""
","
","NaN","audio/tiger.mp3","","4","","","","","","","","","","","","","","","","","",""
"fullscreen","5","27294","0.0-5.0","894","661","21","female","true","false","false","false","""event"",""trial"",""time""
""fullscreenenter"",""5"",""26317""
","
","
","""event"",""trial"",""time""
""fullscreenenter"",""5"",""26317""
","
","","","","","true","","","","","","","","","","","","","","","","",""
"d3-instructions","6","47325","0.0-6.0","894","661","21","female","true","false","false","false","""event"",""trial"",""time""
""fullscreenenter"",""5"",""26317""
","
","
","""event"",""trial"",""time""
""fullscreenenter"",""5"",""26317""
","
","","","","","","","","","","","","","","","","","","","","","",""
"d3-instructions","7","57182","0.0-7.0","894","661","21","female","true","false","false","false","""event"",""trial"",""time""
""fullscreenenter"",""5"",""26317""
","
","
","""event"",""trial"",""time""
""fullscreenenter"",""5"",""26317""
","
","","","","","","","","","","","","","","","","","","","","","",""
"d3-instructions","8","63289","0.0-8.0","894","661","21","female","true","false","false","false","""event"",""trial"",""time""
""fullscreenenter"",""5"",""26317""
","
","
","""event"",""trial"",""time""
""fullscreenenter"",""5"",""26317""
","
","","","","","","","","","","","","","","","","","","","","","",""
"d3-instructions","9","70725","0.0-9.0","894","661","21","female","true","false","false","false","""event"",""trial"",""time""
""fullscreenenter"",""5"",""26317""
","
","
","""event"",""trial"",""time""
""fullscreenenter"",""5"",""26317""
","
","","","","","","","","","","","","","","","","","","","","","",""
"d3-instructions","10","79885","0.0-10.0","894","661","21","female","true","false","false","false","""event"",""trial"",""time""
""fullscreenenter"",""5"",""26317""
","
","
","""event"",""trial"",""time""
""fullscreenenter"",""5"",""26317""
","
","","","","","","","","","","","","","","","","","","","","","",""
"d3-animate-choice","11","83126","0.0-11.0","894","661","21","female","true","false","false","false","""event"",""trial"",""time""
""fullscreenenter"",""5"",""26317""
","
","
","""event"",""trial"",""time""
""fullscreenenter"",""5"",""26317""
","
","1233.5","","49","","","3000","1","2077.5,2449.099999997765","49,48","images/tutgreenplanet.jpg","images/tutalien1","images/tutalien2","null","images/tutalien2","","NA","practice","null","","","",""
"d3-animate-choice","12","85328","0.0-12.0","894","661","21","female","true","false","false","false","""event"",""trial"",""time""
""fullscreenenter"",""5"",""26317""
","
","
","""event"",""trial"",""time""
""fullscreenenter"",""5"",""26317""
","
","198","","49","","","3000","1","1185.8999999985099,1641.8999999985099","48,48","images/tutgreenplanet.jpg","images/tutalien1","images/tutalien2","null","images/tutalien2","","NA","practice","null","","","",""
"d3-animate-choice","13","87711","0.0-13.0","894","661","21","female","true","false","false","false","""event"",""trial"",""time""
""fullscreenenter"",""5"",""26317""
","
","
","""event"",""trial"",""time""
""fullscreenenter"",""5"",""26317""
","
","382","","48","","","3000","1","","","images/tutgreenplanet.jpg","images/tutalien1","images/tutalien2","null","images/tutalien1","","NA","practice","null","","","",""
"d3-animate-choice","14","91882","0.0-14.0","894","661","21","female","true","false","false","false","""event"",""trial"",""time""
""fullscreenenter"",""5"",""26317""
","
","
","""event"",""trial"",""time""
""fullscreenenter"",""5"",""26317""
","
","875.3000000007451","","32","","","3000","1","2169.199999999255,2598.199999999255,2916.5,3660.300000000745,4097.400000002235","48,49,48,48,13","images/tutgreenplanet.jpg","images/tutalien1","images/tutalien2","null","images/tutalien1","","NA","practice","null","","","",""
"d3-instructions","15","98128","0.0-15.0","894","661","21","female","true","false","false","false","""event"",""trial"",""time""
""fullscreenenter"",""5"",""26317""
","
","
","""event"",""trial"",""time""
""fullscreenenter"",""5"",""26317""
","
","","","","","","","","","","","","","","","","","","","","","",""
"d3-instructions","16","100214","0.0-16.0","894","661","21","female","true","false","false","false","""event"",""trial"",""time""
""fullscreenenter"",""5"",""26317""
","
","
","""event"",""trial"",""time""
""fullscreenenter"",""5"",""26317""
","
","","","","","","","","","","","","","","","","","","","","","",""
"d3-instructions","17","104335","0.0-17.0","894","661","21","female","true","false","false","false","""event"",""trial"",""time""
""fullscreenenter"",""5"",""26317""
","
","
","""event"",""trial"",""time""
""fullscreenenter"",""5"",""26317""
","
","","","","","","","","","","","","","","","","","","","","","",""
"d3-instructions","18","108244","0.0-18.0","894","661","21","female","true","false","false","false","""event"",""trial"",""time""
""fullscreenenter"",""5"",""26317""
","
","
","""event"",""trial"",""time""
""fullscreenenter"",""5"",""26317""
","
","","","","","","","","","","","","","","","","","","","","","",""
"d3-instructions","19","116599","0.0-19.0","894","661","21","female","true","false","false","false","""event"",""trial"",""time""
""fullscreenenter"",""5"",""26317""
","
","
","""event"",""trial"",""time""
""fullscreenenter"",""5"",""26317""
","
","","","","","","","","","","","","","","","","","","","","","",""
"d3-animate-choice","20","119983","0.0-20.0","894","661","21","female","true","false","false","false","""event"",""trial"",""time""
""fullscreenenter"",""5"",""26317""
","
","
","""event"",""trial"",""time""
""fullscreenenter"",""5"",""26317""
","
","1376.699999999255","","49","","","3000","1","","","images/tutyellowplanet.jpg","null","images/tutalien3","null","images/tutalien3","images/t.png","NA","practice","null","","","",""
"d3-animate-choice","21","122302","0.0-21.0","894","661","21","female","true","false","false","false","""event"",""trial"",""time""
""fullscreenenter"",""5"",""26317""
","
","
","""event"",""trial"",""time""
""fullscreenenter"",""5"",""26317""
","
","317.6000000014901","","49","","","3000","1","","","images/tutyellowplanet.jpg","null","images/tutalien3","null","images/tutalien3","images/t.png","NA","practice","null","","","",""
"d3-animate-choice","22","124559","0.0-22.0","894","661","21","female","true","false","false","false","""event"",""trial"",""time""
""fullscreenenter"",""5"",""26317""
","
","
","""event"",""trial"",""time""
""fullscreenenter"",""5"",""26317""
","
","255.60000000149012","","49","","","3000","1","1654","49","images/tutyellowplanet.jpg","null","images/tutalien3","null","images/tutalien3","images/t.png","NA","practice","null","","","",""
"d3-animate-choice","23","126713","0.0-23.0","894","661","21","female","true","false","false","false","""event"",""trial"",""time""
""fullscreenenter"",""5"",""26317""
","
","
","""event"",""trial"",""time""
""fullscreenenter"",""5"",""26317""
","
","150.59999999776483","","49","","","3000","1","","","images/tutyellowplanet.jpg","null","images/tutalien3","null","images/tutalien3","images/t.png","NA","practice","null","","","",""
"d3-animate-choice","24","128990","0.0-24.0","894","661","21","female","true","false","false","false","""event"",""trial"",""time""
""fullscreenenter"",""5"",""26317""
","
","
","""event"",""trial"",""time""
""fullscreenenter"",""5"",""26317""
","
","275","","49","","","3000","1","","","images/tutyellowplanet.jpg","null","images/tutalien3","null","images/tutalien3","images/t.png","NA","practice","null","","","",""
"d3-animate-choice","25","131274","0.0-25.0","894","661","21","female","true","false","false","false","""event"",""trial"",""time""
""fullscreenenter"",""5"",""26317""
","
","
","""event"",""trial"",""time""
""fullscreenenter"",""5"",""26317""
","
","281.79999999701977","","49","","","3000","1","","","images/tutyellowplanet.jpg","null","images/tutalien3","null","images/tutalien3","images/t.png","NA","practice","null","","","",""
"d3-animate-choice","26","133369","0.0-26.0","894","661","21","female","true","false","false","false","""event"",""trial"",""time""
""fullscreenenter"",""5"",""26317""
","
","
","""event"",""trial"",""time""
""fullscreenenter"",""5"",""26317""
","
","93.89999999850988","","49","","","3000","1","","","images/tutyellowplanet.jpg","null","images/tutalien3","null","images/tutalien3","images/t.png","NA","practice","null","","","",""
"d3-animate-choice","27","135635","0.0-27.0","894","661","21","female","true","false","false","false","""event"",""trial"",""time""
""fullscreenenter"",""5"",""26317""
","
","
","""event"",""trial"",""time""
""fullscreenenter"",""5"",""26317""
","
","263.19999999925494","","49","","","3000","1","","","images/tutyellowplanet.jpg","null","images/tutalien3","null","images/tutalien3","images/t.png","NA","practice","null","","","",""
"d3-animate-choice","28","137725","0.0-28.0","894","661","21","female","true","false","false","false","""event"",""trial"",""time""
""fullscreenenter"",""5"",""26317""
","
","
","""event"",""trial"",""time""
""fullscreenenter"",""5"",""26317""
","
","83.60000000149012","","49","","","3000","1","","","images/tutyellowplanet.jpg","null","images/tutalien3","null","images/tutalien3","images/t.png","NA","practice","null","","","",""
"d3-animate-choice","29","139989","0.0-29.0","894","661","21","female","true","false","false","false","""event"",""trial"",""time""
""fullscreenenter"",""5"",""26317""
","
","
","""event"",""trial"",""time""
""fullscreenenter"",""5"",""26317""
","
","261.30000000074506","","49","","","3000","1","","","images/tutyellowplanet.jpg","null","images/tutalien3","null","images/tutalien3","images/t.png","NA","practice","null","","","",""
"d3-instructions","30","143576","0.0-30.0","894","661","21","female","true","false","false","false","""event"",""trial"",""time""
""fullscreenenter"",""5"",""26317""
","
","
","""event"",""trial"",""time""
""fullscreenenter"",""5"",""26317""
","
","","","","","","","","","","","","","","","","","","","","","",""
"d3-instructions","31","146302","0.0-31.0","894","661","21","female","true","false","false","false","""event"",""trial"",""time""
""fullscreenenter"",""5"",""26317""
","
","
","""event"",""trial"",""time""
""fullscreenenter"",""5"",""26317""
","
","","","","","","","","","","","","","","","","","","","","","",""
"d3-instructions","32","148913","0.0-32.0","894","661","21","female","true","false","false","false","""event"",""trial"",""time""
""fullscreenenter"",""5"",""26317""
","
","
","""event"",""trial"",""time""
""fullscreenenter"",""5"",""26317""
","
","","","","","","","","","","","","","","","","","","","","","",""
"d3-instructions","33","150958","0.0-33.0","894","661","21","female","true","false","false","false","""event"",""trial"",""time""
""fullscreenenter"",""5"",""26317""
","
","
","""event"",""trial"",""time""
""fullscreenenter"",""5"",""26317""
","
","","","","","","","","","","","","","","","","","","","","","",""
"d3-animate-choice","34","153531","0.0-34.0","894","661","21","female","true","false","false","false","""event"",""trial"",""time""
""fullscreenenter"",""5"",""26317""
","
","
","""event"",""trial"",""time""
""fullscreenenter"",""5"",""26317""
","
","565.8000000007451","","49","","","3000","1","","","images/tutgreenplanet.jpg","images/tutalien1","images/tutalien2","null","images/tutalien2","images/t.png","NA","practice","null","","","",""
"d3-animate-choice","35","155842","0.0-35.0","894","661","21","female","true","false","false","false","""event"",""trial"",""time""
""fullscreenenter"",""5"",""26317""
","
","
","""event"",""trial"",""time""
""fullscreenenter"",""5"",""26317""
","
","306.5","","49","","","3000","1","","","images/tutgreenplanet.jpg","images/tutalien1","images/tutalien2","null","images/tutalien2","images/t.png","NA","practice","null","","","",""
"d3-animate-choice","36","158075","0.0-36.0","894","661","21","female","true","false","false","false","""event"",""trial"",""time""
""fullscreenenter"",""5"",""26317""
","
","
","""event"",""trial"",""time""
""fullscreenenter"",""5"",""26317""
","
","230.19999999925494","","49","","","3000","1","","","images/tutgreenplanet.jpg","images/tutalien1","images/tutalien2","null","images/tutalien2","images/t.png","NA","practice","null","","","",""
"d3-animate-choice","37","160360","0.0-37.0","894","661","21","female","true","false","false","false","""event"",""trial"",""time""
""fullscreenenter"",""5"",""26317""
","
","
","""event"",""trial"",""time""
""fullscreenenter"",""5"",""26317""
","
","282","","49","","","3000","1","","","images/tutgreenplanet.jpg","images/tutalien1","images/tutalien2","null","images/tutalien2","images/t.png","NA","practice","null","","","",""
"d3-animate-choice","38","162637","0.0-38.0","894","661","21","female","true","false","false","false","""event"",""trial"",""time""
""fullscreenenter"",""5"",""26317""
","
","
","""event"",""trial"",""time""
""fullscreenenter"",""5"",""26317""
","
","272.6000000014901","","49","","","3000","1","","","images/tutgreenplanet.jpg","images/tutalien1","images/tutalien2","null","images/tutalien2","images/t.png","NA","practice","null","","","",""
"d3-animate-choice","39","164912","0.0-39.0","894","661","21","female","true","false","false","false","""event"",""trial"",""time""
""fullscreenenter"",""5"",""26317""
","
","
","""event"",""trial"",""time""
""fullscreenenter"",""5"",""26317""
","
","271.20000000298023","","49","","","3000","1","","","images/tutgreenplanet.jpg","images/tutalien1","images/tutalien2","null","images/tutalien2","images/nothing.png","NA","practice","null","","","",""
"d3-animate-choice","40","167220","0.0-40.0","894","661","21","female","true","false","false","false","""event"",""trial"",""time""
""fullscreenenter"",""5"",""26317""
","
","
","""event"",""trial"",""time""
""fullscreenenter"",""5"",""26317""
","
","304.69999999925494","","49","","","3000","1","","","images/tutgreenplanet.jpg","images/tutalien1","images/tutalien2","null","images/tutalien2","images/t.png","NA","practice","null","","","",""
"d3-animate-choice","41","169464","0.0-41.0","894","661","21","female","true","false","false","false","""event"",""trial"",""time""
""fullscreenenter"",""5"",""26317""
","
","
","""event"",""trial"",""time""
""fullscreenenter"",""5"",""26317""
","
","238.30000000074506","","49","","","3000","1","","","images/tutgreenplanet.jpg","images/tutalien1","images/tutalien2","null","images/tutalien2","images/t.png","NA","practice","null","","","",""
"d3-animate-choice","42","171905","0.0-42.0","894","661","21","female","true","false","false","false","""event"",""trial"",""time""
""fullscreenenter"",""5"",""26317""
","
","
","""event"",""trial"",""time""
""fullscreenenter"",""5"",""26317""
","
","434.69999999925494","","48","","","3000","1","","","images/tutgreenplanet.jpg","images/tutalien1","images/tutalien2","null","images/tutalien1","images/nothing.png","NA","practice","null","","","",""
"d3-animate-choice","43","174173","0.0-43.0","894","661","21","female","true","false","false","false","""event"",""trial"",""time""
""fullscreenenter"",""5"",""26317""
","
","
","""event"",""trial"",""time""
""fullscreenenter"",""5"",""26317""
","
","267.30000000074506","","49","","","3000","1","","","images/tutgreenplanet.jpg","images/tutalien1","images/tutalien2","null","images/tutalien2","images/t.png","NA","practice","null","","","",""
"d3-instructions","44","180230","0.0-44.0","894","661","21","female","true","false","false","false","""event"",""trial"",""time""
""fullscreenenter"",""5"",""26317""
","
","
","""event"",""trial"",""time""
""fullscreenenter"",""5"",""26317""
","
","","","","","","","","","","","","","","","","","","","","","",""
"d3-instructions","45","181619","0.0-45.0","894","661","21","female","true","false","false","false","""event"",""trial"",""time""
""fullscreenenter"",""5"",""26317""
","
","
","""event"",""trial"",""time""
""fullscreenenter"",""5"",""26317""
","
","","","","","","","","","","","","","","","","","","","","","",""
"d3-instructions","46","184548","0.0-46.0","894","661","21","female","true","false","false","false","""event"",""trial"",""time""
""fullscreenenter"",""5"",""26317""
","
","
","""event"",""trial"",""time""
""fullscreenenter"",""5"",""26317""
","
","","","","","","","","","","","","","","","","","","","","","",""
"d3-instructions","47","191286","0.0-47.0","894","661","21","female","true","false","false","false","""event"",""trial"",""time""
""fullscreenenter"",""5"",""26317""
","
","
","""event"",""trial"",""time""
""fullscreenenter"",""5"",""26317""
","
","","","","","","","","","","","","","","","","","","","","","",""
"d3-instructions","48","193181","0.0-48.0","894","661","21","female","true","false","false","false","""event"",""trial"",""time""
""fullscreenenter"",""5"",""26317""
","
","
","""event"",""trial"",""time""
""fullscreenenter"",""5"",""26317""
","
","","","","","","","","","","","","","","","","","","","","","",""
"d3-instructions","49","197206","0.0-49.0","894","661","21","female","true","false","false","false","""event"",""trial"",""time""
""fullscreenenter"",""5"",""26317""
","
","
","""event"",""trial"",""time""
""fullscreenenter"",""5"",""26317""
","
","","","","","","","","","","","","","","","","","","","","","",""
"d3-instructions","50","199753","0.0-50.0","894","661","21","female","true","false","false","false","""event"",""trial"",""time""
""fullscreenenter"",""5"",""26317""
","
","
","""event"",""trial"",""time""
""fullscreenenter"",""5"",""26317""
","
","","","","","","","","","","","","","","","","","","","","","",""
"d3-instructions","51","202741","0.0-51.0","894","661","21","female","true","false","false","false","""event"",""trial"",""time""
""fullscreenenter"",""5"",""26317""
","
","
","""event"",""trial"",""time""
""fullscreenenter"",""5"",""26317""
","
","","","","","","","","","","","","","","","","","","","","","",""
"d3-instructions","52","203700","0.0-52.0","894","661","21","female","true","false","false","false","""event"",""trial"",""time""
""fullscreenenter"",""5"",""26317""
","
","
","""event"",""trial"",""time""
""fullscreenenter"",""5"",""26317""
","
","","","","","","","","","","","","","","","","","","","","","",""
"d3-instructions","53","210491","0.0-53.0","894","661","21","female","true","false","false","false","""event"",""trial"",""time""
""fullscreenenter"",""5"",""26317""
","
","
","""event"",""trial"",""time""
""fullscreenenter"",""5"",""26317""
","
","","","","","","","","","","","","","","","","","","","","","",""
"d3-instructions","54","216358","0.0-54.0","894","661","21","female","true","false","false","false","""event"",""trial"",""time""
""fullscreenenter"",""5"",""26317""
","
","
","""event"",""trial"",""time""
""fullscreenenter"",""5"",""26317""
","
","","","","","","","","","","","","","","","","","","","","","",""
"d3-instructions","55","219588","0.0-55.0","894","661","21","female","true","false","false","false","""event"",""trial"",""time""
""fullscreenenter"",""5"",""26317""
","
","
","""event"",""trial"",""time""
""fullscreenenter"",""5"",""26317""
","
","","","","","","","","","","","","","","","","","","","","","",""
"d3-instructions","56","221506","0.0-56.0","894","661","21","female","true","false","false","false","""event"",""trial"",""time""
""fullscreenenter"",""5"",""26317""
","
","
","""event"",""trial"",""time""
""fullscreenenter"",""5"",""26317""
","
","","","","","","","","","","","","","","","","","","","","","",""
"d3-instructions","57","231540","0.0-57.0","894","661","21","female","true","false","false","false","""event"",""trial"",""time""
""fullscreenenter"",""5"",""26317""
","
","
","""event"",""trial"",""time""
""fullscreenenter"",""5"",""26317""
","
","","","","","","","","","","","","","","","","","","","","","",""
"d3-instructions","58","234661","0.0-58.0","894","661","21","female","true","false","false","false","""event"",""trial"",""time""
""fullscreenenter"",""5"",""26317""
","
","
","""event"",""trial"",""time""
""fullscreenenter"",""5"",""26317""
","
","","","","","","","","","","","","","","","","","","","","","",""
"d3-instructions","59","236633","0.0-59.0","894","661","21","female","true","false","false","false","""event"",""trial"",""time""
""fullscreenenter"",""5"",""26317""
","
","
","""event"",""trial"",""time""
""fullscreenenter"",""5"",""26317""
","
","","","","","","","","","","","","","","","","","","","","","",""
"d3-instructions","60","237853","0.0-60.0","894","661","21","female","true","false","false","false","""event"",""trial"",""time""
""fullscreenenter"",""5"",""26317""
","
","
","""event"",""trial"",""time""
""fullscreenenter"",""5"",""26317""
","
","","","","","","","","","","","","","","","","","","","","","",""
"d3-animate-choice","61","240422","0.0-61.0-0.0","894","661","21","female","true","false","false","false","""event"",""trial"",""time""
""fullscreenenter"",""5"",""26317""
","
","
","""event"",""trial"",""time""
""fullscreenenter"",""5"",""26317""
","
","563.6999999992549","","48","","","3000","1","","","images/earth.jpg","images/tutrocket2","images/tutrocket1","null","images/tutrocket2","","1","practice","null","2","","",""
"d3-animate-choice","62","243611","0.0-61.0-1.0","894","661","21","female","true","false","false","false","""event"",""trial"",""time""
""fullscreenenter"",""5"",""26317""
","
","
","""event"",""trial"",""time""
""fullscreenenter"",""5"",""26317""
","
","1182.7000000029802","","48","","","3000","1","","","images/tutgreenplanet.jpg","images/tutalien2","images/tutalien1","images/tutrocket2","images/tutalien2","images/nothing.png","2","practice","true","2","common","0","2022-04-22 13:43:21.504"
"two-step-fixation","63","244613","0.0-61.0-2.0","894","661","21","female","true","false","false","false","""event"",""trial"",""time""
""fullscreenenter"",""5"",""26317""
","
","
","""event"",""trial"",""time""
""fullscreenenter"",""5"",""26317""
","
","","images/earth.jpg","","","","","","","","","","","","","","fixation","","","","","",""
"d3-animate-choice","64","247194","0.0-61.0-0.1","894","661","21","female","true","false","false","false","""event"",""trial"",""time""
""fullscreenenter"",""5"",""26317""
","
","
","""event"",""trial"",""time""
""fullscreenenter"",""5"",""26317""
","
","575.6999999992549","","49","","","3000","1","","","images/earth.jpg","images/tutrocket2","images/tutrocket1","null","images/tutrocket1","","1","practice","null","1","","",""
"d3-animate-choice","65","249774","0.0-61.0-1.1","894","661","21","female","true","false","false","false","""event"",""trial"",""time""
""fullscreenenter"",""5"",""26317""
","
","
","""event"",""trial"",""time""
""fullscreenenter"",""5"",""26317""
","
","573.6000000014901","","49","","","3000","1","","","images/tutyellowplanet.jpg","images/tutalien4","images/tutalien3","images/tutrocket1","images/tutalien3","images/t.png","2","practice","true","1","common","1","2022-04-22 13:43:27.667"
"two-step-fixation","66","250776","0.0-61.0-2.1","894","661","21","female","true","false","false","false","""event"",""trial"",""time""
""fullscreenenter"",""5"",""26317""
","
","
","""event"",""trial"",""time""
""fullscreenenter"",""5"",""26317""
","
","","images/earth.jpg","","","","","","","","","","","","","","fixation","","","","","",""
"d3-animate-choice","67","253059","0.0-61.0-0.2","894","661","21","female","true","false","false","false","""event"",""trial"",""time""
""fullscreenenter"",""5"",""26317""
","
","
","""event"",""trial"",""time""
""fullscreenenter"",""5"",""26317""
","
","279.9000000022352","","49","","","3000","1","","","images/earth.jpg","images/tutrocket2","images/tutrocket1","null","images/tutrocket1","","1","practice","null","1","","",""
"d3-animate-choice","68","255502","0.0-61.0-1.2","894","661","21","female","true","false","false","false","""event"",""trial"",""time""
""fullscreenenter"",""5"",""26317""
","
","
","""event"",""trial"",""time""
""fullscreenenter"",""5"",""26317""
","
","438.69999999925494","","49","","","3000","1","","","images/tutyellowplanet.jpg","images/tutalien4","images/tutalien3","images/tutrocket1","images/tutalien3","images/nothing.png","2","practice","true","1","common","0","2022-04-22 13:43:33.395"
"two-step-fixation","69","256504","0.0-61.0-2.2","894","661","21","female","true","false","false","false","""event"",""trial"",""time""
""fullscreenenter"",""5"",""26317""
","
","
","""event"",""trial"",""time""
""fullscreenenter"",""5"",""26317""
","
","","images/earth.jpg","","","","","","","","","","","","","","fixation","","","","","",""
"d3-animate-choice","70","258792","0.0-61.0-0.3","894","661","21","female","true","false","false","false","""event"",""trial"",""time""
""fullscreenenter"",""5"",""26317""
","
","
","""event"",""trial"",""time""
""fullscreenenter"",""5"",""26317""
","
","286.20000000298023","","49","","","3000","1","","","images/earth.jpg","images/tutrocket2","images/tutrocket1","null","images/tutrocket1","","1","practice","null","1","","",""
"d3-animate-choice","71","261304","0.0-61.0-1.3","894","661","21","female","true","false","false","false","""event"",""trial"",""time""
""fullscreenenter"",""5"",""26317""
","
","
","""event"",""trial"",""time""
""fullscreenenter"",""5"",""26317""
","
","506.5","","48","","","3000","1","","","images/tutyellowplanet.jpg","images/tutalien4","images/tutalien3","images/tutrocket1","images/tutalien4","images/t.png","2","practice","true","2","common","1","2022-04-22 13:43:39.197"
"two-step-fixation","72","262308","0.0-61.0-2.3","894","661","21","female","true","false","false","false","""event"",""trial"",""time""
""fullscreenenter"",""5"",""26317""
","
","
","""event"",""trial"",""time""
""fullscreenenter"",""5"",""26317""
","
","","images/earth.jpg","","","","","","","","","","","","","","fixation","","","","","",""
"d3-animate-choice","73","264574","0.0-61.0-0.4","894","661","21","female","true","false","false","false","""event"",""trial"",""time""
""fullscreenenter"",""5"",""26317""
","
","
","""event"",""trial"",""time""
""fullscreenenter"",""5"",""26317""
","
","264.4000000022352","","49","","","3000","1","","","images/earth.jpg","images/tutrocket2","images/tutrocket1","null","images/tutrocket1","","1","practice","null","1","","",""
"d3-animate-choice","74","266921","0.0-61.0-1.4","894","661","21","female","true","false","false","false","""event"",""trial"",""time""
""fullscreenenter"",""5"",""26317""
","
","
","""event"",""trial"",""time""
""fullscreenenter"",""5"",""26317""
","
","338.80000000074506","","48","","","3000","1","","","images/tutyellowplanet.jpg","images/tutalien4","images/tutalien3","images/tutrocket1","images/tutalien4","images/t.png","2","practice","true","2","common","1","2022-04-22 13:43:44.814"
"two-step-fixation","75","267924","0.0-61.0-2.4","894","661","21","female","true","false","false","false","""event"",""trial"",""time""
""fullscreenenter"",""5"",""26317""
","
","
","""event"",""trial"",""time""
""fullscreenenter"",""5"",""26317""
","
","","images/earth.jpg","","","","","","","","","","","","","","fixation","","","","","",""
"d3-animate-choice","76","270217","0.0-61.0-0.5","894","661","21","female","true","false","false","false","""event"",""trial"",""time""
""fullscreenenter"",""5"",""26317""
","
","
","""event"",""trial"",""time""
""fullscreenenter"",""5"",""26317""
","
","286.3999999985099","","49","","","3000","1","","","images/earth.jpg","images/tutrocket2","images/tutrocket1","null","images/tutrocket1","","1","practice","null","1","","",""
"d3-animate-choice","77","272492","0.0-61.0-1.5","894","661","21","female","true","false","false","false","""event"",""trial"",""time""
""fullscreenenter"",""5"",""26317""
","
","
","""event"",""trial"",""time""
""fullscreenenter"",""5"",""26317""
","
","272.19999999925494","","48","","","3000","1","","","images/tutyellowplanet.jpg","images/tutalien4","images/tutalien3","images/tutrocket1","images/tutalien4","images/nothing.png","2","practice","true","2","common","0","2022-04-22 13:43:50.385"
"two-step-fixation","78","273497","0.0-61.0-2.5","894","661","21","female","true","false","false","false","""event"",""trial"",""time""
""fullscreenenter"",""5"",""26317""
","
","
","""event"",""trial"",""time""
""fullscreenenter"",""5"",""26317""
","
","","images/earth.jpg","","","","","","","","","","","","","","fixation","","","","","",""
"d3-animate-choice","79","275708","0.0-61.0-0.6","894","661","21","female","true","false","false","false","""event"",""trial"",""time""
""fullscreenenter"",""5"",""26317""
","
","
","""event"",""trial"",""time""
""fullscreenenter"",""5"",""26317""
","
","206.10000000149012","","49","","","3000","1","","","images/earth.jpg","images/tutrocket2","images/tutrocket1","null","images/tutrocket1","","1","practice","null","1","","",""
"d3-animate-choice","80","278195","0.0-61.0-1.6","894","661","21","female","true","false","false","false","""event"",""trial"",""time""
""fullscreenenter"",""5"",""26317""
","
","
","""event"",""trial"",""time""
""fullscreenenter"",""5"",""26317""
","
","485","","49","","","3000","1","","","images/tutyellowplanet.jpg","images/tutalien4","images/tutalien3","images/tutrocket1","images/tutalien3","images/nothing.png","2","practice","true","1","common","0","2022-04-22 13:43:56.088"
"two-step-fixation","81","279198","0.0-61.0-2.6","894","661","21","female","true","false","false","false","""event"",""trial"",""time""
""fullscreenenter"",""5"",""26317""
","
","
","""event"",""trial"",""time""
""fullscreenenter"",""5"",""26317""
","
","","images/earth.jpg","","","","","","","","","","","","","","fixation","","","","","",""
"d3-animate-choice","82","281449","0.0-61.0-0.7","894","661","21","female","true","false","false","false","""event"",""trial"",""time""
""fullscreenenter"",""5"",""26317""
","
","
","""event"",""trial"",""time""
""fullscreenenter"",""5"",""26317""
","
","248.40000000223517","","48","","","3000","1","","","images/earth.jpg","images/tutrocket2","images/tutrocket1","null","images/tutrocket2","","1","practice","null","2","","",""
"d3-animate-choice","83","284259","0.0-61.0-1.7","894","661","21","female","true","false","false","false","""event"",""trial"",""time""
""fullscreenenter"",""5"",""26317""
","
","
","""event"",""trial"",""time""
""fullscreenenter"",""5"",""26317""
","
","806.6000000014901","","48","","","3000","1","","","images/tutgreenplanet.jpg","images/tutalien2","images/tutalien1","images/tutrocket2","images/tutalien2","images/t.png","2","practice","true","2","common","1","2022-04-22 13:44:02.152"
"two-step-fixation","84","285262","0.0-61.0-2.7","894","661","21","female","true","false","false","false","""event"",""trial"",""time""
""fullscreenenter"",""5"",""26317""
","
","
","""event"",""trial"",""time""
""fullscreenenter"",""5"",""26317""
","
","","images/earth.jpg","","","","","","","","","","","","","","fixation","","","","","",""
"d3-animate-choice","85","287507","0.0-61.0-0.8","894","661","21","female","true","false","false","false","""event"",""trial"",""time""
""fullscreenenter"",""5"",""26317""
","
","
","""event"",""trial"",""time""
""fullscreenenter"",""5"",""26317""
","
","241.69999999925494","","48","","","3000","1","","","images/earth.jpg","images/tutrocket2","images/tutrocket1","null","images/tutrocket2","","1","practice","null","2","","",""
"d3-animate-choice","86","289862","0.0-61.0-1.8","894","661","21","female","true","false","false","false","""event"",""trial"",""time""
""fullscreenenter"",""5"",""26317""
","
","
","""event"",""trial"",""time""
""fullscreenenter"",""5"",""26317""
","
","353.30000000074506","","48","","","3000","1","","","images/tutyellowplanet.jpg","images/tutalien4","images/tutalien3","images/tutrocket2","images/tutalien4","images/t.png","2","practice","false","2","rare","1","2022-04-22 13:44:07.755"
"two-step-fixation","87","290864","0.0-61.0-2.8","894","661","21","female","true","false","false","false","""event"",""trial"",""time""
""fullscreenenter"",""5"",""26317""
","
","
","""event"",""trial"",""time""
""fullscreenenter"",""5"",""26317""
","
","","images/earth.jpg","","","","","","","","","","","","","","fixation","","","","","",""
"d3-animate-choice","88","293179","0.0-61.0-0.9","894","661","21","female","true","false","false","false","""event"",""trial"",""time""
""fullscreenenter"",""5"",""26317""
","
","
","""event"",""trial"",""time""
""fullscreenenter"",""5"",""26317""
","
","313.6000000014901","","48","","","3000","1","","","images/earth.jpg","images/tutrocket2","images/tutrocket1","null","images/tutrocket2","","1","practice","null","2","","",""
"d3-animate-choice","89","295411","0.0-61.0-1.9","894","661","21","female","true","false","false","false","""event"",""trial"",""time""
""fullscreenenter"",""5"",""26317""
","
","
","""event"",""trial"",""time""
""fullscreenenter"",""5"",""26317""
","
","229.80000000074506","","48","","","3000","1","","","images/tutgreenplanet.jpg","images/tutalien2","images/tutalien1","images/tutrocket2","images/tutalien2","images/nothing.png","2","practice","true","2","common","0","2022-04-22 13:44:13.304"
"two-step-fixation","90","296413","0.0-61.0-2.9","894","661","21","female","true","false","false","false","""event"",""trial"",""time""
""fullscreenenter"",""5"",""26317""
","
","
","""event"",""trial"",""time""
""fullscreenenter"",""5"",""26317""
","
","","images/earth.jpg","","","","","","","","","","","","","","fixation","","","","","",""
"d3-animate-choice","91","298651","0.0-61.0-0.10","894","661","21","female","true","false","false","false","""event"",""trial"",""time""
""fullscreenenter"",""5"",""26317""
","
","
","""event"",""trial"",""time""
""fullscreenenter"",""5"",""26317""
","
","235.10000000149012","","48","","","3000","1","","","images/earth.jpg","images/tutrocket2","images/tutrocket1","null","images/tutrocket2","","1","practice","null","2","","",""
"d3-animate-choice","92","301053","0.0-61.0-1.10","894","661","21","female","true","false","false","false","""event"",""trial"",""time""
""fullscreenenter"",""5"",""26317""
","
","
","""event"",""trial"",""time""
""fullscreenenter"",""5"",""26317""
","
","395.20000000298023","","49","","","3000","1","","","images/tutgreenplanet.jpg","images/tutalien2","images/tutalien1","images/tutrocket2","images/tutalien1","images/nothing.png","2","practice","true","1","common","0","2022-04-22 13:44:18.946"
"two-step-fixation","93","302055","0.0-61.0-2.10","894","661","21","female","true","false","false","false","""event"",""trial"",""time""
""fullscreenenter"",""5"",""26317""
","
","
","""event"",""trial"",""time""
""fullscreenenter"",""5"",""26317""
","
","","images/earth.jpg","","","","","","","","","","","","","","fixation","","","","","",""
"d3-animate-choice","94","304103","0.0-61.0-0.11","894","661","21","female","true","false","false","false","""event"",""trial"",""time""
""fullscreenenter"",""5"",""26317""
","
","
","""event"",""trial"",""time""
""fullscreenenter"",""5"",""26317""
","
","44.30000000074506","","48","","","3000","1","","","images/earth.jpg","images/tutrocket2","images/tutrocket1","null","images/tutrocket2","","1","practice","null","2","","",""
"d3-animate-choice","95","306487","0.0-61.0-1.11","894","661","21","female","true","false","false","false","""event"",""trial"",""time""
""fullscreenenter"",""5"",""26317""
","
","
","""event"",""trial"",""time""
""fullscreenenter"",""5"",""26317""
","
","383.29999999701977","","49","","","3000","1","","","images/tutyellowplanet.jpg","images/tutalien4","images/tutalien3","images/tutrocket2","images/tutalien3","images/t.png","2","practice","false","1","rare","1","2022-04-22 13:44:24.380"
"two-step-fixation","96","307490","0.0-61.0-2.11","894","661","21","female","true","false","false","false","""event"",""trial"",""time""
""fullscreenenter"",""5"",""26317""
","
","
","""event"",""trial"",""time""
""fullscreenenter"",""5"",""26317""
","
","","images/earth.jpg","","","","","","","","","","","","","","fixation","","","","","",""
"d3-animate-choice","97","309815","0.0-61.0-0.12","894","661","21","female","true","false","false","false","""event"",""trial"",""time""
""fullscreenenter"",""5"",""26317""
","
","
","""event"",""trial"",""time""
""fullscreenenter"",""5"",""26317""
","
","323.80000000074506","","48","","","3000","1","","","images/earth.jpg","images/tutrocket2","images/tutrocket1","null","images/tutrocket2","","1","practice","null","2","","",""
"d3-animate-choice","98","311817","0.0-61.0-1.12","894","661","21","female","true","false","false","false","""event"",""trial"",""time""
""fullscreenenter"",""5"",""26317""
","
","
","""event"",""trial"",""time""
""fullscreenenter"",""5"",""26317""
","
","0.5","","49","","","3000","1","329.1000000014901","49","images/tutgreenplanet.jpg","images/tutalien2","images/tutalien1","images/tutrocket2","images/tutalien1","images/nothing.png","2","practice","true","1","common","0","2022-04-22 13:44:29.710"
"two-step-fixation","99","312820","0.0-61.0-2.12","894","661","21","female","true","false","false","false","""event"",""trial"",""time""
""fullscreenenter"",""5"",""26317""
","
","
","""event"",""trial"",""time""
""fullscreenenter"",""5"",""26317""
","
","","images/earth.jpg","","","","","","","","","","","","","","fixation","","","","","",""
"d3-animate-choice","100","315074","0.0-61.0-0.13","894","661","21","female","true","false","false","false","""event"",""trial"",""time""
""fullscreenenter"",""5"",""26317""
","
","
","""event"",""trial"",""time""
""fullscreenenter"",""5"",""26317""
","
","250.80000000074506","","49","","","3000","1","1975.699999999255","48","images/earth.jpg","images/tutrocket2","images/tutrocket1","null","images/tutrocket1","","1","practice","null","1","","",""
"d3-animate-choice","101","317969","0.0-61.0-1.13","894","661","21","female","true","false","false","false","""event"",""trial"",""time""
""fullscreenenter"",""5"",""26317""
","
","
","""event"",""trial"",""time""
""fullscreenenter"",""5"",""26317""
","
","893.5999999977648","","49","","","3000","1","","","images/tutgreenplanet.jpg","images/tutalien2","images/tutalien1","images/tutrocket1","images/tutalien1","images/nothing.png","2","practice","false","1","rare","0","2022-04-22 13:44:35.862"
"two-step-fixation","102","318972","0.0-61.0-2.13","894","661","21","female","true","false","false","false","""event"",""trial"",""time""
""fullscreenenter"",""5"",""26317""
","
","
","""event"",""trial"",""time""
""fullscreenenter"",""5"",""26317""
","
","","images/earth.jpg","","","","","","","","","","","","","","fixation","","","","","",""
"d3-animate-choice","103","321276","0.0-61.0-0.14","894","661","21","female","true","false","false","false","""event"",""trial"",""time""
""fullscreenenter"",""5"",""26317""
","
","
","""event"",""trial"",""time""
""fullscreenenter"",""5"",""26317""
","
","300.69999999925494","","49","","","3000","1","2273.699999999255","48","images/earth.jpg","images/tutrocket2","images/tutrocket1","null","images/tutrocket1","","1","practice","null","1","","",""
"d3-animate-choice","104","323959","0.0-61.0-1.14","894","661","21","female","true","false","false","false","""event"",""trial"",""time""
""fullscreenenter"",""5"",""26317""
","
","
","""event"",""trial"",""time""
""fullscreenenter"",""5"",""26317""
","
","677.6000000014901","","48","","","3000","1","","","images/tutyellowplanet.jpg","images/tutalien4","images/tutalien3","images/tutrocket1","images/tutalien4","images/nothing.png","2","practice","true","2","common","0","2022-04-22 13:44:41.852"
"two-step-fixation","105","324961","0.0-61.0-2.14","894","661","21","female","true","false","false","false","""event"",""trial"",""time""
""fullscreenenter"",""5"",""26317""
","
","
","""event"",""trial"",""time""
""fullscreenenter"",""5"",""26317""
","
","","images/earth.jpg","","","","","","","","","","","","","","fixation","","","","","",""
"d3-animate-choice","106","327110","0.0-61.0-0.15","894","661","21","female","true","false","false","false","""event"",""trial"",""time""
""fullscreenenter"",""5"",""26317""
","
","
","""event"",""trial"",""time""
""fullscreenenter"",""5"",""26317""
","
","144.80000000074506","","48","","","3000","1","","","images/earth.jpg","images/tutrocket2","images/tutrocket1","null","images/tutrocket2","","1","practice","null","2","","",""
"d3-animate-choice","107","329356","0.0-61.0-1.15","894","661","21","female","true","false","false","false","""event"",""trial"",""time""
""fullscreenenter"",""5"",""26317""
","
","
","""event"",""trial"",""time""
""fullscreenenter"",""5"",""26317""
","
","243.30000000074506","","48","","","3000","1","","","images/tutyellowplanet.jpg","images/tutalien4","images/tutalien3","images/tutrocket2","images/tutalien4","images/nothing.png","2","practice","false","2","rare","0","2022-04-22 13:44:47.249"
"two-step-fixation","108","330358","0.0-61.0-2.15","894","661","21","female","true","false","false","false","""event"",""trial"",""time""
""fullscreenenter"",""5"",""26317""
","
","
","""event"",""trial"",""time""
""fullscreenenter"",""5"",""26317""
","
","","images/earth.jpg","","","","","","","","","","","","","","fixation","","","","","",""
"d3-animate-choice","109","332577","0.0-61.0-0.16","894","661","21","female","true","false","false","false","""event"",""trial"",""time""
""fullscreenenter"",""5"",""26317""
","
","
","""event"",""trial"",""time""
""fullscreenenter"",""5"",""26317""
","
","215.90000000223517","","49","","","3000","1","","","images/earth.jpg","images/tutrocket2","images/tutrocket1","null","images/tutrocket1","","1","practice","null","1","","",""
"d3-animate-choice","110","334941","0.0-61.0-1.16","894","661","21","female","true","false","false","false","""event"",""trial"",""time""
""fullscreenenter"",""5"",""26317""
","
","
","""event"",""trial"",""time""
""fullscreenenter"",""5"",""26317""
","
","362.30000000074506","","49","","","3000","1","","","images/tutyellowplanet.jpg","images/tutalien4","images/tutalien3","images/tutrocket1","images/tutalien3","images/t.png","2","practice","true","1","common","1","2022-04-22 13:44:52.834"
"two-step-fixation","111","335946","0.0-61.0-2.16","894","661","21","female","true","false","false","false","""event"",""trial"",""time""
""fullscreenenter"",""5"",""26317""
","
","
","""event"",""trial"",""time""
""fullscreenenter"",""5"",""26317""
","
","","images/earth.jpg","","","","","","","","","","","","","","fixation","","","","","",""
"d3-animate-choice","112","338231","0.0-61.0-0.17","894","661","21","female","true","false","false","false","""event"",""trial"",""time""
""fullscreenenter"",""5"",""26317""
","
","
","""event"",""trial"",""time""
""fullscreenenter"",""5"",""26317""
","
","283.5","","49","","","3000","1","","","images/earth.jpg","images/tutrocket2","images/tutrocket1","null","images/tutrocket1","","1","practice","null","1","","",""
"d3-animate-choice","113","340624","0.0-61.0-1.17","894","661","21","female","true","false","false","false","""event"",""trial"",""time""
""fullscreenenter"",""5"",""26317""
","
","
","""event"",""trial"",""time""
""fullscreenenter"",""5"",""26317""
","
","390.69999999925494","","49","","","3000","1","","","images/tutyellowplanet.jpg","images/tutalien4","images/tutalien3","images/tutrocket1","images/tutalien3","images/t.png","2","practice","true","1","common","1","2022-04-22 13:44:58.517"
"two-step-fixation","114","341626","0.0-61.0-2.17","894","661","21","female","true","false","false","false","""event"",""trial"",""time""
""fullscreenenter"",""5"",""26317""
","
","
","""event"",""trial"",""time""
""fullscreenenter"",""5"",""26317""
","
","","images/earth.jpg","","","","","","","","","","","","","","fixation","","","","","",""
"d3-animate-choice","115","343894","0.0-61.0-0.18","894","661","21","female","true","false","false","false","""event"",""trial"",""time""
""fullscreenenter"",""5"",""26317""
","
","
","""event"",""trial"",""time""
""fullscreenenter"",""5"",""26317""
","
","263.8999999985099","","49","","","3000","1","","","images/earth.jpg","images/tutrocket2","images/tutrocket1","null","images/tutrocket1","","1","practice","null","1","","",""
"d3-animate-choice","116","346198","0.0-61.0-1.18","894","661","21","female","true","false","false","false","""event"",""trial"",""time""
""fullscreenenter"",""5"",""26317""
","
","
","""event"",""trial"",""time""
""fullscreenenter"",""5"",""26317""
","
","302.30000000074506","","49","","","3000","1","","","images/tutyellowplanet.jpg","images/tutalien4","images/tutalien3","images/tutrocket1","images/tutalien3","images/t.png","2","practice","true","1","common","1","2022-04-22 13:45:04.091"
"two-step-fixation","117","347200","0.0-61.0-2.18","894","661","21","female","true","false","false","false","""event"",""trial"",""time""
""fullscreenenter"",""5"",""26317""
","
","
","""event"",""trial"",""time""
""fullscreenenter"",""5"",""26317""
","
","","images/earth.jpg","","","","","","","","","","","","","","fixation","","","","","",""
"d3-animate-choice","118","349568","0.0-61.0-0.19","894","661","21","female","true","false","false","false","""event"",""trial"",""time""
""fullscreenenter"",""5"",""26317""
","
","
","""event"",""trial"",""time""
""fullscreenenter"",""5"",""26317""
","
","365.5","","49","","","3000","1","402.6000000014901","48","images/earth.jpg","images/tutrocket2","images/tutrocket1","null","images/tutrocket1","","1","practice","null","1","","",""
"d3-animate-choice","119","351749","0.0-61.0-1.19","894","661","21","female","true","false","false","false","""event"",""trial"",""time""
""fullscreenenter"",""5"",""26317""
","
","
","""event"",""trial"",""time""
""fullscreenenter"",""5"",""26317""
","
","179.80000000074506","","49","","","3000","1","","","images/tutyellowplanet.jpg","images/tutalien4","images/tutalien3","images/tutrocket1","images/tutalien3","images/nothing.png","2","practice","true","1","common","0","2022-04-22 13:45:09.642"
"two-step-fixation","120","352752","0.0-61.0-2.19","894","661","21","female","true","false","false","false","""event"",""trial"",""time""
""fullscreenenter"",""5"",""26317""
","
","
","""event"",""trial"",""time""
""fullscreenenter"",""5"",""26317""
","
","","images/earth.jpg","","","","","","","","","","","","","","fixation","","","","","",""
"d3-instructions","121","358148","0.0-62.0","894","661","21","female","true","false","false","false","""event"",""trial"",""time""
""fullscreenenter"",""5"",""26317""
","
","
","""event"",""trial"",""time""
""fullscreenenter"",""5"",""26317""
","
","","","","","","","","","","","","","","","","","","","","","",""
"audio-keyboard-response","122","359810","0.0-63.0","894","661","21","female","true","false","false","false","""event"",""trial"",""time""
""fullscreenenter"",""5"",""26317""
","
","
","""event"",""trial"",""time""
""fullscreenenter"",""5"",""26317""
","
","1659","audio/instructions/treasure_feedback.wav","32","","","","","","","","","","","","","","","","","","",""
"d3-instructions","123","369047","0.0-64.0","894","661","21","female","true","false","false","false","""event"",""trial"",""time""
""fullscreenenter"",""5"",""26317""
","
","
","""event"",""trial"",""time""
""fullscreenenter"",""5"",""26317""
","
","","","","","","","","","","","","","","","","","","","","","",""
"d3-instructions","124","378448","0.0-65.0","894","661","21","female","true","false","false","false","""event"",""trial"",""time""
""fullscreenenter"",""5"",""26317""
","
","
","""event"",""trial"",""time""
""fullscreenenter"",""5"",""26317""
","
","","","","","","","","","","","","","","","","","","","","","",""
"d3-instructions","125","388624","0.0-66.0","894","661","21","female","true","false","false","false","""event"",""trial"",""time""
""fullscreenenter"",""5"",""26317""
","
","
","""event"",""trial"",""time""
""fullscreenenter"",""5"",""26317""
","
","","","","","","","","","","","","","","","","","","","","","",""
"d3-instructions","126","395337","0.0-67.0","894","661","21","female","true","false","false","false","""event"",""trial"",""time""
""fullscreenenter"",""5"",""26317""
","
","
","""event"",""trial"",""time""
""fullscreenenter"",""5"",""26317""
","
","","","","","","","","","","","","","","","","","","","","","",""
"d3-instructions","127","397844","0.0-68.0","894","661","21","female","true","false","false","false","""event"",""trial"",""time""
""fullscreenenter"",""5"",""26317""
","
","
","""event"",""trial"",""time""
""fullscreenenter"",""5"",""26317""
","
","","","","","","","","","","","","","","","","","","","","","",""
"instructions-quiz","128","402126","0.0-69.0","894","661","21","female","true","false","false","false","""event"",""trial"",""time""
""fullscreenenter"",""5"",""26317""
","
","
","""event"",""trial"",""time""
""fullscreenenter"",""5"",""26317""
","
","4281","audio/quiz/Q1_Prompt.wav","","1","","","","","","","","","","","","","","","","","",""
"audio-keyboard-response","129","403258","0.0-70.0","894","661","21","female","true","false","false","false","""event"",""trial"",""time""
""fullscreenenter"",""5"",""26317""
","
","
","""event"",""trial"",""time""
""fullscreenenter"",""5"",""26317""
","
","1131","audio/quiz/Q1_Correct.wav","32","","","","","","","","","","","","","","","","","","",""
"instructions-quiz","130","406775","0.0-71.0","894","661","21","female","true","false","false","false","""event"",""trial"",""time""
""fullscreenenter"",""5"",""26317""
","
","
","""event"",""trial"",""time""
""fullscreenenter"",""5"",""26317""
","
","3516.800000000745","audio/quiz/Q2_Prompt.wav","","0","","","","","","","","","","","","","","","","","",""
"audio-keyboard-response","131","407379","0.0-72.0","894","661","21","female","true","false","false","false","""event"",""trial"",""time""
""fullscreenenter"",""5"",""26317""
","
","
","""event"",""trial"",""time""
""fullscreenenter"",""5"",""26317""
","
","603","audio/quiz/Q2_Correct.wav","32","","","","","","","","","","","","","","","","","","",""
"instructions-quiz","132","409709","0.0-73.0","894","661","21","female","true","false","false","false","""event"",""trial"",""time""
""fullscreenenter"",""5"",""26317""
","
","
","""event"",""trial"",""time""
""fullscreenenter"",""5"",""26317""
","
","2330","audio/quiz/Q3_Prompt.wav","","1","","","","","","","","","","","","","","","","","",""
"audio-keyboard-response","133","410166","0.0-74.0","894","661","21","female","true","false","false","false","""event"",""trial"",""time""
""fullscreenenter"",""5"",""26317""
","
","
","""event"",""trial"",""time""
""fullscreenenter"",""5"",""26317""
","
","453","audio/quiz/Q3_Correct.wav","32","","","","","","","","","","","","","","","","","","",""
"d3-instructions","134","413615","0.0-75.0","894","661","21","female","true","false","false","false","""event"",""trial"",""time""
""fullscreenenter"",""5"",""26317""
","
","
","""event"",""trial"",""time""
""fullscreenenter"",""5"",""26317""
","
","","","","","","","","","","","","","","","","","","","","","",""
"d3-animate-choice","135","416327","0.0-76.0-0.0","894","661","21","female","true","false","false","false","""event"",""trial"",""time""
""fullscreenenter"",""5"",""26317""
","
","
","""event"",""trial"",""time""
""fullscreenenter"",""5"",""26317""
","
","708.6999999992549","","49","","","3000","1","","","images/earth.jpg","images/rocket2","images/rocket1","null","images/rocket1","","1","real","null","1","","",""
"d3-animate-choice","136","419192","0.0-76.0-1.0","894","661","21","female","true","false","false","false","""event"",""trial"",""time""
""fullscreenenter"",""5"",""26317""
","
","
","""event"",""trial"",""time""
""fullscreenenter"",""5"",""26317""
","
","860.3000000007451","","48","","","3000","1","","","images/purpleplanet.jpg","images/alien4","images/alien3","images/rocket1","images/alien4","images/t.png","2","real","true","2","common","1","2022-04-22 13:46:17.085"
"two-step-fixation","137","420195","0.0-76.0-2.0","894","661","21","female","true","false","false","false","""event"",""trial"",""time""
""fullscreenenter"",""5"",""26317""
","
","
","""event"",""trial"",""time""
""fullscreenenter"",""5"",""26317""
","
","","images/earth.jpg","","","","","","","","","","","","","","fixation","","","","","",""
"d3-animate-choice","138","422464","0.0-76.0-0.1","894","661","21","female","true","false","false","false","""event"",""trial"",""time""
""fullscreenenter"",""5"",""26317""
","
","
","""event"",""trial"",""time""
""fullscreenenter"",""5"",""26317""
","
","267","","49","","","3000","1","","","images/earth.jpg","images/rocket2","images/rocket1","null","images/rocket1","","1","real","null","1","","",""
"d3-animate-choice","139","424766","0.0-76.0-1.1","894","661","21","female","true","false","false","false","""event"",""trial"",""time""
""fullscreenenter"",""5"",""26317""
","
","
","""event"",""trial"",""time""
""fullscreenenter"",""5"",""26317""
","
","298.5","","48","","","3000","1","","","images/purpleplanet.jpg","images/alien4","images/alien3","images/rocket1","images/alien4","images/nothing.png","2","real","true","2","common","0","2022-04-22 13:46:22.659"
"two-step-fixation","140","425770","0.0-76.0-2.1","894","661","21","female","true","false","false","false","""event"",""trial"",""time""
""fullscreenenter"",""5"",""26317""
","
","
","""event"",""trial"",""time""
""fullscreenenter"",""5"",""26317""
","
","","images/earth.jpg","","","","","","","","","","","","","","fixation","","","","","",""
"d3-animate-choice","141","428009","0.0-76.0-0.2","894","661","21","female","true","false","false","false","""event"",""trial"",""time""
""fullscreenenter"",""5"",""26317""
","
","
","""event"",""trial"",""time""
""fullscreenenter"",""5"",""26317""
","
","235.90000000223517","","49","","","3000","1","","","images/earth.jpg","images/rocket2","images/rocket1","null","images/rocket1","","1","real","null","1","","",""
"d3-animate-choice","142","430354","0.0-76.0-1.2","894","661","21","female","true","false","false","false","""event"",""trial"",""time""
""fullscreenenter"",""5"",""26317""
","
","
","""event"",""trial"",""time""
""fullscreenenter"",""5"",""26317""
","
","343.5999999977648","","48","","","3000","1","","","images/purpleplanet.jpg","images/alien4","images/alien3","images/rocket1","images/alien4","images/t.png","2","real","true","2","common","1","2022-04-22 13:46:28.247"
"two-step-fixation","143","431355","0.0-76.0-2.2","894","661","21","female","true","false","false","false","""event"",""trial"",""time""
""fullscreenenter"",""5"",""26317""
","
","
","""event"",""trial"",""time""
""fullscreenenter"",""5"",""26317""
","
","","images/earth.jpg","","","","","","","","","","","","","","fixation","","","","","",""
"d3-animate-choice","144","433611","0.0-76.0-0.3","894","661","21","female","true","false","false","false","""event"",""trial"",""time""
""fullscreenenter"",""5"",""26317""
","
","
","""event"",""trial"",""time""
""fullscreenenter"",""5"",""26317""
","
","254","","49","","","3000","1","","","images/earth.jpg","images/rocket2","images/rocket1","null","images/rocket1","","1","real","null","1","","",""
"d3-animate-choice","145","435860","0.0-76.0-1.3","894","661","21","female","true","false","false","false","""event"",""trial"",""time""
""fullscreenenter"",""5"",""26317""
","
","
","""event"",""trial"",""time""
""fullscreenenter"",""5"",""26317""
","
","246.30000000074506","","48","","","3000","1","","","images/purpleplanet.jpg","images/alien4","images/alien3","images/rocket1","images/alien4","images/t.png","2","real","true","2","common","1","2022-04-22 13:46:33.753"
"two-step-fixation","146","436864","0.0-76.0-2.3","894","661","21","female","true","false","false","false","""event"",""trial"",""time""
""fullscreenenter"",""5"",""26317""
","
","
","""event"",""trial"",""time""
""fullscreenenter"",""5"",""26317""
","
","","images/earth.jpg","","","","","","","","","","","","","","fixation","","","","","",""
"d3-animate-choice","147","439100","0.0-76.0-0.4","894","661","21","female","true","false","false","false","""event"",""trial"",""time""
""fullscreenenter"",""5"",""26317""
","
","
","""event"",""trial"",""time""
""fullscreenenter"",""5"",""26317""
","
","233","","49","","","3000","1","","","images/earth.jpg","images/rocket2","images/rocket1","null","images/rocket1","","1","real","null","1","","",""
"d3-animate-choice","148","441325","0.0-76.0-1.4","894","661","21","female","true","false","false","false","""event"",""trial"",""time""
""fullscreenenter"",""5"",""26317""
","
","
","""event"",""trial"",""time""
""fullscreenenter"",""5"",""26317""
","
","222.39999999850988","","48","","","3000","1","","","images/redplanet1.jpg","images/alien2","images/alien1","images/rocket1","images/alien2","images/t.png","2","real","false","2","rare","1","2022-04-22 13:46:39.219"
"two-step-fixation","149","442328","0.0-76.0-2.4","894","661","21","female","true","false","false","false","""event"",""trial"",""time""
""fullscreenenter"",""5"",""26317""
","
","
","""event"",""trial"",""time""
""fullscreenenter"",""5"",""26317""
","
","","images/earth.jpg","","","","","","","","","","","","","","fixation","","","","","",""
"d3-animate-choice","150","444592","0.0-76.0-0.5","894","661","21","female","true","false","false","false","""event"",""trial"",""time""
""fullscreenenter"",""5"",""26317""
","
","
","""event"",""trial"",""time""
""fullscreenenter"",""5"",""26317""
","
","258.5999999977648","","49","","","3000","1","","","images/earth.jpg","images/rocket2","images/rocket1","null","images/rocket1","","1","real","null","1","","",""
"d3-animate-choice","151","446809","0.0-76.0-1.5","894","661","21","female","true","false","false","false","""event"",""trial"",""time""
""fullscreenenter"",""5"",""26317""
","
","
","""event"",""trial"",""time""
""fullscreenenter"",""5"",""26317""
","
","213.5","","48","","","3000","1","","","images/purpleplanet.jpg","images/alien4","images/alien3","images/rocket1","images/alien4","images/nothing.png","2","real","true","2","common","0","2022-04-22 13:46:44.702"
"two-step-fixation","152","447811","0.0-76.0-2.5","894","661","21","female","true","false","false","false","""event"",""trial"",""time""
""fullscreenenter"",""5"",""26317""
","
","
","""event"",""trial"",""time""
""fullscreenenter"",""5"",""26317""
","
","","images/earth.jpg","","","","","","","","","","","","","","fixation","","","","","",""
"d3-animate-choice","153","450122","0.0-76.0-0.6","894","661","21","female","true","false","false","false","""event"",""trial"",""time""
""fullscreenenter"",""5"",""26317""
","
","
","""event"",""trial"",""time""
""fullscreenenter"",""5"",""26317""
","
","309.8999999985099","","49","","","3000","1","","","images/earth.jpg","images/rocket2","images/rocket1","null","images/rocket1","","1","real","null","1","","",""
"d3-animate-choice","154","452517","0.0-76.0-1.6","894","661","21","female","true","false","false","false","""event"",""trial"",""time""
""fullscreenenter"",""5"",""26317""
","
","
","""event"",""trial"",""time""
""fullscreenenter"",""5"",""26317""
","
","390.29999999701977","","49","","","3000","1","","","images/redplanet1.jpg","images/alien2","images/alien1","images/rocket1","images/alien1","images/nothing.png","2","real","false","1","rare","0","2022-04-22 13:46:50.410"
"two-step-fixation","155","453520","0.0-76.0-2.6","894","661","21","female","true","false","false","false","""event"",""trial"",""time""
""fullscreenenter"",""5"",""26317""
","
","
","""event"",""trial"",""time""
""fullscreenenter"",""5"",""26317""
","
","","images/earth.jpg","","","","","","","","","","","","","","fixation","","","","","",""
"d3-animate-choice","156","455765","0.0-76.0-0.7","894","661","21","female","true","false","false","false","""event"",""trial"",""time""
""fullscreenenter"",""5"",""26317""
","
","
","""event"",""trial"",""time""
""fullscreenenter"",""5"",""26317""
","
","241.59999999776483","","49","","","3000","1","","","images/earth.jpg","images/rocket2","images/rocket1","null","images/rocket1","","1","real","null","1","","",""
"d3-animate-choice","157","458315","0.0-76.0-1.7","894","661","21","female","true","false","false","false","""event"",""trial"",""time""
""fullscreenenter"",""5"",""26317""
","
","
","""event"",""trial"",""time""
""fullscreenenter"",""5"",""26317""
","
","546","","48","","","3000","1","","","images/purpleplanet.jpg","images/alien4","images/alien3","images/rocket1","images/alien4","images/t.png","2","real","true","2","common","1","2022-04-22 13:46:56.208"
"two-step-fixation","158","459319","0.0-76.0-2.7","894","661","21","female","true","false","false","false","""event"",""trial"",""time""
""fullscreenenter"",""5"",""26317""
","
","
","""event"",""trial"",""time""
""fullscreenenter"",""5"",""26317""
","
","","images/earth.jpg","","","","","","","","","","","","","","fixation","","","","","",""
"d3-animate-choice","159","461613","0.0-76.0-0.8","894","661","21","female","true","false","false","false","""event"",""trial"",""time""
""fullscreenenter"",""5"",""26317""
","
","
","""event"",""trial"",""time""
""fullscreenenter"",""5"",""26317""
","
","293.30000000074506","","48","","","3000","1","","","images/earth.jpg","images/rocket2","images/rocket1","null","images/rocket2","","1","real","null","2","","",""
"d3-animate-choice","160","464163","0.0-76.0-1.8","894","661","21","female","true","false","false","false","""event"",""trial"",""time""
""fullscreenenter"",""5"",""26317""
","
","
","""event"",""trial"",""time""
""fullscreenenter"",""5"",""26317""
","
","547","","48","","","3000","1","","","images/purpleplanet.jpg","images/alien4","images/alien3","images/rocket2","images/alien4","images/t.png","2","real","false","2","rare","1","2022-04-22 13:47:02.056"
"two-step-fixation","161","465167","0.0-76.0-2.8","894","661","21","female","true","false","false","false","""event"",""trial"",""time""
""fullscreenenter"",""5"",""26317""
","
","
","""event"",""trial"",""time""
""fullscreenenter"",""5"",""26317""
","
","","images/earth.jpg","","","","","","","","","","","","","","fixation","","","","","",""
"d3-animate-choice","162","467382","0.0-76.0-0.9","894","661","21","female","true","false","false","false","""event"",""trial"",""time""
""fullscreenenter"",""5"",""26317""
","
","
","""event"",""trial"",""time""
""fullscreenenter"",""5"",""26317""
","
","208","","48","","","3000","1","","","images/earth.jpg","images/rocket2","images/rocket1","null","images/rocket2","","1","real","null","2","","",""
"d3-animate-choice","163","469877","0.0-76.0-1.9","894","661","21","female","true","false","false","false","""event"",""trial"",""time""
""fullscreenenter"",""5"",""26317""
","
","
","""event"",""trial"",""time""
""fullscreenenter"",""5"",""26317""
","
","492.1000000014901","","48","","","3000","1","","","images/redplanet1.jpg","images/alien2","images/alien1","images/rocket2","images/alien2","images/t.png","2","real","true","2","common","1","2022-04-22 13:47:07.770"
"two-step-fixation","164","470879","0.0-76.0-2.9","894","661","21","female","true","false","false","false","""event"",""trial"",""time""
""fullscreenenter"",""5"",""26317""
","
","
","""event"",""trial"",""time""
""fullscreenenter"",""5"",""26317""
","
","","images/earth.jpg","","","","","","","","","","","","","","fixation","","","","","",""
"d3-animate-choice","165","473118","0.0-76.0-0.10","894","661","21","female","true","false","false","false","""event"",""trial"",""time""
""fullscreenenter"",""5"",""26317""
","
","
","""event"",""trial"",""time""
""fullscreenenter"",""5"",""26317""
","
","236.90000000223517","","48","","","3000","1","","","images/earth.jpg","images/rocket2","images/rocket1","null","images/rocket2","","1","real","null","2","","",""
"d3-animate-choice","166","475408","0.0-76.0-1.10","894","661","21","female","true","false","false","false","""event"",""trial"",""time""
""fullscreenenter"",""5"",""26317""
","
","
","""event"",""trial"",""time""
""fullscreenenter"",""5"",""26317""
","
","288.30000000074506","","48","","","3000","1","","","images/redplanet1.jpg","images/alien2","images/alien1","images/rocket2","images/alien2","images/t.png","2","real","true","2","common","1","2022-04-22 13:47:13.301"
"two-step-fixation","167","476411","0.0-76.0-2.10","894","661","21","female","true","false","false","false","""event"",""trial"",""time""
""fullscreenenter"",""5"",""26317""
","
","
","""event"",""trial"",""time""
""fullscreenenter"",""5"",""26317""
","
","","images/earth.jpg","","","","","","","","","","","","","","fixation","","","","","",""
"d3-animate-choice","168","478665","0.0-76.0-0.11","894","661","21","female","true","false","false","false","""event"",""trial"",""time""
""fullscreenenter"",""5"",""26317""
","
","
","""event"",""trial"",""time""
""fullscreenenter"",""5"",""26317""
","
","251.10000000149012","","48","","","3000","1","","","images/earth.jpg","images/rocket2","images/rocket1","null","images/rocket2","","1","real","null","2","","",""
"d3-animate-choice","169","480991","0.0-76.0-1.11","894","661","21","female","true","false","false","false","""event"",""trial"",""time""
""fullscreenenter"",""5"",""26317""
","
","
","""event"",""trial"",""time""
""fullscreenenter"",""5"",""26317""
","
","324.1000000014901","","48","","","3000","1","","","images/redplanet1.jpg","images/alien2","images/alien1","images/rocket2","images/alien2","images/t.png","2","real","true","2","common","1","2022-04-22 13:47:18.884"
"two-step-fixation","170","481994","0.0-76.0-2.11","894","661","21","female","true","false","false","false","""event"",""trial"",""time""
""fullscreenenter"",""5"",""26317""
","
","
","""event"",""trial"",""time""
""fullscreenenter"",""5"",""26317""
","
","","images/earth.jpg","","","","","","","","","","","","","","fixation","","","","","",""
"d3-animate-choice","171","484263","0.0-76.0-0.12","894","661","21","female","true","false","false","false","""event"",""trial"",""time""
""fullscreenenter"",""5"",""26317""
","
","
","""event"",""trial"",""time""
""fullscreenenter"",""5"",""26317""
","
","265.30000000074506","","49","","","3000","1","","","images/earth.jpg","images/rocket2","images/rocket1","null","images/rocket1","","1","real","null","1","","",""
"d3-animate-choice","172","486563","0.0-76.0-1.12","894","661","21","female","true","false","false","false","""event"",""trial"",""time""
""fullscreenenter"",""5"",""26317""
","
","
","""event"",""trial"",""time""
""fullscreenenter"",""5"",""26317""
","
","296.8999999985099","","48","","","3000","1","","","images/purpleplanet.jpg","images/alien4","images/alien3","images/rocket1","images/alien4","images/nothing.png","2","real","true","2","common","0","2022-04-22 13:47:24.456"
"two-step-fixation","173","487567","0.0-76.0-2.12","894","661","21","female","true","false","false","false","""event"",""trial"",""time""
""fullscreenenter"",""5"",""26317""
","
","
","""event"",""trial"",""time""
""fullscreenenter"",""5"",""26317""
","
","","images/earth.jpg","","","","","","","","","","","","","","fixation","","","","","",""
"d3-animate-choice","174","489697","0.0-76.0-0.13","894","661","21","female","true","false","false","false","""event"",""trial"",""time""
""fullscreenenter"",""5"",""26317""
","
","
","""event"",""trial"",""time""
""fullscreenenter"",""5"",""26317""
","
","127.60000000149012","","48","","","3000","1","","","images/earth.jpg","images/rocket2","images/rocket1","null","images/rocket2","","1","real","null","2","","",""
"d3-animate-choice","175","491967","0.0-76.0-1.13","894","661","21","female","true","false","false","false","""event"",""trial"",""time""
""fullscreenenter"",""5"",""26317""
","
","
","""event"",""trial"",""time""
""fullscreenenter"",""5"",""26317""
","
","268","","48","","","3000","1","","","images/purpleplanet.jpg","images/alien4","images/alien3","images/rocket2","images/alien4","images/t.png","2","real","false","2","rare","1","2022-04-22 13:47:29.861"
"two-step-fixation","176","492969","0.0-76.0-2.13","894","661","21","female","true","false","false","false","""event"",""trial"",""time""
""fullscreenenter"",""5"",""26317""
","
","
","""event"",""trial"",""time""
""fullscreenenter"",""5"",""26317""
","
","","images/earth.jpg","","","","","","","","","","","","","","fixation","","","","","",""
"d3-animate-choice","177","495259","0.0-76.0-0.14","894","661","21","female","true","false","false","false","""event"",""trial"",""time""
""fullscreenenter"",""5"",""26317""
","
","
","""event"",""trial"",""time""
""fullscreenenter"",""5"",""26317""
","
","286.80000000074506","","48","","","3000","1","","","images/earth.jpg","images/rocket2","images/rocket1","null","images/rocket2","","1","real","null","2","","",""
"d3-animate-choice","178","497592","0.0-76.0-1.14","894","661","21","female","true","false","false","false","""event"",""trial"",""time""
""fullscreenenter"",""5"",""26317""
","
","
","""event"",""trial"",""time""
""fullscreenenter"",""5"",""26317""
","
","328.69999999925494","","48","","","3000","1","","","images/redplanet1.jpg","images/alien2","images/alien1","images/rocket2","images/alien2","images/nothing.png","2","real","true","2","common","0","2022-04-22 13:47:35.485"
"two-step-fixation","179","498595","0.0-76.0-2.14","894","661","21","female","true","false","false","false","""event"",""trial"",""time""
""fullscreenenter"",""5"",""26317""
","
","
","""event"",""trial"",""time""
""fullscreenenter"",""5"",""26317""
","
","","images/earth.jpg","","","","","","","","","","","","","","fixation","","","","","",""
"d3-animate-choice","180","500967","0.0-76.0-0.15","894","661","21","female","true","false","false","false","""event"",""trial"",""time""
""fullscreenenter"",""5"",""26317""
","
","
","""event"",""trial"",""time""
""fullscreenenter"",""5"",""26317""
","
","369.5","","48","","","3000","1","","","images/earth.jpg","images/rocket2","images/rocket1","null","images/rocket2","","1","real","null","2","","",""
"d3-animate-choice","181","503191","0.0-76.0-1.15","894","661","21","female","true","false","false","false","""event"",""trial"",""time""
""fullscreenenter"",""5"",""26317""
","
","
","""event"",""trial"",""time""
""fullscreenenter"",""5"",""26317""
","
","221.60000000149012","","48","","","3000","1","","","images/redplanet1.jpg","images/alien2","images/alien1","images/rocket2","images/alien2","images/t.png","2","real","true","2","common","1","2022-04-22 13:47:41.084"
"two-step-fixation","182","504195","0.0-76.0-2.15","894","661","21","female","true","false","false","false","""event"",""trial"",""time""
""fullscreenenter"",""5"",""26317""
","
","
","""event"",""trial"",""time""
""fullscreenenter"",""5"",""26317""
","
","","images/earth.jpg","","","","","","","","","","","","","","fixation","","","","","",""
"d3-animate-choice","183","506406","0.0-76.0-0.16","894","661","21","female","true","false","false","false","""event"",""trial"",""time""
""fullscreenenter"",""5"",""26317""
","
","
","""event"",""trial"",""time""
""fullscreenenter"",""5"",""26317""
","
","209.40000000223517","","49","","","3000","1","","","images/earth.jpg","images/rocket2","images/rocket1","null","images/rocket1","","1","real","null","1","","",""
"d3-animate-choice","184","508435","0.0-76.0-1.16","894","661","21","female","true","false","false","false","""event"",""trial"",""time""
""fullscreenenter"",""5"",""26317""
","
","
","""event"",""trial"",""time""
""fullscreenenter"",""5"",""26317""
","
","25.199999999254942","","48","","","3000","1","","","images/redplanet1.jpg","images/alien2","images/alien1","images/rocket1","images/alien2","images/t.png","2","real","false","2","rare","1","2022-04-22 13:47:46.328"
"two-step-fixation","185","509440","0.0-76.0-2.16","894","661","21","female","true","false","false","false","""event"",""trial"",""time""
""fullscreenenter"",""5"",""26317""
","
","
","""event"",""trial"",""time""
""fullscreenenter"",""5"",""26317""
","
","","images/earth.jpg","","","","","","","","","","","","","","fixation","","","","","",""
"d3-animate-choice","186","511700","0.0-76.0-0.17","894","661","21","female","true","false","false","false","""event"",""trial"",""time""
""fullscreenenter"",""5"",""26317""
","
","
","""event"",""trial"",""time""
""fullscreenenter"",""5"",""26317""
","
","257.3999999985099","","48","","","3000","1","","","images/earth.jpg","images/rocket2","images/rocket1","null","images/rocket2","","1","real","null","2","","",""
"d3-animate-choice","187","514045","0.0-76.0-1.17","894","661","21","female","true","false","false","false","""event"",""trial"",""time""
""fullscreenenter"",""5"",""26317""
","
","
","""event"",""trial"",""time""
""fullscreenenter"",""5"",""26317""
","
","341.30000000074506","","48","","","3000","1","","","images/redplanet1.jpg","images/alien2","images/alien1","images/rocket2","images/alien2","images/t.png","2","real","true","2","common","1","2022-04-22 13:47:51.938"
"two-step-fixation","188","515050","0.0-76.0-2.17","894","661","21","female","true","false","false","false","""event"",""trial"",""time""
""fullscreenenter"",""5"",""26317""
","
","
","""event"",""trial"",""time""
""fullscreenenter"",""5"",""26317""
","
","","images/earth.jpg","","","","","","","","","","","","","","fixation","","","","","",""
"d3-animate-choice","189","517282","0.0-76.0-0.18","894","661","21","female","true","false","false","false","""event"",""trial"",""time""
""fullscreenenter"",""5"",""26317""
","
","
","""event"",""trial"",""time""
""fullscreenenter"",""5"",""26317""
","
","228.80000000074506","","49","","","3000","1","","","images/earth.jpg","images/rocket2","images/rocket1","null","images/rocket1","","1","real","null","1","","",""
"d3-animate-choice","190","519897","0.0-76.0-1.18","894","661","21","female","true","false","false","false","""event"",""trial"",""time""
""fullscreenenter"",""5"",""26317""
","
","
","""event"",""trial"",""time""
""fullscreenenter"",""5"",""26317""
","
","610.6999999992549","","49","","","3000","1","","","images/purpleplanet.jpg","images/alien4","images/alien3","images/rocket1","images/alien3","images/nothing.png","2","real","true","1","common","0","2022-04-22 13:47:57.790"
"two-step-fixation","191","520899","0.0-76.0-2.18","894","661","21","female","true","false","false","false","""event"",""trial"",""time""
""fullscreenenter"",""5"",""26317""
","
","
","""event"",""trial"",""time""
""fullscreenenter"",""5"",""26317""
","
","","images/earth.jpg","","","","","","","","","","","","","","fixation","","","","","",""
"d3-animate-choice","192","523166","0.0-76.0-0.19","894","661","21","female","true","false","false","false","""event"",""trial"",""time""
""fullscreenenter"",""5"",""26317""
","
","
","""event"",""trial"",""time""
""fullscreenenter"",""5"",""26317""
","
","266.1000000014901","","48","","","3000","1","","","images/earth.jpg","images/rocket2","images/rocket1","null","images/rocket2","","1","real","null","2","","",""
"d3-animate-choice","193","525527","0.0-76.0-1.19","894","661","21","female","true","false","false","false","""event"",""trial"",""time""
""fullscreenenter"",""5"",""26317""
","
","
","""event"",""trial"",""time""
""fullscreenenter"",""5"",""26317""
","
","359.5999999977648","","48","","","3000","1","","","images/redplanet1.jpg","images/alien2","images/alien1","images/rocket2","images/alien2","images/t.png","2","real","true","2","common","1","2022-04-22 13:48:03.420"
"two-step-fixation","194","526530","0.0-76.0-2.19","894","661","21","female","true","false","false","false","""event"",""trial"",""time""
""fullscreenenter"",""5"",""26317""
","
","
","""event"",""trial"",""time""
""fullscreenenter"",""5"",""26317""
","
","","images/earth.jpg","","","","","","","","","","","","","","fixation","","","","","",""
"d3-animate-choice","195","528833","0.0-76.0-0.20","894","661","21","female","true","false","false","false","""event"",""trial"",""time""
""fullscreenenter"",""5"",""26317""
","
","
","""event"",""trial"",""time""
""fullscreenenter"",""5"",""26317""
","
","302.19999999925494","","48","","","3000","1","","","images/earth.jpg","images/rocket2","images/rocket1","null","images/rocket2","","1","real","null","2","","",""
"d3-animate-choice","196","531164","0.0-76.0-1.20","894","661","21","female","true","false","false","false","""event"",""trial"",""time""
""fullscreenenter"",""5"",""26317""
","
","
","""event"",""trial"",""time""
""fullscreenenter"",""5"",""26317""
","
","328.6000000014901","","48","","","3000","1","","","images/purpleplanet.jpg","images/alien4","images/alien3","images/rocket2","images/alien4","images/t.png","2","real","false","2","rare","1","2022-04-22 13:48:09.057"
"two-step-fixation","197","532165","0.0-76.0-2.20","894","661","21","female","true","false","false","false","""event"",""trial"",""time""
""fullscreenenter"",""5"",""26317""
","
","
","""event"",""trial"",""time""
""fullscreenenter"",""5"",""26317""
","
","","images/earth.jpg","","","","","","","","","","","","","","fixation","","","","","",""
"d3-animate-choice","198","534520","0.0-76.0-0.21","894","661","21","female","true","false","false","false","""event"",""trial"",""time""
""fullscreenenter"",""5"",""26317""
","
","
","""event"",""trial"",""time""
""fullscreenenter"",""5"",""26317""
","
","353.19999999925494","","48","","","3000","1","","","images/earth.jpg","images/rocket2","images/rocket1","null","images/rocket2","","1","real","null","2","","",""
"d3-animate-choice","199","536901","0.0-76.0-1.21","894","661","21","female","true","false","false","false","""event"",""trial"",""time""
""fullscreenenter"",""5"",""26317""
","
","
","""event"",""trial"",""time""
""fullscreenenter"",""5"",""26317""
","
","379.3999999985099","","48","","","3000","1","","","images/redplanet1.jpg","images/alien2","images/alien1","images/rocket2","images/alien2","images/nothing.png","2","real","true","2","common","0","2022-04-22 13:48:14.794"
"two-step-fixation","200","537903","0.0-76.0-2.21","894","661","21","female","true","false","false","false","""event"",""trial"",""time""
""fullscreenenter"",""5"",""26317""
","
","
","""event"",""trial"",""time""
""fullscreenenter"",""5"",""26317""
","
","","images/earth.jpg","","","","","","","","","","","","","","fixation","","","","","",""
"d3-animate-choice","201","540553","0.0-76.0-0.22","894","661","21","female","true","false","false","false","""event"",""trial"",""time""
""fullscreenenter"",""5"",""26317""
","
","
","""event"",""trial"",""time""
""fullscreenenter"",""5"",""26317""
","
","649.0999999977648","","48","","","3000","1","","","images/earth.jpg","images/rocket2","images/rocket1","null","images/rocket2","","1","real","null","2","","",""
"d3-animate-choice","202","543188","0.0-76.0-1.22","894","661","21","female","true","false","false","false","""event"",""trial"",""time""
""fullscreenenter"",""5"",""26317""
","
","
","""event"",""trial"",""time""
""fullscreenenter"",""5"",""26317""
","
","633.8000000007451","","48","","","3000","1","","","images/redplanet1.jpg","images/alien2","images/alien1","images/rocket2","images/alien2","images/t.png","2","real","true","2","common","1","2022-04-22 13:48:21.081"
"two-step-fixation","203","544191","0.0-76.0-2.22","894","661","21","female","true","false","false","false","""event"",""trial"",""time""
""fullscreenenter"",""5"",""26317""
","
","
","""event"",""trial"",""time""
""fullscreenenter"",""5"",""26317""
","
","","images/earth.jpg","","","","","","","","","","","","","","fixation","","","","","",""
"d3-animate-choice","204","546453","0.0-76.0-0.23","894","661","21","female","true","false","false","false","""event"",""trial"",""time""
""fullscreenenter"",""5"",""26317""
","
","
","""event"",""trial"",""time""
""fullscreenenter"",""5"",""26317""
","
","260.1000000014901","","48","","","3000","1","","","images/earth.jpg","images/rocket2","images/rocket1","null","images/rocket2","","1","real","null","2","","",""
"d3-animate-choice","205","550456","0.0-76.0-1.23","894","661","21","female","true","false","false","false","""event"",""trial"",""time""
""fullscreenenter"",""5"",""26317""
","
","
","""event"",""trial"",""time""
""fullscreenenter"",""5"",""26317""
","
","null","","null","","","3000","0","","","images/redplanet1.jpg","images/alien2","images/alien1","images/rocket2","","","2","real","true","","common","0","2022-04-22 13:48:28.349"
"two-step-fixation","206","551456","0.0-76.0-2.23","894","661","21","female","true","false","false","false","""event"",""trial"",""time""
""fullscreenenter"",""5"",""26317""
","
","
","""event"",""trial"",""time""
""fullscreenenter"",""5"",""26317""
","
","","images/earth.jpg","","","","","","","","","","","","","","fixation","","","","","",""
"d3-animate-choice","207","553819","0.0-76.0-0.24","894","661","21","female","true","false","false","false","""event"",""trial"",""time""
""fullscreenenter"",""5"",""26317""
","
","
","""event"",""trial"",""time""
""fullscreenenter"",""5"",""26317""
","
","360.19999999925494","","48","","","3000","1","","","images/earth.jpg","images/rocket2","images/rocket1","null","images/rocket2","","1","real","null","2","","",""
"d3-animate-choice","208","556135","0.0-76.0-1.24","894","661","21","female","true","false","false","false","""event"",""trial"",""time""
""fullscreenenter"",""5"",""26317""
","
","
","""event"",""trial"",""time""
""fullscreenenter"",""5"",""26317""
","
","313.6000000014901","","48","","","3000","1","","","images/redplanet1.jpg","images/alien2","images/alien1","images/rocket2","images/alien2","images/t.png","2","real","true","2","common","1","2022-04-22 13:48:34.028"
"two-step-fixation","209","557136","0.0-76.0-2.24","894","661","21","female","true","false","false","false","""event"",""trial"",""time""
""fullscreenenter"",""5"",""26317""
","
","
","""event"",""trial"",""time""
""fullscreenenter"",""5"",""26317""
","
","","images/earth.jpg","","","","","","","","","","","","","","fixation","","","","","",""
"d3-animate-choice","210","559345","0.0-76.0-0.25","894","661","21","female","true","false","false","false","""event"",""trial"",""time""
""fullscreenenter"",""5"",""26317""
","
","
","""event"",""trial"",""time""
""fullscreenenter"",""5"",""26317""
","
","207.39999999850988","","48","","","3000","1","","","images/earth.jpg","images/rocket2","images/rocket1","null","images/rocket2","","1","real","null","2","","",""
"d3-animate-choice","211","561854","0.0-76.0-1.25","894","661","21","female","true","false","false","false","""event"",""trial"",""time""
""fullscreenenter"",""5"",""26317""
","
","
","""event"",""trial"",""time""
""fullscreenenter"",""5"",""26317""
","
","506","","48","","","3000","1","","","images/redplanet1.jpg","images/alien2","images/alien1","images/rocket2","images/alien2","images/t.png","2","real","true","2","common","1","2022-04-22 13:48:39.747"
"two-step-fixation","212","562857","0.0-76.0-2.25","894","661","21","female","true","false","false","false","""event"",""trial"",""time""
""fullscreenenter"",""5"",""26317""
","
","
","""event"",""trial"",""time""
""fullscreenenter"",""5"",""26317""
","
","","images/earth.jpg","","","","","","","","","","","","","","fixation","","","","","",""
"d3-animate-choice","213","565173","0.0-76.0-0.26","894","661","21","female","true","false","false","false","""event"",""trial"",""time""
""fullscreenenter"",""5"",""26317""
","
","
","""event"",""trial"",""time""
""fullscreenenter"",""5"",""26317""
","
","315","","49","","","3000","1","","","images/earth.jpg","images/rocket2","images/rocket1","null","images/rocket1","","1","real","null","1","","",""
"d3-animate-choice","214","567565","0.0-76.0-1.26","894","661","21","female","true","false","false","false","""event"",""trial"",""time""
""fullscreenenter"",""5"",""26317""
","
","
","""event"",""trial"",""time""
""fullscreenenter"",""5"",""26317""
","
","389.8999999985099","","48","","","3000","1","","","images/purpleplanet.jpg","images/alien4","images/alien3","images/rocket1","images/alien4","images/nothing.png","2","real","true","2","common","0","2022-04-22 13:48:45.458"
"two-step-fixation","215","568567","0.0-76.0-2.26","894","661","21","female","true","false","false","false","""event"",""trial"",""time""
""fullscreenenter"",""5"",""26317""
","
","
","""event"",""trial"",""time""
""fullscreenenter"",""5"",""26317""
","
","","images/earth.jpg","","","","","","","","","","","","","","fixation","","","","","",""
"d3-animate-choice","216","570796","0.0-76.0-0.27","894","661","21","female","true","false","false","false","""event"",""trial"",""time""
""fullscreenenter"",""5"",""26317""
","
","
","""event"",""trial"",""time""
""fullscreenenter"",""5"",""26317""
","
","227.89999999850988","","48","","","3000","1","","","images/earth.jpg","images/rocket2","images/rocket1","null","images/rocket2","","1","real","null","2","","",""
"d3-animate-choice","217","573087","0.0-76.0-1.27","894","661","21","female","true","false","false","false","""event"",""trial"",""time""
""fullscreenenter"",""5"",""26317""
","
","
","""event"",""trial"",""time""
""fullscreenenter"",""5"",""26317""
","
","286.1000000014901","","48","","","3000","1","","","images/purpleplanet.jpg","images/alien4","images/alien3","images/rocket2","images/alien4","images/nothing.png","2","real","false","2","rare","0","2022-04-22 13:48:50.980"
"two-step-fixation","218","574090","0.0-76.0-2.27","894","661","21","female","true","false","false","false","""event"",""trial"",""time""
""fullscreenenter"",""5"",""26317""
","
","
","""event"",""trial"",""time""
""fullscreenenter"",""5"",""26317""
","
","","images/earth.jpg","","","","","","","","","","","","","","fixation","","","","","",""
"d3-animate-choice","219","576341","0.0-76.0-0.28","894","661","21","female","true","false","false","false","""event"",""trial"",""time""
""fullscreenenter"",""5"",""26317""
","
","
","""event"",""trial"",""time""
""fullscreenenter"",""5"",""26317""
","
","248.80000000074506","","48","","","3000","1","","","images/earth.jpg","images/rocket2","images/rocket1","null","images/rocket2","","1","real","null","2","","",""
"d3-animate-choice","220","578663","0.0-76.0-1.28","894","661","21","female","true","false","false","false","""event"",""trial"",""time""
""fullscreenenter"",""5"",""26317""
","
","
","""event"",""trial"",""time""
""fullscreenenter"",""5"",""26317""
","
","320.3999999985099","","48","","","3000","1","","","images/redplanet1.jpg","images/alien2","images/alien1","images/rocket2","images/alien2","images/t.png","2","real","true","2","common","1","2022-04-22 13:48:56.556"
"two-step-fixation","221","579665","0.0-76.0-2.28","894","661","21","female","true","false","false","false","""event"",""trial"",""time""
""fullscreenenter"",""5"",""26317""
","
","
","""event"",""trial"",""time""
""fullscreenenter"",""5"",""26317""
","
","","images/earth.jpg","","","","","","","","","","","","","","fixation","","","","","",""
"d3-animate-choice","222","581961","0.0-76.0-0.29","894","661","21","female","true","false","false","false","""event"",""trial"",""time""
""fullscreenenter"",""5"",""26317""
","
","
","""event"",""trial"",""time""
""fullscreenenter"",""5"",""26317""
","
","291.69999999925494","","48","","","3000","1","","","images/earth.jpg","images/rocket2","images/rocket1","null","images/rocket2","","1","real","null","2","","",""
"d3-animate-choice","223","584401","0.0-76.0-1.29","894","661","21","female","true","false","false","false","""event"",""trial"",""time""
""fullscreenenter"",""5"",""26317""
","
","
","""event"",""trial"",""time""
""fullscreenenter"",""5"",""26317""
","
","437.80000000074506","","48","","","3000","1","","","images/redplanet1.jpg","images/alien2","images/alien1","images/rocket2","images/alien2","images/nothing.png","2","real","true","2","common","0","2022-04-22 13:49:02.294"
"two-step-fixation","224","585403","0.0-76.0-2.29","894","661","21","female","true","false","false","false","""event"",""trial"",""time""
""fullscreenenter"",""5"",""26317""
","
","
","""event"",""trial"",""time""
""fullscreenenter"",""5"",""26317""
","
","","images/earth.jpg","","","","","","","","","","","","","","fixation","","","","","",""
"d3-animate-choice","225","587759","0.0-76.0-0.30","894","661","21","female","true","false","false","false","""event"",""trial"",""time""
""fullscreenenter"",""5"",""26317""
","
","
","""event"",""trial"",""time""
""fullscreenenter"",""5"",""26317""
","
","354.19999999925494","","48","","","3000","1","","","images/earth.jpg","images/rocket2","images/rocket1","null","images/rocket2","","1","real","null","2","","",""
"d3-animate-choice","226","590041","0.0-76.0-1.30","894","661","21","female","true","false","false","false","""event"",""trial"",""time""
""fullscreenenter"",""5"",""26317""
","
","
","""event"",""trial"",""time""
""fullscreenenter"",""5"",""26317""
","
","279.19999999925494","","48","","","3000","1","","","images/purpleplanet.jpg","images/alien4","images/alien3","images/rocket2","images/alien4","images/nothing.png","2","real","false","2","rare","0","2022-04-22 13:49:07.934"
"two-step-fixation","227","591045","0.0-76.0-2.30","894","661","21","female","true","false","false","false","""event"",""trial"",""time""
""fullscreenenter"",""5"",""26317""
","
","
","""event"",""trial"",""time""
""fullscreenenter"",""5"",""26317""
","
","","images/earth.jpg","","","","","","","","","","","","","","fixation","","","","","",""
"d3-animate-choice","228","593374","0.0-76.0-0.31","894","661","21","female","true","false","false","false","""event"",""trial"",""time""
""fullscreenenter"",""5"",""26317""
","
","
","""event"",""trial"",""time""
""fullscreenenter"",""5"",""26317""
","
","325.3999999985099","","48","","","3000","1","","","images/earth.jpg","images/rocket2","images/rocket1","null","images/rocket2","","1","real","null","2","","",""
"d3-animate-choice","229","595694","0.0-76.0-1.31","894","661","21","female","true","false","false","false","""event"",""trial"",""time""
""fullscreenenter"",""5"",""26317""
","
","
","""event"",""trial"",""time""
""fullscreenenter"",""5"",""26317""
","
","317.69999999925494","","48","","","3000","1","2088.5","49","images/redplanet1.jpg","images/alien2","images/alien1","images/rocket2","images/alien2","images/t.png","2","real","true","2","common","1","2022-04-22 13:49:13.587"
"two-step-fixation","230","596695","0.0-76.0-2.31","894","661","21","female","true","false","false","false","""event"",""trial"",""time""
""fullscreenenter"",""5"",""26317""
","
","
","""event"",""trial"",""time""
""fullscreenenter"",""5"",""26317""
","
","","images/earth.jpg","","","","","","","","","","","","","","fixation","","","","","",""
"d3-animate-choice","231","598980","0.0-76.0-0.32","894","661","21","female","true","false","false","false","""event"",""trial"",""time""
""fullscreenenter"",""5"",""26317""
","
","
","""event"",""trial"",""time""
""fullscreenenter"",""5"",""26317""
","
","283.30000000074506","","48","","","3000","1","","","images/earth.jpg","images/rocket2","images/rocket1","null","images/rocket2","","1","real","null","2","","",""
"d3-animate-choice","232","601379","0.0-76.0-1.32","894","661","21","female","true","false","false","false","""event"",""trial"",""time""
""fullscreenenter"",""5"",""26317""
","
","
","""event"",""trial"",""time""
""fullscreenenter"",""5"",""26317""
","
","397.5","","48","","","3000","1","","","images/redplanet1.jpg","images/alien2","images/alien1","images/rocket2","images/alien2","images/nothing.png","2","real","true","2","common","0","2022-04-22 13:49:19.272"
"two-step-fixation","233","602380","0.0-76.0-2.32","894","661","21","female","true","false","false","false","""event"",""trial"",""time""
""fullscreenenter"",""5"",""26317""
","
","
","""event"",""trial"",""time""
""fullscreenenter"",""5"",""26317""
","
","","images/earth.jpg","","","","","","","","","","","","","","fixation","","","","","",""
"d3-animate-choice","234","604777","0.0-76.0-0.33","894","661","21","female","true","false","false","false","""event"",""trial"",""time""
""fullscreenenter"",""5"",""26317""
","
","
","""event"",""trial"",""time""
""fullscreenenter"",""5"",""26317""
","
","395.70000000298023","","48","","","3000","1","","","images/earth.jpg","images/rocket2","images/rocket1","null","images/rocket2","","1","real","null","2","","",""
"d3-animate-choice","235","607174","0.0-76.0-1.33","894","661","21","female","true","false","false","false","""event"",""trial"",""time""
""fullscreenenter"",""5"",""26317""
","
","
","""event"",""trial"",""time""
""fullscreenenter"",""5"",""26317""
","
","393.70000000298023","","48","","","3000","1","","","images/redplanet1.jpg","images/alien2","images/alien1","images/rocket2","images/alien2","images/t.png","2","real","true","2","common","1","2022-04-22 13:49:25.068"
"two-step-fixation","236","608177","0.0-76.0-2.33","894","661","21","female","true","false","false","false","""event"",""trial"",""time""
""fullscreenenter"",""5"",""26317""
","
","
","""event"",""trial"",""time""
""fullscreenenter"",""5"",""26317""
","
","","images/earth.jpg","","","","","","","","","","","","","","fixation","","","","","",""
"d3-animate-choice","237","610499","0.0-76.0-0.34","894","661","21","female","true","false","false","false","""event"",""trial"",""time""
""fullscreenenter"",""5"",""26317""
","
","
","""event"",""trial"",""time""
""fullscreenenter"",""5"",""26317""
","
","316.0999999977648","","49","","","3000","1","","","images/earth.jpg","images/rocket2","images/rocket1","null","images/rocket1","","1","real","null","1","","",""
"d3-animate-choice","238","612808","0.0-76.0-1.34","894","661","21","female","true","false","false","false","""event"",""trial"",""time""
""fullscreenenter"",""5"",""26317""
","
","
","""event"",""trial"",""time""
""fullscreenenter"",""5"",""26317""
","
","306.6000000014901","","49","","","3000","1","","","images/redplanet1.jpg","images/alien2","images/alien1","images/rocket1","images/alien1","images/nothing.png","2","real","false","1","rare","0","2022-04-22 13:49:30.701"
"two-step-fixation","239","613811","0.0-76.0-2.34","894","661","21","female","true","false","false","false","""event"",""trial"",""time""
""fullscreenenter"",""5"",""26317""
","
","
","""event"",""trial"",""time""
""fullscreenenter"",""5"",""26317""
","
","","images/earth.jpg","","","","","","","","","","","","","","fixation","","","","","",""
"d3-animate-choice","240","616125","0.0-76.0-0.35","894","661","21","female","true","false","false","false","""event"",""trial"",""time""
""fullscreenenter"",""5"",""26317""
","
","
","""event"",""trial"",""time""
""fullscreenenter"",""5"",""26317""
","
","310.5","","48","","","3000","1","","","images/earth.jpg","images/rocket2","images/rocket1","null","images/rocket2","","1","real","null","2","","",""
"d3-animate-choice","241","618621","0.0-76.0-1.35","894","661","21","female","true","false","false","false","""event"",""trial"",""time""
""fullscreenenter"",""5"",""26317""
","
","
","""event"",""trial"",""time""
""fullscreenenter"",""5"",""26317""
","
","493.9000000022352","","48","","","3000","1","","","images/redplanet1.jpg","images/alien2","images/alien1","images/rocket2","images/alien2","images/t.png","2","real","true","2","common","1","2022-04-22 13:49:36.514"
"two-step-fixation","242","619624","0.0-76.0-2.35","894","661","21","female","true","false","false","false","""event"",""trial"",""time""
""fullscreenenter"",""5"",""26317""
","
","
","""event"",""trial"",""time""
""fullscreenenter"",""5"",""26317""
","
","","images/earth.jpg","","","","","","","","","","","","","","fixation","","","","","",""
"d3-animate-choice","243","621931","0.0-76.0-0.36","894","661","21","female","true","false","false","false","""event"",""trial"",""time""
""fullscreenenter"",""5"",""26317""
","
","
","""event"",""trial"",""time""
""fullscreenenter"",""5"",""26317""
","
","304.70000000298023","","48","","","3000","1","","","images/earth.jpg","images/rocket2","images/rocket1","null","images/rocket2","","1","real","null","2","","",""
"d3-animate-choice","244","624443","0.0-76.0-1.36","894","661","21","female","true","false","false","false","""event"",""trial"",""time""
""fullscreenenter"",""5"",""26317""
","
","
","""event"",""trial"",""time""
""fullscreenenter"",""5"",""26317""
","
","505.5999999977648","","48","","","3000","1","","","images/redplanet1.jpg","images/alien2","images/alien1","images/rocket2","images/alien2","images/nothing.png","2","real","true","2","common","0","2022-04-22 13:49:42.336"
"two-step-fixation","245","625444","0.0-76.0-2.36","894","661","21","female","true","false","false","false","""event"",""trial"",""time""
""fullscreenenter"",""5"",""26317""
","
","
","""event"",""trial"",""time""
""fullscreenenter"",""5"",""26317""
","
