"trial_type","trial_index","time_elapsed","internal_node_id","participant_id","subject_id","age","gender","rocket_sides","red_planet_first_rocket","red_display_order","purple_display_order","interactions","blur_events","focus_events","fullscreenenter_events","fullscreenexit_events","rt","stimulus","key_press","button_pressed","success","duration","valid_pressed","rts","keys","planet_text","right_text","left_text","center_text","chosen_text","reward_text","trial_stage","practice_trial","transition_type","choice","transition","reward","timestamp"
"pavlovia","0","11","0.0-0.0","659","809","13","Male","false","false","false","false","
","
","
","
","
","","","","","","","","","","","","","","","","","","","","","",""
"html-keyboard-response","1","1722","0.0-1.0","659","809","13","Male","false","false","false","false","
","
","
","
","
","1710.5","Welcome! Press the space bar to begin.","32","","","","","","","","","","","","","","","","","","",""
"audio-keyboard-response","2","3465","0.0-2.0","659","809","13","Male","false","false","false","false","
","
","
","
","
","1596","audio/beep_loop.wav","32","","","","","","","","","","","","","","","","","","",""
"audio-button-response","3","6387","0.0-3.0","659","809","13","Male","false","false","false","false","
","
","
","
","
","NaN","audio/fish.mp3","","1","","","","","","","","","","","","","","","","","",""
"audio-button-response","4","9121","0.0-4.0","659","809","13","Male","false","false","false","false","""event"",""trial"",""time""
""fullscreenenter"",""5"",""11807""
","
","
","""event"",""trial"",""time""
""fullscreenenter"",""5"",""11807""
","
","NaN","audio/tiger.mp3","","4","","","","","","","","","","","","","","","","","",""
"fullscreen","5","12797","0.0-5.0","659","809","13","Male","false","false","false","false","""event"",""trial"",""time""
""fullscreenenter"",""5"",""11807""
","
","
","""event"",""trial"",""time""
""fullscreenenter"",""5"",""11807""
","
","","","","","true","","","","","","","","","","","","","","","","",""
"d3-instructions","6","22157","0.0-6.0","659","809","13","Male","false","false","false","false","""event"",""trial"",""time""
""fullscreenenter"",""5"",""11807""
","
","
","""event"",""trial"",""time""
""fullscreenenter"",""5"",""11807""
","
","","","","","","","","","","","","","","","","","","","","","",""
"d3-instructions","7","30472","0.0-7.0","659","809","13","Male","false","false","false","false","""event"",""trial"",""time""
""fullscreenenter"",""5"",""11807""
","
","
","""event"",""trial"",""time""
""fullscreenenter"",""5"",""11807""
","
","","","","","","","","","","","","","","","","","","","","","",""
"d3-instructions","8","37589","0.0-8.0","659","809","13","Male","false","false","false","false","""event"",""trial"",""time""
""fullscreenenter"",""5"",""11807""
","
","
","""event"",""trial"",""time""
""fullscreenenter"",""5"",""11807""
","
","","","","","","","","","","","","","","","","","","","","","",""
"d3-instructions","9","48533","0.0-9.0","659","809","13","Male","false","false","false","false","""event"",""trial"",""time""
""fullscreenenter"",""5"",""11807""
","
","
","""event"",""trial"",""time""
""fullscreenenter"",""5"",""11807""
","
","","","","","","","","","","","","","","","","","","","","","",""
"d3-instructions","10","56565","0.0-10.0","659","809","13","Male","false","false","false","false","""event"",""trial"",""time""
""fullscreenenter"",""5"",""11807""
","
","
","""event"",""trial"",""time""
""fullscreenenter"",""5"",""11807""
","
","","","","","","","","","","","","","","","","","","","","","",""
"d3-animate-choice","11","59430","0.0-11.0","659","809","13","Male","false","false","false","false","""event"",""trial"",""time""
""fullscreenenter"",""5"",""11807""
","
","
","""event"",""trial"",""time""
""fullscreenenter"",""5"",""11807""
","
","853.5999999940395","","49","","","3000","1","","","images/tutgreenplanet.jpg","images/tutalien1","images/tutalien2","null","images/tutalien2","","NA","practice","null","","","",""
"d3-animate-choice","12","61839","0.0-12.0","659","809","13","Male","false","false","false","false","""event"",""trial"",""time""
""fullscreenenter"",""5"",""11807""
","
","
","""event"",""trial"",""time""
""fullscreenenter"",""5"",""11807""
","
","404.30000001192093","","48","","","3000","1","","","images/tutgreenplanet.jpg","images/tutalien1","images/tutalien2","null","images/tutalien1","","NA","practice","null","","","",""
"d3-animate-choice","13","64239","0.0-13.0","659","809","13","Male","false","false","false","false","""event"",""trial"",""time""
""fullscreenenter"",""5"",""11807""
","
","
","""event"",""trial"",""time""
""fullscreenenter"",""5"",""11807""
","
","395.5","","49","","","3000","1","","","images/tutgreenplanet.jpg","images/tutalien1","images/tutalien2","null","images/tutalien2","","NA","practice","null","","","",""
"d3-animate-choice","14","66700","0.0-14.0","659","809","13","Male","false","false","false","false","""event"",""trial"",""time""
""fullscreenenter"",""5"",""11807""
","
","
","""event"",""trial"",""time""
""fullscreenenter"",""5"",""11807""
","
","456.40000000596046","","48","","","3000","1","","","images/tutgreenplanet.jpg","images/tutalien1","images/tutalien2","null","images/tutalien1","","NA","practice","null","","","",""
"d3-instructions","15","75400","0.0-15.0","659","809","13","Male","false","false","false","false","""event"",""trial"",""time""
""fullscreenenter"",""5"",""11807""
""blur"",""16"",""79023""
""focus"",""16"",""80978""
","""event"",""trial"",""time""
""blur"",""16"",""79023""
","""event"",""trial"",""time""
""focus"",""16"",""80978""
","""event"",""trial"",""time""
""fullscreenenter"",""5"",""11807""
","
","","","","","","","","","","","","","","","","","","","","","",""
"d3-instructions","16","83141","0.0-16.0","659","809","13","Male","false","false","false","false","""event"",""trial"",""time""
""fullscreenenter"",""5"",""11807""
""blur"",""16"",""79023""
""focus"",""16"",""80978""
","""event"",""trial"",""time""
""blur"",""16"",""79023""
","""event"",""trial"",""time""
""focus"",""16"",""80978""
","""event"",""trial"",""time""
""fullscreenenter"",""5"",""11807""
","
","","","","","","","","","","","","","","","","","","","","","",""
"d3-instructions","17","90703","0.0-17.0","659","809","13","Male","false","false","false","false","""event"",""trial"",""time""
""fullscreenenter"",""5"",""11807""
""blur"",""16"",""79023""
""focus"",""16"",""80978""
","""event"",""trial"",""time""
""blur"",""16"",""79023""
","""event"",""trial"",""time""
""focus"",""16"",""80978""
","""event"",""trial"",""time""
""fullscreenenter"",""5"",""11807""
","
","","","","","","","","","","","","","","","","","","","","","",""
"d3-instructions","18","103173","0.0-18.0","659","809","13","Male","false","false","false","false","""event"",""trial"",""time""
""fullscreenenter"",""5"",""11807""
""blur"",""16"",""79023""
""focus"",""16"",""80978""
","""event"",""trial"",""time""
""blur"",""16"",""79023""
","""event"",""trial"",""time""
""focus"",""16"",""80978""
","""event"",""trial"",""time""
""fullscreenenter"",""5"",""11807""
","
","","","","","","","","","","","","","","","","","","","","","",""
"d3-instructions","19","112164","0.0-19.0","659","809","13","Male","false","false","false","false","""event"",""trial"",""time""
""fullscreenenter"",""5"",""11807""
""blur"",""16"",""79023""
""focus"",""16"",""80978""
","""event"",""trial"",""time""
""blur"",""16"",""79023""
","""event"",""trial"",""time""
""focus"",""16"",""80978""
","""event"",""trial"",""time""
""fullscreenenter"",""5"",""11807""
","
","","","","","","","","","","","","","","","","","","","","","",""
"d3-animate-choice","20","118446","0.0-20.0","659","809","13","Male","false","false","false","false","""event"",""trial"",""time""
""fullscreenenter"",""5"",""11807""
""blur"",""16"",""79023""
""focus"",""16"",""80978""
","""event"",""trial"",""time""
""blur"",""16"",""79023""
","""event"",""trial"",""time""
""focus"",""16"",""80978""
","""event"",""trial"",""time""
""fullscreenenter"",""5"",""11807""
","
","4271.70000000298","","49","","","3000","1","","","images/tutyellowplanet.jpg","null","images/tutalien3","null","images/tutalien3","images/nothing.png","NA","practice","null","","","",""
"d3-animate-choice","21","122171","0.0-21.0","659","809","13","Male","false","false","false","false","""event"",""trial"",""time""
""fullscreenenter"",""5"",""11807""
""blur"",""16"",""79023""
""focus"",""16"",""80978""
","""event"",""trial"",""time""
""blur"",""16"",""79023""
","""event"",""trial"",""time""
""focus"",""16"",""80978""
","""event"",""trial"",""time""
""fullscreenenter"",""5"",""11807""
","
","582.2000000029802","","48","","","3000","1","1720.2000000029802","49","images/tutyellowplanet.jpg","null","images/tutalien3","null","images/tutalien3","images/t.png","NA","practice","null","","","",""
"d3-animate-choice","22","124630","0.0-22.0","659","809","13","Male","false","false","false","false","""event"",""trial"",""time""
""fullscreenenter"",""5"",""11807""
""blur"",""16"",""79023""
""focus"",""16"",""80978""
","""event"",""trial"",""time""
""blur"",""16"",""79023""
","""event"",""trial"",""time""
""focus"",""16"",""80978""
","""event"",""trial"",""time""
""fullscreenenter"",""5"",""11807""
","
","452.59999999403954","","49","","","3000","1","889.0999999940395,1079.0999999940395,1260.5,1462.5999999940395,1815.5,2238.5999999940395","49,49,49,49,49,49","images/tutyellowplanet.jpg","null","images/tutalien3","null","images/tutalien3","images/t.png","NA","practice","null","","","",""
"d3-animate-choice","23","126819","0.0-23.0","659","809","13","Male","false","false","false","false","""event"",""trial"",""time""
""fullscreenenter"",""5"",""11807""
""blur"",""16"",""79023""
""focus"",""16"",""80978""
","""event"",""trial"",""time""
""blur"",""16"",""79023""
","""event"",""trial"",""time""
""focus"",""16"",""80978""
","""event"",""trial"",""time""
""fullscreenenter"",""5"",""11807""
","
","178.5","","49","","","3000","1","413,662.2999999970198,896.2000000029802,1253.2000000029802,1515.5,1764.2999999970198,2057.8999999910593","49,49,49,49,49,49,49","images/tutyellowplanet.jpg","null","images/tutalien3","null","images/tutalien3","images/t.png","NA","practice","null","","","",""
"d3-animate-choice","24","128968","0.0-24.0","659","809","13","Male","false","false","false","false","""event"",""trial"",""time""
""fullscreenenter"",""5"",""11807""
""blur"",""16"",""79023""
""focus"",""16"",""80978""
","""event"",""trial"",""time""
""blur"",""16"",""79023""
","""event"",""trial"",""time""
""focus"",""16"",""80978""
","""event"",""trial"",""time""
""fullscreenenter"",""5"",""11807""
","
","145.1000000089407","","49","","","3000","1","430.29999999701977,1409.6000000089407,1738,2028.2000000029802","49,49,49,49","images/tutyellowplanet.jpg","null","images/tutalien3","null","images/tutalien3","images/t.png","NA","practice","null","","","",""
"d3-animate-choice","25","131278","0.0-25.0","659","809","13","Male","false","false","false","false","""event"",""trial"",""time""
""fullscreenenter"",""5"",""11807""
""blur"",""16"",""79023""
""focus"",""16"",""80978""
","""event"",""trial"",""time""
""blur"",""16"",""79023""
","""event"",""trial"",""time""
""focus"",""16"",""80978""
","""event"",""trial"",""time""
""fullscreenenter"",""5"",""11807""
","
","305.5","","49","","","3000","1","","","images/tutyellowplanet.jpg","null","images/tutalien3","null","images/tutalien3","images/t.png","NA","practice","null","","","",""
"d3-animate-choice","26","134299","0.0-26.0","659","809","13","Male","false","false","false","false","""event"",""trial"",""time""
""fullscreenenter"",""5"",""11807""
""blur"",""16"",""79023""
""focus"",""16"",""80978""
","""event"",""trial"",""time""
""blur"",""16"",""79023""
","""event"",""trial"",""time""
""focus"",""16"",""80978""
","""event"",""trial"",""time""
""fullscreenenter"",""5"",""11807""
","
","1016.1000000089407","","49","","","3000","1","2534.2000000029802,2963.1000000089407","49,49","images/tutyellowplanet.jpg","null","images/tutalien3","null","images/tutalien3","images/t.png","NA","practice","null","","","",""
"d3-animate-choice","27","136631","0.0-27.0","659","809","13","Male","false","false","false","false","""event"",""trial"",""time""
""fullscreenenter"",""5"",""11807""
""blur"",""16"",""79023""
""focus"",""16"",""80978""
","""event"",""trial"",""time""
""blur"",""16"",""79023""
","""event"",""trial"",""time""
""focus"",""16"",""80978""
","""event"",""trial"",""time""
""fullscreenenter"",""5"",""11807""
","
","325.09999999403954","","49","","","3000","1","1824.2999999970198","49","images/tutyellowplanet.jpg","null","images/tutalien3","null","images/tutalien3","images/t.png","NA","practice","null","","","",""
"d3-animate-choice","28","138993","0.0-28.0","659","809","13","Male","false","false","false","false","""event"",""trial"",""time""
""fullscreenenter"",""5"",""11807""
""blur"",""16"",""79023""
""focus"",""16"",""80978""
","""event"",""trial"",""time""
""blur"",""16"",""79023""
","""event"",""trial"",""time""
""focus"",""16"",""80978""
","""event"",""trial"",""time""
""fullscreenenter"",""5"",""11807""
","
","356.20000000298023","","49","","","3000","1","1387.7000000029802,1720.7999999970198","49,49","images/tutyellowplanet.jpg","null","images/tutalien3","null","images/tutalien3","images/t.png","NA","practice","null","","","",""
"d3-animate-choice","29","141239","0.0-29.0","659","809","13","Male","false","false","false","false","""event"",""trial"",""time""
""fullscreenenter"",""5"",""11807""
""blur"",""16"",""79023""
""focus"",""16"",""80978""
","""event"",""trial"",""time""
""blur"",""16"",""79023""
","""event"",""trial"",""time""
""focus"",""16"",""80978""
","""event"",""trial"",""time""
""fullscreenenter"",""5"",""11807""
","
","242.09999999403954","","49","","","3000","1","","","images/tutyellowplanet.jpg","null","images/tutalien3","null","images/tutalien3","images/t.png","NA","practice","null","","","",""
"d3-instructions","30","148288","0.0-30.0","659","809","13","Male","false","false","false","false","""event"",""trial"",""time""
""fullscreenenter"",""5"",""11807""
""blur"",""16"",""79023""
""focus"",""16"",""80978""
","""event"",""trial"",""time""
""blur"",""16"",""79023""
","""event"",""trial"",""time""
""focus"",""16"",""80978""
","""event"",""trial"",""time""
""fullscreenenter"",""5"",""11807""
","
","","","","","","","","","","","","","","","","","","","","","",""
"d3-instructions","31","159419","0.0-31.0","659","809","13","Male","false","false","false","false","""event"",""trial"",""time""
""fullscreenenter"",""5"",""11807""
""blur"",""16"",""79023""
""focus"",""16"",""80978""
","""event"",""trial"",""time""
""blur"",""16"",""79023""
","""event"",""trial"",""time""
""focus"",""16"",""80978""
","""event"",""trial"",""time""
""fullscreenenter"",""5"",""11807""
","
","","","","","","","","","","","","","","","","","","","","","",""
"d3-instructions","32","167897","0.0-32.0","659","809","13","Male","false","false","false","false","""event"",""trial"",""time""
""fullscreenenter"",""5"",""11807""
""blur"",""16"",""79023""
""focus"",""16"",""80978""
","""event"",""trial"",""time""
""blur"",""16"",""79023""
","""event"",""trial"",""time""
""focus"",""16"",""80978""
","""event"",""trial"",""time""
""fullscreenenter"",""5"",""11807""
","
","","","","","","","","","","","","","","","","","","","","","",""
"d3-instructions","33","172114","0.0-33.0","659","809","13","Male","false","false","false","false","""event"",""trial"",""time""
""fullscreenenter"",""5"",""11807""
""blur"",""16"",""79023""
""focus"",""16"",""80978""
","""event"",""trial"",""time""
""blur"",""16"",""79023""
","""event"",""trial"",""time""
""focus"",""16"",""80978""
","""event"",""trial"",""time""
""fullscreenenter"",""5"",""11807""
","
","","","","","","","","","","","","","","","","","","","","","",""
"d3-animate-choice","34","174856","0.0-34.0","659","809","13","Male","false","false","false","false","""event"",""trial"",""time""
""fullscreenenter"",""5"",""11807""
""blur"",""16"",""79023""
""focus"",""16"",""80978""
","""event"",""trial"",""time""
""blur"",""16"",""79023""
","""event"",""trial"",""time""
""focus"",""16"",""80978""
","""event"",""trial"",""time""
""fullscreenenter"",""5"",""11807""
","
","729","","48","","","3000","1","","","images/tutgreenplanet.jpg","images/tutalien1","images/tutalien2","null","images/tutalien1","images/t.png","NA","practice","null","","","",""
"d3-animate-choice","35","177404","0.0-35.0","659","809","13","Male","false","false","false","false","""event"",""trial"",""time""
""fullscreenenter"",""5"",""11807""
""blur"",""16"",""79023""
""focus"",""16"",""80978""
","""event"",""trial"",""time""
""blur"",""16"",""79023""
","""event"",""trial"",""time""
""focus"",""16"",""80978""
","""event"",""trial"",""time""
""fullscreenenter"",""5"",""11807""
","
","544.2000000029802","","48","","","3000","1","","","images/tutgreenplanet.jpg","images/tutalien1","images/tutalien2","null","images/tutalien1","images/nothing.png","NA","practice","null","","","",""
"d3-animate-choice","36","179885","0.0-36.0","659","809","13","Male","false","false","false","false","""event"",""trial"",""time""
""fullscreenenter"",""5"",""11807""
""blur"",""16"",""79023""
""focus"",""16"",""80978""
","""event"",""trial"",""time""
""blur"",""16"",""79023""
","""event"",""trial"",""time""
""focus"",""16"",""80978""
","""event"",""trial"",""time""
""fullscreenenter"",""5"",""11807""
","
","476.1000000089407","","48","","","3000","1","","","images/tutgreenplanet.jpg","images/tutalien1","images/tutalien2","null","images/tutalien1","images/nothing.png","NA","practice","null","","","",""
"d3-animate-choice","37","183052","0.0-37.0","659","809","13","Male","false","false","false","false","""event"",""trial"",""time""
""fullscreenenter"",""5"",""11807""
""blur"",""16"",""79023""
""focus"",""16"",""80978""
","""event"",""trial"",""time""
""blur"",""16"",""79023""
","""event"",""trial"",""time""
""focus"",""16"",""80978""
","""event"",""trial"",""time""
""fullscreenenter"",""5"",""11807""
","
","1163.2999999970198","","49","","","3000","1","","","images/tutgreenplanet.jpg","images/tutalien1","images/tutalien2","null","images/tutalien2","images/t.png","NA","practice","null","","","",""
"d3-animate-choice","38","185579","0.0-38.0","659","809","13","Male","false","false","false","false","""event"",""trial"",""time""
""fullscreenenter"",""5"",""11807""
""blur"",""16"",""79023""
""focus"",""16"",""80978""
","""event"",""trial"",""time""
""blur"",""16"",""79023""
","""event"",""trial"",""time""
""focus"",""16"",""80978""
","""event"",""trial"",""time""
""fullscreenenter"",""5"",""11807""
","
","523","","49","","","3000","1","","","images/tutgreenplanet.jpg","images/tutalien1","images/tutalien2","null","images/tutalien2","images/t.png","NA","practice","null","","","",""
"d3-animate-choice","39","187914","0.0-39.0","659","809","13","Male","false","false","false","false","""event"",""trial"",""time""
""fullscreenenter"",""5"",""11807""
""blur"",""16"",""79023""
""focus"",""16"",""80978""
","""event"",""trial"",""time""
""blur"",""16"",""79023""
","""event"",""trial"",""time""
""focus"",""16"",""80978""
","""event"",""trial"",""time""
""fullscreenenter"",""5"",""11807""
","
","330.3999999910593","","49","","","3000","1","","","images/tutgreenplanet.jpg","images/tutalien1","images/tutalien2","null","images/tutalien2","images/t.png","NA","practice","null","","","",""
"d3-animate-choice","40","190199","0.0-40.0","659","809","13","Male","false","false","false","false","""event"",""trial"",""time""
""fullscreenenter"",""5"",""11807""
""blur"",""16"",""79023""
""focus"",""16"",""80978""
","""event"",""trial"",""time""
""blur"",""16"",""79023""
","""event"",""trial"",""time""
""focus"",""16"",""80978""
","""event"",""trial"",""time""
""fullscreenenter"",""5"",""11807""
","
","280.20000000298023","","49","","","3000","1","","","images/tutgreenplanet.jpg","images/tutalien1","images/tutalien2","null","images/tutalien2","images/t.png","NA","practice","null","","","",""
"d3-animate-choice","41","192565","0.0-41.0","659","809","13","Male","false","false","false","false","""event"",""trial"",""time""
""fullscreenenter"",""5"",""11807""
""blur"",""16"",""79023""
""focus"",""16"",""80978""
","""event"",""trial"",""time""
""blur"",""16"",""79023""
","""event"",""trial"",""time""
""focus"",""16"",""80978""
","""event"",""trial"",""time""
""fullscreenenter"",""5"",""11807""
","
","362.80000001192093","","49","","","3000","1","1825.7000000029802","49","images/tutgreenplanet.jpg","images/tutalien1","images/tutalien2","null","images/tutalien2","images/nothing.png","NA","practice","null","","","",""
"d3-animate-choice","42","194974","0.0-42.0","659","809","13","Male","false","false","false","false","""event"",""trial"",""time""
""fullscreenenter"",""5"",""11807""
""blur"",""16"",""79023""
""focus"",""16"",""80978""
","""event"",""trial"",""time""
""blur"",""16"",""79023""
","""event"",""trial"",""time""
""focus"",""16"",""80978""
","""event"",""trial"",""time""
""fullscreenenter"",""5"",""11807""
","
","402.70000000298023","","49","","","3000","1","737.2000000029802,1094.9000000059605,1691.5","49,49,49","images/tutgreenplanet.jpg","images/tutalien1","images/tutalien2","null","images/tutalien2","images/t.png","NA","practice","null","","","",""
"d3-animate-choice","43","197594","0.0-43.0","659","809","13","Male","false","false","false","false","""event"",""trial"",""time""
""fullscreenenter"",""5"",""11807""
""blur"",""16"",""79023""
""focus"",""16"",""80978""
","""event"",""trial"",""time""
""blur"",""16"",""79023""
","""event"",""trial"",""time""
""focus"",""16"",""80978""
","""event"",""trial"",""time""
""fullscreenenter"",""5"",""11807""
","
","615.4000000059605","","49","","","3000","1","2364.1000000089407","49","images/tutgreenplanet.jpg","images/tutalien1","images/tutalien2","null","images/tutalien2","images/t.png","NA","practice","null","","","",""
"d3-instructions","44","207917","0.0-44.0","659","809","13","Male","false","false","false","false","""event"",""trial"",""time""
""fullscreenenter"",""5"",""11807""
""blur"",""16"",""79023""
""focus"",""16"",""80978""
","""event"",""trial"",""time""
""blur"",""16"",""79023""
","""event"",""trial"",""time""
""focus"",""16"",""80978""
","""event"",""trial"",""time""
""fullscreenenter"",""5"",""11807""
","
","","","","","","","","","","","","","","","","","","","","","",""
"d3-instructions","45","213943","0.0-45.0","659","809","13","Male","false","false","false","false","""event"",""trial"",""time""
""fullscreenenter"",""5"",""11807""
""blur"",""16"",""79023""
""focus"",""16"",""80978""
","""event"",""trial"",""time""
""blur"",""16"",""79023""
","""event"",""trial"",""time""
""focus"",""16"",""80978""
","""event"",""trial"",""time""
""fullscreenenter"",""5"",""11807""
","
","","","","","","","","","","","","","","","","","","","","","",""
"d3-instructions","46","218150","0.0-46.0","659","809","13","Male","false","false","false","false","""event"",""trial"",""time""
""fullscreenenter"",""5"",""11807""
""blur"",""16"",""79023""
""focus"",""16"",""80978""
","""event"",""trial"",""time""
""blur"",""16"",""79023""
","""event"",""trial"",""time""
""focus"",""16"",""80978""
","""event"",""trial"",""time""
""fullscreenenter"",""5"",""11807""
","
","","","","","","","","","","","","","","","","","","","","","",""
"d3-instructions","47","235596","0.0-47.0","659","809","13","Male","false","false","false","false","""event"",""trial"",""time""
""fullscreenenter"",""5"",""11807""
""blur"",""16"",""79023""
""focus"",""16"",""80978""
","""event"",""trial"",""time""
""blur"",""16"",""79023""
","""event"",""trial"",""time""
""focus"",""16"",""80978""
","""event"",""trial"",""time""
""fullscreenenter"",""5"",""11807""
","
","","","","","","","","","","","","","","","","","","","","","",""
"d3-instructions","48","242297","0.0-48.0","659","809","13","Male","false","false","false","false","""event"",""trial"",""time""
""fullscreenenter"",""5"",""11807""
""blur"",""16"",""79023""
""focus"",""16"",""80978""
","""event"",""trial"",""time""
""blur"",""16"",""79023""
","""event"",""trial"",""time""
""focus"",""16"",""80978""
","""event"",""trial"",""time""
""fullscreenenter"",""5"",""11807""
","
","","","","","","","","","","","","","","","","","","","","","",""
"d3-instructions","49","256342","0.0-49.0","659","809","13","Male","false","false","false","false","""event"",""trial"",""time""
""fullscreenenter"",""5"",""11807""
""blur"",""16"",""79023""
""focus"",""16"",""80978""
","""event"",""trial"",""time""
""blur"",""16"",""79023""
","""event"",""trial"",""time""
""focus"",""16"",""80978""
","""event"",""trial"",""time""
""fullscreenenter"",""5"",""11807""
","
","","","","","","","","","","","","","","","","","","","","","",""
"d3-instructions","50","263018","0.0-50.0","659","809","13","Male","false","false","false","false","""event"",""trial"",""time""
""fullscreenenter"",""5"",""11807""
""blur"",""16"",""79023""
""focus"",""16"",""80978""
","""event"",""trial"",""time""
""blur"",""16"",""79023""
","""event"",""trial"",""time""
""focus"",""16"",""80978""
","""event"",""trial"",""time""
""fullscreenenter"",""5"",""11807""
","
","","","","","","","","","","","","","","","","","","","","","",""
"d3-instructions","51","265089","0.0-51.0","659","809","13","Male","false","false","false","false","""event"",""trial"",""time""
""fullscreenenter"",""5"",""11807""
""blur"",""16"",""79023""
""focus"",""16"",""80978""
","""event"",""trial"",""time""
""blur"",""16"",""79023""
","""event"",""trial"",""time""
""focus"",""16"",""80978""
","""event"",""trial"",""time""
""fullscreenenter"",""5"",""11807""
","
","","","","","","","","","","","","","","","","","","","","","",""
"d3-instructions","52","266615","0.0-52.0","659","809","13","Male","false","false","false","false","""event"",""trial"",""time""
""fullscreenenter"",""5"",""11807""
""blur"",""16"",""79023""
""focus"",""16"",""80978""
","""event"",""trial"",""time""
""blur"",""16"",""79023""
","""event"",""trial"",""time""
""focus"",""16"",""80978""
","""event"",""trial"",""time""
""fullscreenenter"",""5"",""11807""
","
","","","","","","","","","","","","","","","","","","","","","",""
"d3-instructions","53","271536","0.0-53.0","659","809","13","Male","false","false","false","false","""event"",""trial"",""time""
""fullscreenenter"",""5"",""11807""
""blur"",""16"",""79023""
""focus"",""16"",""80978""
","""event"",""trial"",""time""
""blur"",""16"",""79023""
","""event"",""trial"",""time""
""focus"",""16"",""80978""
","""event"",""trial"",""time""
""fullscreenenter"",""5"",""11807""
","
","","","","","","","","","","","","","","","","","","","","","",""
"d3-instructions","54","279923","0.0-54.0","659","809","13","Male","false","false","false","false","""event"",""trial"",""time""
""fullscreenenter"",""5"",""11807""
""blur"",""16"",""79023""
""focus"",""16"",""80978""
","""event"",""trial"",""time""
""blur"",""16"",""79023""
","""event"",""trial"",""time""
""focus"",""16"",""80978""
","""event"",""trial"",""time""
""fullscreenenter"",""5"",""11807""
","
","","","","","","","","","","","","","","","","","","","","","",""
"d3-instructions","55","282516","0.0-55.0","659","809","13","Male","false","false","false","false","""event"",""trial"",""time""
""fullscreenenter"",""5"",""11807""
""blur"",""16"",""79023""
""focus"",""16"",""80978""
","""event"",""trial"",""time""
""blur"",""16"",""79023""
","""event"",""trial"",""time""
""focus"",""16"",""80978""
","""event"",""trial"",""time""
""fullscreenenter"",""5"",""11807""
","
","","","","","","","","","","","","","","","","","","","","","",""
"d3-instructions","56","290628","0.0-56.0","659","809","13","Male","false","false","false","false","""event"",""trial"",""time""
""fullscreenenter"",""5"",""11807""
""blur"",""16"",""79023""
""focus"",""16"",""80978""
","""event"",""trial"",""time""
""blur"",""16"",""79023""
","""event"",""trial"",""time""
""focus"",""16"",""80978""
","""event"",""trial"",""time""
""fullscreenenter"",""5"",""11807""
","
","","","","","","","","","","","","","","","","","","","","","",""
"d3-instructions","57","295811","0.0-57.0","659","809","13","Male","false","false","false","false","""event"",""trial"",""time""
""fullscreenenter"",""5"",""11807""
""blur"",""16"",""79023""
""focus"",""16"",""80978""
","""event"",""trial"",""time""
""blur"",""16"",""79023""
","""event"",""trial"",""time""
""focus"",""16"",""80978""
","""event"",""trial"",""time""
""fullscreenenter"",""5"",""11807""
","
","","","","","","","","","","","","","","","","","","","","","",""
"d3-instructions","58","302956","0.0-58.0","659","809","13","Male","false","false","false","false","""event"",""trial"",""time""
""fullscreenenter"",""5"",""11807""
""blur"",""16"",""79023""
""focus"",""16"",""80978""
","""event"",""trial"",""time""
""blur"",""16"",""79023""
","""event"",""trial"",""time""
""focus"",""16"",""80978""
","""event"",""trial"",""time""
""fullscreenenter"",""5"",""11807""
","
","","","","","","","","","","","","","","","","","","","","","",""
"d3-instructions","59","306579","0.0-59.0","659","809","13","Male","false","false","false","false","""event"",""trial"",""time""
""fullscreenenter"",""5"",""11807""
""blur"",""16"",""79023""
""focus"",""16"",""80978""
","""event"",""trial"",""time""
""blur"",""16"",""79023""
","""event"",""trial"",""time""
""focus"",""16"",""80978""
","""event"",""trial"",""time""
""fullscreenenter"",""5"",""11807""
","
","","","","","","","","","","","","","","","","","","","","","",""
"d3-instructions","60","309185","0.0-60.0","659","809","13","Male","false","false","false","false","""event"",""trial"",""time""
""fullscreenenter"",""5"",""11807""
""blur"",""16"",""79023""
""focus"",""16"",""80978""
","""event"",""trial"",""time""
""blur"",""16"",""79023""
","""event"",""trial"",""time""
""focus"",""16"",""80978""
","""event"",""trial"",""time""
""fullscreenenter"",""5"",""11807""
","
","","","","","","","","","","","","","","","","","","","","","",""
"d3-animate-choice","61","311424","0.0-61.0-0.0","659","809","13","Male","false","false","false","false","""event"",""trial"",""time""
""fullscreenenter"",""5"",""11807""
""blur"",""16"",""79023""
""focus"",""16"",""80978""
","""event"",""trial"",""time""
""blur"",""16"",""79023""
","""event"",""trial"",""time""
""focus"",""16"",""80978""
","""event"",""trial"",""time""
""fullscreenenter"",""5"",""11807""
","
","232.80000001192093","","49","","","3000","1","","","images/earth.jpg","images/tutrocket2","images/tutrocket1","null","images/tutrocket1","","1","practice","null","1","","",""
"d3-animate-choice","62","313957","0.0-61.0-1.0","659","809","13","Male","false","false","false","false","""event"",""trial"",""time""
""fullscreenenter"",""5"",""11807""
""blur"",""16"",""79023""
""focus"",""16"",""80978""
","""event"",""trial"",""time""
""blur"",""16"",""79023""
","""event"",""trial"",""time""
""focus"",""16"",""80978""
","""event"",""trial"",""time""
""fullscreenenter"",""5"",""11807""
","
","526.1999999880791","","49","","","3000","1","","","images/tutyellowplanet.jpg","images/tutalien4","images/tutalien3","images/tutrocket1","images/tutalien3","images/nothing.png","2","practice","true","1","common","0","2022-02-13 18:13:43.388"
"two-step-fixation","63","314973","0.0-61.0-2.0","659","809","13","Male","false","false","false","false","""event"",""trial"",""time""
""fullscreenenter"",""5"",""11807""
""blur"",""16"",""79023""
""focus"",""16"",""80978""
","""event"",""trial"",""time""
""blur"",""16"",""79023""
","""event"",""trial"",""time""
""focus"",""16"",""80978""
","""event"",""trial"",""time""
""fullscreenenter"",""5"",""11807""
","
","","images/earth.jpg","","","","","","","","","","","","","","fixation","","","","","",""
"d3-animate-choice","64","317272","0.0-61.0-0.1","659","809","13","Male","false","false","false","false","""event"",""trial"",""time""
""fullscreenenter"",""5"",""11807""
""blur"",""16"",""79023""
""focus"",""16"",""80978""
","""event"",""trial"",""time""
""blur"",""16"",""79023""
","""event"",""trial"",""time""
""focus"",""16"",""80978""
","""event"",""trial"",""time""
""fullscreenenter"",""5"",""11807""
","
","295.6000000089407","","49","","","3000","1","","","images/earth.jpg","images/tutrocket2","images/tutrocket1","null","images/tutrocket1","","1","practice","null","1","","",""
"d3-animate-choice","65","320098","0.0-61.0-1.1","659","809","13","Male","false","false","false","false","""event"",""trial"",""time""
""fullscreenenter"",""5"",""11807""
""blur"",""16"",""79023""
""focus"",""16"",""80978""
","""event"",""trial"",""time""
""blur"",""16"",""79023""
","""event"",""trial"",""time""
""focus"",""16"",""80978""
","""event"",""trial"",""time""
""fullscreenenter"",""5"",""11807""
","
","822.4000000059605","","48","","","3000","1","","","images/tutgreenplanet.jpg","images/tutalien2","images/tutalien1","images/tutrocket1","images/tutalien2","images/nothing.png","2","practice","false","2","rare","0","2022-02-13 18:13:49.529"
"two-step-fixation","66","321101","0.0-61.0-2.1","659","809","13","Male","false","false","false","false","""event"",""trial"",""time""
""fullscreenenter"",""5"",""11807""
""blur"",""16"",""79023""
""focus"",""16"",""80978""
","""event"",""trial"",""time""
""blur"",""16"",""79023""
","""event"",""trial"",""time""
""focus"",""16"",""80978""
","""event"",""trial"",""time""
""fullscreenenter"",""5"",""11807""
","
","","images/earth.jpg","","","","","","","","","","","","","","fixation","","","","","",""
"d3-animate-choice","67","323216","0.0-61.0-0.2","659","809","13","Male","false","false","false","false","""event"",""trial"",""time""
""fullscreenenter"",""5"",""11807""
""blur"",""16"",""79023""
""focus"",""16"",""80978""
","""event"",""trial"",""time""
""blur"",""16"",""79023""
","""event"",""trial"",""time""
""focus"",""16"",""80978""
","""event"",""trial"",""time""
""fullscreenenter"",""5"",""11807""
","
","110.70000000298023","","49","","","3000","1","","","images/earth.jpg","images/tutrocket2","images/tutrocket1","null","images/tutrocket1","","1","practice","null","1","","",""
"d3-animate-choice","68","325782","0.0-61.0-1.2","659","809","13","Male","false","false","false","false","""event"",""trial"",""time""
""fullscreenenter"",""5"",""11807""
""blur"",""16"",""79023""
""focus"",""16"",""80978""
","""event"",""trial"",""time""
""blur"",""16"",""79023""
","""event"",""trial"",""time""
""focus"",""16"",""80978""
","""event"",""trial"",""time""
""fullscreenenter"",""5"",""11807""
","
","560.0999999940395","","48","","","3000","1","","","images/tutgreenplanet.jpg","images/tutalien2","images/tutalien1","images/tutrocket1","images/tutalien2","images/t.png","2","practice","false","2","rare","1","2022-02-13 18:13:55.214"
"two-step-fixation","69","326788","0.0-61.0-2.2","659","809","13","Male","false","false","false","false","""event"",""trial"",""time""
""fullscreenenter"",""5"",""11807""
""blur"",""16"",""79023""
""focus"",""16"",""80978""
","""event"",""trial"",""time""
""blur"",""16"",""79023""
","""event"",""trial"",""time""
""focus"",""16"",""80978""
","""event"",""trial"",""time""
""fullscreenenter"",""5"",""11807""
","
","","images/earth.jpg","","","","","","","","","","","","","","fixation","","","","","",""
"d3-animate-choice","70","329490","0.0-61.0-0.3","659","809","13","Male","false","false","false","false","""event"",""trial"",""time""
""fullscreenenter"",""5"",""11807""
""blur"",""16"",""79023""
""focus"",""16"",""80978""
","""event"",""trial"",""time""
""blur"",""16"",""79023""
","""event"",""trial"",""time""
""focus"",""16"",""80978""
","""event"",""trial"",""time""
""fullscreenenter"",""5"",""11807""
","
","691.2000000029802","","49","","","3000","1","","","images/earth.jpg","images/tutrocket2","images/tutrocket1","null","images/tutrocket1","","1","practice","null","1","","",""
"d3-animate-choice","71","332090","0.0-61.0-1.3","659","809","13","Male","false","false","false","false","""event"",""trial"",""time""
""fullscreenenter"",""5"",""11807""
""blur"",""16"",""79023""
""focus"",""16"",""80978""
","""event"",""trial"",""time""
""blur"",""16"",""79023""
","""event"",""trial"",""time""
""focus"",""16"",""80978""
","""event"",""trial"",""time""
""fullscreenenter"",""5"",""11807""
","
","587.5999999940395","","48","","","3000","1","","","images/tutgreenplanet.jpg","images/tutalien2","images/tutalien1","images/tutrocket1","images/tutalien2","images/t.png","2","practice","false","2","rare","1","2022-02-13 18:14:01.522"
"two-step-fixation","72","333110","0.0-61.0-2.3","659","809","13","Male","false","false","false","false","""event"",""trial"",""time""
""fullscreenenter"",""5"",""11807""
""blur"",""16"",""79023""
""focus"",""16"",""80978""
","""event"",""trial"",""time""
""blur"",""16"",""79023""
","""event"",""trial"",""time""
""focus"",""16"",""80978""
","""event"",""trial"",""time""
""fullscreenenter"",""5"",""11807""
","
","","images/earth.jpg","","","","","","","","","","","","","","fixation","","","","","",""
"d3-animate-choice","73","335452","0.0-61.0-0.4","659","809","13","Male","false","false","false","false","""event"",""trial"",""time""
""fullscreenenter"",""5"",""11807""
""blur"",""16"",""79023""
""focus"",""16"",""80978""
","""event"",""trial"",""time""
""blur"",""16"",""79023""
","""event"",""trial"",""time""
""focus"",""16"",""80978""
","""event"",""trial"",""time""
""fullscreenenter"",""5"",""11807""
","
","329.20000000298023","","49","","","3000","1","726.4000000059605,996.6000000089407,1315.9000000059605,1644.7999999970198","48,48,48,48","images/earth.jpg","images/tutrocket2","images/tutrocket1","null","images/tutrocket1","","1","practice","null","1","","",""
"d3-animate-choice","74","337853","0.0-61.0-1.4","659","809","13","Male","false","false","false","false","""event"",""trial"",""time""
""fullscreenenter"",""5"",""11807""
""blur"",""16"",""79023""
""focus"",""16"",""80978""
","""event"",""trial"",""time""
""blur"",""16"",""79023""
","""event"",""trial"",""time""
""focus"",""16"",""80978""
","""event"",""trial"",""time""
""fullscreenenter"",""5"",""11807""
","
","389.79999999701977","","48","","","3000","1","","","images/tutyellowplanet.jpg","images/tutalien4","images/tutalien3","images/tutrocket1","images/tutalien4","images/nothing.png","2","practice","true","2","common","0","2022-02-13 18:14:07.285"
"two-step-fixation","75","338858","0.0-61.0-2.4","659","809","13","Male","false","false","false","false","""event"",""trial"",""time""
""fullscreenenter"",""5"",""11807""
""blur"",""16"",""79023""
""focus"",""16"",""80978""
","""event"",""trial"",""time""
""blur"",""16"",""79023""
","""event"",""trial"",""time""
""focus"",""16"",""80978""
","""event"",""trial"",""time""
""fullscreenenter"",""5"",""11807""
","
","","images/earth.jpg","","","","","","","","","","","","","","fixation","","","","","",""
"d3-animate-choice","76","341521","0.0-61.0-0.5","659","809","13","Male","false","false","false","false","""event"",""trial"",""time""
""fullscreenenter"",""5"",""11807""
""blur"",""16"",""79023""
""focus"",""16"",""80978""
","""event"",""trial"",""time""
""blur"",""16"",""79023""
","""event"",""trial"",""time""
""focus"",""16"",""80978""
","""event"",""trial"",""time""
""fullscreenenter"",""5"",""11807""
","
","658.7000000029802","","49","","","3000","1","","","images/earth.jpg","images/tutrocket2","images/tutrocket1","null","images/tutrocket1","","1","practice","null","1","","",""
"d3-animate-choice","77","344267","0.0-61.0-1.5","659","809","13","Male","false","false","false","false","""event"",""trial"",""time""
""fullscreenenter"",""5"",""11807""
""blur"",""16"",""79023""
""focus"",""16"",""80978""
","""event"",""trial"",""time""
""blur"",""16"",""79023""
","""event"",""trial"",""time""
""focus"",""16"",""80978""
","""event"",""trial"",""time""
""fullscreenenter"",""5"",""11807""
","
","719.1999999880791","","49","","","3000","1","","","images/tutyellowplanet.jpg","images/tutalien4","images/tutalien3","images/tutrocket1","images/tutalien3","images/nothing.png","2","practice","true","1","common","0","2022-02-13 18:14:13.698"
"two-step-fixation","78","345272","0.0-61.0-2.5","659","809","13","Male","false","false","false","false","""event"",""trial"",""time""
""fullscreenenter"",""5"",""11807""
""blur"",""16"",""79023""
""focus"",""16"",""80978""
","""event"",""trial"",""time""
""blur"",""16"",""79023""
","""event"",""trial"",""time""
""focus"",""16"",""80978""
","""event"",""trial"",""time""
""fullscreenenter"",""5"",""11807""
","
","","images/earth.jpg","","","","","","","","","","","","","","fixation","","","","","",""
"d3-animate-choice","79","347457","0.0-61.0-0.6","659","809","13","Male","false","false","false","false","""event"",""trial"",""time""
""fullscreenenter"",""5"",""11807""
""blur"",""16"",""79023""
""focus"",""16"",""80978""
","""event"",""trial"",""time""
""blur"",""16"",""79023""
","""event"",""trial"",""time""
""focus"",""16"",""80978""
","""event"",""trial"",""time""
""fullscreenenter"",""5"",""11807""
","
","129","","49","","","3000","1","","","images/earth.jpg","images/tutrocket2","images/tutrocket1","null","images/tutrocket1","","1","practice","null","1","","",""
"d3-animate-choice","80","349945","0.0-61.0-1.6","659","809","13","Male","false","false","false","false","""event"",""trial"",""time""
""fullscreenenter"",""5"",""11807""
""blur"",""16"",""79023""
""focus"",""16"",""80978""
","""event"",""trial"",""time""
""blur"",""16"",""79023""
","""event"",""trial"",""time""
""focus"",""16"",""80978""
","""event"",""trial"",""time""
""fullscreenenter"",""5"",""11807""
","
","482.79999999701977","","48","","","3000","1","","","images/tutgreenplanet.jpg","images/tutalien2","images/tutalien1","images/tutrocket1","images/tutalien2","images/nothing.png","2","practice","false","2","rare","0","2022-02-13 18:14:19.376"
"two-step-fixation","81","350950","0.0-61.0-2.6","659","809","13","Male","false","false","false","false","""event"",""trial"",""time""
""fullscreenenter"",""5"",""11807""
""blur"",""16"",""79023""
""focus"",""16"",""80978""
","""event"",""trial"",""time""
""blur"",""16"",""79023""
","""event"",""trial"",""time""
""focus"",""16"",""80978""
","""event"",""trial"",""time""
""fullscreenenter"",""5"",""11807""
","
","","images/earth.jpg","","","","","","","","","","","","","","fixation","","","","","",""
"d3-animate-choice","82","353203","0.0-61.0-0.7","659","809","13","Male","false","false","false","false","""event"",""trial"",""time""
""fullscreenenter"",""5"",""11807""
""blur"",""16"",""79023""
""focus"",""16"",""80978""
","""event"",""trial"",""time""
""blur"",""16"",""79023""
","""event"",""trial"",""time""
""focus"",""16"",""80978""
","""event"",""trial"",""time""
""fullscreenenter"",""5"",""11807""
","
","248.3999999910593","","49","","","3000","1","","","images/earth.jpg","images/tutrocket2","images/tutrocket1","null","images/tutrocket1","","1","practice","null","1","","",""
"d3-animate-choice","83","355697","0.0-61.0-1.7","659","809","13","Male","false","false","false","false","""event"",""trial"",""time""
""fullscreenenter"",""5"",""11807""
""blur"",""16"",""79023""
""focus"",""16"",""80978""
","""event"",""trial"",""time""
""blur"",""16"",""79023""
","""event"",""trial"",""time""
""focus"",""16"",""80978""
","""event"",""trial"",""time""
""fullscreenenter"",""5"",""11807""
","
","484.90000000596046","","48","","","3000","1","","","images/tutyellowplanet.jpg","images/tutalien4","images/tutalien3","images/tutrocket1","images/tutalien4","images/t.png","2","practice","true","2","common","1","2022-02-13 18:14:25.129"
"two-step-fixation","84","356702","0.0-61.0-2.7","659","809","13","Male","false","false","false","false","""event"",""trial"",""time""
""fullscreenenter"",""5"",""11807""
""blur"",""16"",""79023""
""focus"",""16"",""80978""
","""event"",""trial"",""time""
""blur"",""16"",""79023""
","""event"",""trial"",""time""
""focus"",""16"",""80978""
","""event"",""trial"",""time""
""fullscreenenter"",""5"",""11807""
","
","","images/earth.jpg","","","","","","","","","","","","","","fixation","","","","","",""
"d3-animate-choice","85","359291","0.0-61.0-0.8","659","809","13","Male","false","false","false","false","""event"",""trial"",""time""
""fullscreenenter"",""5"",""11807""
""blur"",""16"",""79023""
""focus"",""16"",""80978""
","""event"",""trial"",""time""
""blur"",""16"",""79023""
","""event"",""trial"",""time""
""focus"",""16"",""80978""
","""event"",""trial"",""time""
""fullscreenenter"",""5"",""11807""
","
","583.5","","49","","","3000","1","","","images/earth.jpg","images/tutrocket2","images/tutrocket1","null","images/tutrocket1","","1","practice","null","1","","",""
"d3-animate-choice","86","361892","0.0-61.0-1.8","659","809","13","Male","false","false","false","false","""event"",""trial"",""time""
""fullscreenenter"",""5"",""11807""
""blur"",""16"",""79023""
""focus"",""16"",""80978""
","""event"",""trial"",""time""
""blur"",""16"",""79023""
","""event"",""trial"",""time""
""focus"",""16"",""80978""
","""event"",""trial"",""time""
""fullscreenenter"",""5"",""11807""
","
","594.4000000059605","","48","","","3000","1","","","images/tutgreenplanet.jpg","images/tutalien2","images/tutalien1","images/tutrocket1","images/tutalien2","images/nothing.png","2","practice","false","2","rare","0","2022-02-13 18:14:31.323"
"two-step-fixation","87","362896","0.0-61.0-2.8","659","809","13","Male","false","false","false","false","""event"",""trial"",""time""
""fullscreenenter"",""5"",""11807""
""blur"",""16"",""79023""
""focus"",""16"",""80978""
","""event"",""trial"",""time""
""blur"",""16"",""79023""
","""event"",""trial"",""time""
""focus"",""16"",""80978""
","""event"",""trial"",""time""
""fullscreenenter"",""5"",""11807""
","
","","images/earth.jpg","","","","","","","","","","","","","","fixation","","","","","",""
"d3-animate-choice","88","365584","0.0-61.0-0.9","659","809","13","Male","false","false","false","false","""event"",""trial"",""time""
""fullscreenenter"",""5"",""11807""
""blur"",""16"",""79023""
""focus"",""16"",""80978""
","""event"",""trial"",""time""
""blur"",""16"",""79023""
","""event"",""trial"",""time""
""focus"",""16"",""80978""
","""event"",""trial"",""time""
""fullscreenenter"",""5"",""11807""
","
","681","","49","","","3000","1","","","images/earth.jpg","images/tutrocket2","images/tutrocket1","null","images/tutrocket1","","1","practice","null","1","","",""
"d3-animate-choice","89","368077","0.0-61.0-1.9","659","809","13","Male","false","false","false","false","""event"",""trial"",""time""
""fullscreenenter"",""5"",""11807""
""blur"",""16"",""79023""
""focus"",""16"",""80978""
","""event"",""trial"",""time""
""blur"",""16"",""79023""
","""event"",""trial"",""time""
""focus"",""16"",""80978""
","""event"",""trial"",""time""
""fullscreenenter"",""5"",""11807""
","
","488.79999999701977","","49","","","3000","1","","","images/tutgreenplanet.jpg","images/tutalien2","images/tutalien1","images/tutrocket1","images/tutalien1","images/nothing.png","2","practice","false","1","rare","0","2022-02-13 18:14:37.508"
"two-step-fixation","90","369082","0.0-61.0-2.9","659","809","13","Male","false","false","false","false","""event"",""trial"",""time""
""fullscreenenter"",""5"",""11807""
""blur"",""16"",""79023""
""focus"",""16"",""80978""
","""event"",""trial"",""time""
""blur"",""16"",""79023""
","""event"",""trial"",""time""
""focus"",""16"",""80978""
","""event"",""trial"",""time""
""fullscreenenter"",""5"",""11807""
","
","","images/earth.jpg","","","","","","","","","","","","","","fixation","","","","","",""
"d3-animate-choice","91","371209","0.0-61.0-0.10","659","809","13","Male","false","false","false","false","""event"",""trial"",""time""
""fullscreenenter"",""5"",""11807""
""blur"",""16"",""79023""
""focus"",""16"",""80978""
","""event"",""trial"",""time""
""blur"",""16"",""79023""
","""event"",""trial"",""time""
""focus"",""16"",""80978""
","""event"",""trial"",""time""
""fullscreenenter"",""5"",""11807""
","
","121.29999999701977","","49","","","3000","1","419.3999999910593","49","images/earth.jpg","images/tutrocket2","images/tutrocket1","null","images/tutrocket1","","1","practice","null","1","","",""
"d3-animate-choice","92","373563","0.0-61.0-1.10","659","809","13","Male","false","false","false","false","""event"",""trial"",""time""
""fullscreenenter"",""5"",""11807""
""blur"",""16"",""79023""
""focus"",""16"",""80978""
","""event"",""trial"",""time""
""blur"",""16"",""79023""
","""event"",""trial"",""time""
""focus"",""16"",""80978""
","""event"",""trial"",""time""
""fullscreenenter"",""5"",""11807""
","
","349.40000000596046","","49","","","3000","1","","","images/tutyellowplanet.jpg","images/tutalien4","images/tutalien3","images/tutrocket1","images/tutalien3","images/nothing.png","2","practice","true","1","common","0","2022-02-13 18:14:42.994"
"two-step-fixation","93","374568","0.0-61.0-2.10","659","809","13","Male","false","false","false","false","""event"",""trial"",""time""
""fullscreenenter"",""5"",""11807""
""blur"",""16"",""79023""
""focus"",""16"",""80978""
","""event"",""trial"",""time""
""blur"",""16"",""79023""
","""event"",""trial"",""time""
""focus"",""16"",""80978""
","""event"",""trial"",""time""
""fullscreenenter"",""5"",""11807""
","
","","images/earth.jpg","","","","","","","","","","","","","","fixation","","","","","",""
"d3-animate-choice","94","376643","0.0-61.0-0.11","659","809","13","Male","false","false","false","false","""event"",""trial"",""time""
""fullscreenenter"",""5"",""11807""
""blur"",""16"",""79023""
""focus"",""16"",""80978""
","""event"",""trial"",""time""
""blur"",""16"",""79023""
","""event"",""trial"",""time""
""focus"",""16"",""80978""
","""event"",""trial"",""time""
""fullscreenenter"",""5"",""11807""
","
","64.5","","49","","","3000","1","","","images/earth.jpg","images/tutrocket2","images/tutrocket1","null","images/tutrocket1","","1","practice","null","1","","",""
"d3-animate-choice","95","379718","0.0-61.0-1.11","659","809","13","Male","false","false","false","false","""event"",""trial"",""time""
""fullscreenenter"",""5"",""11807""
""blur"",""16"",""79023""
""focus"",""16"",""80978""
","""event"",""trial"",""time""
""blur"",""16"",""79023""
","""event"",""trial"",""time""
""focus"",""16"",""80978""
","""event"",""trial"",""time""
""fullscreenenter"",""5"",""11807""
","
","1071.2999999970198","","49","","","3000","1","","","images/tutyellowplanet.jpg","images/tutalien4","images/tutalien3","images/tutrocket1","images/tutalien3","images/t.png","2","practice","true","1","common","1","2022-02-13 18:14:49.149"
"two-step-fixation","96","380723","0.0-61.0-2.11","659","809","13","Male","false","false","false","false","""event"",""trial"",""time""
""fullscreenenter"",""5"",""11807""
""blur"",""16"",""79023""
""focus"",""16"",""80978""
","""event"",""trial"",""time""
""blur"",""16"",""79023""
","""event"",""trial"",""time""
""focus"",""16"",""80978""
","""event"",""trial"",""time""
""fullscreenenter"",""5"",""11807""
","
","","images/earth.jpg","","","","","","","","","","","","","","fixation","","","","","",""
"d3-animate-choice","97","384270","0.0-61.0-0.12","659","809","13","Male","false","false","false","false","""event"",""trial"",""time""
""fullscreenenter"",""5"",""11807""
""blur"",""16"",""79023""
""focus"",""16"",""80978""
","""event"",""trial"",""time""
""blur"",""16"",""79023""
","""event"",""trial"",""time""
""focus"",""16"",""80978""
","""event"",""trial"",""time""
""fullscreenenter"",""5"",""11807""
","
","1539.5","","49","","","3000","1","1753.699999988079,1992.7999999970198,2198","49,49,49","images/earth.jpg","images/tutrocket2","images/tutrocket1","null","images/tutrocket1","","1","practice","null","1","","",""
"d3-animate-choice","98","386677","0.0-61.0-1.12","659","809","13","Male","false","false","false","false","""event"",""trial"",""time""
""fullscreenenter"",""5"",""11807""
""blur"",""16"",""79023""
""focus"",""16"",""80978""
","""event"",""trial"",""time""
""blur"",""16"",""79023""
","""event"",""trial"",""time""
""focus"",""16"",""80978""
","""event"",""trial"",""time""
""fullscreenenter"",""5"",""11807""
","
","400.79999999701977","","49","","","3000","1","","","images/tutgreenplanet.jpg","images/tutalien2","images/tutalien1","images/tutrocket1","images/tutalien1","images/nothing.png","2","practice","false","1","rare","0","2022-02-13 18:14:56.108"
"two-step-fixation","99","387681","0.0-61.0-2.12","659","809","13","Male","false","false","false","false","""event"",""trial"",""time""
""fullscreenenter"",""5"",""11807""
""blur"",""16"",""79023""
""focus"",""16"",""80978""
","""event"",""trial"",""time""
""blur"",""16"",""79023""
","""event"",""trial"",""time""
""focus"",""16"",""80978""
","""event"",""trial"",""time""
""fullscreenenter"",""5"",""11807""
","
","","images/earth.jpg","","","","","","","","","","","","","","fixation","","","","","",""
"d3-animate-choice","100","390003","0.0-61.0-0.13","659","809","13","Male","false","false","false","false","""event"",""trial"",""time""
""fullscreenenter"",""5"",""11807""
""blur"",""16"",""79023""
""focus"",""16"",""80978""
","""event"",""trial"",""time""
""blur"",""16"",""79023""
","""event"",""trial"",""time""
""focus"",""16"",""80978""
","""event"",""trial"",""time""
""fullscreenenter"",""5"",""11807""
","
","308.80000001192093","","48","","","3000","1","","","images/earth.jpg","images/tutrocket2","images/tutrocket1","null","images/tutrocket2","","1","practice","null","2","","",""
"d3-animate-choice","101","393123","0.0-61.0-1.13","659","809","13","Male","false","false","false","false","""event"",""trial"",""time""
""fullscreenenter"",""5"",""11807""
""blur"",""16"",""79023""
""focus"",""16"",""80978""
","""event"",""trial"",""time""
""blur"",""16"",""79023""
","""event"",""trial"",""time""
""focus"",""16"",""80978""
","""event"",""trial"",""time""
""fullscreenenter"",""5"",""11807""
","
","1115.7000000029802","","49","","","3000","1","","","images/tutgreenplanet.jpg","images/tutalien2","images/tutalien1","images/tutrocket2","images/tutalien1","images/nothing.png","2","practice","true","1","common","0","2022-02-13 18:15:02.554"
"two-step-fixation","102","394129","0.0-61.0-2.13","659","809","13","Male","false","false","false","false","""event"",""trial"",""time""
""fullscreenenter"",""5"",""11807""
""blur"",""16"",""79023""
""focus"",""16"",""80978""
","""event"",""trial"",""time""
""blur"",""16"",""79023""
","""event"",""trial"",""time""
""focus"",""16"",""80978""
","""event"",""trial"",""time""
""fullscreenenter"",""5"",""11807""
","
","","images/earth.jpg","","","","","","","","","","","","","","fixation","","","","","",""
"d3-animate-choice","103","396246","0.0-61.0-0.14","659","809","13","Male","false","false","false","false","""event"",""trial"",""time""
""fullscreenenter"",""5"",""11807""
""blur"",""16"",""79023""
""focus"",""16"",""80978""
","""event"",""trial"",""time""
""blur"",""16"",""79023""
","""event"",""trial"",""time""
""focus"",""16"",""80978""
","""event"",""trial"",""time""
""fullscreenenter"",""5"",""11807""
","
","112","","48","","","3000","1","","","images/earth.jpg","images/tutrocket2","images/tutrocket1","null","images/tutrocket2","","1","practice","null","2","","",""
"d3-animate-choice","104","399643","0.0-61.0-1.14","659","809","13","Male","false","false","false","false","""event"",""trial"",""time""
""fullscreenenter"",""5"",""11807""
""blur"",""16"",""79023""
""focus"",""16"",""80978""
","""event"",""trial"",""time""
""blur"",""16"",""79023""
","""event"",""trial"",""time""
""focus"",""16"",""80978""
","""event"",""trial"",""time""
""fullscreenenter"",""5"",""11807""
","
","1389.2000000029802","","49","","","3000","1","","","images/tutyellowplanet.jpg","images/tutalien4","images/tutalien3","images/tutrocket2","images/tutalien3","images/nothing.png","2","practice","false","1","rare","0","2022-02-13 18:15:09.074"
"two-step-fixation","105","400653","0.0-61.0-2.14","659","809","13","Male","false","false","false","false","""event"",""trial"",""time""
""fullscreenenter"",""5"",""11807""
""blur"",""16"",""79023""
""focus"",""16"",""80978""
","""event"",""trial"",""time""
""blur"",""16"",""79023""
","""event"",""trial"",""time""
""focus"",""16"",""80978""
","""event"",""trial"",""time""
""fullscreenenter"",""5"",""11807""
","
","","images/earth.jpg","","","","","","","","","","","","","","fixation","","","","","",""
"d3-animate-choice","106","403306","0.0-61.0-0.15","659","809","13","Male","false","false","false","false","""event"",""trial"",""time""
""fullscreenenter"",""5"",""11807""
""blur"",""16"",""79023""
""focus"",""16"",""80978""
","""event"",""trial"",""time""
""blur"",""16"",""79023""
","""event"",""trial"",""time""
""focus"",""16"",""80978""
","""event"",""trial"",""time""
""fullscreenenter"",""5"",""11807""
","
","647","","48","","","3000","1","","","images/earth.jpg","images/tutrocket2","images/tutrocket1","null","images/tutrocket2","","1","practice","null","2","","",""
"d3-animate-choice","107","406139","0.0-61.0-1.15","659","809","13","Male","false","false","false","false","""event"",""trial"",""time""
""fullscreenenter"",""5"",""11807""
""blur"",""16"",""79023""
""focus"",""16"",""80978""
","""event"",""trial"",""time""
""blur"",""16"",""79023""
","""event"",""trial"",""time""
""focus"",""16"",""80978""
","""event"",""trial"",""time""
""fullscreenenter"",""5"",""11807""
","
","825.6000000089407","","48","","","3000","1","","","images/tutgreenplanet.jpg","images/tutalien2","images/tutalien1","images/tutrocket2","images/tutalien2","images/t.png","2","practice","true","2","common","1","2022-02-13 18:15:15.570"
"two-step-fixation","108","407144","0.0-61.0-2.15","659","809","13","Male","false","false","false","false","""event"",""trial"",""time""
""fullscreenenter"",""5"",""11807""
""blur"",""16"",""79023""
""focus"",""16"",""80978""
","""event"",""trial"",""time""
""blur"",""16"",""79023""
","""event"",""trial"",""time""
""focus"",""16"",""80978""
","""event"",""trial"",""time""
""fullscreenenter"",""5"",""11807""
","
","","images/earth.jpg","","","","","","","","","","","","","","fixation","","","","","",""
"d3-animate-choice","109","409454","0.0-61.0-0.16","659","809","13","Male","false","false","false","false","""event"",""trial"",""time""
""fullscreenenter"",""5"",""11807""
""blur"",""16"",""79023""
""focus"",""16"",""80978""
","""event"",""trial"",""time""
""blur"",""16"",""79023""
","""event"",""trial"",""time""
""focus"",""16"",""80978""
","""event"",""trial"",""time""
""fullscreenenter"",""5"",""11807""
","
","305.09999999403954","","48","","","3000","1","","","images/earth.jpg","images/tutrocket2","images/tutrocket1","null","images/tutrocket2","","1","practice","null","2","","",""
"d3-animate-choice","110","412553","0.0-61.0-1.16","659","809","13","Male","false","false","false","false","""event"",""trial"",""time""
""fullscreenenter"",""5"",""11807""
""blur"",""16"",""79023""
""focus"",""16"",""80978""
","""event"",""trial"",""time""
""blur"",""16"",""79023""
","""event"",""trial"",""time""
""focus"",""16"",""80978""
","""event"",""trial"",""time""
""fullscreenenter"",""5"",""11807""
","
","1094.5","","48","","","3000","1","","","images/tutgreenplanet.jpg","images/tutalien2","images/tutalien1","images/tutrocket2","images/tutalien2","images/t.png","2","practice","true","2","common","1","2022-02-13 18:15:21.984"
"two-step-fixation","111","413557","0.0-61.0-2.16","659","809","13","Male","false","false","false","false","""event"",""trial"",""time""
""fullscreenenter"",""5"",""11807""
""blur"",""16"",""79023""
""focus"",""16"",""80978""
","""event"",""trial"",""time""
""blur"",""16"",""79023""
","""event"",""trial"",""time""
""focus"",""16"",""80978""
","""event"",""trial"",""time""
""fullscreenenter"",""5"",""11807""
","
","","images/earth.jpg","","","","","","","","","","","","","","fixation","","","","","",""
"d3-animate-choice","112","415671","0.0-61.0-0.17","659","809","13","Male","false","false","false","false","""event"",""trial"",""time""
""fullscreenenter"",""5"",""11807""
""blur"",""16"",""79023""
""focus"",""16"",""80978""
","""event"",""trial"",""time""
""blur"",""16"",""79023""
","""event"",""trial"",""time""
""focus"",""16"",""80978""
","""event"",""trial"",""time""
""fullscreenenter"",""5"",""11807""
","
","109","","48","","","3000","1","","","images/earth.jpg","images/tutrocket2","images/tutrocket1","null","images/tutrocket2","","1","practice","null","2","","",""
"d3-animate-choice","113","418567","0.0-61.0-1.17","659","809","13","Male","false","false","false","false","""event"",""trial"",""time""
""fullscreenenter"",""5"",""11807""
""blur"",""16"",""79023""
""focus"",""16"",""80978""
","""event"",""trial"",""time""
""blur"",""16"",""79023""
","""event"",""trial"",""time""
""focus"",""16"",""80978""
","""event"",""trial"",""time""
""fullscreenenter"",""5"",""11807""
","
","892.0999999940395","","48","","","3000","1","","","images/tutyellowplanet.jpg","images/tutalien4","images/tutalien3","images/tutrocket2","images/tutalien4","images/t.png","2","practice","false","2","rare","1","2022-02-13 18:15:27.998"
"two-step-fixation","114","419570","0.0-61.0-2.17","659","809","13","Male","false","false","false","false","""event"",""trial"",""time""
""fullscreenenter"",""5"",""11807""
""blur"",""16"",""79023""
""focus"",""16"",""80978""
","""event"",""trial"",""time""
""blur"",""16"",""79023""
","""event"",""trial"",""time""
""focus"",""16"",""80978""
","""event"",""trial"",""time""
""fullscreenenter"",""5"",""11807""
","
","","images/earth.jpg","","","","","","","","","","","","","","fixation","","","","","",""
"d3-animate-choice","115","421667","0.0-61.0-0.18","659","809","13","Male","false","false","false","false","""event"",""trial"",""time""
""fullscreenenter"",""5"",""11807""
""blur"",""16"",""79023""
""focus"",""16"",""80978""
","""event"",""trial"",""time""
""blur"",""16"",""79023""
","""event"",""trial"",""time""
""focus"",""16"",""80978""
","""event"",""trial"",""time""
""fullscreenenter"",""5"",""11807""
","
","91.5","","48","","","3000","1","1514.5","48","images/earth.jpg","images/tutrocket2","images/tutrocket1","null","images/tutrocket2","","1","practice","null","2","","",""
"d3-animate-choice","116","424253","0.0-61.0-1.18","659","809","13","Male","false","false","false","false","""event"",""trial"",""time""
""fullscreenenter"",""5"",""11807""
""blur"",""16"",""79023""
""focus"",""16"",""80978""
","""event"",""trial"",""time""
""blur"",""16"",""79023""
","""event"",""trial"",""time""
""focus"",""16"",""80978""
","""event"",""trial"",""time""
""fullscreenenter"",""5"",""11807""
","
","582.0999999940395","","48","","","3000","1","1149.3999999910593,1332.5999999940395,1573.3999999910593,1838.0999999940395,2057.3999999910593,2214.5999999940395,2358.0999999940395,2475.5999999940395","48,48,48,48,48,48,48,48","images/tutgreenplanet.jpg","images/tutalien2","images/tutalien1","images/tutrocket2","images/tutalien2","images/nothing.png","2","practice","true","2","common","0","2022-02-13 18:15:33.684"
"two-step-fixation","117","425255","0.0-61.0-2.18","659","809","13","Male","false","false","false","false","""event"",""trial"",""time""
""fullscreenenter"",""5"",""11807""
""blur"",""16"",""79023""
""focus"",""16"",""80978""
","""event"",""trial"",""time""
""blur"",""16"",""79023""
","""event"",""trial"",""time""
""focus"",""16"",""80978""
","""event"",""trial"",""time""
""fullscreenenter"",""5"",""11807""
","
","","images/earth.jpg","","","","","","","","","","","","","","fixation","","","","","",""
"d3-animate-choice","118","427433","0.0-61.0-0.19","659","809","13","Male","false","false","false","false","""event"",""trial"",""time""
""fullscreenenter"",""5"",""11807""
""blur"",""16"",""79023""
""focus"",""16"",""80978""
","""event"",""trial"",""time""
""blur"",""16"",""79023""
","""event"",""trial"",""time""
""focus"",""16"",""80978""
","""event"",""trial"",""time""
""fullscreenenter"",""5"",""11807""
","
","174.79999999701977","","48","","","3000","1","","","images/earth.jpg","images/tutrocket2","images/tutrocket1","null","images/tutrocket2","","1","practice","null","2","","",""
"d3-animate-choice","119","430694","0.0-61.0-1.19","659","809","13","Male","false","false","false","false","""event"",""trial"",""time""
""fullscreenenter"",""5"",""11807""
""blur"",""16"",""79023""
""focus"",""16"",""80978""
","""event"",""trial"",""time""
""blur"",""16"",""79023""
","""event"",""trial"",""time""
""focus"",""16"",""80978""
","""event"",""trial"",""time""
""fullscreenenter"",""5"",""11807""
","
","588.1000000089407","","189","","","3000","1","1257.5","48","images/tutgreenplanet.jpg","images/tutalien2","images/tutalien1","images/tutrocket2","images/tutalien2","images/t.png","2","practice","true","","common","1","2022-02-13 18:15:40.125"
"two-step-fixation","120","431697","0.0-61.0-2.19","659","809","13","Male","false","false","false","false","""event"",""trial"",""time""
""fullscreenenter"",""5"",""11807""
""blur"",""16"",""79023""
""focus"",""16"",""80978""
","""event"",""trial"",""time""
""blur"",""16"",""79023""
","""event"",""trial"",""time""
""focus"",""16"",""80978""
","""event"",""trial"",""time""
""fullscreenenter"",""5"",""11807""
","
","","images/earth.jpg","","","","","","","","","","","","","","fixation","","","","","",""
"d3-instructions","121","434712","0.0-62.0","659","809","13","Male","false","false","false","false","""event"",""trial"",""time""
""fullscreenenter"",""5"",""11807""
""blur"",""16"",""79023""
""focus"",""16"",""80978""
","""event"",""trial"",""time""
""blur"",""16"",""79023""
","""event"",""trial"",""time""
""focus"",""16"",""80978""
","""event"",""trial"",""time""
""fullscreenenter"",""5"",""11807""
","
","","","","","","","","","","","","","","","","","","","","","",""
"audio-keyboard-response","122","436222","0.0-63.0","659","809","13","Male","false","false","false","false","""event"",""trial"",""time""
""fullscreenenter"",""5"",""11807""
""blur"",""16"",""79023""
""focus"",""16"",""80978""
","""event"",""trial"",""time""
""blur"",""16"",""79023""
","""event"",""trial"",""time""
""focus"",""16"",""80978""
","""event"",""trial"",""time""
""fullscreenenter"",""5"",""11807""
","
","1492","audio/instructions/treasure_feedback.wav","32","","","","","","","","","","","","","","","","","","",""
"d3-instructions","123","446552","0.0-64.0","659","809","13","Male","false","false","false","false","""event"",""trial"",""time""
""fullscreenenter"",""5"",""11807""
""blur"",""16"",""79023""
""focus"",""16"",""80978""
","""event"",""trial"",""time""
""blur"",""16"",""79023""
","""event"",""trial"",""time""
""focus"",""16"",""80978""
","""event"",""trial"",""time""
""fullscreenenter"",""5"",""11807""
","
","","","","","","","","","","","","","","","","","","","","","",""
"d3-instructions","124","459775","0.0-65.0","659","809","13","Male","false","false","false","false","""event"",""trial"",""time""
""fullscreenenter"",""5"",""11807""
""blur"",""16"",""79023""
""focus"",""16"",""80978""
","""event"",""trial"",""time""
""blur"",""16"",""79023""
","""event"",""trial"",""time""
""focus"",""16"",""80978""
","""event"",""trial"",""time""
""fullscreenenter"",""5"",""11807""
","
","","","","","","","","","","","","","","","","","","","","","",""
"d3-instructions","125","486579","0.0-66.0","659","809","13","Male","false","false","false","false","""event"",""trial"",""time""
""fullscreenenter"",""5"",""11807""
""blur"",""16"",""79023""
""focus"",""16"",""80978""
","""event"",""trial"",""time""
""blur"",""16"",""79023""
","""event"",""trial"",""time""
""focus"",""16"",""80978""
","""event"",""trial"",""time""
""fullscreenenter"",""5"",""11807""
","
","","","","","","","","","","","","","","","","","","","","","",""
"d3-instructions","126","492930","0.0-67.0","659","809","13","Male","false","false","false","false","""event"",""trial"",""time""
""fullscreenenter"",""5"",""11807""
""blur"",""16"",""79023""
""focus"",""16"",""80978""
","""event"",""trial"",""time""
""blur"",""16"",""79023""
","""event"",""trial"",""time""
""focus"",""16"",""80978""
","""event"",""trial"",""time""
""fullscreenenter"",""5"",""11807""
","
","","","","","","","","","","","","","","","","","","","","","",""
"d3-instructions","127","496473","0.0-68.0","659","809","13","Male","false","false","false","false","""event"",""trial"",""time""
""fullscreenenter"",""5"",""11807""
""blur"",""16"",""79023""
""focus"",""16"",""80978""
","""event"",""trial"",""time""
""blur"",""16"",""79023""
","""event"",""trial"",""time""
""focus"",""16"",""80978""
","""event"",""trial"",""time""
""fullscreenenter"",""5"",""11807""
","
","","","","","","","","","","","","","","","","","","","","","",""
"instructions-quiz","128","499696","0.0-69.0","659","809","13","Male","false","false","false","false","""event"",""trial"",""time""
""fullscreenenter"",""5"",""11807""
""blur"",""16"",""79023""
""focus"",""16"",""80978""
","""event"",""trial"",""time""
""blur"",""16"",""79023""
","""event"",""trial"",""time""
""focus"",""16"",""80978""
","""event"",""trial"",""time""
""fullscreenenter"",""5"",""11807""
","
","3197.2000000029802","audio/quiz/Q1_Prompt.wav","","1","","","","","","","","","","","","","","","","","",""
"audio-keyboard-response","129","501246","0.0-70.0","659","809","13","Male","false","false","false","false","""event"",""trial"",""time""
""fullscreenenter"",""5"",""11807""
""blur"",""16"",""79023""
""focus"",""16"",""80978""
","""event"",""trial"",""time""
""blur"",""16"",""79023""
","""event"",""trial"",""time""
""focus"",""16"",""80978""
","""event"",""trial"",""time""
""fullscreenenter"",""5"",""11807""
","
","1544","audio/quiz/Q1_Correct.wav","32","","","","","","","","","","","","","","","","","","",""
"instructions-quiz","130","502274","0.0-71.0","659","809","13","Male","false","false","false","false","""event"",""trial"",""time""
""fullscreenenter"",""5"",""11807""
""blur"",""16"",""79023""
""focus"",""16"",""80978""
","""event"",""trial"",""time""
""blur"",""16"",""79023""
","""event"",""trial"",""time""
""focus"",""16"",""80978""
","""event"",""trial"",""time""
""fullscreenenter"",""5"",""11807""
","
","3281.800000011921","audio/quiz/Q2_Prompt.wav","","0","","","","","","","","","","","","","","","","","",""
"audio-keyboard-response","131","502564","0.0-72.0","659","809","13","Male","false","false","false","false","""event"",""trial"",""time""
""fullscreenenter"",""5"",""11807""
""blur"",""16"",""79023""
""focus"",""16"",""80978""
","""event"",""trial"",""time""
""blur"",""16"",""79023""
","""event"",""trial"",""time""
""focus"",""16"",""80978""
","""event"",""trial"",""time""
""fullscreenenter"",""5"",""11807""
","
","290","audio/quiz/Q2_Correct.wav","32","","","","","","","","","","","","","","","","","","",""
"instructions-quiz","132","504536","0.0-73.0","659","809","13","Male","false","false","false","false","""event"",""trial"",""time""
""fullscreenenter"",""5"",""11807""
""blur"",""16"",""79023""
""focus"",""16"",""80978""
","""event"",""trial"",""time""
""blur"",""16"",""79023""
","""event"",""trial"",""time""
""focus"",""16"",""80978""
","""event"",""trial"",""time""
""fullscreenenter"",""5"",""11807""
","
","1968.800000011921","audio/quiz/Q3_Prompt.wav","","1","","","","","","","","","","","","","","","","","",""
"audio-keyboard-response","133","505026","0.0-74.0","659","809","13","Male","false","false","false","false","""event"",""trial"",""time""
""fullscreenenter"",""5"",""11807""
""blur"",""16"",""79023""
""focus"",""16"",""80978""
","""event"",""trial"",""time""
""blur"",""16"",""79023""
","""event"",""trial"",""time""
""focus"",""16"",""80978""
","""event"",""trial"",""time""
""fullscreenenter"",""5"",""11807""
","
","488","audio/quiz/Q3_Correct.wav","32","","","","","","","","","","","","","","","","","","",""
"d3-instructions","134","508570","0.0-75.0","659","809","13","Male","false","false","false","false","""event"",""trial"",""time""
""fullscreenenter"",""5"",""11807""
""blur"",""16"",""79023""
""focus"",""16"",""80978""
","""event"",""trial"",""time""
""blur"",""16"",""79023""
","""event"",""trial"",""time""
""focus"",""16"",""80978""
","""event"",""trial"",""time""
""fullscreenenter"",""5"",""11807""
","
","","","","","","","","","","","","","","","","","","","","","",""
"d3-animate-choice","135","512580","0.0-76.0-0.0","659","809","13","Male","false","false","false","false","""event"",""trial"",""time""
""fullscreenenter"",""5"",""11807""
""blur"",""16"",""79023""
""focus"",""16"",""80978""
","""event"",""trial"",""time""
""blur"",""16"",""79023""
","""event"",""trial"",""time""
""focus"",""16"",""80978""
","""event"",""trial"",""time""
""fullscreenenter"",""5"",""11807""
","
","2010.5","","48","","","3000","1","","","images/earth.jpg","images/rocket1","images/rocket2","null","images/rocket1","","1","real","null","2","","",""
"d3-animate-choice","136","515581","0.0-76.0-1.0","659","809","13","Male","false","false","false","false","""event"",""trial"",""time""
""fullscreenenter"",""5"",""11807""
""blur"",""16"",""79023""
""focus"",""16"",""80978""
","""event"",""trial"",""time""
""blur"",""16"",""79023""
","""event"",""trial"",""time""
""focus"",""16"",""80978""
","""event"",""trial"",""time""
""fullscreenenter"",""5"",""11807""
","
","985.2000000029802","","48","","","3000","1","","","images/redplanet1.jpg","images/alien2","images/alien1","images/rocket1","images/alien2","images/t.png","2","real","false","2","rare","1","2022-02-13 18:17:05.012"
"two-step-fixation","137","516595","0.0-76.0-2.0","659","809","13","Male","false","false","false","false","""event"",""trial"",""time""
""fullscreenenter"",""5"",""11807""
""blur"",""16"",""79023""
""focus"",""16"",""80978""
","""event"",""trial"",""time""
""blur"",""16"",""79023""
","""event"",""trial"",""time""
""focus"",""16"",""80978""
","""event"",""trial"",""time""
""fullscreenenter"",""5"",""11807""
","
","","images/earth.jpg","","","","","","","","","","","","","","fixation","","","","","",""
"d3-animate-choice","138","518956","0.0-76.0-0.1","659","809","13","Male","false","false","false","false","""event"",""trial"",""time""
""fullscreenenter"",""5"",""11807""
""blur"",""16"",""79023""
""focus"",""16"",""80978""
","""event"",""trial"",""time""
""blur"",""16"",""79023""
","""event"",""trial"",""time""
""focus"",""16"",""80978""
","""event"",""trial"",""time""
""fullscreenenter"",""5"",""11807""
","
","355.5","","48","","","3000","1","","","images/earth.jpg","images/rocket1","images/rocket2","null","images/rocket1","","1","real","null","2","","",""
"d3-animate-choice","139","521775","0.0-76.0-1.1","659","809","13","Male","false","false","false","false","""event"",""trial"",""time""
""fullscreenenter"",""5"",""11807""
""blur"",""16"",""79023""
""focus"",""16"",""80978""
","""event"",""trial"",""time""
""blur"",""16"",""79023""
","""event"",""trial"",""time""
""focus"",""16"",""80978""
","""event"",""trial"",""time""
""fullscreenenter"",""5"",""11807""
","
","804.2999999970198","","48","","","3000","1","","","images/purpleplanet.jpg","images/alien4","images/alien3","images/rocket1","images/alien4","images/t.png","2","real","true","2","common","1","2022-02-13 18:17:11.206"
"two-step-fixation","140","522779","0.0-76.0-2.1","659","809","13","Male","false","false","false","false","""event"",""trial"",""time""
""fullscreenenter"",""5"",""11807""
""blur"",""16"",""79023""
""focus"",""16"",""80978""
","""event"",""trial"",""time""
""blur"",""16"",""79023""
","""event"",""trial"",""time""
""focus"",""16"",""80978""
","""event"",""trial"",""time""
""fullscreenenter"",""5"",""11807""
","
","","images/earth.jpg","","","","","","","","","","","","","","fixation","","","","","",""
"d3-animate-choice","141","525093","0.0-76.0-0.2","659","809","13","Male","false","false","false","false","""event"",""trial"",""time""
""fullscreenenter"",""5"",""11807""
""blur"",""16"",""79023""
""focus"",""16"",""80978""
","""event"",""trial"",""time""
""blur"",""16"",""79023""
","""event"",""trial"",""time""
""focus"",""16"",""80978""
","""event"",""trial"",""time""
""fullscreenenter"",""5"",""11807""
","
","308.8999999910593","","48","","","3000","1","","","images/earth.jpg","images/rocket1","images/rocket2","null","images/rocket1","","1","real","null","2","","",""
"d3-animate-choice","142","527558","0.0-76.0-1.2","659","809","13","Male","false","false","false","false","""event"",""trial"",""time""
""fullscreenenter"",""5"",""11807""
""blur"",""16"",""79023""
""focus"",""16"",""80978""
","""event"",""trial"",""time""
""blur"",""16"",""79023""
","""event"",""trial"",""time""
""focus"",""16"",""80978""
","""event"",""trial"",""time""
""fullscreenenter"",""5"",""11807""
","
","460.09999999403954","","48","","","3000","1","","","images/purpleplanet.jpg","images/alien4","images/alien3","images/rocket1","images/alien4","images/t.png","2","real","true","2","common","1","2022-02-13 18:17:16.990"
"two-step-fixation","143","528563","0.0-76.0-2.2","659","809","13","Male","false","false","false","false","""event"",""trial"",""time""
""fullscreenenter"",""5"",""11807""
""blur"",""16"",""79023""
""focus"",""16"",""80978""
","""event"",""trial"",""time""
""blur"",""16"",""79023""
","""event"",""trial"",""time""
""focus"",""16"",""80978""
","""event"",""trial"",""time""
""fullscreenenter"",""5"",""11807""
","
","","images/earth.jpg","","","","","","","","","","","","","","fixation","","","","","",""
"d3-animate-choice","144","530809","0.0-76.0-0.3","659","809","13","Male","false","false","false","false","""event"",""trial"",""time""
""fullscreenenter"",""5"",""11807""
""blur"",""16"",""79023""
""focus"",""16"",""80978""
","""event"",""trial"",""time""
""blur"",""16"",""79023""
","""event"",""trial"",""time""
""focus"",""16"",""80978""
","""event"",""trial"",""time""
""fullscreenenter"",""5"",""11807""
","
","240.3999999910593","","48","","","3000","1","","","images/earth.jpg","images/rocket1","images/rocket2","null","images/rocket1","","1","real","null","2","","",""
"d3-animate-choice","145","533325","0.0-76.0-1.3","659","809","13","Male","false","false","false","false","""event"",""trial"",""time""
""fullscreenenter"",""5"",""11807""
""blur"",""16"",""79023""
""focus"",""16"",""80978""
","""event"",""trial"",""time""
""blur"",""16"",""79023""
","""event"",""trial"",""time""
""focus"",""16"",""80978""
","""event"",""trial"",""time""
""fullscreenenter"",""5"",""11807""
","
","509.20000000298023","","48","","","3000","1","","","images/purpleplanet.jpg","images/alien4","images/alien3","images/rocket1","images/alien4","images/t.png","2","real","true","2","common","1","2022-02-13 18:17:22.756"
"two-step-fixation","146","534329","0.0-76.0-2.3","659","809","13","Male","false","false","false","false","""event"",""trial"",""time""
""fullscreenenter"",""5"",""11807""
""blur"",""16"",""79023""
""focus"",""16"",""80978""
","""event"",""trial"",""time""
""blur"",""16"",""79023""
","""event"",""trial"",""time""
""focus"",""16"",""80978""
","""event"",""trial"",""time""
""fullscreenenter"",""5"",""11807""
","
","","images/earth.jpg","","","","","","","","","","","","","","fixation","","","","","",""
"d3-animate-choice","147","536730","0.0-76.0-0.4","659","809","13","Male","false","false","false","false","""event"",""trial"",""time""
""fullscreenenter"",""5"",""11807""
""blur"",""16"",""79023""
""focus"",""16"",""80978""
","""event"",""trial"",""time""
""blur"",""16"",""79023""
","""event"",""trial"",""time""
""focus"",""16"",""80978""
","""event"",""trial"",""time""
""fullscreenenter"",""5"",""11807""
","
","395.3999999910593","","48","","","3000","1","","","images/earth.jpg","images/rocket1","images/rocket2","null","images/rocket1","","1","real","null","2","","",""
"d3-animate-choice","148","539797","0.0-76.0-1.4","659","809","13","Male","false","false","false","false","""event"",""trial"",""time""
""fullscreenenter"",""5"",""11807""
""blur"",""16"",""79023""
""focus"",""16"",""80978""
","""event"",""trial"",""time""
""blur"",""16"",""79023""
","""event"",""trial"",""time""
""focus"",""16"",""80978""
","""event"",""trial"",""time""
""fullscreenenter"",""5"",""11807""
","
","1062.300000011921","","48","","","3000","1","","","images/purpleplanet.jpg","images/alien4","images/alien3","images/rocket1","images/alien4","images/t.png","2","real","true","2","common","1","2022-02-13 18:17:29.228"
"two-step-fixation","149","540810","0.0-76.0-2.4","659","809","13","Male","false","false","false","false","""event"",""trial"",""time""
""fullscreenenter"",""5"",""11807""
""blur"",""16"",""79023""
""focus"",""16"",""80978""
","""event"",""trial"",""time""
""blur"",""16"",""79023""
","""event"",""trial"",""time""
""focus"",""16"",""80978""
","""event"",""trial"",""time""
""fullscreenenter"",""5"",""11807""
","
","","images/earth.jpg","","","","","","","","","","","","","","fixation","","","","","",""
"d3-animate-choice","150","542989","0.0-76.0-0.5","659","809","13","Male","false","false","false","false","""event"",""trial"",""time""
""fullscreenenter"",""5"",""11807""
""blur"",""16"",""79023""
""focus"",""16"",""80978""
","""event"",""trial"",""time""
""blur"",""16"",""79023""
","""event"",""trial"",""time""
""focus"",""16"",""80978""
","""event"",""trial"",""time""
""fullscreenenter"",""5"",""11807""
","
","174.70000000298023","","48","","","3000","1","","","images/earth.jpg","images/rocket1","images/rocket2","null","images/rocket1","","1","real","null","2","","",""
"d3-animate-choice","151","545310","0.0-76.0-1.5","659","809","13","Male","false","false","false","false","""event"",""trial"",""time""
""fullscreenenter"",""5"",""11807""
""blur"",""16"",""79023""
""focus"",""16"",""80978""
","""event"",""trial"",""time""
""blur"",""16"",""79023""
","""event"",""trial"",""time""
""focus"",""16"",""80978""
","""event"",""trial"",""time""
""fullscreenenter"",""5"",""11807""
","
","311.5","","48","","","3000","1","","","images/purpleplanet.jpg","images/alien4","images/alien3","images/rocket1","images/alien4","images/t.png","2","real","true","2","common","1","2022-02-13 18:17:34.741"
"two-step-fixation","152","546315","0.0-76.0-2.5","659","809","13","Male","false","false","false","false","""event"",""trial"",""time""
""fullscreenenter"",""5"",""11807""
""blur"",""16"",""79023""
""focus"",""16"",""80978""
","""event"",""trial"",""time""
""blur"",""16"",""79023""
","""event"",""trial"",""time""
""focus"",""16"",""80978""
","""event"",""trial"",""time""
""fullscreenenter"",""5"",""11807""
","
","","images/earth.jpg","","","","","","","","","","","","","","fixation","","","","","",""
"d3-animate-choice","153","548689","0.0-76.0-0.6","659","809","13","Male","false","false","false","false","""event"",""trial"",""time""
""fullscreenenter"",""5"",""11807""
""blur"",""16"",""79023""
""focus"",""16"",""80978""
","""event"",""trial"",""time""
""blur"",""16"",""79023""
","""event"",""trial"",""time""
""focus"",""16"",""80978""
","""event"",""trial"",""time""
""fullscreenenter"",""5"",""11807""
","
","368.5","","48","","","3000","1","","","images/earth.jpg","images/rocket1","images/rocket2","null","images/rocket1","","1","real","null","2","","",""
"d3-animate-choice","154","551326","0.0-76.0-1.6","659","809","13","Male","false","false","false","false","""event"",""trial"",""time""
""fullscreenenter"",""5"",""11807""
""blur"",""16"",""79023""
""focus"",""16"",""80978""
","""event"",""trial"",""time""
""blur"",""16"",""79023""
","""event"",""trial"",""time""
""focus"",""16"",""80978""
","""event"",""trial"",""time""
""fullscreenenter"",""5"",""11807""
","
","628.7000000029802","","48","","","3000","1","","","images/purpleplanet.jpg","images/alien4","images/alien3","images/rocket1","images/alien4","images/t.png","2","real","true","2","common","1","2022-02-13 18:17:40.757"
"two-step-fixation","155","552336","0.0-76.0-2.6","659","809","13","Male","false","false","false","false","""event"",""trial"",""time""
""fullscreenenter"",""5"",""11807""
""blur"",""16"",""79023""
""focus"",""16"",""80978""
","""event"",""trial"",""time""
""blur"",""16"",""79023""
","""event"",""trial"",""time""
""focus"",""16"",""80978""
","""event"",""trial"",""time""
""fullscreenenter"",""5"",""11807""
","
","","images/earth.jpg","","","","","","","","","","","","","","fixation","","","","","",""
"d3-animate-choice","156","554808","0.0-76.0-0.7","659","809","13","Male","false","false","false","false","""event"",""trial"",""time""
""fullscreenenter"",""5"",""11807""
""blur"",""16"",""79023""
""focus"",""16"",""80978""
","""event"",""trial"",""time""
""blur"",""16"",""79023""
","""event"",""trial"",""time""
""focus"",""16"",""80978""
","""event"",""trial"",""time""
""fullscreenenter"",""5"",""11807""
","
","467.5","","48","","","3000","1","","","images/earth.jpg","images/rocket1","images/rocket2","null","images/rocket1","","1","real","null","2","","",""
"d3-animate-choice","157","557868","0.0-76.0-1.7","659","809","13","Male","false","false","false","false","""event"",""trial"",""time""
""fullscreenenter"",""5"",""11807""
""blur"",""16"",""79023""
""focus"",""16"",""80978""
","""event"",""trial"",""time""
""blur"",""16"",""79023""
","""event"",""trial"",""time""
""focus"",""16"",""80978""
","""event"",""trial"",""time""
""fullscreenenter"",""5"",""11807""
","
","1053","","48","","","3000","1","","","images/redplanet1.jpg","images/alien2","images/alien1","images/rocket1","images/alien2","images/t.png","2","real","false","2","rare","1","2022-02-13 18:17:47.299"
"two-step-fixation","158","558876","0.0-76.0-2.7","659","809","13","Male","false","false","false","false","""event"",""trial"",""time""
""fullscreenenter"",""5"",""11807""
""blur"",""16"",""79023""
""focus"",""16"",""80978""
","""event"",""trial"",""time""
""blur"",""16"",""79023""
","""event"",""trial"",""time""
""focus"",""16"",""80978""
","""event"",""trial"",""time""
""fullscreenenter"",""5"",""11807""
","
","","images/earth.jpg","","","","","","","","","","","","","","fixation","","","","","",""
"d3-animate-choice","159","561118","0.0-76.0-0.8","659","809","13","Male","false","false","false","false","""event"",""trial"",""time""
""fullscreenenter"",""5"",""11807""
""blur"",""16"",""79023""
""focus"",""16"",""80978""
","""event"",""trial"",""time""
""blur"",""16"",""79023""
","""event"",""trial"",""time""
""focus"",""16"",""80978""
","""event"",""trial"",""time""
""fullscreenenter"",""5"",""11807""
","
","234.70000000298023","","48","","","3000","1","","","images/earth.jpg","images/rocket1","images/rocket2","null","images/rocket1","","1","real","null","2","","",""
"d3-animate-choice","160","563793","0.0-76.0-1.8","659","809","13","Male","false","false","false","false","""event"",""trial"",""time""
""fullscreenenter"",""5"",""11807""
""blur"",""16"",""79023""
""focus"",""16"",""80978""
","""event"",""trial"",""time""
""blur"",""16"",""79023""
","""event"",""trial"",""time""
""focus"",""16"",""80978""
","""event"",""trial"",""time""
""fullscreenenter"",""5"",""11807""
","
","668","","48","","","3000","1","","","images/purpleplanet.jpg","images/alien4","images/alien3","images/rocket1","images/alien4","images/t.png","2","real","true","2","common","1","2022-02-13 18:17:53.224"
"two-step-fixation","161","564798","0.0-76.0-2.8","659","809","13","Male","false","false","false","false","""event"",""trial"",""time""
""fullscreenenter"",""5"",""11807""
""blur"",""16"",""79023""
""focus"",""16"",""80978""
","""event"",""trial"",""time""
""blur"",""16"",""79023""
","""event"",""trial"",""time""
""focus"",""16"",""80978""
","""event"",""trial"",""time""
""fullscreenenter"",""5"",""11807""
","
","","images/earth.jpg","","","","","","","","","","","","","","fixation","","","","","",""
"d3-animate-choice","162","567207","0.0-76.0-0.9","659","809","13","Male","false","false","false","false","""event"",""trial"",""time""
""fullscreenenter"",""5"",""11807""
""blur"",""16"",""79023""
""focus"",""16"",""80978""
","""event"",""trial"",""time""
""blur"",""16"",""79023""
","""event"",""trial"",""time""
""focus"",""16"",""80978""
","""event"",""trial"",""time""
""fullscreenenter"",""5"",""11807""
","
","402.90000000596046","","48","","","3000","1","","","images/earth.jpg","images/rocket1","images/rocket2","null","images/rocket1","","1","real","null","2","","",""
"d3-animate-choice","163","570266","0.0-76.0-1.9","659","809","13","Male","false","false","false","false","""event"",""trial"",""time""
""fullscreenenter"",""5"",""11807""
""blur"",""16"",""79023""
""focus"",""16"",""80978""
","""event"",""trial"",""time""
""blur"",""16"",""79023""
","""event"",""trial"",""time""
""focus"",""16"",""80978""
","""event"",""trial"",""time""
""fullscreenenter"",""5"",""11807""
","
","1051.5","","48","","","3000","1","","","images/purpleplanet.jpg","images/alien4","images/alien3","images/rocket1","images/alien4","images/nothing.png","2","real","true","2","common","0","2022-02-13 18:17:59.697"
"two-step-fixation","164","571272","0.0-76.0-2.9","659","809","13","Male","false","false","false","false","""event"",""trial"",""time""
""fullscreenenter"",""5"",""11807""
""blur"",""16"",""79023""
""focus"",""16"",""80978""
","""event"",""trial"",""time""
""blur"",""16"",""79023""
","""event"",""trial"",""time""
""focus"",""16"",""80978""
","""event"",""trial"",""time""
""fullscreenenter"",""5"",""11807""
","
","","images/earth.jpg","","","","","","","","","","","","","","fixation","","","","","",""
"d3-animate-choice","165","573679","0.0-76.0-0.10","659","809","13","Male","false","false","false","false","""event"",""trial"",""time""
""fullscreenenter"",""5"",""11807""
""blur"",""16"",""79023""
""focus"",""16"",""80978""
","""event"",""trial"",""time""
""blur"",""16"",""79023""
","""event"",""trial"",""time""
""focus"",""16"",""80978""
","""event"",""trial"",""time""
""fullscreenenter"",""5"",""11807""
","
","402.79999999701977","","48","","","3000","1","","","images/earth.jpg","images/rocket1","images/rocket2","null","images/rocket1","","1","real","null","2","","",""
"d3-animate-choice","166","576097","0.0-76.0-1.10","659","809","13","Male","false","false","false","false","""event"",""trial"",""time""
""fullscreenenter"",""5"",""11807""
""blur"",""16"",""79023""
""focus"",""16"",""80978""
","""event"",""trial"",""time""
""blur"",""16"",""79023""
","""event"",""trial"",""time""
""focus"",""16"",""80978""
","""event"",""trial"",""time""
""fullscreenenter"",""5"",""11807""
","
","412.70000000298023","","48","","","3000","1","","","images/purpleplanet.jpg","images/alien4","images/alien3","images/rocket1","images/alien4","images/nothing.png","2","real","true","2","common","0","2022-02-13 18:18:05.528"
"two-step-fixation","167","577102","0.0-76.0-2.10","659","809","13","Male","false","false","false","false","""event"",""trial"",""time""
""fullscreenenter"",""5"",""11807""
""blur"",""16"",""79023""
""focus"",""16"",""80978""
","""event"",""trial"",""time""
""blur"",""16"",""79023""
","""event"",""trial"",""time""
""focus"",""16"",""80978""
","""event"",""trial"",""time""
""fullscreenenter"",""5"",""11807""
","
","","images/earth.jpg","","","","","","","","","","","","","","fixation","","","","","",""
"d3-animate-choice","168","579539","0.0-76.0-0.11","659","809","13","Male","false","false","false","false","""event"",""trial"",""time""
""fullscreenenter"",""5"",""11807""
""blur"",""16"",""79023""
""focus"",""16"",""80978""
","""event"",""trial"",""time""
""blur"",""16"",""79023""
","""event"",""trial"",""time""
""focus"",""16"",""80978""
","""event"",""trial"",""time""
""fullscreenenter"",""5"",""11807""
","
","430.6000000089407","","48","","","3000","1","","","images/earth.jpg","images/rocket1","images/rocket2","null","images/rocket1","","1","real","null","2","","",""
"d3-animate-choice","169","582010","0.0-76.0-1.11","659","809","13","Male","false","false","false","false","""event"",""trial"",""time""
""fullscreenenter"",""5"",""11807""
""blur"",""16"",""79023""
""focus"",""16"",""80978""
","""event"",""trial"",""time""
""blur"",""16"",""79023""
","""event"",""trial"",""time""
""focus"",""16"",""80978""
","""event"",""trial"",""time""
""fullscreenenter"",""5"",""11807""
","
","463.70000000298023","","48","","","3000","1","","","images/purpleplanet.jpg","images/alien4","images/alien3","images/rocket1","images/alien4","images/t.png","2","real","true","2","common","1","2022-02-13 18:18:11.441"
"two-step-fixation","170","583015","0.0-76.0-2.11","659","809","13","Male","false","false","false","false","""event"",""trial"",""time""
""fullscreenenter"",""5"",""11807""
""blur"",""16"",""79023""
""focus"",""16"",""80978""
","""event"",""trial"",""time""
""blur"",""16"",""79023""
","""event"",""trial"",""time""
""focus"",""16"",""80978""
","""event"",""trial"",""time""
""fullscreenenter"",""5"",""11807""
","
","","images/earth.jpg","","","","","","","","","","","","","","fixation","","","","","",""
"d3-animate-choice","171","585639","0.0-76.0-0.12","659","809","13","Male","false","false","false","false","""event"",""trial"",""time""
""fullscreenenter"",""5"",""11807""
""blur"",""16"",""79023""
""focus"",""16"",""80978""
","""event"",""trial"",""time""
""blur"",""16"",""79023""
","""event"",""trial"",""time""
""focus"",""16"",""80978""
","""event"",""trial"",""time""
""fullscreenenter"",""5"",""11807""
","
","620.5999999940395","","48","","","3000","1","","","images/earth.jpg","images/rocket1","images/rocket2","null","images/rocket1","","1","real","null","2","","",""
"d3-animate-choice","172","587984","0.0-76.0-1.12","659","809","13","Male","false","false","false","false","""event"",""trial"",""time""
""fullscreenenter"",""5"",""11807""
""blur"",""16"",""79023""
""focus"",""16"",""80978""
","""event"",""trial"",""time""
""blur"",""16"",""79023""
","""event"",""trial"",""time""
""focus"",""16"",""80978""
","""event"",""trial"",""time""
""fullscreenenter"",""5"",""11807""
","
","341.40000000596046","","48","","","3000","1","","","images/purpleplanet.jpg","images/alien4","images/alien3","images/rocket1","images/alien4","images/t.png","2","real","true","2","common","1","2022-02-13 18:18:17.416"
"two-step-fixation","173","588988","0.0-76.0-2.12","659","809","13","Male","false","false","false","false","""event"",""trial"",""time""
""fullscreenenter"",""5"",""11807""
""blur"",""16"",""79023""
""focus"",""16"",""80978""
","""event"",""trial"",""time""
""blur"",""16"",""79023""
","""event"",""trial"",""time""
""focus"",""16"",""80978""
","""event"",""trial"",""time""
""fullscreenenter"",""5"",""11807""
","
","","images/earth.jpg","","","","","","","","","","","","","","fixation","","","","","",""
"d3-animate-choice","174","591473","0.0-76.0-0.13","659","809","13","Male","false","false","false","false","""event"",""trial"",""time""
""fullscreenenter"",""5"",""11807""
""blur"",""16"",""79023""
""focus"",""16"",""80978""
","""event"",""trial"",""time""
""blur"",""16"",""79023""
","""event"",""trial"",""time""
""focus"",""16"",""80978""
","""event"",""trial"",""time""
""fullscreenenter"",""5"",""11807""
","
","480.40000000596046","","48","","","3000","1","","","images/earth.jpg","images/rocket1","images/rocket2","null","images/rocket1","","1","real","null","2","","",""
"d3-animate-choice","175","594050","0.0-76.0-1.13","659","809","13","Male","false","false","false","false","""event"",""trial"",""time""
""fullscreenenter"",""5"",""11807""
""blur"",""16"",""79023""
""focus"",""16"",""80978""
","""event"",""trial"",""time""
""blur"",""16"",""79023""
","""event"",""trial"",""time""
""focus"",""16"",""80978""
","""event"",""trial"",""time""
""fullscreenenter"",""5"",""11807""
","
","569.1000000089407","","48","","","3000","1","","","images/purpleplanet.jpg","images/alien4","images/alien3","images/rocket1","images/alien4","images/t.png","2","real","true","2","common","1","2022-02-13 18:18:23.481"
"two-step-fixation","176","595052","0.0-76.0-2.13","659","809","13","Male","false","false","false","false","""event"",""trial"",""time""
""fullscreenenter"",""5"",""11807""
""blur"",""16"",""79023""
""focus"",""16"",""80978""
","""event"",""trial"",""time""
""blur"",""16"",""79023""
","""event"",""trial"",""time""
""focus"",""16"",""80978""
","""event"",""trial"",""time""
""fullscreenenter"",""5"",""11807""
","
","","images/earth.jpg","","","","","","","","","","","","","","fixation","","","","","",""
"d3-animate-choice","177","597634","0.0-76.0-0.14","659","809","13","Male","false","false","false","false","""event"",""trial"",""time""
""fullscreenenter"",""5"",""11807""
""blur"",""16"",""79023""
""focus"",""16"",""80978""
","""event"",""trial"",""time""
""blur"",""16"",""79023""
","""event"",""trial"",""time""
""focus"",""16"",""80978""
","""event"",""trial"",""time""
""fullscreenenter"",""5"",""11807""
","
","578","","48","","","3000","1","","","images/earth.jpg","images/rocket1","images/rocket2","null","images/rocket1","","1","real","null","2","","",""
"d3-animate-choice","178","599958","0.0-76.0-1.14","659","809","13","Male","false","false","false","false","""event"",""trial"",""time""
""fullscreenenter"",""5"",""11807""
""blur"",""16"",""79023""
""focus"",""16"",""80978""
","""event"",""trial"",""time""
""blur"",""16"",""79023""
","""event"",""trial"",""time""
""focus"",""16"",""80978""
","""event"",""trial"",""time""
""fullscreenenter"",""5"",""11807""
","
","320.5","","48","","","3000","1","","","images/purpleplanet.jpg","images/alien4","images/alien3","images/rocket1","images/alien4","images/t.png","2","real","true","2","common","1","2022-02-13 18:18:29.389"
"two-step-fixation","179","600962","0.0-76.0-2.14","659","809","13","Male","false","false","false","false","""event"",""trial"",""time""
""fullscreenenter"",""5"",""11807""
""blur"",""16"",""79023""
""focus"",""16"",""80978""
","""event"",""trial"",""time""
""blur"",""16"",""79023""
","""event"",""trial"",""time""
""focus"",""16"",""80978""
","""event"",""trial"",""time""
""fullscreenenter"",""5"",""11807""
