"trial_type","trial_index","time_elapsed","internal_node_id","participant_id","subject_id","age","gender","rocket_sides","red_planet_first_rocket","red_display_order","purple_display_order","interactions","blur_events","focus_events","fullscreenenter_events","fullscreenexit_events","rt","stimulus","key_press","button_pressed","success","duration","valid_pressed","rts","keys","planet_text","right_text","left_text","center_text","chosen_text","reward_text","trial_stage","practice_trial","transition_type","choice","transition","reward","timestamp"
"pavlovia","0","3","0.0-0.0","611","603","15","Male","false","true","false","false","
","
","
","
","
","","","","","","","","","","","","","","","","","","","","","",""
"html-keyboard-response","1","2790","0.0-1.0","611","603","15","Male","false","true","false","false","
","
","
","
","
","2786.0999999999767","Welcome! Press the space bar to begin.","32","","","","","","","","","","","","","","","","","","",""
"audio-keyboard-response","2","6208","0.0-2.0","611","603","15","Male","false","true","false","false","
","
","
","
","
","3389","audio/beep_loop.wav","32","","","","","","","","","","","","","","","","","","",""
"audio-button-response","3","8680","0.0-3.0","611","603","15","Male","false","true","false","false","
","
","
","
","
","NaN","audio/fish.mp3","","1","","","","","","","","","","","","","","","","","",""
"audio-button-response","4","11095","0.0-4.0","611","603","15","Male","false","true","false","false","""event"",""trial"",""time""
""fullscreenenter"",""5"",""13696""
","
","
","""event"",""trial"",""time""
""fullscreenenter"",""5"",""13696""
","
","NaN","audio/tiger.mp3","","4","","","","","","","","","","","","","","","","","",""
"fullscreen","5","14640","0.0-5.0","611","603","15","Male","false","true","false","false","""event"",""trial"",""time""
""fullscreenenter"",""5"",""13696""
","
","
","""event"",""trial"",""time""
""fullscreenenter"",""5"",""13696""
","
","","","","","true","","","","","","","","","","","","","","","","",""
"d3-instructions","6","27912","0.0-6.0","611","603","15","Male","false","true","false","false","""event"",""trial"",""time""
""fullscreenenter"",""5"",""13696""
","
","
","""event"",""trial"",""time""
""fullscreenenter"",""5"",""13696""
","
","","","","","","","","","","","","","","","","","","","","","",""
"d3-instructions","7","38200","0.0-7.0","611","603","15","Male","false","true","false","false","""event"",""trial"",""time""
""fullscreenenter"",""5"",""13696""
","
","
","""event"",""trial"",""time""
""fullscreenenter"",""5"",""13696""
","
","","","","","","","","","","","","","","","","","","","","","",""
"d3-instructions","8","45944","0.0-8.0","611","603","15","Male","false","true","false","false","""event"",""trial"",""time""
""fullscreenenter"",""5"",""13696""
","
","
","""event"",""trial"",""time""
""fullscreenenter"",""5"",""13696""
","
","","","","","","","","","","","","","","","","","","","","","",""
"d3-instructions","9","58160","0.0-9.0","611","603","15","Male","false","true","false","false","""event"",""trial"",""time""
""fullscreenenter"",""5"",""13696""
","
","
","""event"",""trial"",""time""
""fullscreenenter"",""5"",""13696""
","
","","","","","","","","","","","","","","","","","","","","","",""
"d3-instructions","10","78473","0.0-10.0","611","603","15","Male","false","true","false","false","""event"",""trial"",""time""
""fullscreenenter"",""5"",""13696""
","
","
","""event"",""trial"",""time""
""fullscreenenter"",""5"",""13696""
","
","","","","","","","","","","","","","","","","","","","","","",""
"d3-animate-choice","11","81745","0.0-11.0","611","603","15","Male","false","true","false","false","""event"",""trial"",""time""
""fullscreenenter"",""5"",""13696""
","
","
","""event"",""trial"",""time""
""fullscreenenter"",""5"",""13696""
","
","1262.5","","48","","","3000","1","","","images/tutgreenplanet.jpg","images/tutalien1","images/tutalien2","null","images/tutalien1","","NA","practice","null","","","",""
"d3-animate-choice","12","84635","0.0-12.0","611","603","15","Male","false","true","false","false","""event"",""trial"",""time""
""fullscreenenter"",""5"",""13696""
","
","
","""event"",""trial"",""time""
""fullscreenenter"",""5"",""13696""
","
","879","","49","","","3000","1","","","images/tutgreenplanet.jpg","images/tutalien1","images/tutalien2","null","images/tutalien2","","NA","practice","null","","","",""
"d3-animate-choice","13","87256","0.0-13.0","611","603","15","Male","false","true","false","false","""event"",""trial"",""time""
""fullscreenenter"",""5"",""13696""
","
","
","""event"",""trial"",""time""
""fullscreenenter"",""5"",""13696""
","
","613.2000000000116","","49","","","3000","1","","","images/tutgreenplanet.jpg","images/tutalien1","images/tutalien2","null","images/tutalien2","","NA","practice","null","","","",""
"d3-animate-choice","14","89610","0.0-14.0","611","603","15","Male","false","true","false","false","""event"",""trial"",""time""
""fullscreenenter"",""5"",""13696""
","
","
","""event"",""trial"",""time""
""fullscreenenter"",""5"",""13696""
","
","351.8999999999651","","48","","","3000","1","872","48","images/tutgreenplanet.jpg","images/tutalien1","images/tutalien2","null","images/tutalien1","","NA","practice","null","","","",""
"d3-instructions","15","96457","0.0-15.0","611","603","15","Male","false","true","false","false","""event"",""trial"",""time""
""fullscreenenter"",""5"",""13696""
","
","
","""event"",""trial"",""time""
""fullscreenenter"",""5"",""13696""
","
","","","","","","","","","","","","","","","","","","","","","",""
"d3-instructions","16","103305","0.0-16.0","611","603","15","Male","false","true","false","false","""event"",""trial"",""time""
""fullscreenenter"",""5"",""13696""
","
","
","""event"",""trial"",""time""
""fullscreenenter"",""5"",""13696""
","
","","","","","","","","","","","","","","","","","","","","","",""
"d3-instructions","17","111578","0.0-17.0","611","603","15","Male","false","true","false","false","""event"",""trial"",""time""
""fullscreenenter"",""5"",""13696""
","
","
","""event"",""trial"",""time""
""fullscreenenter"",""5"",""13696""
","
","","","","","","","","","","","","","","","","","","","","","",""
"d3-instructions","18","124426","0.0-18.0","611","603","15","Male","false","true","false","false","""event"",""trial"",""time""
""fullscreenenter"",""5"",""13696""
","
","
","""event"",""trial"",""time""
""fullscreenenter"",""5"",""13696""
","
","","","","","","","","","","","","","","","","","","","","","",""
"d3-instructions","19","138258","0.0-19.0","611","603","15","Male","false","true","false","false","""event"",""trial"",""time""
""fullscreenenter"",""5"",""13696""
","
","
","""event"",""trial"",""time""
""fullscreenenter"",""5"",""13696""
","
","","","","","","","","","","","","","","","","","","","","","",""
"d3-animate-choice","20","141283","0.0-20.0","611","603","15","Male","false","true","false","false","""event"",""trial"",""time""
""fullscreenenter"",""5"",""13696""
","
","
","""event"",""trial"",""time""
""fullscreenenter"",""5"",""13696""
","
","1014.9000000000233","","49","","","3000","1","","","images/tutyellowplanet.jpg","null","images/tutalien3","null","images/tutalien3","images/t.png","NA","practice","null","","","",""
"d3-animate-choice","21","144651","0.0-21.0","611","603","15","Male","false","true","false","false","""event"",""trial"",""time""
""fullscreenenter"",""5"",""13696""
","
","
","""event"",""trial"",""time""
""fullscreenenter"",""5"",""13696""
","
","1358.8000000000466","","49","","","3000","1","","","images/tutyellowplanet.jpg","null","images/tutalien3","null","images/tutalien3","images/nothing.png","NA","practice","null","","","",""
"d3-animate-choice","22","147585","0.0-22.0","611","603","15","Male","false","true","false","false","""event"",""trial"",""time""
""fullscreenenter"",""5"",""13696""
","
","
","""event"",""trial"",""time""
""fullscreenenter"",""5"",""13696""
","
","909.7999999999884","","192","","","3000","1","917.5999999999767","49","images/tutyellowplanet.jpg","null","images/tutalien3","null","images/tutalien3","images/t.png","NA","practice","null","","","",""
"d3-animate-choice","23","151408","0.0-23.0","611","603","15","Male","false","true","false","false","""event"",""trial"",""time""
""fullscreenenter"",""5"",""13696""
","
","
","""event"",""trial"",""time""
""fullscreenenter"",""5"",""13696""
","
","1808.5999999999767","","49","","","3000","1","","","images/tutyellowplanet.jpg","null","images/tutalien3","null","images/tutalien3","images/nothing.png","NA","practice","null","","","",""
"d3-animate-choice","24","153888","0.0-24.0","611","603","15","Male","false","true","false","false","""event"",""trial"",""time""
""fullscreenenter"",""5"",""13696""
","
","
","""event"",""trial"",""time""
""fullscreenenter"",""5"",""13696""
","
","473","","49","","","3000","1","","","images/tutyellowplanet.jpg","null","images/tutalien3","null","images/tutalien3","images/t.png","NA","practice","null","","","",""
"d3-animate-choice","25","156413","0.0-25.0","611","603","15","Male","false","true","false","false","""event"",""trial"",""time""
""fullscreenenter"",""5"",""13696""
","
","
","""event"",""trial"",""time""
""fullscreenenter"",""5"",""13696""
","
","513.9000000000233","","49","","","3000","1","","","images/tutyellowplanet.jpg","null","images/tutalien3","null","images/tutalien3","images/t.png","NA","practice","null","","","",""
"d3-animate-choice","26","159004","0.0-26.0","611","603","15","Male","false","true","false","false","""event"",""trial"",""time""
""fullscreenenter"",""5"",""13696""
","
","
","""event"",""trial"",""time""
""fullscreenenter"",""5"",""13696""
","
","580.5999999999767","","49","","","3000","1","","","images/tutyellowplanet.jpg","null","images/tutalien3","null","images/tutalien3","images/t.png","NA","practice","null","","","",""
"d3-animate-choice","27","162902","0.0-27.0","611","603","15","Male","false","true","false","false","""event"",""trial"",""time""
""fullscreenenter"",""5"",""13696""
","
","
","""event"",""trial"",""time""
""fullscreenenter"",""5"",""13696""
","
","1894","","49","","","3000","1","","","images/tutyellowplanet.jpg","null","images/tutalien3","null","images/tutalien3","images/nothing.png","NA","practice","null","","","",""
"d3-animate-choice","28","166406","0.0-28.0","611","603","15","Male","false","true","false","false","""event"",""trial"",""time""
""fullscreenenter"",""5"",""13696""
","
","
","""event"",""trial"",""time""
""fullscreenenter"",""5"",""13696""
","
","1491.0999999999767","","49","","","3000","1","","","images/tutyellowplanet.jpg","null","images/tutalien3","null","images/tutalien3","images/t.png","NA","practice","null","","","",""
"d3-animate-choice","29","168876","0.0-29.0","611","603","15","Male","false","true","false","false","""event"",""trial"",""time""
""fullscreenenter"",""5"",""13696""
","
","
","""event"",""trial"",""time""
""fullscreenenter"",""5"",""13696""
","
","467.79999999998836","","49","","","3000","1","2395.7000000000116","49","images/tutyellowplanet.jpg","null","images/tutalien3","null","images/tutalien3","images/t.png","NA","practice","null","","","",""
"d3-instructions","30","182259","0.0-30.0","611","603","15","Male","false","true","false","false","""event"",""trial"",""time""
""fullscreenenter"",""5"",""13696""
","
","
","""event"",""trial"",""time""
""fullscreenenter"",""5"",""13696""
","
","","","","","","","","","","","","","","","","","","","","","",""
"d3-instructions","31","191771","0.0-31.0","611","603","15","Male","false","true","false","false","""event"",""trial"",""time""
""fullscreenenter"",""5"",""13696""
","
","
","""event"",""trial"",""time""
""fullscreenenter"",""5"",""13696""
","
","","","","","","","","","","","","","","","","","","","","","",""
"d3-instructions","32","199043","0.0-32.0","611","603","15","Male","false","true","false","false","""event"",""trial"",""time""
""fullscreenenter"",""5"",""13696""
","
","
","""event"",""trial"",""time""
""fullscreenenter"",""5"",""13696""
","
","","","","","","","","","","","","","","","","","","","","","",""
"d3-instructions","33","202395","0.0-33.0","611","603","15","Male","false","true","false","false","""event"",""trial"",""time""
""fullscreenenter"",""5"",""13696""
","
","
","""event"",""trial"",""time""
""fullscreenenter"",""5"",""13696""
","
","","","","","","","","","","","","","","","","","","","","","",""
"d3-animate-choice","34","206572","0.0-34.0","611","603","15","Male","false","true","false","false","""event"",""trial"",""time""
""fullscreenenter"",""5"",""13696""
","
","
","""event"",""trial"",""time""
""fullscreenenter"",""5"",""13696""
","
","2175","","49","","","3000","1","","","images/tutgreenplanet.jpg","images/tutalien1","images/tutalien2","null","images/tutalien2","images/t.png","NA","practice","null","","","",""
"d3-animate-choice","35","209036","0.0-35.0","611","603","15","Male","false","true","false","false","""event"",""trial"",""time""
""fullscreenenter"",""5"",""13696""
","
","
","""event"",""trial"",""time""
""fullscreenenter"",""5"",""13696""
","
","461.9000000000233","","49","","","3000","1","","","images/tutgreenplanet.jpg","images/tutalien1","images/tutalien2","null","images/tutalien2","images/t.png","NA","practice","null","","","",""
"d3-animate-choice","36","211332","0.0-36.0","611","603","15","Male","false","true","false","false","""event"",""trial"",""time""
""fullscreenenter"",""5"",""13696""
","
","
","""event"",""trial"",""time""
""fullscreenenter"",""5"",""13696""
","
","294.69999999995343","","49","","","3000","1","","","images/tutgreenplanet.jpg","images/tutalien1","images/tutalien2","null","images/tutalien2","images/t.png","NA","practice","null","","","",""
"d3-animate-choice","37","213660","0.0-37.0","611","603","15","Male","false","true","false","false","""event"",""trial"",""time""
""fullscreenenter"",""5"",""13696""
","
","
","""event"",""trial"",""time""
""fullscreenenter"",""5"",""13696""
","
","318","","49","","","3000","1","","","images/tutgreenplanet.jpg","images/tutalien1","images/tutalien2","null","images/tutalien2","images/nothing.png","NA","practice","null","","","",""
"d3-animate-choice","38","216140","0.0-38.0","611","603","15","Male","false","true","false","false","""event"",""trial"",""time""
""fullscreenenter"",""5"",""13696""
","
","
","""event"",""trial"",""time""
""fullscreenenter"",""5"",""13696""
","
","478.5999999999767","","48","","","3000","1","","","images/tutgreenplanet.jpg","images/tutalien1","images/tutalien2","null","images/tutalien1","images/nothing.png","NA","practice","null","","","",""
"d3-animate-choice","39","218540","0.0-39.0","611","603","15","Male","false","true","false","false","""event"",""trial"",""time""
""fullscreenenter"",""5"",""13696""
","
","
","""event"",""trial"",""time""
""fullscreenenter"",""5"",""13696""
","
","398.20000000001164","","49","","","3000","1","2294.2000000000116","49","images/tutgreenplanet.jpg","images/tutalien1","images/tutalien2","null","images/tutalien2","images/t.png","NA","practice","null","","","",""
"d3-animate-choice","40","220780","0.0-40.0","611","603","15","Male","false","true","false","false","""event"",""trial"",""time""
""fullscreenenter"",""5"",""13696""
","
","
","""event"",""trial"",""time""
""fullscreenenter"",""5"",""13696""
","
","238.5","","49","","","3000","1","1934.7999999999884","49","images/tutgreenplanet.jpg","images/tutalien1","images/tutalien2","null","images/tutalien2","images/t.png","NA","practice","null","","","",""
"d3-animate-choice","41","223124","0.0-41.0","611","603","15","Male","false","true","false","false","""event"",""trial"",""time""
""fullscreenenter"",""5"",""13696""
","
","
","""event"",""trial"",""time""
""fullscreenenter"",""5"",""13696""
","
","342.19999999995343","","49","","","3000","1","","","images/tutgreenplanet.jpg","images/tutalien1","images/tutalien2","null","images/tutalien2","images/nothing.png","NA","practice","null","","","",""
"d3-animate-choice","42","226132","0.0-42.0","611","603","15","Male","false","true","false","false","""event"",""trial"",""time""
""fullscreenenter"",""5"",""13696""
","
","
","""event"",""trial"",""time""
""fullscreenenter"",""5"",""13696""
","
","1006.4000000000233","","49","","","3000","1","","","images/tutgreenplanet.jpg","images/tutalien1","images/tutalien2","null","images/tutalien2","images/t.png","NA","practice","null","","","",""
"d3-animate-choice","43","228621","0.0-43.0","611","603","15","Male","false","true","false","false","""event"",""trial"",""time""
""fullscreenenter"",""5"",""13696""
","
","
","""event"",""trial"",""time""
""fullscreenenter"",""5"",""13696""
","
","478.70000000001164","","48","","","3000","1","","","images/tutgreenplanet.jpg","images/tutalien1","images/tutalien2","null","images/tutalien1","images/nothing.png","NA","practice","null","","","",""
"d3-instructions","44","245596","0.0-44.0","611","603","15","Male","false","true","false","false","""event"",""trial"",""time""
""fullscreenenter"",""5"",""13696""
","
","
","""event"",""trial"",""time""
""fullscreenenter"",""5"",""13696""
","
","","","","","","","","","","","","","","","","","","","","","",""
"d3-instructions","45","248420","0.0-45.0","611","603","15","Male","false","true","false","false","""event"",""trial"",""time""
""fullscreenenter"",""5"",""13696""
","
","
","""event"",""trial"",""time""
""fullscreenenter"",""5"",""13696""
","
","","","","","","","","","","","","","","","","","","","","","",""
"d3-instructions","46","251564","0.0-46.0","611","603","15","Male","false","true","false","false","""event"",""trial"",""time""
""fullscreenenter"",""5"",""13696""
","
","
","""event"",""trial"",""time""
""fullscreenenter"",""5"",""13696""
","
","","","","","","","","","","","","","","","","","","","","","",""
"d3-instructions","47","258732","0.0-47.0","611","603","15","Male","false","true","false","false","""event"",""trial"",""time""
""fullscreenenter"",""5"",""13696""
","
","
","""event"",""trial"",""time""
""fullscreenenter"",""5"",""13696""
","
","","","","","","","","","","","","","","","","","","","","","",""
"d3-instructions","48","263212","0.0-48.0","611","603","15","Male","false","true","false","false","""event"",""trial"",""time""
""fullscreenenter"",""5"",""13696""
","
","
","""event"",""trial"",""time""
""fullscreenenter"",""5"",""13696""
","
","","","","","","","","","","","","","","","","","","","","","",""
"d3-instructions","49","271005","0.0-49.0","611","603","15","Male","false","true","false","false","""event"",""trial"",""time""
""fullscreenenter"",""5"",""13696""
","
","
","""event"",""trial"",""time""
""fullscreenenter"",""5"",""13696""
","
","","","","","","","","","","","","","","","","","","","","","",""
"d3-instructions","50","275605","0.0-50.0","611","603","15","Male","false","true","false","false","""event"",""trial"",""time""
""fullscreenenter"",""5"",""13696""
","
","
","""event"",""trial"",""time""
""fullscreenenter"",""5"",""13696""
","
","","","","","","","","","","","","","","","","","","","","","",""
"d3-instructions","51","277957","0.0-51.0","611","603","15","Male","false","true","false","false","""event"",""trial"",""time""
""fullscreenenter"",""5"",""13696""
","
","
","""event"",""trial"",""time""
""fullscreenenter"",""5"",""13696""
","
","","","","","","","","","","","","","","","","","","","","","",""
"d3-instructions","52","280205","0.0-52.0","611","603","15","Male","false","true","false","false","""event"",""trial"",""time""
""fullscreenenter"",""5"",""13696""
","
","
","""event"",""trial"",""time""
""fullscreenenter"",""5"",""13696""
","
","","","","","","","","","","","","","","","","","","","","","",""
"d3-instructions","53","287373","0.0-53.0","611","603","15","Male","false","true","false","false","""event"",""trial"",""time""
""fullscreenenter"",""5"",""13696""
","
","
","""event"",""trial"",""time""
""fullscreenenter"",""5"",""13696""
","
","","","","","","","","","","","","","","","","","","","","","",""
"d3-instructions","54","296677","0.0-54.0","611","603","15","Male","false","true","false","false","""event"",""trial"",""time""
""fullscreenenter"",""5"",""13696""
","
","
","""event"",""trial"",""time""
""fullscreenenter"",""5"",""13696""
","
","","","","","","","","","","","","","","","","","","","","","",""
"d3-instructions","55","300045","0.0-55.0","611","603","15","Male","false","true","false","false","""event"",""trial"",""time""
""fullscreenenter"",""5"",""13696""
","
","
","""event"",""trial"",""time""
""fullscreenenter"",""5"",""13696""
","
","","","","","","","","","","","","","","","","","","","","","",""
"d3-instructions","56","304277","0.0-56.0","611","603","15","Male","false","true","false","false","""event"",""trial"",""time""
""fullscreenenter"",""5"",""13696""
","
","
","""event"",""trial"",""time""
""fullscreenenter"",""5"",""13696""
","
","","","","","","","","","","","","","","","","","","","","","",""
"d3-instructions","57","313653","0.0-57.0","611","603","15","Male","false","true","false","false","""event"",""trial"",""time""
""fullscreenenter"",""5"",""13696""
","
","
","""event"",""trial"",""time""
""fullscreenenter"",""5"",""13696""
","
","","","","","","","","","","","","","","","","","","","","","",""
"d3-instructions","58","323533","0.0-58.0","611","603","15","Male","false","true","false","false","""event"",""trial"",""time""
""fullscreenenter"",""5"",""13696""
","
","
","""event"",""trial"",""time""
""fullscreenenter"",""5"",""13696""
","
","","","","","","","","","","","","","","","","","","","","","",""
"d3-instructions","59","328509","0.0-59.0","611","603","15","Male","false","true","false","false","""event"",""trial"",""time""
""fullscreenenter"",""5"",""13696""
","
","
","""event"",""trial"",""time""
""fullscreenenter"",""5"",""13696""
","
","","","","","","","","","","","","","","","","","","","","","",""
"d3-instructions","60","331285","0.0-60.0","611","603","15","Male","false","true","false","false","""event"",""trial"",""time""
""fullscreenenter"",""5"",""13696""
","
","
","""event"",""trial"",""time""
""fullscreenenter"",""5"",""13696""
","
","","","","","","","","","","","","","","","","","","","","","",""
"d3-animate-choice","61","333694","0.0-61.0-0.0","611","603","15","Male","false","true","false","false","""event"",""trial"",""time""
""fullscreenenter"",""5"",""13696""
","
","
","""event"",""trial"",""time""
""fullscreenenter"",""5"",""13696""
","
","406.0999999999767","","49","","","3000","1","","","images/earth.jpg","images/tutrocket1","images/tutrocket2","null","images/tutrocket2","","1","practice","null","1","","",""
"d3-animate-choice","62","337111","0.0-61.0-1.0","611","603","15","Male","false","true","false","false","""event"",""trial"",""time""
""fullscreenenter"",""5"",""13696""
","
","
","""event"",""trial"",""time""
""fullscreenenter"",""5"",""13696""
","
","1414","","49","","","3000","1","","","images/tutgreenplanet.jpg","images/tutalien2","images/tutalien1","images/tutrocket2","images/tutalien1","images/nothing.png","2","practice","false","1","rare","0","2022-02-01 22:47:20.874"
"two-step-fixation","63","338112","0.0-61.0-2.0","611","603","15","Male","false","true","false","false","""event"",""trial"",""time""
""fullscreenenter"",""5"",""13696""
","
","
","""event"",""trial"",""time""
""fullscreenenter"",""5"",""13696""
","
","","images/earth.jpg","","","","","","","","","","","","","","fixation","","","","","",""
"d3-animate-choice","64","340422","0.0-61.0-0.1","611","603","15","Male","false","true","false","false","""event"",""trial"",""time""
""fullscreenenter"",""5"",""13696""
","
","
","""event"",""trial"",""time""
""fullscreenenter"",""5"",""13696""
","
","308.19999999995343","","48","","","3000","1","500.0999999999767","48","images/earth.jpg","images/tutrocket1","images/tutrocket2","null","images/tutrocket1","","1","practice","null","2","","",""
"d3-animate-choice","65","342774","0.0-61.0-1.1","611","603","15","Male","false","true","false","false","""event"",""trial"",""time""
""fullscreenenter"",""5"",""13696""
","
","
","""event"",""trial"",""time""
""fullscreenenter"",""5"",""13696""
","
","350.4000000000233","","48","","","3000","1","","","images/tutgreenplanet.jpg","images/tutalien2","images/tutalien1","images/tutrocket1","images/tutalien2","images/nothing.png","2","practice","true","2","common","0","2022-02-01 22:47:26.537"
"two-step-fixation","66","343778","0.0-61.0-2.1","611","603","15","Male","false","true","false","false","""event"",""trial"",""time""
""fullscreenenter"",""5"",""13696""
","
","
","""event"",""trial"",""time""
""fullscreenenter"",""5"",""13696""
","
","","images/earth.jpg","","","","","","","","","","","","","","fixation","","","","","",""
"d3-animate-choice","67","346711","0.0-61.0-0.2","611","603","15","Male","false","true","false","false","""event"",""trial"",""time""
""fullscreenenter"",""5"",""13696""
","
","
","""event"",""trial"",""time""
""fullscreenenter"",""5"",""13696""
","
","930.6000000000931","","49","","","3000","1","","","images/earth.jpg","images/tutrocket1","images/tutrocket2","null","images/tutrocket2","","1","practice","null","1","","",""
"d3-animate-choice","68","349335","0.0-61.0-1.2","611","603","15","Male","false","true","false","false","""event"",""trial"",""time""
""fullscreenenter"",""5"",""13696""
","
","
","""event"",""trial"",""time""
""fullscreenenter"",""5"",""13696""
","
","621.8000000000466","","49","","","3000","1","","","images/tutgreenplanet.jpg","images/tutalien2","images/tutalien1","images/tutrocket2","images/tutalien1","images/t.png","2","practice","false","1","rare","1","2022-02-01 22:47:33.098"
"two-step-fixation","69","350337","0.0-61.0-2.2","611","603","15","Male","false","true","false","false","""event"",""trial"",""time""
""fullscreenenter"",""5"",""13696""
","
","
","""event"",""trial"",""time""
""fullscreenenter"",""5"",""13696""
","
","","images/earth.jpg","","","","","","","","","","","","","","fixation","","","","","",""
"d3-animate-choice","70","352504","0.0-61.0-0.3","611","603","15","Male","false","true","false","false","""event"",""trial"",""time""
""fullscreenenter"",""5"",""13696""
","
","
","""event"",""trial"",""time""
""fullscreenenter"",""5"",""13696""
","
","163.30000000004657","","49","","","3000","1","","","images/earth.jpg","images/tutrocket1","images/tutrocket2","null","images/tutrocket2","","1","practice","null","1","","",""
"d3-animate-choice","71","354775","0.0-61.0-1.3","611","603","15","Male","false","true","false","false","""event"",""trial"",""time""
""fullscreenenter"",""5"",""13696""
","
","
","""event"",""trial"",""time""
""fullscreenenter"",""5"",""13696""
","
","269.19999999995343","","48","","","3000","1","","","images/tutyellowplanet.jpg","images/tutalien4","images/tutalien3","images/tutrocket2","images/tutalien4","images/nothing.png","2","practice","true","2","common","0","2022-02-01 22:47:38.538"
"two-step-fixation","72","355777","0.0-61.0-2.3","611","603","15","Male","false","true","false","false","""event"",""trial"",""time""
""fullscreenenter"",""5"",""13696""
","
","
","""event"",""trial"",""time""
""fullscreenenter"",""5"",""13696""
","
","","images/earth.jpg","","","","","","","","","","","","","","fixation","","","","","",""
"d3-animate-choice","73","358255","0.0-61.0-0.4","611","603","15","Male","false","true","false","false","""event"",""trial"",""time""
""fullscreenenter"",""5"",""13696""
","
","
","""event"",""trial"",""time""
""fullscreenenter"",""5"",""13696""
","
","476","","48","","","3000","1","2388.0999999999767","48","images/earth.jpg","images/tutrocket1","images/tutrocket2","null","images/tutrocket1","","1","practice","null","2","","",""
"d3-animate-choice","74","360838","0.0-61.0-1.4","611","603","15","Male","false","true","false","false","""event"",""trial"",""time""
""fullscreenenter"",""5"",""13696""
","
","
","""event"",""trial"",""time""
""fullscreenenter"",""5"",""13696""
","
","581.8000000000466","","48","","","3000","1","","","images/tutyellowplanet.jpg","images/tutalien4","images/tutalien3","images/tutrocket1","images/tutalien4","images/nothing.png","2","practice","false","2","rare","0","2022-02-01 22:47:44.601"
"two-step-fixation","75","361840","0.0-61.0-2.4","611","603","15","Male","false","true","false","false","""event"",""trial"",""time""
""fullscreenenter"",""5"",""13696""
","
","
","""event"",""trial"",""time""
""fullscreenenter"",""5"",""13696""
","
","","images/earth.jpg","","","","","","","","","","","","","","fixation","","","","","",""
"d3-animate-choice","76","364215","0.0-61.0-0.5","611","603","15","Male","false","true","false","false","""event"",""trial"",""time""
""fullscreenenter"",""5"",""13696""
","
","
","""event"",""trial"",""time""
""fullscreenenter"",""5"",""13696""
","
","372.19999999995343","","49","","","3000","1","","","images/earth.jpg","images/tutrocket1","images/tutrocket2","null","images/tutrocket2","","1","practice","null","1","","",""
"d3-animate-choice","77","366479","0.0-61.0-1.5","611","603","15","Male","false","true","false","false","""event"",""trial"",""time""
""fullscreenenter"",""5"",""13696""
","
","
","""event"",""trial"",""time""
""fullscreenenter"",""5"",""13696""
","
","261.80000000004657","","49","","","3000","1","670","49","images/tutyellowplanet.jpg","images/tutalien4","images/tutalien3","images/tutrocket2","images/tutalien3","images/t.png","2","practice","true","1","common","1","2022-02-01 22:47:50.242"
"two-step-fixation","78","367481","0.0-61.0-2.5","611","603","15","Male","false","true","false","false","""event"",""trial"",""time""
""fullscreenenter"",""5"",""13696""
","
","
","""event"",""trial"",""time""
""fullscreenenter"",""5"",""13696""
","
","","images/earth.jpg","","","","","","","","","","","","","","fixation","","","","","",""
"d3-animate-choice","79","369599","0.0-61.0-0.6","611","603","15","Male","false","true","false","false","""event"",""trial"",""time""
""fullscreenenter"",""5"",""13696""
","
","
","""event"",""trial"",""time""
""fullscreenenter"",""5"",""13696""
","
","115.69999999995343","","49","","","3000","1","","","images/earth.jpg","images/tutrocket1","images/tutrocket2","null","images/tutrocket2","","1","practice","null","1","","",""
"d3-animate-choice","80","371887","0.0-61.0-1.6","611","603","15","Male","false","true","false","false","""event"",""trial"",""time""
""fullscreenenter"",""5"",""13696""
","
","
","""event"",""trial"",""time""
""fullscreenenter"",""5"",""13696""
","
","286.20000000006985","","48","","","3000","1","","","images/tutyellowplanet.jpg","images/tutalien4","images/tutalien3","images/tutrocket2","images/tutalien4","images/nothing.png","2","practice","true","2","common","0","2022-02-01 22:47:55.650"
"two-step-fixation","81","372889","0.0-61.0-2.6","611","603","15","Male","false","true","false","false","""event"",""trial"",""time""
""fullscreenenter"",""5"",""13696""
","
","
","""event"",""trial"",""time""
""fullscreenenter"",""5"",""13696""
","
","","images/earth.jpg","","","","","","","","","","","","","","fixation","","","","","",""
"d3-animate-choice","82","375232","0.0-61.0-0.7","611","603","15","Male","false","true","false","false","""event"",""trial"",""time""
""fullscreenenter"",""5"",""13696""
","
","
","""event"",""trial"",""time""
""fullscreenenter"",""5"",""13696""
","
","340.69999999995343","","49","","","3000","1","","","images/earth.jpg","images/tutrocket1","images/tutrocket2","null","images/tutrocket2","","1","practice","null","1","","",""
"d3-animate-choice","83","377703","0.0-61.0-1.7","611","603","15","Male","false","true","false","false","""event"",""trial"",""time""
""fullscreenenter"",""5"",""13696""
","
","
","""event"",""trial"",""time""
""fullscreenenter"",""5"",""13696""
","
","469.80000000004657","","49","","","3000","1","","","images/tutyellowplanet.jpg","images/tutalien4","images/tutalien3","images/tutrocket2","images/tutalien3","images/nothing.png","2","practice","true","1","common","0","2022-02-01 22:48:01.466"
"two-step-fixation","84","378704","0.0-61.0-2.7","611","603","15","Male","false","true","false","false","""event"",""trial"",""time""
""fullscreenenter"",""5"",""13696""
","
","
","""event"",""trial"",""time""
""fullscreenenter"",""5"",""13696""
","
","","images/earth.jpg","","","","","","","","","","","","","","fixation","","","","","",""
"d3-animate-choice","85","381247","0.0-61.0-0.8","611","603","15","Male","false","true","false","false","""event"",""trial"",""time""
""fullscreenenter"",""5"",""13696""
","
","
","""event"",""trial"",""time""
""fullscreenenter"",""5"",""13696""
","
","541","","49","","","3000","1","","","images/earth.jpg","images/tutrocket1","images/tutrocket2","null","images/tutrocket2","","1","practice","null","1","","",""
"d3-animate-choice","86","383647","0.0-61.0-1.8","611","603","15","Male","false","true","false","false","""event"",""trial"",""time""
""fullscreenenter"",""5"",""13696""
","
","
","""event"",""trial"",""time""
""fullscreenenter"",""5"",""13696""
","
","399.0999999999767","","48","","","3000","1","","","images/tutyellowplanet.jpg","images/tutalien4","images/tutalien3","images/tutrocket2","images/tutalien4","images/nothing.png","2","practice","true","2","common","0","2022-02-01 22:48:07.410"
"two-step-fixation","87","384649","0.0-61.0-2.8","611","603","15","Male","false","true","false","false","""event"",""trial"",""time""
""fullscreenenter"",""5"",""13696""
","
","
","""event"",""trial"",""time""
""fullscreenenter"",""5"",""13696""
","
","","images/earth.jpg","","","","","","","","","","","","","","fixation","","","","","",""
"d3-animate-choice","88","386848","0.0-61.0-0.9","611","603","15","Male","false","true","false","false","""event"",""trial"",""time""
""fullscreenenter"",""5"",""13696""
","
","
","""event"",""trial"",""time""
""fullscreenenter"",""5"",""13696""
","
","196.80000000004657","","49","","","3000","1","420.80000000004657,724.9000000000233","49,49","images/earth.jpg","images/tutrocket1","images/tutrocket2","null","images/tutrocket2","","1","practice","null","1","","",""
"d3-animate-choice","89","389271","0.0-61.0-1.9","611","603","15","Male","false","true","false","false","""event"",""trial"",""time""
""fullscreenenter"",""5"",""13696""
","
","
","""event"",""trial"",""time""
""fullscreenenter"",""5"",""13696""
","
","421.69999999995343","","49","","","3000","1","1605.7999999999302,1829.7999999999302,2069.79999999993","49,49,49","images/tutyellowplanet.jpg","images/tutalien4","images/tutalien3","images/tutrocket2","images/tutalien3","images/nothing.png","2","practice","true","1","common","0","2022-02-01 22:48:13.034"
"two-step-fixation","90","390273","0.0-61.0-2.9","611","603","15","Male","false","true","false","false","""event"",""trial"",""time""
""fullscreenenter"",""5"",""13696""
","
","
","""event"",""trial"",""time""
""fullscreenenter"",""5"",""13696""
","
","","images/earth.jpg","","","","","","","","","","","","","","fixation","","","","","",""
"d3-animate-choice","91","392456","0.0-61.0-0.10","611","603","15","Male","false","true","false","false","""event"",""trial"",""time""
""fullscreenenter"",""5"",""13696""
","
","
","""event"",""trial"",""time""
""fullscreenenter"",""5"",""13696""
","
","180.09999999997672","","49","","","3000","1","524.0999999999767,924.0999999999767,1476.2999999999302,1932.4000000000233","49,49,49,49","images/earth.jpg","images/tutrocket1","images/tutrocket2","null","images/tutrocket2","","1","practice","null","1","","",""
"d3-animate-choice","92","394711","0.0-61.0-1.10","611","603","15","Male","false","true","false","false","""event"",""trial"",""time""
""fullscreenenter"",""5"",""13696""
","
","
","""event"",""trial"",""time""
""fullscreenenter"",""5"",""13696""
","
","253.59999999997672","","49","","","3000","1","","","images/tutyellowplanet.jpg","images/tutalien4","images/tutalien3","images/tutrocket2","images/tutalien3","images/nothing.png","2","practice","true","1","common","0","2022-02-01 22:48:18.474"
"two-step-fixation","93","395713","0.0-61.0-2.10","611","603","15","Male","false","true","false","false","""event"",""trial"",""time""
""fullscreenenter"",""5"",""13696""
","
","
","""event"",""trial"",""time""
""fullscreenenter"",""5"",""13696""
","
","","images/earth.jpg","","","","","","","","","","","","","","fixation","","","","","",""
"d3-animate-choice","94","397944","0.0-61.0-0.11","611","603","15","Male","false","true","false","false","""event"",""trial"",""time""
""fullscreenenter"",""5"",""13696""
","
","
","""event"",""trial"",""time""
""fullscreenenter"",""5"",""13696""
","
","228.90000000002328","","48","","","3000","1","1868.9000000000233","48","images/earth.jpg","images/tutrocket1","images/tutrocket2","null","images/tutrocket1","","1","practice","null","2","","",""
"d3-animate-choice","95","400153","0.0-61.0-1.11","611","603","15","Male","false","true","false","false","""event"",""trial"",""time""
""fullscreenenter"",""5"",""13696""
","
","
","""event"",""trial"",""time""
""fullscreenenter"",""5"",""13696""
","
","206.19999999995343","","48","","","3000","1","","","images/tutyellowplanet.jpg","images/tutalien4","images/tutalien3","images/tutrocket1","images/tutalien4","images/nothing.png","2","practice","false","2","rare","0","2022-02-01 22:48:23.916"
"two-step-fixation","96","401154","0.0-61.0-2.11","611","603","15","Male","false","true","false","false","""event"",""trial"",""time""
""fullscreenenter"",""5"",""13696""
","
","
","""event"",""trial"",""time""
""fullscreenenter"",""5"",""13696""
","
","","images/earth.jpg","","","","","","","","","","","","","","fixation","","","","","",""
"d3-animate-choice","97","403256","0.0-61.0-0.12","611","603","15","Male","false","true","false","false","""event"",""trial"",""time""
""fullscreenenter"",""5"",""13696""
","
","
","""event"",""trial"",""time""
""fullscreenenter"",""5"",""13696""
","
","99.60000000009313","","48","","","3000","1","","","images/earth.jpg","images/tutrocket1","images/tutrocket2","null","images/tutrocket1","","1","practice","null","2","","",""
"d3-animate-choice","98","405760","0.0-61.0-1.12","611","603","15","Male","false","true","false","false","""event"",""trial"",""time""
""fullscreenenter"",""5"",""13696""
","
","
","""event"",""trial"",""time""
""fullscreenenter"",""5"",""13696""
","
","502.4000000000233","","49","","","3000","1","","","images/tutgreenplanet.jpg","images/tutalien2","images/tutalien1","images/tutrocket1","images/tutalien1","images/nothing.png","2","practice","true","1","common","0","2022-02-01 22:48:29.523"
"two-step-fixation","99","406761","0.0-61.0-2.12","611","603","15","Male","false","true","false","false","""event"",""trial"",""time""
""fullscreenenter"",""5"",""13696""
","
","
","""event"",""trial"",""time""
""fullscreenenter"",""5"",""13696""
","
","","images/earth.jpg","","","","","","","","","","","","","","fixation","","","","","",""
"d3-animate-choice","100","408951","0.0-61.0-0.13","611","603","15","Male","false","true","false","false","""event"",""trial"",""time""
""fullscreenenter"",""5"",""13696""
","
","
","""event"",""trial"",""time""
""fullscreenenter"",""5"",""13696""
","
","188.69999999995343","","49","","","3000","1","","","images/earth.jpg","images/tutrocket1","images/tutrocket2","null","images/tutrocket2","","1","practice","null","1","","",""
"d3-animate-choice","101","411600","0.0-61.0-1.13","611","603","15","Male","false","true","false","false","""event"",""trial"",""time""
""fullscreenenter"",""5"",""13696""
","
","
","""event"",""trial"",""time""
""fullscreenenter"",""5"",""13696""
","
","646.6999999999534","","49","","","3000","1","","","images/tutyellowplanet.jpg","images/tutalien4","images/tutalien3","images/tutrocket2","images/tutalien3","images/nothing.png","2","practice","true","1","common","0","2022-02-01 22:48:35.363"
"two-step-fixation","102","412602","0.0-61.0-2.13","611","603","15","Male","false","true","false","false","""event"",""trial"",""time""
""fullscreenenter"",""5"",""13696""
","
","
","""event"",""trial"",""time""
""fullscreenenter"",""5"",""13696""
","
","","images/earth.jpg","","","","","","","","","","","","","","fixation","","","","","",""
"d3-animate-choice","103","414856","0.0-61.0-0.14","611","603","15","Male","false","true","false","false","""event"",""trial"",""time""
""fullscreenenter"",""5"",""13696""
","
","
","""event"",""trial"",""time""
""fullscreenenter"",""5"",""13696""
","
","251.5","","49","","","3000","1","","","images/earth.jpg","images/tutrocket1","images/tutrocket2","null","images/tutrocket2","","1","practice","null","1","","",""
"d3-animate-choice","104","417569","0.0-61.0-1.14","611","603","15","Male","false","true","false","false","""event"",""trial"",""time""
""fullscreenenter"",""5"",""13696""
","
","
","""event"",""trial"",""time""
""fullscreenenter"",""5"",""13696""
","
","710.1999999999534","","49","","","3000","1","","","images/tutyellowplanet.jpg","images/tutalien4","images/tutalien3","images/tutrocket2","images/tutalien3","images/nothing.png","2","practice","true","1","common","0","2022-02-01 22:48:41.332"
"two-step-fixation","105","418570","0.0-61.0-2.14","611","603","15","Male","false","true","false","false","""event"",""trial"",""time""
""fullscreenenter"",""5"",""13696""
","
","
","""event"",""trial"",""time""
""fullscreenenter"",""5"",""13696""
","
","","images/earth.jpg","","","","","","","","","","","","","","fixation","","","","","",""
"d3-animate-choice","106","420880","0.0-61.0-0.15","611","603","15","Male","false","true","false","false","""event"",""trial"",""time""
""fullscreenenter"",""5"",""13696""
","
","
","""event"",""trial"",""time""
""fullscreenenter"",""5"",""13696""
","
","307.5999999999767","","49","","","3000","1","","","images/earth.jpg","images/tutrocket1","images/tutrocket2","null","images/tutrocket2","","1","practice","null","1","","",""
"d3-animate-choice","107","423112","0.0-61.0-1.15","611","603","15","Male","false","true","false","false","""event"",""trial"",""time""
""fullscreenenter"",""5"",""13696""
","
","
","""event"",""trial"",""time""
""fullscreenenter"",""5"",""13696""
","
","230.19999999995343","","49","","","3000","1","","","images/tutyellowplanet.jpg","images/tutalien4","images/tutalien3","images/tutrocket2","images/tutalien3","images/t.png","2","practice","true","1","common","1","2022-02-01 22:48:46.875"
"two-step-fixation","108","424115","0.0-61.0-2.15","611","603","15","Male","false","true","false","false","""event"",""trial"",""time""
""fullscreenenter"",""5"",""13696""
","
","
","""event"",""trial"",""time""
""fullscreenenter"",""5"",""13696""
","
","","images/earth.jpg","","","","","","","","","","","","","","fixation","","","","","",""
"d3-animate-choice","109","426520","0.0-61.0-0.16","611","603","15","Male","false","true","false","false","""event"",""trial"",""time""
""fullscreenenter"",""5"",""13696""
","
","
","""event"",""trial"",""time""
""fullscreenenter"",""5"",""13696""
","
","403.4000000000233","","49","","","3000","1","","","images/earth.jpg","images/tutrocket1","images/tutrocket2","null","images/tutrocket2","","1","practice","null","1","","",""
"d3-animate-choice","110","429016","0.0-61.0-1.16","611","603","15","Male","false","true","false","false","""event"",""trial"",""time""
""fullscreenenter"",""5"",""13696""
","
","
","""event"",""trial"",""time""
""fullscreenenter"",""5"",""13696""
","
","494.10000000009313","","49","","","3000","1","","","images/tutyellowplanet.jpg","images/tutalien4","images/tutalien3","images/tutrocket2","images/tutalien3","images/t.png","2","practice","true","1","common","1","2022-02-01 22:48:52.779"
"two-step-fixation","111","430018","0.0-61.0-2.16","611","603","15","Male","false","true","false","false","""event"",""trial"",""time""
""fullscreenenter"",""5"",""13696""
","
","
","""event"",""trial"",""time""
""fullscreenenter"",""5"",""13696""
","
","","images/earth.jpg","","","","","","","","","","","","","","fixation","","","","","",""
"d3-animate-choice","112","432224","0.0-61.0-0.17","611","603","15","Male","false","true","false","false","""event"",""trial"",""time""
""fullscreenenter"",""5"",""13696""
","
","
","""event"",""trial"",""time""
""fullscreenenter"",""5"",""13696""
","
","204.5","","49","","","3000","1","","","images/earth.jpg","images/tutrocket1","images/tutrocket2","null","images/tutrocket2","","1","practice","null","1","","",""
"d3-animate-choice","113","434624","0.0-61.0-1.17","611","603","15","Male","false","true","false","false","""event"",""trial"",""time""
""fullscreenenter"",""5"",""13696""
","
","
","""event"",""trial"",""time""
""fullscreenenter"",""5"",""13696""
","
","398.5999999999767","","49","","","3000","1","","","images/tutgreenplanet.jpg","images/tutalien2","images/tutalien1","images/tutrocket2","images/tutalien1","images/nothing.png","2","practice","false","1","rare","0","2022-02-01 22:48:58.387"
"two-step-fixation","114","435633","0.0-61.0-2.17","611","603","15","Male","false","true","false","false","""event"",""trial"",""time""
""fullscreenenter"",""5"",""13696""
","
","
","""event"",""trial"",""time""
""fullscreenenter"",""5"",""13696""
","
","","images/earth.jpg","","","","","","","","","","","","","","fixation","","","","","",""
"d3-animate-choice","115","438312","0.0-61.0-0.18","611","603","15","Male","false","true","false","false","""event"",""trial"",""time""
""fullscreenenter"",""5"",""13696""
","
","
","""event"",""trial"",""time""
""fullscreenenter"",""5"",""13696""
","
","677.0999999999767","","49","","","3000","1","989.1999999999534","49","images/earth.jpg","images/tutrocket1","images/tutrocket2","null","images/tutrocket2","","1","practice","null","1","","",""
"d3-animate-choice","116","440889","0.0-61.0-1.18","611","603","15","Male","false","true","false","false","""event"",""trial"",""time""
""fullscreenenter"",""5"",""13696""
","
","
","""event"",""trial"",""time""
""fullscreenenter"",""5"",""13696""
","
","574.5","","49","","","3000","1","","","images/tutyellowplanet.jpg","images/tutalien4","images/tutalien3","images/tutrocket2","images/tutalien3","images/nothing.png","2","practice","true","1","common","0","2022-02-01 22:49:04.652"
"two-step-fixation","117","441891","0.0-61.0-2.18","611","603","15","Male","false","true","false","false","""event"",""trial"",""time""
""fullscreenenter"",""5"",""13696""
","
","
","""event"",""trial"",""time""
""fullscreenenter"",""5"",""13696""
","
","","images/earth.jpg","","","","","","","","","","","","","","fixation","","","","","",""
"d3-animate-choice","118","445893","0.0-61.0-0.19","611","603","15","Male","false","true","false","false","""event"",""trial"",""time""
""fullscreenenter"",""5"",""13696""
","
","
","""event"",""trial"",""time""
""fullscreenenter"",""5"",""13696""
","
","3027.5","","49","","","3000","0","3371.5","49","images/earth.jpg","images/tutrocket1","images/tutrocket2","null","","","1","practice","null","1","","",""
"d3-animate-choice","119","446899","0.0-61.0-1.19","611","603","15","Male","false","true","false","false","""event"",""trial"",""time""
""fullscreenenter"",""5"",""13696""
","
","
","""event"",""trial"",""time""
""fullscreenenter"",""5"",""13696""
","
","872.9000000000233","","49","","","0","0","","","images/earth.jpg","images/tutrocket1","images/tutrocket2","null","","","2","practice","null","1","","0","2022-02-01 22:49:10.662"
"two-step-fixation","120","447900","0.0-61.0-2.19","611","603","15","Male","false","true","false","false","""event"",""trial"",""time""
""fullscreenenter"",""5"",""13696""
","
","
","""event"",""trial"",""time""
""fullscreenenter"",""5"",""13696""
","
","","images/earth.jpg","","","","","","","","","","","","","","fixation","","","","","",""
"d3-instructions","121","454000","0.0-62.0","611","603","15","Male","false","true","false","false","""event"",""trial"",""time""
""fullscreenenter"",""5"",""13696""
","
","
","""event"",""trial"",""time""
""fullscreenenter"",""5"",""13696""
","
","","","","","","","","","","","","","","","","","","","","","",""
"audio-keyboard-response","122","456264","0.0-63.0","611","603","15","Male","false","true","false","false","""event"",""trial"",""time""
""fullscreenenter"",""5"",""13696""
","
","
","""event"",""trial"",""time""
""fullscreenenter"",""5"",""13696""
","
","2269","audio/instructions/treasure_feedback.wav","32","","","","","","","","","","","","","","","","","","",""
"d3-instructions","123","457584","0.0-64.0","611","603","15","Male","false","true","false","false","""event"",""trial"",""time""
""fullscreenenter"",""5"",""13696""
","
","
","""event"",""trial"",""time""
""fullscreenenter"",""5"",""13696""
","
","","","","","","","","","","","","","","","","","","","","","",""
"d3-instructions","124","458496","0.0-65.0","611","603","15","Male","false","true","false","false","""event"",""trial"",""time""
""fullscreenenter"",""5"",""13696""
","
","
","""event"",""trial"",""time""
""fullscreenenter"",""5"",""13696""
","
","","","","","","","","","","","","","","","","","","","","","",""
"d3-instructions","125","459048","0.0-66.0","611","603","15","Male","false","true","false","false","""event"",""trial"",""time""
""fullscreenenter"",""5"",""13696""
","
","
","""event"",""trial"",""time""
""fullscreenenter"",""5"",""13696""
","
","","","","","","","","","","","","","","","","","","","","","",""
"d3-instructions","126","459520","0.0-67.0","611","603","15","Male","false","true","false","false","""event"",""trial"",""time""
""fullscreenenter"",""5"",""13696""
","
","
","""event"",""trial"",""time""
""fullscreenenter"",""5"",""13696""
","
","","","","","","","","","","","","","","","","","","","","","",""
"d3-instructions","127","462384","0.0-68.0","611","603","15","Male","false","true","false","false","""event"",""trial"",""time""
""fullscreenenter"",""5"",""13696""
","
","
","""event"",""trial"",""time""
""fullscreenenter"",""5"",""13696""
","
","","","","","","","","","","","","","","","","","","","","","",""
"instructions-quiz","128","465528","0.0-69.0","611","603","15","Male","false","true","false","false","""event"",""trial"",""time""
""fullscreenenter"",""5"",""13696""
","
","
","""event"",""trial"",""time""
""fullscreenenter"",""5"",""13696""
","
","3143.20000000007","audio/quiz/Q1_Prompt.wav","","1","","","","","","","","","","","","","","","","","",""
"audio-keyboard-response","129","466832","0.0-70.0","611","603","15","Male","false","true","false","false","""event"",""trial"",""time""
""fullscreenenter"",""5"",""13696""
","
","
","""event"",""trial"",""time""
""fullscreenenter"",""5"",""13696""
","
","1299","audio/quiz/Q1_Correct.wav","32","","","","","","","","","","","","","","","","","","",""
"instructions-quiz","130","471768","0.0-71.0","611","603","15","Male","false","true","false","false","""event"",""trial"",""time""
""fullscreenenter"",""5"",""13696""
","
","
","""event"",""trial"",""time""
""fullscreenenter"",""5"",""13696""
","
","4935.300000000047","audio/quiz/Q2_Prompt.wav","","0","","","","","","","","","","","","","","","","","",""
"audio-keyboard-response","131","472664","0.0-72.0","611","603","15","Male","false","true","false","false","""event"",""trial"",""time""
""fullscreenenter"",""5"",""13696""
","
","
","""event"",""trial"",""time""
""fullscreenenter"",""5"",""13696""
","
","899","audio/quiz/Q2_Correct.wav","32","","","","","","","","","","","","","","","","","","",""
"instructions-quiz","132","474856","0.0-73.0","611","603","15","Male","false","true","false","false","""event"",""trial"",""time""
""fullscreenenter"",""5"",""13696""
","
","
","""event"",""trial"",""time""
""fullscreenenter"",""5"",""13696""
","
","2191.0999999999767","audio/quiz/Q3_Prompt.wav","","1","","","","","","","","","","","","","","","","","",""
"audio-keyboard-response","133","475472","0.0-74.0","611","603","15","Male","false","true","false","false","""event"",""trial"",""time""
""fullscreenenter"",""5"",""13696""
","
","
","""event"",""trial"",""time""
""fullscreenenter"",""5"",""13696""
","
","611","audio/quiz/Q3_Correct.wav","32","","","","","","","","","","","","","","","","","","",""
"d3-instructions","134","477080","0.0-75.0","611","603","15","Male","false","true","false","false","""event"",""trial"",""time""
""fullscreenenter"",""5"",""13696""
","
","
","""event"",""trial"",""time""
""fullscreenenter"",""5"",""13696""
","
","","","","","","","","","","","","","","","","","","","","","",""
"d3-animate-choice","135","479941","0.0-76.0-0.0","611","603","15","Male","false","true","false","false","""event"",""trial"",""time""
""fullscreenenter"",""5"",""13696""
","
","
","""event"",""trial"",""time""
""fullscreenenter"",""5"",""13696""
","
","846.5","","49","","","3000","1","","","images/earth.jpg","images/rocket1","images/rocket2","null","images/rocket2","","1","real","null","1","","",""
"d3-animate-choice","136","482465","0.0-76.0-1.0","611","603","15","Male","false","true","false","false","""event"",""trial"",""time""
""fullscreenenter"",""5"",""13696""
","
","
","""event"",""trial"",""time""
""fullscreenenter"",""5"",""13696""
","
","521.3999999999069","","49","","","3000","1","","","images/purpleplanet.jpg","images/alien4","images/alien3","images/rocket2","images/alien3","images/t.png","2","real","true","1","common","1","2022-02-01 22:49:46.228"
"two-step-fixation","137","483467","0.0-76.0-2.0","611","603","15","Male","false","true","false","false","""event"",""trial"",""time""
""fullscreenenter"",""5"",""13696""
","
","
","""event"",""trial"",""time""
""fullscreenenter"",""5"",""13696""
","
","","images/earth.jpg","","","","","","","","","","","","","","fixation","","","","","",""
"d3-animate-choice","138","485482","0.0-76.0-0.1","611","603","15","Male","false","true","false","false","""event"",""trial"",""time""
""fullscreenenter"",""5"",""13696""
","
","
","""event"",""trial"",""time""
""fullscreenenter"",""5"",""13696""
","
","12.20000000006985","","49","","","3000","1","468.0999999999767","49","images/earth.jpg","images/rocket1","images/rocket2","null","images/rocket2","","1","real","null","1","","",""
"d3-animate-choice","139","488057","0.0-76.0-1.1","611","603","15","Male","false","true","false","false","""event"",""trial"",""time""
""fullscreenenter"",""5"",""13696""
","
","
","""event"",""trial"",""time""
""fullscreenenter"",""5"",""13696""
","
","349.4000000000233","","32","","","3000","1","573.1999999999534","49","images/purpleplanet.jpg","images/alien4","images/alien3","images/rocket2","images/alien3","images/nothing.png","2","real","true","","common","0","2022-02-01 22:49:51.821"
"two-step-fixation","140","489059","0.0-76.0-2.1","611","603","15","Male","false","true","false","false","""event"",""trial"",""time""
""fullscreenenter"",""5"",""13696""
","
","
","""event"",""trial"",""time""
""fullscreenenter"",""5"",""13696""
","
","","images/earth.jpg","","","","","","","","","","","","","","fixation","","","","","",""
"d3-animate-choice","141","492313","0.0-76.0-0.2","611","603","15","Male","false","true","false","false","""event"",""trial"",""time""
""fullscreenenter"",""5"",""13696""
","
","
","""event"",""trial"",""time""
""fullscreenenter"",""5"",""13696""
","
","204.30000000004657","","32","","","3000","1","716.3000000000466,1252.3000000000466","32,48","images/earth.jpg","images/rocket1","images/rocket2","null","images/rocket1","","1","real","null","","","",""
"d3-animate-choice","142","495425","0.0-76.0-1.2","611","603","15","Male","false","true","false","false","""event"",""trial"",""time""
""fullscreenenter"",""5"",""13696""
","
","
","""event"",""trial"",""time""
""fullscreenenter"",""5"",""13696""
","
","1110.2000000000698","","48","","","3000","1","","","images/purpleplanet.jpg","images/alien4","images/alien3","images/rocket1","images/alien4","images/nothing.png","2","real","false","2","rare","0","2022-02-01 22:49:59.188"
"two-step-fixation","143","496427","0.0-76.0-2.2","611","603","15","Male","false","true","false","false","""event"",""trial"",""time""
""fullscreenenter"",""5"",""13696""
","
","
","""event"",""trial"",""time""
""fullscreenenter"",""5"",""13696""
","
","","images/earth.jpg","","","","","","","","","","","","","","fixation","","","","","",""
"d3-animate-choice","144","498641","0.0-76.0-0.3","611","603","15","Male","false","true","false","false","""event"",""trial"",""time""
""fullscreenenter"",""5"",""13696""
","
","
","""event"",""trial"",""time""
""fullscreenenter"",""5"",""13696""
","
","212.5","","49","","","3000","1","","","images/earth.jpg","images/rocket1","images/rocket2","null","images/rocket2","","1","real","null","1","","",""
"d3-animate-choice","145","501065","0.0-76.0-1.3","611","603","15","Male","false","true","false","false","""event"",""trial"",""time""
""fullscreenenter"",""5"",""13696""
","
","
","""event"",""trial"",""time""
""fullscreenenter"",""5"",""13696""
","
","422","","49","","","3000","1","","","images/purpleplanet.jpg","images/alien4","images/alien3","images/rocket2","images/alien3","images/t.png","2","real","true","1","common","1","2022-02-01 22:50:04.828"
"two-step-fixation","146","502066","0.0-76.0-2.3","611","603","15","Male","false","true","false","false","""event"",""trial"",""time""
""fullscreenenter"",""5"",""13696""
","
","
","""event"",""trial"",""time""
""fullscreenenter"",""5"",""13696""
","
","","images/earth.jpg","","","","","","","","","","","","","","fixation","","","","","",""
"d3-animate-choice","147","504266","0.0-76.0-0.4","611","603","15","Male","false","true","false","false","""event"",""trial"",""time""
""fullscreenenter"",""5"",""13696""
","
","
","""event"",""trial"",""time""
""fullscreenenter"",""5"",""13696""
","
","197.09999999997672","","48","","","3000","1","","","images/earth.jpg","images/rocket1","images/rocket2","null","images/rocket1","","1","real","null","2","","",""
"d3-animate-choice","148","506641","0.0-76.0-1.4","611","603","15","Male","false","true","false","false","""event"",""trial"",""time""
""fullscreenenter"",""5"",""13696""
","
","
","""event"",""trial"",""time""
""fullscreenenter"",""5"",""13696""
","
","374","","48","","","3000","1","","","images/redplanet1.jpg","images/alien2","images/alien1","images/rocket1","images/alien2","images/nothing.png","2","real","true","2","common","0","2022-02-01 22:50:10.404"
"two-step-fixation","149","507643","0.0-76.0-2.4","611","603","15","Male","false","true","false","false","""event"",""trial"",""time""
""fullscreenenter"",""5"",""13696""
","
","
","""event"",""trial"",""time""
""fullscreenenter"",""5"",""13696""
","
","","images/earth.jpg","","","","","","","","","","","","","","fixation","","","","","",""
"d3-animate-choice","150","509889","0.0-76.0-0.5","611","603","15","Male","false","true","false","false","""event"",""trial"",""time""
""fullscreenenter"",""5"",""13696""
","
","
","""event"",""trial"",""time""
""fullscreenenter"",""5"",""13696""
","
","244.09999999997672","","48","","","3000","1","1892.0999999999767,2156.0999999999767","49,49","images/earth.jpg","images/rocket1","images/rocket2","null","images/rocket1","","1","real","null","2","","",""
"d3-animate-choice","151","512090","0.0-76.0-1.5","611","603","15","Male","false","true","false","false","""event"",""trial"",""time""
""fullscreenenter"",""5"",""13696""
","
","
","""event"",""trial"",""time""
""fullscreenenter"",""5"",""13696""
","
","198.80000000004657","","49","","","3000","1","486.5999999999767","49","images/purpleplanet.jpg","images/alien4","images/alien3","images/rocket1","images/alien3","images/nothing.png","2","real","false","1","rare","0","2022-02-01 22:50:15.853"
"two-step-fixation","152","513092","0.0-76.0-2.5","611","603","15","Male","false","true","false","false","""event"",""trial"",""time""
""fullscreenenter"",""5"",""13696""
","
","
","""event"",""trial"",""time""
""fullscreenenter"",""5"",""13696""
","
","","images/earth.jpg","","","","","","","","","","","","","","fixation","","","","","",""
"d3-animate-choice","153","516761","0.0-76.0-0.6","611","603","15","Male","false","true","false","false","""event"",""trial"",""time""
""fullscreenenter"",""5"",""13696""
","
","
","""event"",""trial"",""time""
""fullscreenenter"",""5"",""13696""
","
","1667.6999999999534","","49","","","3000","1","1939.6999999999534,2171.6999999999534","49,49","images/earth.jpg","images/rocket1","images/rocket2","null","images/rocket2","","1","real","null","1","","",""
"d3-animate-choice","154","519274","0.0-76.0-1.6","611","603","15","Male","false","true","false","false","""event"",""trial"",""time""
""fullscreenenter"",""5"",""13696""
","
","
","""event"",""trial"",""time""
""fullscreenenter"",""5"",""13696""
","
","510.79999999993015","","49","","","3000","1","782.6999999999534","49","images/redplanet1.jpg","images/alien2","images/alien1","images/rocket2","images/alien1","images/nothing.png","2","real","false","1","rare","0","2022-02-01 22:50:23.037"
"two-step-fixation","155","520276","0.0-76.0-2.6","611","603","15","Male","false","true","false","false","""event"",""trial"",""time""
""fullscreenenter"",""5"",""13696""
","
","
","""event"",""trial"",""time""
""fullscreenenter"",""5"",""13696""
","
","","images/earth.jpg","","","","","","","","","","","","","","fixation","","","","","",""
"d3-animate-choice","156","523114","0.0-76.0-0.7","611","603","15","Male","false","true","false","false","""event"",""trial"",""time""
""fullscreenenter"",""5"",""13696""
","
","
","""event"",""trial"",""time""
""fullscreenenter"",""5"",""13696""
","
","835.3000000000466","","49","","","3000","1","1227.4000000000233,2675.20000000007","49,49","images/earth.jpg","images/rocket1","images/rocket2","null","images/rocket2","","1","real","null","1","","",""
"d3-animate-choice","157","525274","0.0-76.0-1.7","611","603","15","Male","false","true","false","false","""event"",""trial"",""time""
""fullscreenenter"",""5"",""13696""
","
","
","""event"",""trial"",""time""
""fullscreenenter"",""5"",""13696""
","
","157.90000000002328","","49","","","3000","1","558,1542,1805.9000000000233","49,49,49","images/purpleplanet.jpg","images/alien4","images/alien3","images/rocket2","images/alien3","images/nothing.png","2","real","true","1","common","0","2022-02-01 22:50:29.037"
"two-step-fixation","158","526276","0.0-76.0-2.7","611","603","15","Male","false","true","false","false","""event"",""trial"",""time""
""fullscreenenter"",""5"",""13696""
","
","
","""event"",""trial"",""time""
""fullscreenenter"",""5"",""13696""
","
","","images/earth.jpg","","","","","","","","","","","","","","fixation","","","","","",""
"d3-animate-choice","159","528306","0.0-76.0-0.8","611","603","15","Male","false","true","false","false","""event"",""trial"",""time""
""fullscreenenter"",""5"",""13696""
","
","
","""event"",""trial"",""time""
""fullscreenenter"",""5"",""13696""
","
","28.199999999953434","","49","","","3000","1","676.0999999999767,1884.2999999999302","49,48","images/earth.jpg","images/rocket1","images/rocket2","null","images/rocket2","","1","real","null","1","","",""
"d3-animate-choice","160","530442","0.0-76.0-1.8","611","603","15","Male","false","true","false","false","""event"",""trial"",""time""
""fullscreenenter"",""5"",""13696""
","
","
","""event"",""trial"",""time""
""fullscreenenter"",""5"",""13696""
","
","134.19999999995343","","48","","","3000","1","","","images/purpleplanet.jpg","images/alien4","images/alien3","images/rocket2","images/alien4","images/t.png","2","real","true","2","common","1","2022-02-01 22:50:34.205"
"two-step-fixation","161","531445","0.0-76.0-2.8","611","603","15","Male","false","true","false","false","""event"",""trial"",""time""
""fullscreenenter"",""5"",""13696""
","
","
","""event"",""trial"",""time""
""fullscreenenter"",""5"",""13696""
","
","","images/earth.jpg","","","","","","","","","","","","","","fixation","","","","","",""
"d3-animate-choice","162","533633","0.0-76.0-0.9","611","603","15","Male","false","true","false","false","""event"",""trial"",""time""
""fullscreenenter"",""5"",""13696""
","
","
","""event"",""trial"",""time""
""fullscreenenter"",""5"",""13696""
","
","186.90000000002328","","49","","","3000","1","","","images/earth.jpg","images/rocket1","images/rocket2","null","images/rocket2","","1","real","null","1","","",""
"d3-animate-choice","163","535986","0.0-76.0-1.9","611","603","15","Male","false","true","false","false","""event"",""trial"",""time""
""fullscreenenter"",""5"",""13696""
","
","
","""event"",""trial"",""time""
""fullscreenenter"",""5"",""13696""
","
","350.5","","48","","","3000","1","","","images/purpleplanet.jpg","images/alien4","images/alien3","images/rocket2","images/alien4","images/nothing.png","2","real","true","2","common","0","2022-02-01 22:50:39.749"
"two-step-fixation","164","536988","0.0-76.0-2.9","611","603","15","Male","false","true","false","false","""event"",""trial"",""time""
""fullscreenenter"",""5"",""13696""
","
","
","""event"",""trial"",""time""
""fullscreenenter"",""5"",""13696""
","
","","images/earth.jpg","","","","","","","","","","","","","","fixation","","","","","",""
"d3-animate-choice","165","539434","0.0-76.0-0.10","611","603","15","Male","false","true","false","false","""event"",""trial"",""time""
""fullscreenenter"",""5"",""13696""
","
","
","""event"",""trial"",""time""
""fullscreenenter"",""5"",""13696""
","
","444.19999999995343","","48","","","3000","1","","","images/earth.jpg","images/rocket1","images/rocket2","null","images/rocket1","","1","real","null","2","","",""
"d3-animate-choice","166","541498","0.0-76.0-1.10","611","603","15","Male","false","true","false","false","""event"",""trial"",""time""
""fullscreenenter"",""5"",""13696""
","
","
","""event"",""trial"",""time""
""fullscreenenter"",""5"",""13696""
","
","61.699999999953434","","49","","","3000","1","445.69999999995343,1285.6999999999534","49,49","images/redplanet1.jpg","images/alien2","images/alien1","images/rocket1","images/alien1","images/t.png","2","real","true","1","common","1","2022-02-01 22:50:45.261"
"two-step-fixation","167","542500","0.0-76.0-2.10","611","603","15","Male","false","true","false","false","""event"",""trial"",""time""
""fullscreenenter"",""5"",""13696""
","
","
","""event"",""trial"",""time""
""fullscreenenter"",""5"",""13696""
","
","","images/earth.jpg","","","","","","","","","","","","","","fixation","","","","","",""
"d3-animate-choice","168","544601","0.0-76.0-0.11","611","603","15","Male","false","true","false","false","""event"",""trial"",""time""
""fullscreenenter"",""5"",""13696""
","
","
","""event"",""trial"",""time""
""fullscreenenter"",""5"",""13696""
","
","99.79999999993015","","48","","","3000","1","1875.7999999999302","48","images/earth.jpg","images/rocket1","images/rocket2","null","images/rocket1","","1","real","null","2","","",""
"d3-animate-choice","169","546658","0.0-76.0-1.11","611","603","15","Male","false","true","false","false","""event"",""trial"",""time""
""fullscreenenter"",""5"",""13696""
","
","
","""event"",""trial"",""time""
""fullscreenenter"",""5"",""13696""
","
","54.40000000002328","","48","","","3000","1","310.29999999993015","48","images/redplanet1.jpg","images/alien2","images/alien1","images/rocket1","images/alien2","images/t.png","2","real","true","2","common","1","2022-02-01 22:50:50.421"
"two-step-fixation","170","547660","0.0-76.0-2.11","611","603","15","Male","false","true","false","false","""event"",""trial"",""time""
""fullscreenenter"",""5"",""13696""
","
","
","""event"",""trial"",""time""
""fullscreenenter"",""5"",""13696""
","
","","images/earth.jpg","","","","","","","","","","","","","","fixation","","","","","",""
"d3-animate-choice","171","550298","0.0-76.0-0.12","611","603","15","Male","false","true","false","false","""event"",""trial"",""time""
""fullscreenenter"",""5"",""13696""
","
","
","""event"",""trial"",""time""
""fullscreenenter"",""5"",""13696""
","
","636.8000000000466","","49","","","3000","1","1036.8000000000466","49","images/earth.jpg","images/rocket1","images/rocket2","null","images/rocket2","","1","real","null","1","","",""
"d3-animate-choice","172","552658","0.0-76.0-1.12","611","603","15","Male","false","true","false","false","""event"",""trial"",""time""
""fullscreenenter"",""5"",""13696""
","
","
","""event"",""trial"",""time""
""fullscreenenter"",""5"",""13696""
","
","358.30000000004657","","48","","","3000","1","","","images/purpleplanet.jpg","images/alien4","images/alien3","images/rocket2","images/alien4","images/nothing.png","2","real","true","2","common","0","2022-02-01 22:50:56.421"
"two-step-fixation","173","553661","0.0-76.0-2.12","611","603","15","Male","false","true","false","false","""event"",""trial"",""time""
""fullscreenenter"",""5"",""13696""
","
","
","""event"",""trial"",""time""
""fullscreenenter"",""5"",""13696""
","
","","images/earth.jpg","","","","","","","","","","","","","","fixation","","","","","",""
"d3-animate-choice","174","555970","0.0-76.0-0.13","611","603","15","Male","false","true","false","false","""event"",""trial"",""time""
""fullscreenenter"",""5"",""13696""
","
","
","""event"",""trial"",""time""
""fullscreenenter"",""5"",""13696""
","
","307.30000000004657","","48","","","3000","1","547.2000000000698,875.2000000000698,1155.1000000000931,2083.20000000007","48,48,48,49","images/earth.jpg","images/rocket1","images/rocket2","null","images/rocket1","","1","real","null","2","","",""
"d3-animate-choice","175","558315","0.0-76.0-1.13","611","603","15","Male","false","true","false","false","""event"",""trial"",""time""
""fullscreenenter"",""5"",""13696""
","
","
","""event"",""trial"",""time""
""fullscreenenter"",""5"",""13696""
","
","342.30000000004657","","49","","","3000","1","","","images/redplanet1.jpg","images/alien2","images/alien1","images/rocket1","images/alien1","images/t.png","2","real","true","1","common","1","2022-02-01 22:51:02.078"
"two-step-fixation","176","559317","0.0-76.0-2.13","611","603","15","Male","false","true","false","false","""event"",""trial"",""time""
""fullscreenenter"",""5"",""13696""
","
","
","""event"",""trial"",""time""
""fullscreenenter"",""5"",""13696""
","
","","images/earth.jpg","","","","","","","","","","","","","","fixation","","","","","",""
"d3-animate-choice","177","561322","0.0-76.0-0.14","611","603","15","Male","false","true","false","false","""event"",""trial"",""time""
""fullscreenenter"",""5"",""13696""
","
","
","""event"",""trial"",""time""
""fullscreenenter"",""5"",""13696""
","
","3.800000000046566","","49","","","3000","1","","","images/earth.jpg","images/rocket1","images/rocket2","null","images/rocket2","","1","real","null","1","","",""
"d3-animate-choice","178","563946","0.0-76.0-1.14","611","603","15","Male","false","true","false","false","""event"",""trial"",""time""
""fullscreenenter"",""5"",""13696""
","
","
","""event"",""trial"",""time""
""fullscreenenter"",""5"",""13696""
","
","622.5","","49","","","3000","1","1206.4000000000233","49","images/purpleplanet.jpg","images/alien4","images/alien3","images/rocket2","images/alien3","images/nothing.png","2","real","true","1","common","0","2022-02-01 22:51:07.709"
"two-step-fixation","179","564948","0.0-76.0-2.14","611","603","15","Male","false","true","false","false","""event"",""trial"",""time""
""fullscreenenter"",""5"",""13696""
","
","
","""event"",""trial"",""time""
""fullscreenenter"",""5"",""13696""
","
","","images/earth.jpg","","","","","","","","","","","","","","fixation","","","","","",""
"d3-animate-choice","180","567434","0.0-76.0-0.15","611","603","15","Male","false","true","false","false","""event"",""trial"",""time""
""fullscreenenter"",""5"",""13696""
","
","
","""event"",""trial"",""time""
""fullscreenenter"",""5"",""13696""
","
","485.30000000004657","","48","","","3000","1","1420.9000000000233,1757,2005.2000000000698,2245,2469","48,48,48,48,48","images/earth.jpg","images/rocket1","images/rocket2","null","images/rocket1","","1","real","null","2","","",""
"d3-animate-choice","181","569851","0.0-76.0-1.15","611","603","15","Male","false","true","false","false","""event"",""trial"",""time""
""fullscreenenter"",""5"",""13696""
","
","
","""event"",""trial"",""time""
""fullscreenenter"",""5"",""13696""
","
","414.5","","48","","","3000","1","678.5,2414.4000000000233","48,49","images/purpleplanet.jpg","images/alien4","images/alien3","images/rocket1","images/alien4","images/t.png","2","real","false","2","rare","1","2022-02-01 22:51:13.614"
"two-step-fixation","182","570853","0.0-76.0-2.15","611","603","15","Male","false","true","false","false","""event"",""trial"",""time""
""fullscreenenter"",""5"",""13696""
","
","
","""event"",""trial"",""time""
""fullscreenenter"",""5"",""13696""
","
","","images/earth.jpg","","","","","","","","","","","","","","fixation","","","","","",""
"d3-animate-choice","183","573315","0.0-76.0-0.16","611","603","15","Male","false","true","false","false","""event"",""trial"",""time""
""fullscreenenter"",""5"",""13696""
","
","
","""event"",""trial"",""time""
""fullscreenenter"",""5"",""13696""
","
","460.0999999999767","","49","","","3000","1","756.0999999999767,1788.2000000000698,2380.20000000007","49,49,49","images/earth.jpg","images/rocket1","images/rocket2","null","images/rocket2","","1","real","null","1","","",""
"d3-animate-choice","184","575547","0.0-76.0-1.16","611","603","15","Male","false","true","false","false","""event"",""trial"",""time""
""fullscreenenter"",""5"",""13696""
","
","
","""event"",""trial"",""time""
""fullscreenenter"",""5"",""13696""
","
","229.5","","49","","","3000","1","637.5,941.3999999999069,1621.5,2045.5","49,49,49,49","images/purpleplanet.jpg","images/alien4","images/alien3","images/rocket2","images/alien3","images/nothing.png","2","real","true","1","common","0","2022-02-01 22:51:19.310"
"two-step-fixation","185","576549","0.0-76.0-2.16","611","603","15","Male","false","true","false","false","""event"",""trial"",""time""
""fullscreenenter"",""5"",""13696""
","
","
","""event"",""trial"",""time""
""fullscreenenter"",""5"",""13696""
","
","","images/earth.jpg","","","","","","","","","","","","","","fixation","","","","","",""
"d3-animate-choice","186","578667","0.0-76.0-0.17","611","603","15","Male","false","true","false","false","""event"",""trial"",""time""
""fullscreenenter"",""5"",""13696""
","
","
","""event"",""trial"",""time""
""fullscreenenter"",""5"",""13696""
","
","115.70000000006985","","49","","","3000","1","387.80000000004657,659.7000000000698,1075.7000000000698,1379.5999999999767,1795.8000000000466","49,49,49,49,49","images/earth.jpg","images/rocket1","images/rocket2","null","images/rocket2","","1","real","null","1","","",""
"d3-animate-choice","187","580724","0.0-76.0-1.17","611","603","15","Male","false","true","false","false","""event"",""trial"",""time""
""fullscreenenter"",""5"",""13696""
","
","
","""event"",""trial"",""time""
""fullscreenenter"",""5"",""13696""
","
","53.5","","49","","","3000","1","437.5,725.5999999999767,1021.4000000000233,1341.5,1741.5999999999767,2045.5999999999767","49,49,49,49,49,49","images/redplanet1.jpg","images/alien2","images/alien1","images/rocket2","images/alien1","images/t.png","2","real","false","1","rare","1","2022-02-01 22:51:24.487"
"two-step-fixation","188","581726","0.0-76.0-2.17","611","603","15","Male","false","true","false","false","""event"",""trial"",""time""
""fullscreenenter"",""5"",""13696""
","
","
","""event"",""trial"",""time""
""fullscreenenter"",""5"",""13696""
","
","","images/earth.jpg","","","","","","","","","","","","","","fixation","","","","","",""
"d3-animate-choice","189","584379","0.0-76.0-0.18","611","603","15","Male","false","true","false","false","""event"",""trial"",""time""
""fullscreenenter"",""5"",""13696""
","
","
","""event"",""trial"",""time""
""fullscreenenter"",""5"",""13696""
","
","651.4000000000233","","49","","","3000","1","971.5999999999767,1299.5,1755.4000000000233,1955.4000000000233,2323.4000000000233","49,49,49,49,49","images/earth.jpg","images/rocket1","images/rocket2","null","images/rocket2","","1","real","null","1","","",""
"d3-animate-choice","190","586387","0.0-76.0-1.18","611","603","15","Male","false","true","false","false","""event"",""trial"",""time""
""fullscreenenter"",""5"",""13696""
","
","
","""event"",""trial"",""time""
""fullscreenenter"",""5"",""13696""
","
","6.400000000023283","","49","","","3000","1","366.5,726.5,1126.4000000000233,1454.5,1822.4000000000233","49,49,49,49,49","images/purpleplanet.jpg","images/alien4","images/alien3","images/rocket2","images/alien3","images/nothing.png","2","real","true","1","common","0","2022-02-01 22:51:30.150"
"two-step-fixation","191","587389","0.0-76.0-2.18","611","603","15","Male","false","true","false","false","""event"",""trial"",""time""
""fullscreenenter"",""5"",""13696""
","
","
","""event"",""trial"",""time""
""fullscreenenter"",""5"",""13696""
","
","","images/earth.jpg","","","","","","","","","","","","","","fixation","","","","","",""
"d3-animate-choice","192","589715","0.0-76.0-0.19","611","603","15","Male","false","true","false","false","""event"",""trial"",""time""
""fullscreenenter"",""5"",""13696""
","
","
","""event"",""trial"",""time""
""fullscreenenter"",""5"",""13696""
","
","324.5","","49","","","3000","1","684.3000000000466,1148.4000000000233,1540.3000000000466,1916.3000000000466,2204.3000000000466","49,49,49,49,49","images/earth.jpg","images/rocket1","images/rocket2","null","images/rocket2","","1","real","null","1","","",""
"d3-animate-choice","193","592139","0.0-76.0-1.19","611","603","15","Male","false","true","false","false","""event"",""trial"",""time""
""fullscreenenter"",""5"",""13696""
","
","
","""event"",""trial"",""time""
""fullscreenenter"",""5"",""13696""
","
","422","","49","","","3000","1","1078,1686,2142.0999999999767","49,49,49","images/redplanet1.jpg","images/alien2","images/alien1","images/rocket2","images/alien1","images/t.png","2","real","false","1","rare","1","2022-02-01 22:51:35.902"
"two-step-fixation","194","593140","0.0-76.0-2.19","611","603","15","Male","false","true","false","false","""event"",""trial"",""time""
""fullscreenenter"",""5"",""13696""
","
","
","""event"",""trial"",""time""
""fullscreenenter"",""5"",""13696""
","
","","images/earth.jpg","","","","","","","","","","","","","","fixation","","","","","",""
"d3-animate-choice","195","595259","0.0-76.0-0.20","611","603","15","Male","false","true","false","false","""event"",""trial"",""time""
""fullscreenenter"",""5"",""13696""
","
","
","""event"",""trial"",""time""
""fullscreenenter"",""5"",""13696""
","
","116.79999999993015","","49","","","3000","1","516.7999999999302,780.7999999999302,1092.8999999999069,1404.8999999999069,1868.8999999999069","49,49,49,49,49","images/earth.jpg","images/rocket1","images/rocket2","null","images/rocket2","","1","real","null","1","","",""
"d3-animate-choice","196","597331","0.0-76.0-1.20","611","603","15","Male","false","true","false","false","""event"",""trial"",""time""
""fullscreenenter"",""5"",""13696""
","
","
","""event"",""trial"",""time""
""fullscreenenter"",""5"",""13696""
","
","70.60000000009313","","49","","","3000","1","798.5,1174.4000000000233,1558.4000000000233","49,49,49","images/redplanet1.jpg","images/alien2","images/alien1","images/rocket2","images/alien1","images/t.png","2","real","false","1","rare","1","2022-02-01 22:51:41.094"
"two-step-fixation","197","598333","0.0-76.0-2.20","611","603","15","Male","false","true","false","false","""event"",""trial"",""time""
""fullscreenenter"",""5"",""13696""
","
","
","""event"",""trial"",""time""
""fullscreenenter"",""5"",""13696""
","
","","images/earth.jpg","","","","","","","","","","","","","","fixation","","","","","",""
"d3-animate-choice","198","600484","0.0-76.0-0.21","611","603","15","Male","false","true","false","false","""event"",""trial"",""time""
""fullscreenenter"",""5"",""13696""
","
","
","""event"",""trial"",""time""
""fullscreenenter"",""5"",""13696""
","
","147.69999999995343","","49","","","3000","1","659.7999999999302,1083.7999999999302,1436,1772,2051.6999999999534","49,49,49,49,49","images/earth.jpg","images/rocket1","images/rocket2","null","images/rocket2","","1","real","null","1","","",""
"d3-animate-choice","199","602611","0.0-76.0-1.21","611","603","15","Male","false","true","false","false","""event"",""trial"",""time""
""fullscreenenter"",""5"",""13696""
","
","
","""event"",""trial"",""time""
""fullscreenenter"",""5"",""13696""
","
","125.80000000004657","","49","","","3000","1","677.5999999999767,1485.7000000000698,2093.5999999999767","49,49,49","images/purpleplanet.jpg","images/alien4","images/alien3","images/rocket2","images/alien3","images/t.png","2","real","true","1","common","1","2022-02-01 22:51:46.374"
"two-step-fixation","200","603614","0.0-76.0-2.21","611","603","15","Male","false","true","false","false","""event"",""trial"",""time""
""fullscreenenter"",""5"",""13696""
","
","
","""event"",""trial"",""time""
""fullscreenenter"",""5"",""13696""
","
","","images/earth.jpg","","","","","","","","","","","","","","fixation","","","","","",""
"d3-animate-choice","201","605716","0.0-76.0-0.22","611","603","15","Male","false","true","false","false","""event"",""trial"",""time""
""fullscreenenter"",""5"",""13696""
","
","
","""event"",""trial"",""time""
""fullscreenenter"",""5"",""13696""
","
","99.29999999993015","","49","","","3000","1","667.4000000000233","49","images/earth.jpg","images/rocket1","images/rocket2","null","images/rocket2","","1","real","null","1","","",""
"d3-animate-choice","202","608571","0.0-76.0-1.22","611","603","15","Male","false","true","false","false","""event"",""trial"",""time""
""fullscreenenter"",""5"",""13696""
","
","
","""event"",""trial"",""time""
""fullscreenenter"",""5"",""13696""
","
","853.8000000000466","","49","","","3000","1","1157.9000000000233,1494.0999999999767,1893.9000000000233,2334,2613.9000000000233","49,49,49,49,49","images/purpleplanet.jpg","images/alien4","images/alien3","images/rocket2","images/alien3","images/nothing.png","2","real","true","1","common","0","2022-02-01 22:51:52.334"
"two-step-fixation","203","609573","0.0-76.0-2.22","611","603","15","Male","false","true","false","false","""event"",""trial"",""time""
""fullscreenenter"",""5"",""13696""
","
","
","""event"",""trial"",""time""
""fullscreenenter"",""5"",""13696""
","
","","images/earth.jpg","","","","","","","","","","","","","","fixation","","","","","",""
"d3-animate-choice","204","612010","0.0-76.0-0.23","611","603","15","Male","false","true","false","false","""event"",""trial"",""time""
""fullscreenenter"",""5"",""13696""
","
","
","""event"",""trial"",""time""
""fullscreenenter"",""5"",""13696""
","
","435.0999999999767","","49","","","3000","1","843.0999999999767,1243.0999999999767,1507.0999999999767,1891.0999999999767,2427","49,49,49,49,49","images/earth.jpg","images/rocket1","images/rocket2","null","images/rocket2","","1","real","null","1","","",""
"d3-animate-choice","205","615003","0.0-76.0-1.23","611","603","15","Male","false","true","false","false","""event"",""trial"",""time""
""fullscreenenter"",""5"",""13696""
","
","
","""event"",""trial"",""time""
""fullscreenenter"",""5"",""13696""
","
","990.0999999999767","","49","","","3000","1","1358.1999999999534,1734.0999999999767","49,49","images/redplanet1.jpg","images/alien2","images/alien1","images/rocket2","images/alien1","images/t.png","2","real","false","1","rare","1","2022-02-01 22:51:58.766"
"two-step-fixation","206","616005","0.0-76.0-2.23","611","603","15","Male","false","true","false","false","""event"",""trial"",""time""
""fullscreenenter"",""5"",""13696""
","
","
","""event"",""trial"",""time""
""fullscreenenter"",""5"",""13696""
","
","","images/earth.jpg","","","","","","","","","","","","","","fixation","","","","","",""
"d3-animate-choice","207","619594","0.0-76.0-0.24","611","603","15","Male","false","true","false","false","""event"",""trial"",""time""
""fullscreenenter"",""5"",""13696""
","
","
","""event"",""trial"",""time""
""fullscreenenter"",""5"",""13696""
","
","1588.1999999999534","","49","","","3000","1","1868,2188.1999999999534,2548,3180.0999999999767,3572","49,49,49,49,49","images/earth.jpg","images/rocket1","images/rocket2","null","images/rocket2","","1","real","null","1","","",""
"d3-animate-choice","208","622531","0.0-76.0-1.24","611","603","15","Male","false","true","false","false","""event"",""trial"",""time""
""fullscreenenter"",""5"",""13696""
","
","
","""event"",""trial"",""time""
""fullscreenenter"",""5"",""13696""
","
","934.1999999999534","","49","","","3000","1","1246.2999999999302,1526.5999999999767,1782.5,2398.399999999907,2750.29999999993","49,49,49,49,49","images/purpleplanet.jpg","images/alien4","images/alien3","images/rocket2","images/alien3","images/nothing.png","2","real","true","1","common","0","2022-02-01 22:52:06.294"
"two-step-fixation","209","623533","0.0-76.0-2.24","611","603","15","Male","false","true","false","false","""event"",""trial"",""time""
""fullscreenenter"",""5"",""13696""
","
","
","""event"",""trial"",""time""
""fullscreenenter"",""5"",""13696""
","
","","images/earth.jpg","","","","","","","","","","","","","","fixation","","","","","",""
"d3-animate-choice","210","625899","0.0-76.0-0.25","611","603","15","Male","false","true","false","false","""event"",""trial"",""time""
""fullscreenenter"",""5"",""13696""
","
","
","""event"",""trial"",""time""
""fullscreenenter"",""5"",""13696""
","
","364.19999999995343","","49","","","3000","1","884.0999999999767,1924.1999999999534,2188.1999999999534","49,49,49","images/earth.jpg","images/rocket1","images/rocket2","null","images/rocket2","","1","real","null","1","","",""
"d3-animate-choice","211","628019","0.0-76.0-1.25","611","603","15","Male","false","true","false","false","""event"",""trial"",""time""
""fullscreenenter"",""5"",""13696""
","
","
","""event"",""trial"",""time""
""fullscreenenter"",""5"",""13696""
","
","118","","49","","","3000","1","445.9000000000233,814.1000000000931,1221.9000000000233,1589.9000000000233,1934.3000000000466","49,49,49,49,49","images/purpleplanet.jpg","images/alien4","images/alien3","images/rocket2","images/alien3","images/t.png","2","real","true","1","common","1","2022-02-01 22:52:11.782"
"two-step-fixation","212","629020","0.0-76.0-2.25","611","603","15","Male","false","true","false","false","""event"",""trial"",""time""
""fullscreenenter"",""5"",""13696""
","
","
","""event"",""trial"",""time""
""fullscreenenter"",""5"",""13696""
","
","","images/earth.jpg","","","","","","","","","","","","","","fixation","","","","","",""
"d3-animate-choice","213","631203","0.0-76.0-0.26","611","603","15","Male","false","true","false","false","""event"",""trial"",""time""
""fullscreenenter"",""5"",""13696""
","
","
","""event"",""trial"",""time""
""fullscreenenter"",""5"",""13696""
","
","180.69999999995343","","49","","","3000","1","788.6999999999534,1084.6999999999534,1364.8000000000466,1820.6999999999534","49,49,49,49","images/earth.jpg","images/rocket1","images/rocket2","null","images/rocket2","","1","real","null","1","","",""
"d3-animate-choice","214","633291","0.0-76.0-1.26","611","603","15","Male","false","true","false","false","""event"",""trial"",""time""
""fullscreenenter"",""5"",""13696""
","
","
","""event"",""trial"",""time""
""fullscreenenter"",""5"",""13696""
","
","86.5","","49","","","3000","1","438.30000000004657,1742.3000000000466,1998.1999999999534","49,49,49","images/redplanet1.jpg","images/alien2","images/alien1","images/rocket2","images/alien1","images/t.png","2","real","false","1","rare","1","2022-02-01 22:52:17.054"
"two-step-fixation","215","634294","0.0-76.0-2.26","611","603","15","Male","false","true","false","false","""event"",""trial"",""time""
""fullscreenenter"",""5"",""13696""
","
","
","""event"",""trial"",""time""
""fullscreenenter"",""5"",""13696""
","
","","images/earth.jpg","","","","","","","","","","","","","","fixation","","","","","",""
"d3-animate-choice","216","636340","0.0-76.0-0.27","611","603","15","Male","false","true","false","false","""event"",""trial"",""time""
""fullscreenenter"",""5"",""13696""
","
","
","""event"",""trial"",""time""
""fullscreenenter"",""5"",""13696""
","
","42.699999999953434","","49","","","3000","1","354.69999999995343,690.5,1026.5999999999767,1746.5","49,49,49,49","images/earth.jpg","images/rocket1","images/rocket2","null","images/rocket2","","1","real","null","1","","",""
"d3-animate-choice","217","638731","0.0-76.0-1.27","611","603","15","Male","false","true","false","false","""event"",""trial"",""time""
""fullscreenenter"",""5"",""13696""
","
","
","""event"",""trial"",""time""
""fullscreenenter"",""5"",""13696""
","
","389.30000000004657","","49","","","3000","1","973.3000000000466,1661.3000000000466","49,49","images/purpleplanet.jpg","images/alien4","images/alien3","images/rocket2","images/alien3","images/nothing.png","2","real","true","1","common","0","2022-02-01 22:52:22.494"
"two-step-fixation","218","639732","0.0-76.0-2.27","611","603","15","Male","false","true","false","false","""event"",""trial"",""time""
""fullscreenenter"",""5"",""13696""
","
","
","""event"",""trial"",""time""
""fullscreenenter"",""5"",""13696""
","
","","images/earth.jpg","","","","","","","","","","","","","","fixation","","","","","",""
"d3-animate-choice","219","641891","0.0-76.0-0.28","611","603","15","Male","false","true","false","false","""event"",""trial"",""time""
""fullscreenenter"",""5"",""13696""
","
","
","""event"",""trial"",""time""
""fullscreenenter"",""5"",""13696""
","
","156.59999999997672","","49","","","3000","1","476.79999999993015,796.7999999999302,1084.5999999999767,1780.8999999999069","49,49,49,49","images/earth.jpg","images/rocket1","images/rocket2","null","images/rocket2","","1","real","null","1","","",""
"d3-animate-choice","220","644507","0.0-76.0-1.28","611","603","15","Male","false","true","false","false","""event"",""trial"",""time""
""fullscreenenter"",""5"",""13696""
","
","
","""event"",""trial"",""time""
""fullscreenenter"",""5"",""13696""
","
","613.8000000000466","","49","","","3000","1","1317.8000000000466,1725.8000000000466,2125.9000000000233,2605.9000000000233","49,49,49,49","images/purpleplanet.jpg","images/alien4","images/alien3","images/rocket2","images/alien3","images/nothing.png","2","real","true","1","common","0","2022-02-01 22:52:28.270"
"two-step-fixation","221","645509","0.0-76.0-2.28","611","603","15","Male","false","true","false","false","""event"",""trial"",""time""
""fullscreenenter"",""5"",""13696""
","
","
","""event"",""trial"",""time""
""fullscreenenter"",""5"",""13696""
","
","","images/earth.jpg","","","","","","","","","","","","","","fixation","","","","","",""
"d3-animate-choice","222","647787","0.0-76.0-0.29","611","603","15","Male","false","true","false","false","""event"",""trial"",""time""
""fullscreenenter"",""5"",""13696""
","
","
","""event"",""trial"",""time""
""fullscreenenter"",""5"",""13696""
","
","276.4000000000233","","49","","","3000","1","1236.5,2236.5","49,49","images/earth.jpg","images/rocket1","images/rocket2","null","images/rocket2","","1","real","null","1","","",""
"d3-animate-choice","223","650172","0.0-76.0-1.29","611","603","15","Male","false","true","false","false","""event"",""trial"",""time""
""fullscreenenter"",""5"",""13696""
","
","
","""event"",""trial"",""time""
""fullscreenenter"",""5"",""13696""
","
","382","","49","","","3000","1","413.9000000000233,766","49,49","images/purpleplanet.jpg","images/alien4","images/alien3","images/rocket2","images/alien3","images/nothing.png","2","real","true","1","common","0","2022-02-01 22:52:33.935"
"two-step-fixation","224","651174","0.0-76.0-2.29","611","603","15","Male","false","true","false","false","""event"",""trial"",""time""
""fullscreenenter"",""5"",""13696""
","
","
","""event"",""trial"",""time""
""fullscreenenter"",""5"",""13696""
","
","","images/earth.jpg","","","","","","","","","","","","","","fixation","","","","","",""
"d3-animate-choice","225","653443","0.0-76.0-0.30","611","603","15","Male","false","true","false","false","""event"",""trial"",""time""
""fullscreenenter"",""5"",""13696""
","
","
","""event"",""trial"",""time""
""fullscreenenter"",""5"",""13696""
","
","267.79999999993015","","49","","","3000","1","803.6999999999534,1099.6999999999534,1403.7999999999302,1675.7999999999302,2051.6999999999534","49,49,49,49,49","images/earth.jpg","images/rocket1","images/rocket2","null","images/rocket2","","1","real","null","1","","",""
"d3-animate-choice","226","655643","0.0-76.0-1.30","611","603","15","Male","false","true","false","false","""event"",""trial"",""time""
""fullscreenenter"",""5"",""13696""
","
","
","""event"",""trial"",""time""
""fullscreenenter"",""5"",""13696""
","
","198.5","","49","","","3000","1","838.5","49","images/purpleplanet.jpg","images/alien4","images/alien3","images/rocket2","images/alien3","images/nothing.png","2","real","true","1","common","0","2022-02-01 22:52:39.406"
"two-step-fixation","227","656645","0.0-76.0-2.30","611","603","15","Male","false","true","false","false","""event"",""trial"",""time""
""fullscreenenter"",""5"",""13696""
","
","
","""event"",""trial"",""time""
""fullscreenenter"",""5"",""13696""
","
","","images/earth.jpg","","","","","","","","","","","","","","fixation","","","","","",""
"d3-animate-choice","228","660228","0.0-76.0-0.31","611","603","15","Male","false","true","false","false","""event"",""trial"",""time""
""fullscreenenter"",""5"",""13696""
","
","
","""event"",""trial"",""time""
""fullscreenenter"",""5"",""13696""
","
","1580.2999999999302","","49","","","3000","1","1876.4000000000233,2508.29999999993,2892.4000000000233,3228.29999999993","49,49,49,49","images/earth.jpg","images/rocket1","images/rocket2","null","images/rocket2","","1","real","null","1","","",""
"d3-animate-choice","229","662612","0.0-76.0-1.31","611","603","15","Male","false","true","false","false","""event"",""trial"",""time""
""fullscreenenter"",""5"",""13696""
","
","
","""event"",""trial"",""time""
""fullscreenenter"",""5"",""13696""
","
","381.9000000000233","","49","","","3000","1","725.5999999999767,1077.7000000000698,2373.9000000000233","49,49,49","images/redplanet1.jpg","images/alien2","images/alien1","images/rocket2","images/alien1","images/t.png","2","real","false","1","rare","1","2022-02-01 22:52:46.375"
"two-step-fixation","230","663613","0.0-76.0-2.31","611","603","15","Male","false","true","false","false","""event"",""trial"",""time""
""fullscreenenter"",""5"",""13696""
","
","
","""event"",""trial"",""time""
""fullscreenenter"",""5"",""13696""
","
","","images/earth.jpg","","","","","","","","","","","","","","fixation","","","","","",""
"d3-animate-choice","231","665732","0.0-76.0-0.32","611","603","15","Male","false","true","false","false","""event"",""trial"",""time""
""fullscreenenter"",""5"",""13696""
","
","
","""event"",""trial"",""time""
""fullscreenenter"",""5"",""13696""
","
","116.09999999997672","","49","","","3000","1","484.0999999999767,812.0999999999767,1419.9000000000233,1724,1964.0999999999767","49,49,49,49,49","images/earth.jpg","images/rocket1","images/rocket2","null","images/rocket2","","1","real","null","1","","",""
"d3-animate-choice","232","667908","0.0-76.0-1.32","611","603","15","Male","false","true","false","false","""event"",""trial"",""time""
""fullscreenenter"",""5"",""13696""
","
","
","""event"",""trial"",""time""
""fullscreenenter"",""5"",""13696""
","
","173.80000000004657","","49","","","3000","1","638,821.7000000000698,1277.7000000000698","49,49,49","images/purpleplanet.jpg","images/alien4","images/alien3","images/rocket2","images/alien3","images/t.png","2","real","true","1","common","1","2022-02-01 22:52:51.671"
"two-step-fixation","233","668910","0.0-76.0-2.32","611","603","15","Male","false","true","false","false","""event"",""trial"",""time""
""fullscreenenter"",""5"",""13696""
","
","
","""event"",""trial"",""time""
""fullscreenenter"",""5"",""13696""
","
","","images/earth.jpg","","","","","","","","","","","","","","fixation","","","","","",""
"d3-animate-choice","234","671181","0.0-76.0-0.33","611","603","15","Male","false","true","false","false","""event"",""trial"",""time""
""fullscreenenter"",""5"",""13696""
","
","
","""event"",""trial"",""time""
""fullscreenenter"",""5"",""13696""
","
","268.70000000006985","","49","","","3000","1","876.8000000000466,1340.8000000000466,1988.7000000000698","49,49,49","images/earth.jpg","images/rocket1","images/rocket2","null","images/rocket2","","1","real","null","1","","",""
"d3-animate-choice","235","673252","0.0-76.0-1.33","611","603","15","Male","false","true","false","false","""event"",""trial"",""time""
""fullscreenenter"",""5"",""13696""
","
","
","""event"",""trial"",""time""
""fullscreenenter"",""5"",""13696""
","
","69.59999999997672","","49","","","3000","1","","","images/purpleplanet.jpg","images/alien4","images/alien3","images/rocket2","images/alien3","images/nothing.png","2","real","true","1","common","0","2022-02-01 22:52:57.015"
"two-step-fixation","236","674254","0.0-76.0-2.33","611","603","15","Male","false","true","false","false","""event"",""trial"",""time""
""fullscreenenter"",""5"",""13696""
","
","
","""event"",""trial"",""time""
""fullscreenenter"",""5"",""13696""
","
","","images/earth.jpg","","","","","","","","","","","","","","fixation","","","","","",""
"d3-animate-choice","237","676452","0.0-76.0-0.34","611","603","15","Male","false","true","false","false","""event"",""trial"",""time""
""fullscreenenter"",""5"",""13696""
","
","
","""event"",""trial"",""time""
""fullscreenenter"",""5"",""13696""
","
","196.90000000002328","","49","","","3000","1","","","images/earth.jpg","images/rocket1","images/rocket2","null","images/rocket2","","1","real","null","1","","",""
"d3-animate-choice","238","679013","0.0-76.0-1.34","611","603","15","Male","false","true","false","false","""event"",""trial"",""time""
""fullscreenenter"",""5"",""13696""
","
","
","""event"",""trial"",""time""
""fullscreenenter"",""5"",""13696""
","
","558.5","","49","","","3000","1","1430.8000000000466","49","images/purpleplanet.jpg","images/alien4","images/alien3","images/rocket2","images/alien3","images/t.png","2","real","true","1","common","1","2022-02-01 22:53:02.776"
