"trial_type","trial_index","time_elapsed","internal_node_id","participant_id","subject_id","age","gender","rocket_sides","red_planet_first_rocket","red_display_order","purple_display_order","interactions","blur_events","focus_events","fullscreenenter_events","fullscreenexit_events","rt","stimulus","key_press","button_pressed","success","duration","valid_pressed","rts","keys","planet_text","right_text","left_text","center_text","chosen_text","reward_text","trial_stage","practice_trial","transition_type","choice","transition","reward","timestamp"
"pavlovia","0","23","0.0-0.0","2358","4977","18","Male","true","true","false","true","""event"",""trial"",""time""
""blur"",""0"",""0""
""focus"",""1"",""16819""
","""event"",""trial"",""time""
""blur"",""0"",""0""
","""event"",""trial"",""time""
""focus"",""1"",""16819""
","
","
","","","","","","","","","","","","","","","","","","","","","",""
"html-keyboard-response","1","17900","0.0-1.0","2358","4977","18","Male","true","true","false","true","""event"",""trial"",""time""
""blur"",""0"",""0""
""focus"",""1"",""16819""
","""event"",""trial"",""time""
""blur"",""0"",""0""
","""event"",""trial"",""time""
""focus"",""1"",""16819""
","
","
","17868.700000286102","Welcome! Press the space bar to begin.","32","","","","","","","","","","","","","","","","","","",""
"audio-keyboard-response","2","19491","0.0-2.0","2358","4977","18","Male","true","true","false","true","""event"",""trial"",""time""
""blur"",""0"",""0""
""focus"",""1"",""16819""
""blur"",""3"",""34242""
""focus"",""3"",""34243""
","""event"",""trial"",""time""
""blur"",""0"",""0""
""blur"",""3"",""34242""
","""event"",""trial"",""time""
""focus"",""1"",""16819""
""focus"",""3"",""34243""
","
","
","1501","audio/beep_loop.wav","32","","","","","","","","","","","","","","","","","","",""
"audio-button-response","3","35025","0.0-3.0","2358","4977","18","Male","true","true","false","true","""event"",""trial"",""time""
""blur"",""0"",""0""
""focus"",""1"",""16819""
""blur"",""3"",""34242""
""focus"",""3"",""34243""
","""event"",""trial"",""time""
""blur"",""0"",""0""
""blur"",""3"",""34242""
","""event"",""trial"",""time""
""focus"",""1"",""16819""
""focus"",""3"",""34243""
","
","
","NaN","audio/fish.mp3","","1","","","","","","","","","","","","","","","","","",""
"audio-button-response","4","37808","0.0-4.0","2358","4977","18","Male","true","true","false","true","""event"",""trial"",""time""
""blur"",""0"",""0""
""focus"",""1"",""16819""
""blur"",""3"",""34242""
""focus"",""3"",""34243""
""fullscreenenter"",""5"",""40468""
","""event"",""trial"",""time""
""blur"",""0"",""0""
""blur"",""3"",""34242""
","""event"",""trial"",""time""
""focus"",""1"",""16819""
""focus"",""3"",""34243""
","""event"",""trial"",""time""
""fullscreenenter"",""5"",""40468""
","
","NaN","audio/tiger.mp3","","4","","","","","","","","","","","","","","","","","",""
"fullscreen","5","41413","0.0-5.0","2358","4977","18","Male","true","true","false","true","""event"",""trial"",""time""
""blur"",""0"",""0""
""focus"",""1"",""16819""
""blur"",""3"",""34242""
""focus"",""3"",""34243""
""fullscreenenter"",""5"",""40468""
""fullscreenexit"",""6"",""42283""
""blur"",""6"",""51768""
""focus"",""6"",""54948""
","""event"",""trial"",""time""
""blur"",""0"",""0""
""blur"",""3"",""34242""
""blur"",""6"",""51768""
","""event"",""trial"",""time""
""focus"",""1"",""16819""
""focus"",""3"",""34243""
""focus"",""6"",""54948""
","""event"",""trial"",""time""
""fullscreenenter"",""5"",""40468""
","""event"",""trial"",""time""
""fullscreenexit"",""6"",""42283""
","","","","","true","","","","","","","","","","","","","","","","",""
"d3-instructions","6","59573","0.0-6.0","2358","4977","18","Male","true","true","false","true","""event"",""trial"",""time""
""blur"",""0"",""0""
""focus"",""1"",""16819""
""blur"",""3"",""34242""
""focus"",""3"",""34243""
""fullscreenenter"",""5"",""40468""
""fullscreenexit"",""6"",""42283""
""blur"",""6"",""51768""
""focus"",""6"",""54948""
""blur"",""7"",""74905""
""focus"",""7"",""359145""
""blur"",""7"",""359830""
""focus"",""7"",""360458""
","""event"",""trial"",""time""
""blur"",""0"",""0""
""blur"",""3"",""34242""
""blur"",""6"",""51768""
""blur"",""7"",""74905""
""blur"",""7"",""359830""
","""event"",""trial"",""time""
""focus"",""1"",""16819""
""focus"",""3"",""34243""
""focus"",""6"",""54948""
""focus"",""7"",""359145""
""focus"",""7"",""360458""
","""event"",""trial"",""time""
""fullscreenenter"",""5"",""40468""
","""event"",""trial"",""time""
""fullscreenexit"",""6"",""42283""
","","","","","","","","","","","","","","","","","","","","","",""
"d3-instructions","7","366490","0.0-7.0","2358","4977","18","Male","true","true","false","true","""event"",""trial"",""time""
""blur"",""0"",""0""
""focus"",""1"",""16819""
""blur"",""3"",""34242""
""focus"",""3"",""34243""
""fullscreenenter"",""5"",""40468""
""fullscreenexit"",""6"",""42283""
""blur"",""6"",""51768""
""focus"",""6"",""54948""
""blur"",""7"",""74905""
""focus"",""7"",""359145""
""blur"",""7"",""359830""
""focus"",""7"",""360458""
","""event"",""trial"",""time""
""blur"",""0"",""0""
""blur"",""3"",""34242""
""blur"",""6"",""51768""
""blur"",""7"",""74905""
""blur"",""7"",""359830""
","""event"",""trial"",""time""
""focus"",""1"",""16819""
""focus"",""3"",""34243""
""focus"",""6"",""54948""
""focus"",""7"",""359145""
""focus"",""7"",""360458""
","""event"",""trial"",""time""
""fullscreenenter"",""5"",""40468""
","""event"",""trial"",""time""
""fullscreenexit"",""6"",""42283""
","","","","","","","","","","","","","","","","","","","","","",""
"d3-instructions","8","379565","0.0-8.0","2358","4977","18","Male","true","true","false","true","""event"",""trial"",""time""
""blur"",""0"",""0""
""focus"",""1"",""16819""
""blur"",""3"",""34242""
""focus"",""3"",""34243""
""fullscreenenter"",""5"",""40468""
""fullscreenexit"",""6"",""42283""
""blur"",""6"",""51768""
""focus"",""6"",""54948""
""blur"",""7"",""74905""
""focus"",""7"",""359145""
""blur"",""7"",""359830""
""focus"",""7"",""360458""
","""event"",""trial"",""time""
""blur"",""0"",""0""
""blur"",""3"",""34242""
""blur"",""6"",""51768""
""blur"",""7"",""74905""
""blur"",""7"",""359830""
","""event"",""trial"",""time""
""focus"",""1"",""16819""
""focus"",""3"",""34243""
""focus"",""6"",""54948""
""focus"",""7"",""359145""
""focus"",""7"",""360458""
","""event"",""trial"",""time""
""fullscreenenter"",""5"",""40468""
","""event"",""trial"",""time""
""fullscreenexit"",""6"",""42283""
","","","","","","","","","","","","","","","","","","","","","",""
"d3-instructions","9","392107","0.0-9.0","2358","4977","18","Male","true","true","false","true","""event"",""trial"",""time""
""blur"",""0"",""0""
""focus"",""1"",""16819""
""blur"",""3"",""34242""
""focus"",""3"",""34243""
""fullscreenenter"",""5"",""40468""
""fullscreenexit"",""6"",""42283""
""blur"",""6"",""51768""
""focus"",""6"",""54948""
""blur"",""7"",""74905""
""focus"",""7"",""359145""
""blur"",""7"",""359830""
""focus"",""7"",""360458""
","""event"",""trial"",""time""
""blur"",""0"",""0""
""blur"",""3"",""34242""
""blur"",""6"",""51768""
""blur"",""7"",""74905""
""blur"",""7"",""359830""
","""event"",""trial"",""time""
""focus"",""1"",""16819""
""focus"",""3"",""34243""
""focus"",""6"",""54948""
""focus"",""7"",""359145""
""focus"",""7"",""360458""
","""event"",""trial"",""time""
""fullscreenenter"",""5"",""40468""
","""event"",""trial"",""time""
""fullscreenexit"",""6"",""42283""
","","","","","","","","","","","","","","","","","","","","","",""
"d3-instructions","10","396389","0.0-10.0","2358","4977","18","Male","true","true","false","true","""event"",""trial"",""time""
""blur"",""0"",""0""
""focus"",""1"",""16819""
""blur"",""3"",""34242""
""focus"",""3"",""34243""
""fullscreenenter"",""5"",""40468""
""fullscreenexit"",""6"",""42283""
""blur"",""6"",""51768""
""focus"",""6"",""54948""
""blur"",""7"",""74905""
""focus"",""7"",""359145""
""blur"",""7"",""359830""
""focus"",""7"",""360458""
","""event"",""trial"",""time""
""blur"",""0"",""0""
""blur"",""3"",""34242""
""blur"",""6"",""51768""
""blur"",""7"",""74905""
""blur"",""7"",""359830""
","""event"",""trial"",""time""
""focus"",""1"",""16819""
""focus"",""3"",""34243""
""focus"",""6"",""54948""
""focus"",""7"",""359145""
""focus"",""7"",""360458""
","""event"",""trial"",""time""
""fullscreenenter"",""5"",""40468""
","""event"",""trial"",""time""
""fullscreenexit"",""6"",""42283""
","","","","","","","","","","","","","","","","","","","","","",""
"d3-animate-choice","11","403262","0.0-11.0","2358","4977","18","Male","true","true","false","true","""event"",""trial"",""time""
""blur"",""0"",""0""
""focus"",""1"",""16819""
""blur"",""3"",""34242""
""focus"",""3"",""34243""
""fullscreenenter"",""5"",""40468""
""fullscreenexit"",""6"",""42283""
""blur"",""6"",""51768""
""focus"",""6"",""54948""
""blur"",""7"",""74905""
""focus"",""7"",""359145""
""blur"",""7"",""359830""
""focus"",""7"",""360458""
","""event"",""trial"",""time""
""blur"",""0"",""0""
""blur"",""3"",""34242""
""blur"",""6"",""51768""
""blur"",""7"",""74905""
""blur"",""7"",""359830""
","""event"",""trial"",""time""
""focus"",""1"",""16819""
""focus"",""3"",""34243""
""focus"",""6"",""54948""
""focus"",""7"",""359145""
""focus"",""7"",""360458""
","""event"",""trial"",""time""
""fullscreenenter"",""5"",""40468""
","""event"",""trial"",""time""
""fullscreenexit"",""6"",""42283""
","3575.7000002861023","","97","","","3000","1","3807.5999999046326,4840","97,49","images/tutgreenplanet.jpg","images/tutalien1","images/tutalien2","null","images/tutalien2","","NA","practice","null","","","",""
"d3-animate-choice","12","407870","0.0-12.0","2358","4977","18","Male","true","true","false","true","""event"",""trial"",""time""
""blur"",""0"",""0""
""focus"",""1"",""16819""
""blur"",""3"",""34242""
""focus"",""3"",""34243""
""fullscreenenter"",""5"",""40468""
""fullscreenexit"",""6"",""42283""
""blur"",""6"",""51768""
""focus"",""6"",""54948""
""blur"",""7"",""74905""
""focus"",""7"",""359145""
""blur"",""7"",""359830""
""focus"",""7"",""360458""
","""event"",""trial"",""time""
""blur"",""0"",""0""
""blur"",""3"",""34242""
""blur"",""6"",""51768""
""blur"",""7"",""74905""
""blur"",""7"",""359830""
","""event"",""trial"",""time""
""focus"",""1"",""16819""
""focus"",""3"",""34243""
""focus"",""6"",""54948""
""focus"",""7"",""359145""
""focus"",""7"",""360458""
","""event"",""trial"",""time""
""fullscreenenter"",""5"",""40468""
","""event"",""trial"",""time""
""fullscreenexit"",""6"",""42283""
","1632.5","","50","","","3000","1","2264.9000000953674,2592.9000000953674","50,49","images/tutgreenplanet.jpg","images/tutalien1","images/tutalien2","null","images/tutalien2","","NA","practice","null","","","",""
"d3-animate-choice","13","411396","0.0-13.0","2358","4977","18","Male","true","true","false","true","""event"",""trial"",""time""
""blur"",""0"",""0""
""focus"",""1"",""16819""
""blur"",""3"",""34242""
""focus"",""3"",""34243""
""fullscreenenter"",""5"",""40468""
""fullscreenexit"",""6"",""42283""
""blur"",""6"",""51768""
""focus"",""6"",""54948""
""blur"",""7"",""74905""
""focus"",""7"",""359145""
""blur"",""7"",""359830""
""focus"",""7"",""360458""
","""event"",""trial"",""time""
""blur"",""0"",""0""
""blur"",""3"",""34242""
""blur"",""6"",""51768""
""blur"",""7"",""74905""
""blur"",""7"",""359830""
","""event"",""trial"",""time""
""focus"",""1"",""16819""
""focus"",""3"",""34243""
""focus"",""6"",""54948""
""focus"",""7"",""359145""
""focus"",""7"",""360458""
","""event"",""trial"",""time""
""fullscreenenter"",""5"",""40468""
","""event"",""trial"",""time""
""fullscreenexit"",""6"",""42283""
","441.7999997138977","","50","","","3000","1","1505.6999998092651","48","images/tutgreenplanet.jpg","images/tutalien1","images/tutalien2","null","images/tutalien1","","NA","practice","null","","","",""
"d3-animate-choice","14","414084","0.0-14.0","2358","4977","18","Male","true","true","false","true","""event"",""trial"",""time""
""blur"",""0"",""0""
""focus"",""1"",""16819""
""blur"",""3"",""34242""
""focus"",""3"",""34243""
""fullscreenenter"",""5"",""40468""
""fullscreenexit"",""6"",""42283""
""blur"",""6"",""51768""
""focus"",""6"",""54948""
""blur"",""7"",""74905""
""focus"",""7"",""359145""
""blur"",""7"",""359830""
""focus"",""7"",""360458""
","""event"",""trial"",""time""
""blur"",""0"",""0""
""blur"",""3"",""34242""
""blur"",""6"",""51768""
""blur"",""7"",""74905""
""blur"",""7"",""359830""
","""event"",""trial"",""time""
""focus"",""1"",""16819""
""focus"",""3"",""34243""
""focus"",""6"",""54948""
""focus"",""7"",""359145""
""focus"",""7"",""360458""
","""event"",""trial"",""time""
""fullscreenenter"",""5"",""40468""
","""event"",""trial"",""time""
""fullscreenexit"",""6"",""42283""
","668.4000000953674","","48","","","3000","1","","","images/tutgreenplanet.jpg","images/tutalien1","images/tutalien2","null","images/tutalien1","","NA","practice","null","","","",""
"d3-instructions","15","417843","0.0-15.0","2358","4977","18","Male","true","true","false","true","""event"",""trial"",""time""
""blur"",""0"",""0""
""focus"",""1"",""16819""
""blur"",""3"",""34242""
""focus"",""3"",""34243""
""fullscreenenter"",""5"",""40468""
""fullscreenexit"",""6"",""42283""
""blur"",""6"",""51768""
""focus"",""6"",""54948""
""blur"",""7"",""74905""
""focus"",""7"",""359145""
""blur"",""7"",""359830""
""focus"",""7"",""360458""
","""event"",""trial"",""time""
""blur"",""0"",""0""
""blur"",""3"",""34242""
""blur"",""6"",""51768""
""blur"",""7"",""74905""
""blur"",""7"",""359830""
","""event"",""trial"",""time""
""focus"",""1"",""16819""
""focus"",""3"",""34243""
""focus"",""6"",""54948""
""focus"",""7"",""359145""
""focus"",""7"",""360458""
","""event"",""trial"",""time""
""fullscreenenter"",""5"",""40468""
","""event"",""trial"",""time""
""fullscreenexit"",""6"",""42283""
","","","","","","","","","","","","","","","","","","","","","",""
"d3-instructions","16","421366","0.0-16.0","2358","4977","18","Male","true","true","false","true","""event"",""trial"",""time""
""blur"",""0"",""0""
""focus"",""1"",""16819""
""blur"",""3"",""34242""
""focus"",""3"",""34243""
""fullscreenenter"",""5"",""40468""
""fullscreenexit"",""6"",""42283""
""blur"",""6"",""51768""
""focus"",""6"",""54948""
""blur"",""7"",""74905""
""focus"",""7"",""359145""
""blur"",""7"",""359830""
""focus"",""7"",""360458""
","""event"",""trial"",""time""
""blur"",""0"",""0""
""blur"",""3"",""34242""
""blur"",""6"",""51768""
""blur"",""7"",""74905""
""blur"",""7"",""359830""
","""event"",""trial"",""time""
""focus"",""1"",""16819""
""focus"",""3"",""34243""
""focus"",""6"",""54948""
""focus"",""7"",""359145""
""focus"",""7"",""360458""
","""event"",""trial"",""time""
""fullscreenenter"",""5"",""40468""
","""event"",""trial"",""time""
""fullscreenexit"",""6"",""42283""
","","","","","","","","","","","","","","","","","","","","","",""
"d3-instructions","17","423052","0.0-17.0","2358","4977","18","Male","true","true","false","true","""event"",""trial"",""time""
""blur"",""0"",""0""
""focus"",""1"",""16819""
""blur"",""3"",""34242""
""focus"",""3"",""34243""
""fullscreenenter"",""5"",""40468""
""fullscreenexit"",""6"",""42283""
""blur"",""6"",""51768""
""focus"",""6"",""54948""
""blur"",""7"",""74905""
""focus"",""7"",""359145""
""blur"",""7"",""359830""
""focus"",""7"",""360458""
","""event"",""trial"",""time""
""blur"",""0"",""0""
""blur"",""3"",""34242""
""blur"",""6"",""51768""
""blur"",""7"",""74905""
""blur"",""7"",""359830""
","""event"",""trial"",""time""
""focus"",""1"",""16819""
""focus"",""3"",""34243""
""focus"",""6"",""54948""
""focus"",""7"",""359145""
""focus"",""7"",""360458""
","""event"",""trial"",""time""
""fullscreenenter"",""5"",""40468""
","""event"",""trial"",""time""
""fullscreenexit"",""6"",""42283""
","","","","","","","","","","","","","","","","","","","","","",""
"d3-instructions","18","424756","0.0-18.0","2358","4977","18","Male","true","true","false","true","""event"",""trial"",""time""
""blur"",""0"",""0""
""focus"",""1"",""16819""
""blur"",""3"",""34242""
""focus"",""3"",""34243""
""fullscreenenter"",""5"",""40468""
""fullscreenexit"",""6"",""42283""
""blur"",""6"",""51768""
""focus"",""6"",""54948""
""blur"",""7"",""74905""
""focus"",""7"",""359145""
""blur"",""7"",""359830""
""focus"",""7"",""360458""
","""event"",""trial"",""time""
""blur"",""0"",""0""
""blur"",""3"",""34242""
""blur"",""6"",""51768""
""blur"",""7"",""74905""
""blur"",""7"",""359830""
","""event"",""trial"",""time""
""focus"",""1"",""16819""
""focus"",""3"",""34243""
""focus"",""6"",""54948""
""focus"",""7"",""359145""
""focus"",""7"",""360458""
","""event"",""trial"",""time""
""fullscreenenter"",""5"",""40468""
","""event"",""trial"",""time""
""fullscreenexit"",""6"",""42283""
","","","","","","","","","","","","","","","","","","","","","",""
"d3-instructions","19","425908","0.0-19.0","2358","4977","18","Male","true","true","false","true","""event"",""trial"",""time""
""blur"",""0"",""0""
""focus"",""1"",""16819""
""blur"",""3"",""34242""
""focus"",""3"",""34243""
""fullscreenenter"",""5"",""40468""
""fullscreenexit"",""6"",""42283""
""blur"",""6"",""51768""
""focus"",""6"",""54948""
""blur"",""7"",""74905""
""focus"",""7"",""359145""
""blur"",""7"",""359830""
""focus"",""7"",""360458""
","""event"",""trial"",""time""
""blur"",""0"",""0""
""blur"",""3"",""34242""
""blur"",""6"",""51768""
""blur"",""7"",""74905""
""blur"",""7"",""359830""
","""event"",""trial"",""time""
""focus"",""1"",""16819""
""focus"",""3"",""34243""
""focus"",""6"",""54948""
""focus"",""7"",""359145""
""focus"",""7"",""360458""
","""event"",""trial"",""time""
""fullscreenenter"",""5"",""40468""
","""event"",""trial"",""time""
""fullscreenexit"",""6"",""42283""
","","","","","","","","","","","","","","","","","","","","","",""
"d3-animate-choice","20","429641","0.0-20.0","2358","4977","18","Male","true","true","false","true","""event"",""trial"",""time""
""blur"",""0"",""0""
""focus"",""1"",""16819""
""blur"",""3"",""34242""
""focus"",""3"",""34243""
""fullscreenenter"",""5"",""40468""
""fullscreenexit"",""6"",""42283""
""blur"",""6"",""51768""
""focus"",""6"",""54948""
""blur"",""7"",""74905""
""focus"",""7"",""359145""
""blur"",""7"",""359830""
""focus"",""7"",""360458""
","""event"",""trial"",""time""
""blur"",""0"",""0""
""blur"",""3"",""34242""
""blur"",""6"",""51768""
""blur"",""7"",""74905""
""blur"",""7"",""359830""
","""event"",""trial"",""time""
""focus"",""1"",""16819""
""focus"",""3"",""34243""
""focus"",""6"",""54948""
""focus"",""7"",""359145""
""focus"",""7"",""360458""
","""event"",""trial"",""time""
""fullscreenenter"",""5"",""40468""
","""event"",""trial"",""time""
""fullscreenexit"",""6"",""42283""
","699.5","","32","","","3000","1","1260.0999999046326,1723.3999996185303","192,49","images/tutyellowplanet.jpg","null","images/tutalien3","null","images/tutalien3","images/t.png","NA","practice","null","","","",""
"d3-animate-choice","21","432506","0.0-21.0","2358","4977","18","Male","true","true","false","true","""event"",""trial"",""time""
""blur"",""0"",""0""
""focus"",""1"",""16819""
""blur"",""3"",""34242""
""focus"",""3"",""34243""
""fullscreenenter"",""5"",""40468""
""fullscreenexit"",""6"",""42283""
""blur"",""6"",""51768""
""focus"",""6"",""54948""
""blur"",""7"",""74905""
""focus"",""7"",""359145""
""blur"",""7"",""359830""
""focus"",""7"",""360458""
","""event"",""trial"",""time""
""blur"",""0"",""0""
""blur"",""3"",""34242""
""blur"",""6"",""51768""
""blur"",""7"",""74905""
""blur"",""7"",""359830""
","""event"",""trial"",""time""
""focus"",""1"",""16819""
""focus"",""3"",""34243""
""focus"",""6"",""54948""
""focus"",""7"",""359145""
""focus"",""7"",""360458""
","""event"",""trial"",""time""
""fullscreenenter"",""5"",""40468""
","""event"",""trial"",""time""
""fullscreenexit"",""6"",""42283""
","855.3999996185303","","49","","","3000","1","2575.2999997138977","49","images/tutyellowplanet.jpg","null","images/tutalien3","null","images/tutalien3","images/nothing.png","NA","practice","null","","","",""
"d3-animate-choice","22","434906","0.0-22.0","2358","4977","18","Male","true","true","false","true","""event"",""trial"",""time""
""blur"",""0"",""0""
""focus"",""1"",""16819""
""blur"",""3"",""34242""
""focus"",""3"",""34243""
""fullscreenenter"",""5"",""40468""
""fullscreenexit"",""6"",""42283""
""blur"",""6"",""51768""
""focus"",""6"",""54948""
""blur"",""7"",""74905""
""focus"",""7"",""359145""
""blur"",""7"",""359830""
""focus"",""7"",""360458""
","""event"",""trial"",""time""
""blur"",""0"",""0""
""blur"",""3"",""34242""
""blur"",""6"",""51768""
""blur"",""7"",""74905""
""blur"",""7"",""359830""
","""event"",""trial"",""time""
""focus"",""1"",""16819""
""focus"",""3"",""34243""
""focus"",""6"",""54948""
""focus"",""7"",""359145""
""focus"",""7"",""360458""
","""event"",""trial"",""time""
""fullscreenenter"",""5"",""40468""
","""event"",""trial"",""time""
""fullscreenexit"",""6"",""42283""
","390.5","","49","","","3000","1","1942.5999999046326","49","images/tutyellowplanet.jpg","null","images/tutalien3","null","images/tutalien3","images/t.png","NA","practice","null","","","",""
"d3-animate-choice","23","439422","0.0-23.0","2358","4977","18","Male","true","true","false","true","""event"",""trial"",""time""
""blur"",""0"",""0""
""focus"",""1"",""16819""
""blur"",""3"",""34242""
""focus"",""3"",""34243""
""fullscreenenter"",""5"",""40468""
""fullscreenexit"",""6"",""42283""
""blur"",""6"",""51768""
""focus"",""6"",""54948""
""blur"",""7"",""74905""
""focus"",""7"",""359145""
""blur"",""7"",""359830""
""focus"",""7"",""360458""
","""event"",""trial"",""time""
""blur"",""0"",""0""
""blur"",""3"",""34242""
""blur"",""6"",""51768""
""blur"",""7"",""74905""
""blur"",""7"",""359830""
","""event"",""trial"",""time""
""focus"",""1"",""16819""
""focus"",""3"",""34243""
""focus"",""6"",""54948""
""focus"",""7"",""359145""
""focus"",""7"",""360458""
","""event"",""trial"",""time""
""fullscreenenter"",""5"",""40468""
","""event"",""trial"",""time""
""fullscreenexit"",""6"",""42283""
","757.8000001907349","","48","","","3000","1","1261.9000000953674,1509.7000002861023,2502.2000002861023,3686.300000190735","48,48,49,32","images/tutyellowplanet.jpg","null","images/tutalien3","null","images/tutalien3","images/t.png","NA","practice","null","","","",""
"d3-animate-choice","24","441939","0.0-24.0","2358","4977","18","Male","true","true","false","true","""event"",""trial"",""time""
""blur"",""0"",""0""
""focus"",""1"",""16819""
""blur"",""3"",""34242""
""focus"",""3"",""34243""
""fullscreenenter"",""5"",""40468""
""fullscreenexit"",""6"",""42283""
""blur"",""6"",""51768""
""focus"",""6"",""54948""
""blur"",""7"",""74905""
""focus"",""7"",""359145""
""blur"",""7"",""359830""
""focus"",""7"",""360458""
","""event"",""trial"",""time""
""blur"",""0"",""0""
""blur"",""3"",""34242""
""blur"",""6"",""51768""
""blur"",""7"",""74905""
""blur"",""7"",""359830""
","""event"",""trial"",""time""
""focus"",""1"",""16819""
""focus"",""3"",""34243""
""focus"",""6"",""54948""
""focus"",""7"",""359145""
""focus"",""7"",""360458""
","""event"",""trial"",""time""
""fullscreenenter"",""5"",""40468""
","""event"",""trial"",""time""
""fullscreenexit"",""6"",""42283""
","482.2999997138977","","32","","","3000","1","505.69999980926514,2513.4000000953674","49,32","images/tutyellowplanet.jpg","null","images/tutalien3","null","images/tutalien3","images/t.png","NA","practice","null","","","",""
"d3-animate-choice","25","445114","0.0-25.0","2358","4977","18","Male","true","true","false","true","""event"",""trial"",""time""
""blur"",""0"",""0""
""focus"",""1"",""16819""
""blur"",""3"",""34242""
""focus"",""3"",""34243""
""fullscreenenter"",""5"",""40468""
""fullscreenexit"",""6"",""42283""
""blur"",""6"",""51768""
""focus"",""6"",""54948""
""blur"",""7"",""74905""
""focus"",""7"",""359145""
""blur"",""7"",""359830""
""focus"",""7"",""360458""
""blur"",""26"",""446831""
","""event"",""trial"",""time""
""blur"",""0"",""0""
""blur"",""3"",""34242""
""blur"",""6"",""51768""
""blur"",""7"",""74905""
""blur"",""7"",""359830""
""blur"",""26"",""446831""
","""event"",""trial"",""time""
""focus"",""1"",""16819""
""focus"",""3"",""34243""
""focus"",""6"",""54948""
""focus"",""7"",""359145""
""focus"",""7"",""360458""
","""event"",""trial"",""time""
""fullscreenenter"",""5"",""40468""
","""event"",""trial"",""time""
""fullscreenexit"",""6"",""42283""
","1164.8000001907349","","49","","","3000","1","","","images/tutyellowplanet.jpg","null","images/tutalien3","null","images/tutalien3","images/nothing.png","NA","practice","null","","","",""
"d3-animate-choice","26","448029","0.0-26.0","2358","4977","18","Male","true","true","false","true","""event"",""trial"",""time""
""blur"",""0"",""0""
""focus"",""1"",""16819""
""blur"",""3"",""34242""
""focus"",""3"",""34243""
""fullscreenenter"",""5"",""40468""
""fullscreenexit"",""6"",""42283""
""blur"",""6"",""51768""
""focus"",""6"",""54948""
""blur"",""7"",""74905""
""focus"",""7"",""359145""
""blur"",""7"",""359830""
""focus"",""7"",""360458""
""blur"",""26"",""446831""
""focus"",""27"",""455972""
""blur"",""27"",""458518""
","""event"",""trial"",""time""
""blur"",""0"",""0""
""blur"",""3"",""34242""
""blur"",""6"",""51768""
""blur"",""7"",""74905""
""blur"",""7"",""359830""
""blur"",""26"",""446831""
""blur"",""27"",""458518""
","""event"",""trial"",""time""
""focus"",""1"",""16819""
""focus"",""3"",""34243""
""focus"",""6"",""54948""
""focus"",""7"",""359145""
""focus"",""7"",""360458""
""focus"",""27"",""455972""
","""event"",""trial"",""time""
""fullscreenenter"",""5"",""40468""
","""event"",""trial"",""time""
""fullscreenexit"",""6"",""42283""
","908.7999997138977","","49","","","3000","1","","","images/tutyellowplanet.jpg","null","images/tutalien3","null","images/tutalien3","images/t.png","NA","practice","null","","","",""
"d3-animate-choice","27","458543","0.0-27.0","2358","4977","18","Male","true","true","false","true","""event"",""trial"",""time""
""blur"",""0"",""0""
""focus"",""1"",""16819""
""blur"",""3"",""34242""
""focus"",""3"",""34243""
""fullscreenenter"",""5"",""40468""
""fullscreenexit"",""6"",""42283""
""blur"",""6"",""51768""
""focus"",""6"",""54948""
""blur"",""7"",""74905""
""focus"",""7"",""359145""
""blur"",""7"",""359830""
""focus"",""7"",""360458""
""blur"",""26"",""446831""
""focus"",""27"",""455972""
""blur"",""27"",""458518""
""focus"",""28"",""459222""
","""event"",""trial"",""time""
""blur"",""0"",""0""
""blur"",""3"",""34242""
""blur"",""6"",""51768""
""blur"",""7"",""74905""
""blur"",""7"",""359830""
""blur"",""26"",""446831""
""blur"",""27"",""458518""
","""event"",""trial"",""time""
""focus"",""1"",""16819""
""focus"",""3"",""34243""
""focus"",""6"",""54948""
""focus"",""7"",""359145""
""focus"",""7"",""360458""
""focus"",""27"",""455972""
""focus"",""28"",""459222""
","""event"",""trial"",""time""
""fullscreenenter"",""5"",""40468""
","""event"",""trial"",""time""
""fullscreenexit"",""6"",""42283""
","8506.5","","49","","","3000","1","","","images/tutyellowplanet.jpg","null","images/tutalien3","null","images/tutalien3","images/t.png","NA","practice","null","","","",""
"d3-animate-choice","28","462057","0.0-28.0","2358","4977","18","Male","true","true","false","true","""event"",""trial"",""time""
""blur"",""0"",""0""
""focus"",""1"",""16819""
""blur"",""3"",""34242""
""focus"",""3"",""34243""
""fullscreenenter"",""5"",""40468""
""fullscreenexit"",""6"",""42283""
""blur"",""6"",""51768""
""focus"",""6"",""54948""
""blur"",""7"",""74905""
""focus"",""7"",""359145""
""blur"",""7"",""359830""
""focus"",""7"",""360458""
""blur"",""26"",""446831""
""focus"",""27"",""455972""
""blur"",""27"",""458518""
""focus"",""28"",""459222""
","""event"",""trial"",""time""
""blur"",""0"",""0""
""blur"",""3"",""34242""
""blur"",""6"",""51768""
""blur"",""7"",""74905""
""blur"",""7"",""359830""
""blur"",""26"",""446831""
""blur"",""27"",""458518""
","""event"",""trial"",""time""
""focus"",""1"",""16819""
""focus"",""3"",""34243""
""focus"",""6"",""54948""
""focus"",""7"",""359145""
""focus"",""7"",""360458""
""focus"",""27"",""455972""
""focus"",""28"",""459222""
","""event"",""trial"",""time""
""fullscreenenter"",""5"",""40468""
","""event"",""trial"",""time""
""fullscreenexit"",""6"",""42283""
","1501.4000000953674","","49","","","3000","1","","","images/tutyellowplanet.jpg","null","images/tutalien3","null","images/tutalien3","images/nothing.png","NA","practice","null","","","",""
"d3-animate-choice","29","464522","0.0-29.0","2358","4977","18","Male","true","true","false","true","""event"",""trial"",""time""
""blur"",""0"",""0""
""focus"",""1"",""16819""
""blur"",""3"",""34242""
""focus"",""3"",""34243""
""fullscreenenter"",""5"",""40468""
""fullscreenexit"",""6"",""42283""
""blur"",""6"",""51768""
""focus"",""6"",""54948""
""blur"",""7"",""74905""
""focus"",""7"",""359145""
""blur"",""7"",""359830""
""focus"",""7"",""360458""
""blur"",""26"",""446831""
""focus"",""27"",""455972""
""blur"",""27"",""458518""
""focus"",""28"",""459222""
""blur"",""30"",""466718""
""focus"",""30"",""468466""
","""event"",""trial"",""time""
""blur"",""0"",""0""
""blur"",""3"",""34242""
""blur"",""6"",""51768""
""blur"",""7"",""74905""
""blur"",""7"",""359830""
""blur"",""26"",""446831""
""blur"",""27"",""458518""
""blur"",""30"",""466718""
","""event"",""trial"",""time""
""focus"",""1"",""16819""
""focus"",""3"",""34243""
""focus"",""6"",""54948""
""focus"",""7"",""359145""
""focus"",""7"",""360458""
""focus"",""27"",""455972""
""focus"",""28"",""459222""
""focus"",""30"",""468466""
","""event"",""trial"",""time""
""fullscreenenter"",""5"",""40468""
","""event"",""trial"",""time""
""fullscreenexit"",""6"",""42283""
","454.6000003814697","","49","","","3000","1","2310.4000000953674","49","images/tutyellowplanet.jpg","null","images/tutalien3","null","images/tutalien3","images/t.png","NA","practice","null","","","",""
"d3-instructions","30","468675","0.0-30.0","2358","4977","18","Male","true","true","false","true","""event"",""trial"",""time""
""blur"",""0"",""0""
""focus"",""1"",""16819""
""blur"",""3"",""34242""
""focus"",""3"",""34243""
""fullscreenenter"",""5"",""40468""
""fullscreenexit"",""6"",""42283""
""blur"",""6"",""51768""
""focus"",""6"",""54948""
""blur"",""7"",""74905""
""focus"",""7"",""359145""
""blur"",""7"",""359830""
""focus"",""7"",""360458""
""blur"",""26"",""446831""
""focus"",""27"",""455972""
""blur"",""27"",""458518""
""focus"",""28"",""459222""
""blur"",""30"",""466718""
""focus"",""30"",""468466""
","""event"",""trial"",""time""
""blur"",""0"",""0""
""blur"",""3"",""34242""
""blur"",""6"",""51768""
""blur"",""7"",""74905""
""blur"",""7"",""359830""
""blur"",""26"",""446831""
""blur"",""27"",""458518""
""blur"",""30"",""466718""
","""event"",""trial"",""time""
""focus"",""1"",""16819""
""focus"",""3"",""34243""
""focus"",""6"",""54948""
""focus"",""7"",""359145""
""focus"",""7"",""360458""
""focus"",""27"",""455972""
""focus"",""28"",""459222""
""focus"",""30"",""468466""
","""event"",""trial"",""time""
""fullscreenenter"",""5"",""40468""
","""event"",""trial"",""time""
""fullscreenexit"",""6"",""42283""
","","","","","","","","","","","","","","","","","","","","","",""
"d3-instructions","31","469772","0.0-31.0","2358","4977","18","Male","true","true","false","true","""event"",""trial"",""time""
""blur"",""0"",""0""
""focus"",""1"",""16819""
""blur"",""3"",""34242""
""focus"",""3"",""34243""
""fullscreenenter"",""5"",""40468""
""fullscreenexit"",""6"",""42283""
""blur"",""6"",""51768""
""focus"",""6"",""54948""
""blur"",""7"",""74905""
""focus"",""7"",""359145""
""blur"",""7"",""359830""
""focus"",""7"",""360458""
""blur"",""26"",""446831""
""focus"",""27"",""455972""
""blur"",""27"",""458518""
""focus"",""28"",""459222""
""blur"",""30"",""466718""
""focus"",""30"",""468466""
","""event"",""trial"",""time""
""blur"",""0"",""0""
""blur"",""3"",""34242""
""blur"",""6"",""51768""
""blur"",""7"",""74905""
""blur"",""7"",""359830""
""blur"",""26"",""446831""
""blur"",""27"",""458518""
""blur"",""30"",""466718""
","""event"",""trial"",""time""
""focus"",""1"",""16819""
""focus"",""3"",""34243""
""focus"",""6"",""54948""
""focus"",""7"",""359145""
""focus"",""7"",""360458""
""focus"",""27"",""455972""
""focus"",""28"",""459222""
""focus"",""30"",""468466""
","""event"",""trial"",""time""
""fullscreenenter"",""5"",""40468""
","""event"",""trial"",""time""
""fullscreenexit"",""6"",""42283""
","","","","","","","","","","","","","","","","","","","","","",""
"d3-instructions","32","470523","0.0-32.0","2358","4977","18","Male","true","true","false","true","""event"",""trial"",""time""
""blur"",""0"",""0""
""focus"",""1"",""16819""
""blur"",""3"",""34242""
""focus"",""3"",""34243""
""fullscreenenter"",""5"",""40468""
""fullscreenexit"",""6"",""42283""
""blur"",""6"",""51768""
""focus"",""6"",""54948""
""blur"",""7"",""74905""
""focus"",""7"",""359145""
""blur"",""7"",""359830""
""focus"",""7"",""360458""
""blur"",""26"",""446831""
""focus"",""27"",""455972""
""blur"",""27"",""458518""
""focus"",""28"",""459222""
""blur"",""30"",""466718""
""focus"",""30"",""468466""
","""event"",""trial"",""time""
""blur"",""0"",""0""
""blur"",""3"",""34242""
""blur"",""6"",""51768""
""blur"",""7"",""74905""
""blur"",""7"",""359830""
""blur"",""26"",""446831""
""blur"",""27"",""458518""
""blur"",""30"",""466718""
","""event"",""trial"",""time""
""focus"",""1"",""16819""
""focus"",""3"",""34243""
""focus"",""6"",""54948""
""focus"",""7"",""359145""
""focus"",""7"",""360458""
""focus"",""27"",""455972""
""focus"",""28"",""459222""
""focus"",""30"",""468466""
","""event"",""trial"",""time""
""fullscreenenter"",""5"",""40468""
","""event"",""trial"",""time""
""fullscreenexit"",""6"",""42283""
","","","","","","","","","","","","","","","","","","","","","",""
"d3-instructions","33","471083","0.0-33.0","2358","4977","18","Male","true","true","false","true","""event"",""trial"",""time""
""blur"",""0"",""0""
""focus"",""1"",""16819""
""blur"",""3"",""34242""
""focus"",""3"",""34243""
""fullscreenenter"",""5"",""40468""
""fullscreenexit"",""6"",""42283""
""blur"",""6"",""51768""
""focus"",""6"",""54948""
""blur"",""7"",""74905""
""focus"",""7"",""359145""
""blur"",""7"",""359830""
""focus"",""7"",""360458""
""blur"",""26"",""446831""
""focus"",""27"",""455972""
""blur"",""27"",""458518""
""focus"",""28"",""459222""
""blur"",""30"",""466718""
""focus"",""30"",""468466""
""blur"",""34"",""472995""
","""event"",""trial"",""time""
""blur"",""0"",""0""
""blur"",""3"",""34242""
""blur"",""6"",""51768""
""blur"",""7"",""74905""
""blur"",""7"",""359830""
""blur"",""26"",""446831""
""blur"",""27"",""458518""
""blur"",""30"",""466718""
""blur"",""34"",""472995""
","""event"",""trial"",""time""
""focus"",""1"",""16819""
""focus"",""3"",""34243""
""focus"",""6"",""54948""
""focus"",""7"",""359145""
""focus"",""7"",""360458""
""focus"",""27"",""455972""
""focus"",""28"",""459222""
""focus"",""30"",""468466""
","""event"",""trial"",""time""
""fullscreenenter"",""5"",""40468""
","""event"",""trial"",""time""
""fullscreenexit"",""6"",""42283""
","","","","","","","","","","","","","","","","","","","","","",""
"d3-animate-choice","34","473919","0.0-34.0","2358","4977","18","Male","true","true","false","true","""event"",""trial"",""time""
""blur"",""0"",""0""
""focus"",""1"",""16819""
""blur"",""3"",""34242""
""focus"",""3"",""34243""
""fullscreenenter"",""5"",""40468""
""fullscreenexit"",""6"",""42283""
""blur"",""6"",""51768""
""focus"",""6"",""54948""
""blur"",""7"",""74905""
""focus"",""7"",""359145""
""blur"",""7"",""359830""
""focus"",""7"",""360458""
""blur"",""26"",""446831""
""focus"",""27"",""455972""
""blur"",""27"",""458518""
""focus"",""28"",""459222""
""blur"",""30"",""466718""
""focus"",""30"",""468466""
""blur"",""34"",""472995""
""focus"",""35"",""481220""
""blur"",""35"",""483160""
","""event"",""trial"",""time""
""blur"",""0"",""0""
""blur"",""3"",""34242""
""blur"",""6"",""51768""
""blur"",""7"",""74905""
""blur"",""7"",""359830""
""blur"",""26"",""446831""
""blur"",""27"",""458518""
""blur"",""30"",""466718""
""blur"",""34"",""472995""
""blur"",""35"",""483160""
","""event"",""trial"",""time""
""focus"",""1"",""16819""
""focus"",""3"",""34243""
""focus"",""6"",""54948""
""focus"",""7"",""359145""
""focus"",""7"",""360458""
""focus"",""27"",""455972""
""focus"",""28"",""459222""
""focus"",""30"",""468466""
""focus"",""35"",""481220""
","""event"",""trial"",""time""
""fullscreenenter"",""5"",""40468""
","""event"",""trial"",""time""
""fullscreenexit"",""6"",""42283""
","820.4000000953674","","49","","","3000","1","","","images/tutgreenplanet.jpg","images/tutalien1","images/tutalien2","null","images/tutalien2","images/t.png","NA","practice","null","","","",""
"d3-animate-choice","35","483450","0.0-35.0","2358","4977","18","Male","true","true","false","true","""event"",""trial"",""time""
""blur"",""0"",""0""
""focus"",""1"",""16819""
""blur"",""3"",""34242""
""focus"",""3"",""34243""
""fullscreenenter"",""5"",""40468""
""fullscreenexit"",""6"",""42283""
""blur"",""6"",""51768""
""focus"",""6"",""54948""
""blur"",""7"",""74905""
""focus"",""7"",""359145""
""blur"",""7"",""359830""
""focus"",""7"",""360458""
""blur"",""26"",""446831""
""focus"",""27"",""455972""
""blur"",""27"",""458518""
""focus"",""28"",""459222""
""blur"",""30"",""466718""
""focus"",""30"",""468466""
""blur"",""34"",""472995""
""focus"",""35"",""481220""
""blur"",""35"",""483160""
""focus"",""36"",""484595""
","""event"",""trial"",""time""
""blur"",""0"",""0""
""blur"",""3"",""34242""
""blur"",""6"",""51768""
""blur"",""7"",""74905""
""blur"",""7"",""359830""
""blur"",""26"",""446831""
""blur"",""27"",""458518""
""blur"",""30"",""466718""
""blur"",""34"",""472995""
""blur"",""35"",""483160""
","""event"",""trial"",""time""
""focus"",""1"",""16819""
""focus"",""3"",""34243""
""focus"",""6"",""54948""
""focus"",""7"",""359145""
""focus"",""7"",""360458""
""focus"",""27"",""455972""
""focus"",""28"",""459222""
""focus"",""30"",""468466""
""focus"",""35"",""481220""
""focus"",""36"",""484595""
","""event"",""trial"",""time""
""fullscreenenter"",""5"",""40468""
","""event"",""trial"",""time""
""fullscreenexit"",""6"",""42283""
","7520.400000095367","","49","","","3000","1","","","images/tutgreenplanet.jpg","images/tutalien1","images/tutalien2","null","images/tutalien2","images/t.png","NA","practice","null","","","",""
"d3-animate-choice","36","487005","0.0-36.0","2358","4977","18","Male","true","true","false","true","""event"",""trial"",""time""
""blur"",""0"",""0""
""focus"",""1"",""16819""
""blur"",""3"",""34242""
""focus"",""3"",""34243""
""fullscreenenter"",""5"",""40468""
""fullscreenexit"",""6"",""42283""
""blur"",""6"",""51768""
""focus"",""6"",""54948""
""blur"",""7"",""74905""
""focus"",""7"",""359145""
""blur"",""7"",""359830""
""focus"",""7"",""360458""
""blur"",""26"",""446831""
""focus"",""27"",""455972""
""blur"",""27"",""458518""
""focus"",""28"",""459222""
""blur"",""30"",""466718""
""focus"",""30"",""468466""
""blur"",""34"",""472995""
""focus"",""35"",""481220""
""blur"",""35"",""483160""
""focus"",""36"",""484595""
","""event"",""trial"",""time""
""blur"",""0"",""0""
""blur"",""3"",""34242""
""blur"",""6"",""51768""
""blur"",""7"",""74905""
""blur"",""7"",""359830""
""blur"",""26"",""446831""
""blur"",""27"",""458518""
""blur"",""30"",""466718""
""blur"",""34"",""472995""
""blur"",""35"",""483160""
","""event"",""trial"",""time""
""focus"",""1"",""16819""
""focus"",""3"",""34243""
""focus"",""6"",""54948""
""focus"",""7"",""359145""
""focus"",""7"",""360458""
""focus"",""27"",""455972""
""focus"",""28"",""459222""
""focus"",""30"",""468466""
""focus"",""35"",""481220""
""focus"",""36"",""484595""
","""event"",""trial"",""time""
""fullscreenenter"",""5"",""40468""
","""event"",""trial"",""time""
""fullscreenexit"",""6"",""42283""
","1531","","49","","","3000","1","","","images/tutgreenplanet.jpg","images/tutalien1","images/tutalien2","null","images/tutalien2","images/t.png","NA","practice","null","","","",""
"d3-animate-choice","37","489434","0.0-37.0","2358","4977","18","Male","true","true","false","true","""event"",""trial"",""time""
""blur"",""0"",""0""
""focus"",""1"",""16819""
""blur"",""3"",""34242""
""focus"",""3"",""34243""
""fullscreenenter"",""5"",""40468""
""fullscreenexit"",""6"",""42283""
""blur"",""6"",""51768""
""focus"",""6"",""54948""
""blur"",""7"",""74905""
""focus"",""7"",""359145""
""blur"",""7"",""359830""
""focus"",""7"",""360458""
""blur"",""26"",""446831""
""focus"",""27"",""455972""
""blur"",""27"",""458518""
""focus"",""28"",""459222""
""blur"",""30"",""466718""
""focus"",""30"",""468466""
""blur"",""34"",""472995""
""focus"",""35"",""481220""
""blur"",""35"",""483160""
""focus"",""36"",""484595""
","""event"",""trial"",""time""
""blur"",""0"",""0""
""blur"",""3"",""34242""
""blur"",""6"",""51768""
""blur"",""7"",""74905""
""blur"",""7"",""359830""
""blur"",""26"",""446831""
""blur"",""27"",""458518""
""blur"",""30"",""466718""
""blur"",""34"",""472995""
""blur"",""35"",""483160""
","""event"",""trial"",""time""
""focus"",""1"",""16819""
""focus"",""3"",""34243""
""focus"",""6"",""54948""
""focus"",""7"",""359145""
""focus"",""7"",""360458""
""focus"",""27"",""455972""
""focus"",""28"",""459222""
""focus"",""30"",""468466""
""focus"",""35"",""481220""
""focus"",""36"",""484595""
","""event"",""trial"",""time""
""fullscreenenter"",""5"",""40468""
","""event"",""trial"",""time""
""fullscreenexit"",""6"",""42283""
","410.19999980926514","","48","","","3000","1","1994","49","images/tutgreenplanet.jpg","images/tutalien1","images/tutalien2","null","images/tutalien1","images/nothing.png","NA","practice","null","","","",""
"d3-animate-choice","38","491741","0.0-38.0","2358","4977","18","Male","true","true","false","true","""event"",""trial"",""time""
""blur"",""0"",""0""
""focus"",""1"",""16819""
""blur"",""3"",""34242""
""focus"",""3"",""34243""
""fullscreenenter"",""5"",""40468""
""fullscreenexit"",""6"",""42283""
""blur"",""6"",""51768""
""focus"",""6"",""54948""
""blur"",""7"",""74905""
""focus"",""7"",""359145""
""blur"",""7"",""359830""
""focus"",""7"",""360458""
""blur"",""26"",""446831""
""focus"",""27"",""455972""
""blur"",""27"",""458518""
""focus"",""28"",""459222""
""blur"",""30"",""466718""
""focus"",""30"",""468466""
""blur"",""34"",""472995""
""focus"",""35"",""481220""
""blur"",""35"",""483160""
""focus"",""36"",""484595""
","""event"",""trial"",""time""
""blur"",""0"",""0""
""blur"",""3"",""34242""
""blur"",""6"",""51768""
""blur"",""7"",""74905""
""blur"",""7"",""359830""
""blur"",""26"",""446831""
""blur"",""27"",""458518""
""blur"",""30"",""466718""
""blur"",""34"",""472995""
""blur"",""35"",""483160""
","""event"",""trial"",""time""
""focus"",""1"",""16819""
""focus"",""3"",""34243""
""focus"",""6"",""54948""
""focus"",""7"",""359145""
""focus"",""7"",""360458""
""focus"",""27"",""455972""
""focus"",""28"",""459222""
""focus"",""30"",""468466""
""focus"",""35"",""481220""
""focus"",""36"",""484595""
","""event"",""trial"",""time""
""fullscreenenter"",""5"",""40468""
","""event"",""trial"",""time""
""fullscreenexit"",""6"",""42283""
","300.90000009536743","","48","","","3000","1","469","49","images/tutgreenplanet.jpg","images/tutalien1","images/tutalien2","null","images/tutalien1","images/nothing.png","NA","practice","null","","","",""
"d3-animate-choice","39","494296","0.0-39.0","2358","4977","18","Male","true","true","false","true","""event"",""trial"",""time""
""blur"",""0"",""0""
""focus"",""1"",""16819""
""blur"",""3"",""34242""
""focus"",""3"",""34243""
""fullscreenenter"",""5"",""40468""
""fullscreenexit"",""6"",""42283""
""blur"",""6"",""51768""
""focus"",""6"",""54948""
""blur"",""7"",""74905""
""focus"",""7"",""359145""
""blur"",""7"",""359830""
""focus"",""7"",""360458""
""blur"",""26"",""446831""
""focus"",""27"",""455972""
""blur"",""27"",""458518""
""focus"",""28"",""459222""
""blur"",""30"",""466718""
""focus"",""30"",""468466""
""blur"",""34"",""472995""
""focus"",""35"",""481220""
""blur"",""35"",""483160""
""focus"",""36"",""484595""
","""event"",""trial"",""time""
""blur"",""0"",""0""
""blur"",""3"",""34242""
""blur"",""6"",""51768""
""blur"",""7"",""74905""
""blur"",""7"",""359830""
""blur"",""26"",""446831""
""blur"",""27"",""458518""
""blur"",""30"",""466718""
""blur"",""34"",""472995""
""blur"",""35"",""483160""
","""event"",""trial"",""time""
""focus"",""1"",""16819""
""focus"",""3"",""34243""
""focus"",""6"",""54948""
""focus"",""7"",""359145""
""focus"",""7"",""360458""
""focus"",""27"",""455972""
""focus"",""28"",""459222""
""focus"",""30"",""468466""
""focus"",""35"",""481220""
""focus"",""36"",""484595""
","""event"",""trial"",""time""
""fullscreenenter"",""5"",""40468""
","""event"",""trial"",""time""
""fullscreenexit"",""6"",""42283""
","540.0999999046326","","49","","","3000","1","634.5,2411.0999999046326","48,48","images/tutgreenplanet.jpg","images/tutalien1","images/tutalien2","null","images/tutalien2","images/t.png","NA","practice","null","","","",""
"d3-animate-choice","40","496739","0.0-40.0","2358","4977","18","Male","true","true","false","true","""event"",""trial"",""time""
""blur"",""0"",""0""
""focus"",""1"",""16819""
""blur"",""3"",""34242""
""focus"",""3"",""34243""
""fullscreenenter"",""5"",""40468""
""fullscreenexit"",""6"",""42283""
""blur"",""6"",""51768""
""focus"",""6"",""54948""
""blur"",""7"",""74905""
""focus"",""7"",""359145""
""blur"",""7"",""359830""
""focus"",""7"",""360458""
""blur"",""26"",""446831""
""focus"",""27"",""455972""
""blur"",""27"",""458518""
""focus"",""28"",""459222""
""blur"",""30"",""466718""
""focus"",""30"",""468466""
""blur"",""34"",""472995""
""focus"",""35"",""481220""
""blur"",""35"",""483160""
""focus"",""36"",""484595""
","""event"",""trial"",""time""
""blur"",""0"",""0""
""blur"",""3"",""34242""
""blur"",""6"",""51768""
""blur"",""7"",""74905""
""blur"",""7"",""359830""
""blur"",""26"",""446831""
""blur"",""27"",""458518""
""blur"",""30"",""466718""
""blur"",""34"",""472995""
""blur"",""35"",""483160""
","""event"",""trial"",""time""
""focus"",""1"",""16819""
""focus"",""3"",""34243""
""focus"",""6"",""54948""
""focus"",""7"",""359145""
""focus"",""7"",""360458""
""focus"",""27"",""455972""
""focus"",""28"",""459222""
""focus"",""30"",""468466""
""focus"",""35"",""481220""
""focus"",""36"",""484595""
","""event"",""trial"",""time""
""fullscreenenter"",""5"",""40468""
","""event"",""trial"",""time""
""fullscreenexit"",""6"",""42283""
","435.1000003814697","","48","","","3000","1","2152.5","48","images/tutgreenplanet.jpg","images/tutalien1","images/tutalien2","null","images/tutalien1","images/nothing.png","NA","practice","null","","","",""
"d3-animate-choice","41","499561","0.0-41.0","2358","4977","18","Male","true","true","false","true","""event"",""trial"",""time""
""blur"",""0"",""0""
""focus"",""1"",""16819""
""blur"",""3"",""34242""
""focus"",""3"",""34243""
""fullscreenenter"",""5"",""40468""
""fullscreenexit"",""6"",""42283""
""blur"",""6"",""51768""
""focus"",""6"",""54948""
""blur"",""7"",""74905""
""focus"",""7"",""359145""
""blur"",""7"",""359830""
""focus"",""7"",""360458""
""blur"",""26"",""446831""
""focus"",""27"",""455972""
""blur"",""27"",""458518""
""focus"",""28"",""459222""
""blur"",""30"",""466718""
""focus"",""30"",""468466""
""blur"",""34"",""472995""
""focus"",""35"",""481220""
""blur"",""35"",""483160""
""focus"",""36"",""484595""
","""event"",""trial"",""time""
""blur"",""0"",""0""
""blur"",""3"",""34242""
""blur"",""6"",""51768""
""blur"",""7"",""74905""
""blur"",""7"",""359830""
""blur"",""26"",""446831""
""blur"",""27"",""458518""
""blur"",""30"",""466718""
""blur"",""34"",""472995""
""blur"",""35"",""483160""
","""event"",""trial"",""time""
""focus"",""1"",""16819""
""focus"",""3"",""34243""
""focus"",""6"",""54948""
""focus"",""7"",""359145""
""focus"",""7"",""360458""
""focus"",""27"",""455972""
""focus"",""28"",""459222""
""focus"",""30"",""468466""
""focus"",""35"",""481220""
""focus"",""36"",""484595""
","""event"",""trial"",""time""
""fullscreenenter"",""5"",""40468""
","""event"",""trial"",""time""
""fullscreenexit"",""6"",""42283""
","813.0999999046326","","48","","","3000","1","2461.4000000953674","49","images/tutgreenplanet.jpg","images/tutalien1","images/tutalien2","null","images/tutalien1","images/nothing.png","NA","practice","null","","","",""
"d3-animate-choice","42","502290","0.0-42.0","2358","4977","18","Male","true","true","false","true","""event"",""trial"",""time""
""blur"",""0"",""0""
""focus"",""1"",""16819""
""blur"",""3"",""34242""
""focus"",""3"",""34243""
""fullscreenenter"",""5"",""40468""
""fullscreenexit"",""6"",""42283""
""blur"",""6"",""51768""
""focus"",""6"",""54948""
""blur"",""7"",""74905""
""focus"",""7"",""359145""
""blur"",""7"",""359830""
""focus"",""7"",""360458""
""blur"",""26"",""446831""
""focus"",""27"",""455972""
""blur"",""27"",""458518""
""focus"",""28"",""459222""
""blur"",""30"",""466718""
""focus"",""30"",""468466""
""blur"",""34"",""472995""
""focus"",""35"",""481220""
""blur"",""35"",""483160""
""focus"",""36"",""484595""
","""event"",""trial"",""time""
""blur"",""0"",""0""
""blur"",""3"",""34242""
""blur"",""6"",""51768""
""blur"",""7"",""74905""
""blur"",""7"",""359830""
""blur"",""26"",""446831""
""blur"",""27"",""458518""
""blur"",""30"",""466718""
""blur"",""34"",""472995""
""blur"",""35"",""483160""
","""event"",""trial"",""time""
""focus"",""1"",""16819""
""focus"",""3"",""34243""
""focus"",""6"",""54948""
""focus"",""7"",""359145""
""focus"",""7"",""360458""
""focus"",""27"",""455972""
""focus"",""28"",""459222""
""focus"",""30"",""468466""
""focus"",""35"",""481220""
""focus"",""36"",""484595""
","""event"",""trial"",""time""
""fullscreenenter"",""5"",""40468""
","""event"",""trial"",""time""
""fullscreenexit"",""6"",""42283""
","719.3000001907349","","49","","","3000","1","","","images/tutgreenplanet.jpg","images/tutalien1","images/tutalien2","null","images/tutalien2","images/t.png","NA","practice","null","","","",""
"d3-animate-choice","43","504401","0.0-43.0","2358","4977","18","Male","true","true","false","true","""event"",""trial"",""time""
""blur"",""0"",""0""
""focus"",""1"",""16819""
""blur"",""3"",""34242""
""focus"",""3"",""34243""
""fullscreenenter"",""5"",""40468""
""fullscreenexit"",""6"",""42283""
""blur"",""6"",""51768""
""focus"",""6"",""54948""
""blur"",""7"",""74905""
""focus"",""7"",""359145""
""blur"",""7"",""359830""
""focus"",""7"",""360458""
""blur"",""26"",""446831""
""focus"",""27"",""455972""
""blur"",""27"",""458518""
""focus"",""28"",""459222""
""blur"",""30"",""466718""
""focus"",""30"",""468466""
""blur"",""34"",""472995""
""focus"",""35"",""481220""
""blur"",""35"",""483160""
""focus"",""36"",""484595""
","""event"",""trial"",""time""
""blur"",""0"",""0""
""blur"",""3"",""34242""
""blur"",""6"",""51768""
""blur"",""7"",""74905""
""blur"",""7"",""359830""
""blur"",""26"",""446831""
""blur"",""27"",""458518""
""blur"",""30"",""466718""
""blur"",""34"",""472995""
""blur"",""35"",""483160""
","""event"",""trial"",""time""
""focus"",""1"",""16819""
""focus"",""3"",""34243""
""focus"",""6"",""54948""
""focus"",""7"",""359145""
""focus"",""7"",""360458""
""focus"",""27"",""455972""
""focus"",""28"",""459222""
""focus"",""30"",""468466""
""focus"",""35"",""481220""
""focus"",""36"",""484595""
","""event"",""trial"",""time""
""fullscreenenter"",""5"",""40468""
","""event"",""trial"",""time""
""fullscreenexit"",""6"",""42283""
","102.69999980926514","","48","","","3000","1","","","images/tutgreenplanet.jpg","images/tutalien1","images/tutalien2","null","images/tutalien1","images/nothing.png","NA","practice","null","","","",""
"d3-instructions","44","511179","0.0-44.0","2358","4977","18","Male","true","true","false","true","""event"",""trial"",""time""
""blur"",""0"",""0""
""focus"",""1"",""16819""
""blur"",""3"",""34242""
""focus"",""3"",""34243""
""fullscreenenter"",""5"",""40468""
""fullscreenexit"",""6"",""42283""
""blur"",""6"",""51768""
""focus"",""6"",""54948""
""blur"",""7"",""74905""
""focus"",""7"",""359145""
""blur"",""7"",""359830""
""focus"",""7"",""360458""
""blur"",""26"",""446831""
""focus"",""27"",""455972""
""blur"",""27"",""458518""
""focus"",""28"",""459222""
""blur"",""30"",""466718""
""focus"",""30"",""468466""
""blur"",""34"",""472995""
""focus"",""35"",""481220""
""blur"",""35"",""483160""
""focus"",""36"",""484595""
","""event"",""trial"",""time""
""blur"",""0"",""0""
""blur"",""3"",""34242""
""blur"",""6"",""51768""
""blur"",""7"",""74905""
""blur"",""7"",""359830""
""blur"",""26"",""446831""
""blur"",""27"",""458518""
""blur"",""30"",""466718""
""blur"",""34"",""472995""
""blur"",""35"",""483160""
","""event"",""trial"",""time""
""focus"",""1"",""16819""
""focus"",""3"",""34243""
""focus"",""6"",""54948""
""focus"",""7"",""359145""
""focus"",""7"",""360458""
""focus"",""27"",""455972""
""focus"",""28"",""459222""
""focus"",""30"",""468466""
""focus"",""35"",""481220""
""focus"",""36"",""484595""
","""event"",""trial"",""time""
""fullscreenenter"",""5"",""40468""
","""event"",""trial"",""time""
""fullscreenexit"",""6"",""42283""
","","","","","","","","","","","","","","","","","","","","","",""
"d3-instructions","45","511683","0.0-45.0","2358","4977","18","Male","true","true","false","true","""event"",""trial"",""time""
""blur"",""0"",""0""
""focus"",""1"",""16819""
""blur"",""3"",""34242""
""focus"",""3"",""34243""
""fullscreenenter"",""5"",""40468""
""fullscreenexit"",""6"",""42283""
""blur"",""6"",""51768""
""focus"",""6"",""54948""
""blur"",""7"",""74905""
""focus"",""7"",""359145""
""blur"",""7"",""359830""
""focus"",""7"",""360458""
""blur"",""26"",""446831""
""focus"",""27"",""455972""
""blur"",""27"",""458518""
""focus"",""28"",""459222""
""blur"",""30"",""466718""
""focus"",""30"",""468466""
""blur"",""34"",""472995""
""focus"",""35"",""481220""
""blur"",""35"",""483160""
""focus"",""36"",""484595""
","""event"",""trial"",""time""
""blur"",""0"",""0""
""blur"",""3"",""34242""
""blur"",""6"",""51768""
""blur"",""7"",""74905""
""blur"",""7"",""359830""
""blur"",""26"",""446831""
""blur"",""27"",""458518""
""blur"",""30"",""466718""
""blur"",""34"",""472995""
""blur"",""35"",""483160""
","""event"",""trial"",""time""
""focus"",""1"",""16819""
""focus"",""3"",""34243""
""focus"",""6"",""54948""
""focus"",""7"",""359145""
""focus"",""7"",""360458""
""focus"",""27"",""455972""
""focus"",""28"",""459222""
""focus"",""30"",""468466""
""focus"",""35"",""481220""
""focus"",""36"",""484595""
","""event"",""trial"",""time""
""fullscreenenter"",""5"",""40468""
","""event"",""trial"",""time""
""fullscreenexit"",""6"",""42283""
","","","","","","","","","","","","","","","","","","","","","",""
"d3-instructions","46","512123","0.0-46.0","2358","4977","18","Male","true","true","false","true","""event"",""trial"",""time""
""blur"",""0"",""0""
""focus"",""1"",""16819""
""blur"",""3"",""34242""
""focus"",""3"",""34243""
""fullscreenenter"",""5"",""40468""
""fullscreenexit"",""6"",""42283""
""blur"",""6"",""51768""
""focus"",""6"",""54948""
""blur"",""7"",""74905""
""focus"",""7"",""359145""
""blur"",""7"",""359830""
""focus"",""7"",""360458""
""blur"",""26"",""446831""
""focus"",""27"",""455972""
""blur"",""27"",""458518""
""focus"",""28"",""459222""
""blur"",""30"",""466718""
""focus"",""30"",""468466""
""blur"",""34"",""472995""
""focus"",""35"",""481220""
""blur"",""35"",""483160""
""focus"",""36"",""484595""
","""event"",""trial"",""time""
""blur"",""0"",""0""
""blur"",""3"",""34242""
""blur"",""6"",""51768""
""blur"",""7"",""74905""
""blur"",""7"",""359830""
""blur"",""26"",""446831""
""blur"",""27"",""458518""
""blur"",""30"",""466718""
""blur"",""34"",""472995""
""blur"",""35"",""483160""
","""event"",""trial"",""time""
""focus"",""1"",""16819""
""focus"",""3"",""34243""
""focus"",""6"",""54948""
""focus"",""7"",""359145""
""focus"",""7"",""360458""
""focus"",""27"",""455972""
""focus"",""28"",""459222""
""focus"",""30"",""468466""
""focus"",""35"",""481220""
""focus"",""36"",""484595""
","""event"",""trial"",""time""
""fullscreenenter"",""5"",""40468""
","""event"",""trial"",""time""
""fullscreenexit"",""6"",""42283""
","","","","","","","","","","","","","","","","","","","","","",""
"d3-instructions","47","512531","0.0-47.0","2358","4977","18","Male","true","true","false","true","""event"",""trial"",""time""
""blur"",""0"",""0""
""focus"",""1"",""16819""
""blur"",""3"",""34242""
""focus"",""3"",""34243""
""fullscreenenter"",""5"",""40468""
""fullscreenexit"",""6"",""42283""
""blur"",""6"",""51768""
""focus"",""6"",""54948""
""blur"",""7"",""74905""
""focus"",""7"",""359145""
""blur"",""7"",""359830""
""focus"",""7"",""360458""
""blur"",""26"",""446831""
""focus"",""27"",""455972""
""blur"",""27"",""458518""
""focus"",""28"",""459222""
""blur"",""30"",""466718""
""focus"",""30"",""468466""
""blur"",""34"",""472995""
""focus"",""35"",""481220""
""blur"",""35"",""483160""
""focus"",""36"",""484595""
","""event"",""trial"",""time""
""blur"",""0"",""0""
""blur"",""3"",""34242""
""blur"",""6"",""51768""
""blur"",""7"",""74905""
""blur"",""7"",""359830""
""blur"",""26"",""446831""
""blur"",""27"",""458518""
""blur"",""30"",""466718""
""blur"",""34"",""472995""
""blur"",""35"",""483160""
","""event"",""trial"",""time""
""focus"",""1"",""16819""
""focus"",""3"",""34243""
""focus"",""6"",""54948""
""focus"",""7"",""359145""
""focus"",""7"",""360458""
""focus"",""27"",""455972""
""focus"",""28"",""459222""
""focus"",""30"",""468466""
""focus"",""35"",""481220""
""focus"",""36"",""484595""
","""event"",""trial"",""time""
""fullscreenenter"",""5"",""40468""
","""event"",""trial"",""time""
""fullscreenexit"",""6"",""42283""
","","","","","","","","","","","","","","","","","","","","","",""
"d3-instructions","48","512899","0.0-48.0","2358","4977","18","Male","true","true","false","true","""event"",""trial"",""time""
""blur"",""0"",""0""
""focus"",""1"",""16819""
""blur"",""3"",""34242""
""focus"",""3"",""34243""
""fullscreenenter"",""5"",""40468""
""fullscreenexit"",""6"",""42283""
""blur"",""6"",""51768""
""focus"",""6"",""54948""
""blur"",""7"",""74905""
""focus"",""7"",""359145""
""blur"",""7"",""359830""
""focus"",""7"",""360458""
""blur"",""26"",""446831""
""focus"",""27"",""455972""
""blur"",""27"",""458518""
""focus"",""28"",""459222""
""blur"",""30"",""466718""
""focus"",""30"",""468466""
""blur"",""34"",""472995""
""focus"",""35"",""481220""
""blur"",""35"",""483160""
""focus"",""36"",""484595""
","""event"",""trial"",""time""
""blur"",""0"",""0""
""blur"",""3"",""34242""
""blur"",""6"",""51768""
""blur"",""7"",""74905""
""blur"",""7"",""359830""
""blur"",""26"",""446831""
""blur"",""27"",""458518""
""blur"",""30"",""466718""
""blur"",""34"",""472995""
""blur"",""35"",""483160""
","""event"",""trial"",""time""
""focus"",""1"",""16819""
""focus"",""3"",""34243""
""focus"",""6"",""54948""
""focus"",""7"",""359145""
""focus"",""7"",""360458""
""focus"",""27"",""455972""
""focus"",""28"",""459222""
""focus"",""30"",""468466""
""focus"",""35"",""481220""
""focus"",""36"",""484595""
","""event"",""trial"",""time""
""fullscreenenter"",""5"",""40468""
","""event"",""trial"",""time""
""fullscreenexit"",""6"",""42283""
","","","","","","","","","","","","","","","","","","","","","",""
"d3-instructions","49","513259","0.0-49.0","2358","4977","18","Male","true","true","false","true","""event"",""trial"",""time""
""blur"",""0"",""0""
""focus"",""1"",""16819""
""blur"",""3"",""34242""
""focus"",""3"",""34243""
""fullscreenenter"",""5"",""40468""
""fullscreenexit"",""6"",""42283""
""blur"",""6"",""51768""
""focus"",""6"",""54948""
""blur"",""7"",""74905""
""focus"",""7"",""359145""
""blur"",""7"",""359830""
""focus"",""7"",""360458""
""blur"",""26"",""446831""
""focus"",""27"",""455972""
""blur"",""27"",""458518""
""focus"",""28"",""459222""
""blur"",""30"",""466718""
""focus"",""30"",""468466""
""blur"",""34"",""472995""
""focus"",""35"",""481220""
""blur"",""35"",""483160""
""focus"",""36"",""484595""
","""event"",""trial"",""time""
""blur"",""0"",""0""
""blur"",""3"",""34242""
""blur"",""6"",""51768""
""blur"",""7"",""74905""
""blur"",""7"",""359830""
""blur"",""26"",""446831""
""blur"",""27"",""458518""
""blur"",""30"",""466718""
""blur"",""34"",""472995""
""blur"",""35"",""483160""
","""event"",""trial"",""time""
""focus"",""1"",""16819""
""focus"",""3"",""34243""
""focus"",""6"",""54948""
""focus"",""7"",""359145""
""focus"",""7"",""360458""
""focus"",""27"",""455972""
""focus"",""28"",""459222""
""focus"",""30"",""468466""
""focus"",""35"",""481220""
""focus"",""36"",""484595""
","""event"",""trial"",""time""
""fullscreenenter"",""5"",""40468""
","""event"",""trial"",""time""
""fullscreenexit"",""6"",""42283""
","","","","","","","","","","","","","","","","","","","","","",""
"d3-instructions","50","513851","0.0-50.0","2358","4977","18","Male","true","true","false","true","""event"",""trial"",""time""
""blur"",""0"",""0""
""focus"",""1"",""16819""
""blur"",""3"",""34242""
""focus"",""3"",""34243""
""fullscreenenter"",""5"",""40468""
""fullscreenexit"",""6"",""42283""
""blur"",""6"",""51768""
""focus"",""6"",""54948""
""blur"",""7"",""74905""
""focus"",""7"",""359145""
""blur"",""7"",""359830""
""focus"",""7"",""360458""
""blur"",""26"",""446831""
""focus"",""27"",""455972""
""blur"",""27"",""458518""
""focus"",""28"",""459222""
""blur"",""30"",""466718""
""focus"",""30"",""468466""
""blur"",""34"",""472995""
""focus"",""35"",""481220""
""blur"",""35"",""483160""
""focus"",""36"",""484595""
","""event"",""trial"",""time""
""blur"",""0"",""0""
""blur"",""3"",""34242""
""blur"",""6"",""51768""
""blur"",""7"",""74905""
""blur"",""7"",""359830""
""blur"",""26"",""446831""
""blur"",""27"",""458518""
""blur"",""30"",""466718""
""blur"",""34"",""472995""
""blur"",""35"",""483160""
","""event"",""trial"",""time""
""focus"",""1"",""16819""
""focus"",""3"",""34243""
""focus"",""6"",""54948""
""focus"",""7"",""359145""
""focus"",""7"",""360458""
""focus"",""27"",""455972""
""focus"",""28"",""459222""
""focus"",""30"",""468466""
""focus"",""35"",""481220""
""focus"",""36"",""484595""
","""event"",""trial"",""time""
""fullscreenenter"",""5"",""40468""
","""event"",""trial"",""time""
""fullscreenexit"",""6"",""42283""
","","","","","","","","","","","","","","","","","","","","","",""
"d3-instructions","51","514251","0.0-51.0","2358","4977","18","Male","true","true","false","true","""event"",""trial"",""time""
""blur"",""0"",""0""
""focus"",""1"",""16819""
""blur"",""3"",""34242""
""focus"",""3"",""34243""
""fullscreenenter"",""5"",""40468""
""fullscreenexit"",""6"",""42283""
""blur"",""6"",""51768""
""focus"",""6"",""54948""
""blur"",""7"",""74905""
""focus"",""7"",""359145""
""blur"",""7"",""359830""
""focus"",""7"",""360458""
""blur"",""26"",""446831""
""focus"",""27"",""455972""
""blur"",""27"",""458518""
""focus"",""28"",""459222""
""blur"",""30"",""466718""
""focus"",""30"",""468466""
""blur"",""34"",""472995""
""focus"",""35"",""481220""
""blur"",""35"",""483160""
""focus"",""36"",""484595""
","""event"",""trial"",""time""
""blur"",""0"",""0""
""blur"",""3"",""34242""
""blur"",""6"",""51768""
""blur"",""7"",""74905""
""blur"",""7"",""359830""
""blur"",""26"",""446831""
""blur"",""27"",""458518""
""blur"",""30"",""466718""
""blur"",""34"",""472995""
""blur"",""35"",""483160""
","""event"",""trial"",""time""
""focus"",""1"",""16819""
""focus"",""3"",""34243""
""focus"",""6"",""54948""
""focus"",""7"",""359145""
""focus"",""7"",""360458""
""focus"",""27"",""455972""
""focus"",""28"",""459222""
""focus"",""30"",""468466""
""focus"",""35"",""481220""
""focus"",""36"",""484595""
","""event"",""trial"",""time""
""fullscreenenter"",""5"",""40468""
","""event"",""trial"",""time""
""fullscreenexit"",""6"",""42283""
","","","","","","","","","","","","","","","","","","","","","",""
"d3-instructions","52","514531","0.0-52.0","2358","4977","18","Male","true","true","false","true","""event"",""trial"",""time""
""blur"",""0"",""0""
""focus"",""1"",""16819""
""blur"",""3"",""34242""
""focus"",""3"",""34243""
""fullscreenenter"",""5"",""40468""
""fullscreenexit"",""6"",""42283""
""blur"",""6"",""51768""
""focus"",""6"",""54948""
""blur"",""7"",""74905""
""focus"",""7"",""359145""
""blur"",""7"",""359830""
""focus"",""7"",""360458""
""blur"",""26"",""446831""
""focus"",""27"",""455972""
""blur"",""27"",""458518""
""focus"",""28"",""459222""
""blur"",""30"",""466718""
""focus"",""30"",""468466""
""blur"",""34"",""472995""
""focus"",""35"",""481220""
""blur"",""35"",""483160""
""focus"",""36"",""484595""
","""event"",""trial"",""time""
""blur"",""0"",""0""
""blur"",""3"",""34242""
""blur"",""6"",""51768""
""blur"",""7"",""74905""
""blur"",""7"",""359830""
""blur"",""26"",""446831""
""blur"",""27"",""458518""
""blur"",""30"",""466718""
""blur"",""34"",""472995""
""blur"",""35"",""483160""
","""event"",""trial"",""time""
""focus"",""1"",""16819""
""focus"",""3"",""34243""
""focus"",""6"",""54948""
""focus"",""7"",""359145""
""focus"",""7"",""360458""
""focus"",""27"",""455972""
""focus"",""28"",""459222""
""focus"",""30"",""468466""
""focus"",""35"",""481220""
""focus"",""36"",""484595""
","""event"",""trial"",""time""
""fullscreenenter"",""5"",""40468""
","""event"",""trial"",""time""
""fullscreenexit"",""6"",""42283""
","","","","","","","","","","","","","","","","","","","","","",""
"d3-instructions","53","514859","0.0-53.0","2358","4977","18","Male","true","true","false","true","""event"",""trial"",""time""
""blur"",""0"",""0""
""focus"",""1"",""16819""
""blur"",""3"",""34242""
""focus"",""3"",""34243""
""fullscreenenter"",""5"",""40468""
""fullscreenexit"",""6"",""42283""
""blur"",""6"",""51768""
""focus"",""6"",""54948""
""blur"",""7"",""74905""
""focus"",""7"",""359145""
""blur"",""7"",""359830""
""focus"",""7"",""360458""
""blur"",""26"",""446831""
""focus"",""27"",""455972""
""blur"",""27"",""458518""
""focus"",""28"",""459222""
""blur"",""30"",""466718""
""focus"",""30"",""468466""
""blur"",""34"",""472995""
""focus"",""35"",""481220""
""blur"",""35"",""483160""
""focus"",""36"",""484595""
","""event"",""trial"",""time""
""blur"",""0"",""0""
""blur"",""3"",""34242""
""blur"",""6"",""51768""
""blur"",""7"",""74905""
""blur"",""7"",""359830""
""blur"",""26"",""446831""
""blur"",""27"",""458518""
""blur"",""30"",""466718""
""blur"",""34"",""472995""
""blur"",""35"",""483160""
","""event"",""trial"",""time""
""focus"",""1"",""16819""
""focus"",""3"",""34243""
""focus"",""6"",""54948""
""focus"",""7"",""359145""
""focus"",""7"",""360458""
""focus"",""27"",""455972""
""focus"",""28"",""459222""
""focus"",""30"",""468466""
""focus"",""35"",""481220""
""focus"",""36"",""484595""
","""event"",""trial"",""time""
""fullscreenenter"",""5"",""40468""
","""event"",""trial"",""time""
""fullscreenexit"",""6"",""42283""
","","","","","","","","","","","","","","","","","","","","","",""
"d3-instructions","54","515155","0.0-54.0","2358","4977","18","Male","true","true","false","true","""event"",""trial"",""time""
""blur"",""0"",""0""
""focus"",""1"",""16819""
""blur"",""3"",""34242""
""focus"",""3"",""34243""
""fullscreenenter"",""5"",""40468""
""fullscreenexit"",""6"",""42283""
""blur"",""6"",""51768""
""focus"",""6"",""54948""
""blur"",""7"",""74905""
""focus"",""7"",""359145""
""blur"",""7"",""359830""
""focus"",""7"",""360458""
""blur"",""26"",""446831""
""focus"",""27"",""455972""
""blur"",""27"",""458518""
""focus"",""28"",""459222""
""blur"",""30"",""466718""
""focus"",""30"",""468466""
""blur"",""34"",""472995""
""focus"",""35"",""481220""
""blur"",""35"",""483160""
""focus"",""36"",""484595""
","""event"",""trial"",""time""
""blur"",""0"",""0""
""blur"",""3"",""34242""
""blur"",""6"",""51768""
""blur"",""7"",""74905""
""blur"",""7"",""359830""
""blur"",""26"",""446831""
""blur"",""27"",""458518""
""blur"",""30"",""466718""
""blur"",""34"",""472995""
""blur"",""35"",""483160""
","""event"",""trial"",""time""
""focus"",""1"",""16819""
""focus"",""3"",""34243""
""focus"",""6"",""54948""
""focus"",""7"",""359145""
""focus"",""7"",""360458""
""focus"",""27"",""455972""
""focus"",""28"",""459222""
""focus"",""30"",""468466""
""focus"",""35"",""481220""
""focus"",""36"",""484595""
","""event"",""trial"",""time""
""fullscreenenter"",""5"",""40468""
","""event"",""trial"",""time""
""fullscreenexit"",""6"",""42283""
","","","","","","","","","","","","","","","","","","","","","",""
"d3-instructions","55","515491","0.0-55.0","2358","4977","18","Male","true","true","false","true","""event"",""trial"",""time""
""blur"",""0"",""0""
""focus"",""1"",""16819""
""blur"",""3"",""34242""
""focus"",""3"",""34243""
""fullscreenenter"",""5"",""40468""
""fullscreenexit"",""6"",""42283""
""blur"",""6"",""51768""
""focus"",""6"",""54948""
""blur"",""7"",""74905""
""focus"",""7"",""359145""
""blur"",""7"",""359830""
""focus"",""7"",""360458""
""blur"",""26"",""446831""
""focus"",""27"",""455972""
""blur"",""27"",""458518""
""focus"",""28"",""459222""
""blur"",""30"",""466718""
""focus"",""30"",""468466""
""blur"",""34"",""472995""
""focus"",""35"",""481220""
""blur"",""35"",""483160""
""focus"",""36"",""484595""
","""event"",""trial"",""time""
""blur"",""0"",""0""
""blur"",""3"",""34242""
""blur"",""6"",""51768""
""blur"",""7"",""74905""
""blur"",""7"",""359830""
""blur"",""26"",""446831""
""blur"",""27"",""458518""
""blur"",""30"",""466718""
""blur"",""34"",""472995""
""blur"",""35"",""483160""
","""event"",""trial"",""time""
""focus"",""1"",""16819""
""focus"",""3"",""34243""
""focus"",""6"",""54948""
""focus"",""7"",""359145""
""focus"",""7"",""360458""
""focus"",""27"",""455972""
""focus"",""28"",""459222""
""focus"",""30"",""468466""
""focus"",""35"",""481220""
""focus"",""36"",""484595""
","""event"",""trial"",""time""
""fullscreenenter"",""5"",""40468""
","""event"",""trial"",""time""
""fullscreenexit"",""6"",""42283""
","","","","","","","","","","","","","","","","","","","","","",""
"d3-instructions","56","515763","0.0-56.0","2358","4977","18","Male","true","true","false","true","""event"",""trial"",""time""
""blur"",""0"",""0""
""focus"",""1"",""16819""
""blur"",""3"",""34242""
""focus"",""3"",""34243""
""fullscreenenter"",""5"",""40468""
""fullscreenexit"",""6"",""42283""
""blur"",""6"",""51768""
""focus"",""6"",""54948""
""blur"",""7"",""74905""
""focus"",""7"",""359145""
""blur"",""7"",""359830""
""focus"",""7"",""360458""
""blur"",""26"",""446831""
""focus"",""27"",""455972""
""blur"",""27"",""458518""
""focus"",""28"",""459222""
""blur"",""30"",""466718""
""focus"",""30"",""468466""
""blur"",""34"",""472995""
""focus"",""35"",""481220""
""blur"",""35"",""483160""
""focus"",""36"",""484595""
","""event"",""trial"",""time""
""blur"",""0"",""0""
""blur"",""3"",""34242""
""blur"",""6"",""51768""
""blur"",""7"",""74905""
""blur"",""7"",""359830""
""blur"",""26"",""446831""
""blur"",""27"",""458518""
""blur"",""30"",""466718""
""blur"",""34"",""472995""
""blur"",""35"",""483160""
","""event"",""trial"",""time""
""focus"",""1"",""16819""
""focus"",""3"",""34243""
""focus"",""6"",""54948""
""focus"",""7"",""359145""
""focus"",""7"",""360458""
""focus"",""27"",""455972""
""focus"",""28"",""459222""
""focus"",""30"",""468466""
""focus"",""35"",""481220""
""focus"",""36"",""484595""
","""event"",""trial"",""time""
""fullscreenenter"",""5"",""40468""
","""event"",""trial"",""time""
""fullscreenexit"",""6"",""42283""
","","","","","","","","","","","","","","","","","","","","","",""
"d3-instructions","57","516155","0.0-57.0","2358","4977","18","Male","true","true","false","true","""event"",""trial"",""time""
""blur"",""0"",""0""
""focus"",""1"",""16819""
""blur"",""3"",""34242""
""focus"",""3"",""34243""
""fullscreenenter"",""5"",""40468""
""fullscreenexit"",""6"",""42283""
""blur"",""6"",""51768""
""focus"",""6"",""54948""
""blur"",""7"",""74905""
""focus"",""7"",""359145""
""blur"",""7"",""359830""
""focus"",""7"",""360458""
""blur"",""26"",""446831""
""focus"",""27"",""455972""
""blur"",""27"",""458518""
""focus"",""28"",""459222""
""blur"",""30"",""466718""
""focus"",""30"",""468466""
""blur"",""34"",""472995""
""focus"",""35"",""481220""
""blur"",""35"",""483160""
""focus"",""36"",""484595""
","""event"",""trial"",""time""
""blur"",""0"",""0""
""blur"",""3"",""34242""
""blur"",""6"",""51768""
""blur"",""7"",""74905""
""blur"",""7"",""359830""
""blur"",""26"",""446831""
""blur"",""27"",""458518""
""blur"",""30"",""466718""
""blur"",""34"",""472995""
""blur"",""35"",""483160""
","""event"",""trial"",""time""
""focus"",""1"",""16819""
""focus"",""3"",""34243""
""focus"",""6"",""54948""
""focus"",""7"",""359145""
""focus"",""7"",""360458""
""focus"",""27"",""455972""
""focus"",""28"",""459222""
""focus"",""30"",""468466""
""focus"",""35"",""481220""
""focus"",""36"",""484595""
","""event"",""trial"",""time""
""fullscreenenter"",""5"",""40468""
","""event"",""trial"",""time""
""fullscreenexit"",""6"",""42283""
","","","","","","","","","","","","","","","","","","","","","",""
"d3-instructions","58","516538","0.0-58.0","2358","4977","18","Male","true","true","false","true","""event"",""trial"",""time""
""blur"",""0"",""0""
""focus"",""1"",""16819""
""blur"",""3"",""34242""
""focus"",""3"",""34243""
""fullscreenenter"",""5"",""40468""
""fullscreenexit"",""6"",""42283""
""blur"",""6"",""51768""
""focus"",""6"",""54948""
""blur"",""7"",""74905""
""focus"",""7"",""359145""
""blur"",""7"",""359830""
""focus"",""7"",""360458""
""blur"",""26"",""446831""
""focus"",""27"",""455972""
""blur"",""27"",""458518""
""focus"",""28"",""459222""
""blur"",""30"",""466718""
""focus"",""30"",""468466""
""blur"",""34"",""472995""
""focus"",""35"",""481220""
""blur"",""35"",""483160""
""focus"",""36"",""484595""
","""event"",""trial"",""time""
""blur"",""0"",""0""
""blur"",""3"",""34242""
""blur"",""6"",""51768""
""blur"",""7"",""74905""
""blur"",""7"",""359830""
""blur"",""26"",""446831""
""blur"",""27"",""458518""
""blur"",""30"",""466718""
""blur"",""34"",""472995""
""blur"",""35"",""483160""
","""event"",""trial"",""time""
""focus"",""1"",""16819""
""focus"",""3"",""34243""
""focus"",""6"",""54948""
""focus"",""7"",""359145""
""focus"",""7"",""360458""
""focus"",""27"",""455972""
""focus"",""28"",""459222""
""focus"",""30"",""468466""
""focus"",""35"",""481220""
""focus"",""36"",""484595""
","""event"",""trial"",""time""
""fullscreenenter"",""5"",""40468""
","""event"",""trial"",""time""
""fullscreenexit"",""6"",""42283""
","","","","","","","","","","","","","","","","","","","","","",""
"d3-instructions","59","516698","0.0-59.0","2358","4977","18","Male","true","true","false","true","""event"",""trial"",""time""
""blur"",""0"",""0""
""focus"",""1"",""16819""
""blur"",""3"",""34242""
""focus"",""3"",""34243""
""fullscreenenter"",""5"",""40468""
""fullscreenexit"",""6"",""42283""
""blur"",""6"",""51768""
""focus"",""6"",""54948""
""blur"",""7"",""74905""
""focus"",""7"",""359145""
""blur"",""7"",""359830""
""focus"",""7"",""360458""
""blur"",""26"",""446831""
""focus"",""27"",""455972""
""blur"",""27"",""458518""
""focus"",""28"",""459222""
""blur"",""30"",""466718""
""focus"",""30"",""468466""
""blur"",""34"",""472995""
""focus"",""35"",""481220""
""blur"",""35"",""483160""
""focus"",""36"",""484595""
","""event"",""trial"",""time""
""blur"",""0"",""0""
""blur"",""3"",""34242""
""blur"",""6"",""51768""
""blur"",""7"",""74905""
""blur"",""7"",""359830""
""blur"",""26"",""446831""
""blur"",""27"",""458518""
""blur"",""30"",""466718""
""blur"",""34"",""472995""
""blur"",""35"",""483160""
","""event"",""trial"",""time""
""focus"",""1"",""16819""
""focus"",""3"",""34243""
""focus"",""6"",""54948""
""focus"",""7"",""359145""
""focus"",""7"",""360458""
""focus"",""27"",""455972""
""focus"",""28"",""459222""
""focus"",""30"",""468466""
""focus"",""35"",""481220""
""focus"",""36"",""484595""
","""event"",""trial"",""time""
""fullscreenenter"",""5"",""40468""
","""event"",""trial"",""time""
""fullscreenexit"",""6"",""42283""
","","","","","","","","","","","","","","","","","","","","","",""
"d3-instructions","60","516979","0.0-60.0","2358","4977","18","Male","true","true","false","true","""event"",""trial"",""time""
""blur"",""0"",""0""
""focus"",""1"",""16819""
""blur"",""3"",""34242""
""focus"",""3"",""34243""
""fullscreenenter"",""5"",""40468""
""fullscreenexit"",""6"",""42283""
""blur"",""6"",""51768""
""focus"",""6"",""54948""
""blur"",""7"",""74905""
""focus"",""7"",""359145""
""blur"",""7"",""359830""
""focus"",""7"",""360458""
""blur"",""26"",""446831""
""focus"",""27"",""455972""
""blur"",""27"",""458518""
""focus"",""28"",""459222""
""blur"",""30"",""466718""
""focus"",""30"",""468466""
""blur"",""34"",""472995""
""focus"",""35"",""481220""
""blur"",""35"",""483160""
""focus"",""36"",""484595""
""blur"",""61"",""519910""
","""event"",""trial"",""time""
""blur"",""0"",""0""
""blur"",""3"",""34242""
""blur"",""6"",""51768""
""blur"",""7"",""74905""
""blur"",""7"",""359830""
""blur"",""26"",""446831""
""blur"",""27"",""458518""
""blur"",""30"",""466718""
""blur"",""34"",""472995""
""blur"",""35"",""483160""
""blur"",""61"",""519910""
","""event"",""trial"",""time""
""focus"",""1"",""16819""
""focus"",""3"",""34243""
""focus"",""6"",""54948""
""focus"",""7"",""359145""
""focus"",""7"",""360458""
""focus"",""27"",""455972""
""focus"",""28"",""459222""
""focus"",""30"",""468466""
""focus"",""35"",""481220""
""focus"",""36"",""484595""
","""event"",""trial"",""time""
""fullscreenenter"",""5"",""40468""
","""event"",""trial"",""time""
""fullscreenexit"",""6"",""42283""
","","","","","","","","","","","","","","","","","","","","","",""
"d3-animate-choice","61","520138","0.0-61.0-0.0","2358","4977","18","Male","true","true","false","true","""event"",""trial"",""time""
""blur"",""0"",""0""
""focus"",""1"",""16819""
""blur"",""3"",""34242""
""focus"",""3"",""34243""
""fullscreenenter"",""5"",""40468""
""fullscreenexit"",""6"",""42283""
""blur"",""6"",""51768""
""focus"",""6"",""54948""
""blur"",""7"",""74905""
""focus"",""7"",""359145""
""blur"",""7"",""359830""
""focus"",""7"",""360458""
""blur"",""26"",""446831""
""focus"",""27"",""455972""
""blur"",""27"",""458518""
""focus"",""28"",""459222""
""blur"",""30"",""466718""
""focus"",""30"",""468466""
""blur"",""34"",""472995""
""focus"",""35"",""481220""
""blur"",""35"",""483160""
""focus"",""36"",""484595""
""blur"",""61"",""519910""
""focus"",""62"",""523508""
","""event"",""trial"",""time""
""blur"",""0"",""0""
""blur"",""3"",""34242""
""blur"",""6"",""51768""
""blur"",""7"",""74905""
""blur"",""7"",""359830""
""blur"",""26"",""446831""
""blur"",""27"",""458518""
""blur"",""30"",""466718""
""blur"",""34"",""472995""
""blur"",""35"",""483160""
""blur"",""61"",""519910""
","""event"",""trial"",""time""
""focus"",""1"",""16819""
""focus"",""3"",""34243""
""focus"",""6"",""54948""
""focus"",""7"",""359145""
""focus"",""7"",""360458""
""focus"",""27"",""455972""
""focus"",""28"",""459222""
""focus"",""30"",""468466""
""focus"",""35"",""481220""
""focus"",""36"",""484595""
""focus"",""62"",""523508""
","""event"",""trial"",""time""
""fullscreenenter"",""5"",""40468""
","""event"",""trial"",""time""
""fullscreenexit"",""6"",""42283""
","243.09999990463257","","32","","","3000","1","659.2999997138977,1147.1999998092651","32,49","images/earth.jpg","images/tutrocket1","images/tutrocket2","null","images/tutrocket2","","1","practice","null","","","",""
"d3-animate-choice","62","524155","0.0-61.0-1.0","2358","4977","18","Male","true","true","false","true","""event"",""trial"",""time""
""blur"",""0"",""0""
""focus"",""1"",""16819""
""blur"",""3"",""34242""
""focus"",""3"",""34243""
""fullscreenenter"",""5"",""40468""
""fullscreenexit"",""6"",""42283""
""blur"",""6"",""51768""
""focus"",""6"",""54948""
""blur"",""7"",""74905""
""focus"",""7"",""359145""
""blur"",""7"",""359830""
""focus"",""7"",""360458""
""blur"",""26"",""446831""
""focus"",""27"",""455972""
""blur"",""27"",""458518""
""focus"",""28"",""459222""
""blur"",""30"",""466718""
""focus"",""30"",""468466""
""blur"",""34"",""472995""
""focus"",""35"",""481220""
""blur"",""35"",""483160""
""focus"",""36"",""484595""
""blur"",""61"",""519910""
""focus"",""62"",""523508""
","""event"",""trial"",""time""
""blur"",""0"",""0""
""blur"",""3"",""34242""
""blur"",""6"",""51768""
""blur"",""7"",""74905""
""blur"",""7"",""359830""
""blur"",""26"",""446831""
""blur"",""27"",""458518""
""blur"",""30"",""466718""
""blur"",""34"",""472995""
""blur"",""35"",""483160""
""blur"",""61"",""519910""
","""event"",""trial"",""time""
""focus"",""1"",""16819""
""focus"",""3"",""34243""
""focus"",""6"",""54948""
""focus"",""7"",""359145""
""focus"",""7"",""360458""
""focus"",""27"",""455972""
""focus"",""28"",""459222""
""focus"",""30"",""468466""
""focus"",""35"",""481220""
""focus"",""36"",""484595""
""focus"",""62"",""523508""
","""event"",""trial"",""time""
""fullscreenenter"",""5"",""40468""
","""event"",""trial"",""time""
""fullscreenexit"",""6"",""42283""
","3629.7000002861023","","49","","","3000","0","","","images/tutgreenplanet.jpg","images/tutalien2","images/tutalien1","images/tutrocket2","","","2","practice","false","1","rare","0","2022-12-18 04:52:29.442"
"two-step-fixation","63","525161","0.0-61.0-2.0","2358","4977","18","Male","true","true","false","true","""event"",""trial"",""time""
""blur"",""0"",""0""
""focus"",""1"",""16819""
""blur"",""3"",""34242""
""focus"",""3"",""34243""
""fullscreenenter"",""5"",""40468""
""fullscreenexit"",""6"",""42283""
""blur"",""6"",""51768""
""focus"",""6"",""54948""
""blur"",""7"",""74905""
""focus"",""7"",""359145""
""blur"",""7"",""359830""
""focus"",""7"",""360458""
""blur"",""26"",""446831""
""focus"",""27"",""455972""
""blur"",""27"",""458518""
""focus"",""28"",""459222""
""blur"",""30"",""466718""
""focus"",""30"",""468466""
""blur"",""34"",""472995""
""focus"",""35"",""481220""
""blur"",""35"",""483160""
""focus"",""36"",""484595""
""blur"",""61"",""519910""
""focus"",""62"",""523508""
""blur"",""64"",""526327""
","""event"",""trial"",""time""
""blur"",""0"",""0""
""blur"",""3"",""34242""
""blur"",""6"",""51768""
""blur"",""7"",""74905""
""blur"",""7"",""359830""
""blur"",""26"",""446831""
""blur"",""27"",""458518""
""blur"",""30"",""466718""
""blur"",""34"",""472995""
""blur"",""35"",""483160""
""blur"",""61"",""519910""
""blur"",""64"",""526327""
","""event"",""trial"",""time""
""focus"",""1"",""16819""
""focus"",""3"",""34243""
""focus"",""6"",""54948""
""focus"",""7"",""359145""
""focus"",""7"",""360458""
""focus"",""27"",""455972""
""focus"",""28"",""459222""
""focus"",""30"",""468466""
""focus"",""35"",""481220""
""focus"",""36"",""484595""
""focus"",""62"",""523508""
","""event"",""trial"",""time""
""fullscreenenter"",""5"",""40468""
","""event"",""trial"",""time""
""fullscreenexit"",""6"",""42283""
","","images/earth.jpg","","","","","","","","","","","","","","fixation","","","","","",""
"d3-animate-choice","64","529171","0.0-61.0-0.1","2358","4977","18","Male","true","true","false","true","""event"",""trial"",""time""
""blur"",""0"",""0""
""focus"",""1"",""16819""
""blur"",""3"",""34242""
""focus"",""3"",""34243""
""fullscreenenter"",""5"",""40468""
""fullscreenexit"",""6"",""42283""
""blur"",""6"",""51768""
""focus"",""6"",""54948""
""blur"",""7"",""74905""
""focus"",""7"",""359145""
""blur"",""7"",""359830""
""focus"",""7"",""360458""
""blur"",""26"",""446831""
""focus"",""27"",""455972""
""blur"",""27"",""458518""
""focus"",""28"",""459222""
""blur"",""30"",""466718""
""focus"",""30"",""468466""
""blur"",""34"",""472995""
""focus"",""35"",""481220""
""blur"",""35"",""483160""
""focus"",""36"",""484595""
""blur"",""61"",""519910""
""focus"",""62"",""523508""
""blur"",""64"",""526327""
","""event"",""trial"",""time""
""blur"",""0"",""0""
""blur"",""3"",""34242""
""blur"",""6"",""51768""
""blur"",""7"",""74905""
""blur"",""7"",""359830""
""blur"",""26"",""446831""
""blur"",""27"",""458518""
""blur"",""30"",""466718""
""blur"",""34"",""472995""
""blur"",""35"",""483160""
""blur"",""61"",""519910""
""blur"",""64"",""526327""
","""event"",""trial"",""time""
""focus"",""1"",""16819""
""focus"",""3"",""34243""
""focus"",""6"",""54948""
""focus"",""7"",""359145""
""focus"",""7"",""360458""
""focus"",""27"",""455972""
""focus"",""28"",""459222""
""focus"",""30"",""468466""
""focus"",""35"",""481220""
""focus"",""36"",""484595""
""focus"",""62"",""523508""
","""event"",""trial"",""time""
""fullscreenenter"",""5"",""40468""
","""event"",""trial"",""time""
""fullscreenexit"",""6"",""42283""
","null","","null","","","3000","0","","","images/earth.jpg","images/tutrocket1","images/tutrocket2","null","","","1","practice","null","","","",""
"d3-animate-choice","65","530185","0.0-61.0-1.1","2358","4977","18","Male","true","true","false","true","""event"",""trial"",""time""
""blur"",""0"",""0""
""focus"",""1"",""16819""
""blur"",""3"",""34242""
""focus"",""3"",""34243""
""fullscreenenter"",""5"",""40468""
""fullscreenexit"",""6"",""42283""
""blur"",""6"",""51768""
""focus"",""6"",""54948""
""blur"",""7"",""74905""
""focus"",""7"",""359145""
""blur"",""7"",""359830""
""focus"",""7"",""360458""
""blur"",""26"",""446831""
""focus"",""27"",""455972""
""blur"",""27"",""458518""
""focus"",""28"",""459222""
""blur"",""30"",""466718""
""focus"",""30"",""468466""
""blur"",""34"",""472995""
""focus"",""35"",""481220""
""blur"",""35"",""483160""
""focus"",""36"",""484595""
""blur"",""61"",""519910""
""focus"",""62"",""523508""
""blur"",""64"",""526327""
","""event"",""trial"",""time""
""blur"",""0"",""0""
""blur"",""3"",""34242""
""blur"",""6"",""51768""
""blur"",""7"",""74905""
""blur"",""7"",""359830""
""blur"",""26"",""446831""
""blur"",""27"",""458518""
""blur"",""30"",""466718""
""blur"",""34"",""472995""
""blur"",""35"",""483160""
""blur"",""61"",""519910""
""blur"",""64"",""526327""
","""event"",""trial"",""time""
""focus"",""1"",""16819""
""focus"",""3"",""34243""
""focus"",""6"",""54948""
""focus"",""7"",""359145""
""focus"",""7"",""360458""
""focus"",""27"",""455972""
""focus"",""28"",""459222""
""focus"",""30"",""468466""
""focus"",""35"",""481220""
""focus"",""36"",""484595""
""focus"",""62"",""523508""
","""event"",""trial"",""time""
""fullscreenenter"",""5"",""40468""
","""event"",""trial"",""time""
""fullscreenexit"",""6"",""42283""
","null","","null","","","0","0","","","images/earth.jpg","images/tutrocket1","images/tutrocket2","null","","","2","practice","null","","","0","2022-12-18 04:52:35.472"
"two-step-fixation","66","531197","0.0-61.0-2.1","2358","4977","18","Male","true","true","false","true","""event"",""trial"",""time""
""blur"",""0"",""0""
""focus"",""1"",""16819""
""blur"",""3"",""34242""
""focus"",""3"",""34243""
""fullscreenenter"",""5"",""40468""
""fullscreenexit"",""6"",""42283""
""blur"",""6"",""51768""
""focus"",""6"",""54948""
""blur"",""7"",""74905""
""focus"",""7"",""359145""
""blur"",""7"",""359830""
""focus"",""7"",""360458""
""blur"",""26"",""446831""
""focus"",""27"",""455972""
""blur"",""27"",""458518""
""focus"",""28"",""459222""
""blur"",""30"",""466718""
""focus"",""30"",""468466""
""blur"",""34"",""472995""
""focus"",""35"",""481220""
""blur"",""35"",""483160""
""focus"",""36"",""484595""
""blur"",""61"",""519910""
""focus"",""62"",""523508""
""blur"",""64"",""526327""
""focus"",""67"",""532275""
","""event"",""trial"",""time""
""blur"",""0"",""0""
""blur"",""3"",""34242""
""blur"",""6"",""51768""
""blur"",""7"",""74905""
""blur"",""7"",""359830""
""blur"",""26"",""446831""
""blur"",""27"",""458518""
""blur"",""30"",""466718""
""blur"",""34"",""472995""
""blur"",""35"",""483160""
""blur"",""61"",""519910""
""blur"",""64"",""526327""
","""event"",""trial"",""time""
""focus"",""1"",""16819""
""focus"",""3"",""34243""
""focus"",""6"",""54948""
""focus"",""7"",""359145""
""focus"",""7"",""360458""
""focus"",""27"",""455972""
""focus"",""28"",""459222""
""focus"",""30"",""468466""
""focus"",""35"",""481220""
""focus"",""36"",""484595""
""focus"",""62"",""523508""
""focus"",""67"",""532275""
","""event"",""trial"",""time""
""fullscreenenter"",""5"",""40468""
","""event"",""trial"",""time""
""fullscreenexit"",""6"",""42283""
","","images/earth.jpg","","","","","","","","","","","","","","fixation","","","","","",""
"d3-animate-choice","67","534664","0.0-61.0-0.2","2358","4977","18","Male","true","true","false","true","""event"",""trial"",""time""
""blur"",""0"",""0""
""focus"",""1"",""16819""
""blur"",""3"",""34242""
""focus"",""3"",""34243""
""fullscreenenter"",""5"",""40468""
""fullscreenexit"",""6"",""42283""
""blur"",""6"",""51768""
""focus"",""6"",""54948""
""blur"",""7"",""74905""
""focus"",""7"",""359145""
""blur"",""7"",""359830""
""focus"",""7"",""360458""
""blur"",""26"",""446831""
""focus"",""27"",""455972""
""blur"",""27"",""458518""
""focus"",""28"",""459222""
""blur"",""30"",""466718""
""focus"",""30"",""468466""
""blur"",""34"",""472995""
""focus"",""35"",""481220""
""blur"",""35"",""483160""
""focus"",""36"",""484595""
""blur"",""61"",""519910""
""focus"",""62"",""523508""
""blur"",""64"",""526327""
""focus"",""67"",""532275""
","""event"",""trial"",""time""
""blur"",""0"",""0""
""blur"",""3"",""34242""
""blur"",""6"",""51768""
""blur"",""7"",""74905""
""blur"",""7"",""359830""
""blur"",""26"",""446831""
""blur"",""27"",""458518""
""blur"",""30"",""466718""
""blur"",""34"",""472995""
""blur"",""35"",""483160""
""blur"",""61"",""519910""
""blur"",""64"",""526327""
","""event"",""trial"",""time""
""focus"",""1"",""16819""
""focus"",""3"",""34243""
""focus"",""6"",""54948""
""focus"",""7"",""359145""
""focus"",""7"",""360458""
""focus"",""27"",""455972""
""focus"",""28"",""459222""
""focus"",""30"",""468466""
""focus"",""35"",""481220""
""focus"",""36"",""484595""
""focus"",""62"",""523508""
""focus"",""67"",""532275""
","""event"",""trial"",""time""
""fullscreenenter"",""5"",""40468""
","""event"",""trial"",""time""
""fullscreenexit"",""6"",""42283""
","1457.4000000953674","","49","","","3000","1","","","images/earth.jpg","images/tutrocket1","images/tutrocket2","null","images/tutrocket2","","1","practice","null","1","","",""
"d3-animate-choice","68","537288","0.0-61.0-1.2","2358","4977","18","Male","true","true","false","true","""event"",""trial"",""time""
""blur"",""0"",""0""
""focus"",""1"",""16819""
""blur"",""3"",""34242""
""focus"",""3"",""34243""
""fullscreenenter"",""5"",""40468""
""fullscreenexit"",""6"",""42283""
""blur"",""6"",""51768""
""focus"",""6"",""54948""
""blur"",""7"",""74905""
""focus"",""7"",""359145""
""blur"",""7"",""359830""
""focus"",""7"",""360458""
""blur"",""26"",""446831""
""focus"",""27"",""455972""
""blur"",""27"",""458518""
""focus"",""28"",""459222""
""blur"",""30"",""466718""
""focus"",""30"",""468466""
""blur"",""34"",""472995""
""focus"",""35"",""481220""
""blur"",""35"",""483160""
""focus"",""36"",""484595""
""blur"",""61"",""519910""
""focus"",""62"",""523508""
""blur"",""64"",""526327""
""focus"",""67"",""532275""
""blur"",""69"",""538192""
","""event"",""trial"",""time""
""blur"",""0"",""0""
""blur"",""3"",""34242""
""blur"",""6"",""51768""
""blur"",""7"",""74905""
""blur"",""7"",""359830""
""blur"",""26"",""446831""
""blur"",""27"",""458518""
""blur"",""30"",""466718""
""blur"",""34"",""472995""
""blur"",""35"",""483160""
""blur"",""61"",""519910""
""blur"",""64"",""526327""
""blur"",""69"",""538192""
","""event"",""trial"",""time""
""focus"",""1"",""16819""
""focus"",""3"",""34243""
""focus"",""6"",""54948""
""focus"",""7"",""359145""
""focus"",""7"",""360458""
""focus"",""27"",""455972""
""focus"",""28"",""459222""
""focus"",""30"",""468466""
""focus"",""35"",""481220""
""focus"",""36"",""484595""
""focus"",""62"",""523508""
""focus"",""67"",""532275""
","""event"",""trial"",""time""
""fullscreenenter"",""5"",""40468""
","""event"",""trial"",""time""
""fullscreenexit"",""6"",""42283""
","598.8000001907349","","49","","","3000","1","","","images/tutyellowplanet.jpg","images/tutalien4","images/tutalien3","images/tutrocket2","images/tutalien3","images/t.png","2","practice","true","1","common","1","2022-12-18 04:52:42.575"
"two-step-fixation","69","538309","0.0-61.0-2.2","2358","4977","18","Male","true","true","false","true","""event"",""trial"",""time""
""blur"",""0"",""0""
""focus"",""1"",""16819""
""blur"",""3"",""34242""
""focus"",""3"",""34243""
""fullscreenenter"",""5"",""40468""
""fullscreenexit"",""6"",""42283""
""blur"",""6"",""51768""
""focus"",""6"",""54948""
""blur"",""7"",""74905""
""focus"",""7"",""359145""
""blur"",""7"",""359830""
""focus"",""7"",""360458""
""blur"",""26"",""446831""
""focus"",""27"",""455972""
""blur"",""27"",""458518""
""focus"",""28"",""459222""
""blur"",""30"",""466718""
""focus"",""30"",""468466""
""blur"",""34"",""472995""
""focus"",""35"",""481220""
""blur"",""35"",""483160""
""focus"",""36"",""484595""
""blur"",""61"",""519910""
""focus"",""62"",""523508""
""blur"",""64"",""526327""
""focus"",""67"",""532275""
""blur"",""69"",""538192""
""focus"",""70"",""538791""
""blur"",""70"",""540060""
""focus"",""70"",""540643""
","""event"",""trial"",""time""
""blur"",""0"",""0""
""blur"",""3"",""34242""
""blur"",""6"",""51768""
""blur"",""7"",""74905""
""blur"",""7"",""359830""
""blur"",""26"",""446831""
""blur"",""27"",""458518""
""blur"",""30"",""466718""
""blur"",""34"",""472995""
""blur"",""35"",""483160""
""blur"",""61"",""519910""
""blur"",""64"",""526327""
""blur"",""69"",""538192""
""blur"",""70"",""540060""
","""event"",""trial"",""time""
""focus"",""1"",""16819""
""focus"",""3"",""34243""
""focus"",""6"",""54948""
""focus"",""7"",""359145""
""focus"",""7"",""360458""
""focus"",""27"",""455972""
""focus"",""28"",""459222""
""focus"",""30"",""468466""
""focus"",""35"",""481220""
""focus"",""36"",""484595""
""focus"",""62"",""523508""
""focus"",""67"",""532275""
""focus"",""70"",""538791""
""focus"",""70"",""540643""
","""event"",""trial"",""time""
""fullscreenenter"",""5"",""40468""
","""event"",""trial"",""time""
""fullscreenexit"",""6"",""42283""
","","images/earth.jpg","","","","","","","","","","","","","","fixation","","","","","",""
"d3-animate-choice","70","541005","0.0-61.0-0.3","2358","4977","18","Male","true","true","false","true","""event"",""trial"",""time""
""blur"",""0"",""0""
""focus"",""1"",""16819""
""blur"",""3"",""34242""
""focus"",""3"",""34243""
""fullscreenenter"",""5"",""40468""
""fullscreenexit"",""6"",""42283""
""blur"",""6"",""51768""
""focus"",""6"",""54948""
""blur"",""7"",""74905""
""focus"",""7"",""359145""
""blur"",""7"",""359830""
""focus"",""7"",""360458""
""blur"",""26"",""446831""
""focus"",""27"",""455972""
""blur"",""27"",""458518""
""focus"",""28"",""459222""
""blur"",""30"",""466718""
""focus"",""30"",""468466""
""blur"",""34"",""472995""
""focus"",""35"",""481220""
""blur"",""35"",""483160""
""focus"",""36"",""484595""
""blur"",""61"",""519910""
""focus"",""62"",""523508""
""blur"",""64"",""526327""
""focus"",""67"",""532275""
""blur"",""69"",""538192""
""focus"",""70"",""538791""
""blur"",""70"",""540060""
""focus"",""70"",""540643""
""blur"",""71"",""543398""
","""event"",""trial"",""time""
""blur"",""0"",""0""
""blur"",""3"",""34242""
""blur"",""6"",""51768""
""blur"",""7"",""74905""
""blur"",""7"",""359830""
""blur"",""26"",""446831""
""blur"",""27"",""458518""
""blur"",""30"",""466718""
""blur"",""34"",""472995""
""blur"",""35"",""483160""
""blur"",""61"",""519910""
""blur"",""64"",""526327""
""blur"",""69"",""538192""
""blur"",""70"",""540060""
""blur"",""71"",""543398""
","""event"",""trial"",""time""
""focus"",""1"",""16819""
""focus"",""3"",""34243""
""focus"",""6"",""54948""
""focus"",""7"",""359145""
""focus"",""7"",""360458""
""focus"",""27"",""455972""
""focus"",""28"",""459222""
""focus"",""30"",""468466""
""focus"",""35"",""481220""
""focus"",""36"",""484595""
""focus"",""62"",""523508""
""focus"",""67"",""532275""
""focus"",""70"",""538791""
""focus"",""70"",""540643""
","""event"",""trial"",""time""
""fullscreenenter"",""5"",""40468""
","""event"",""trial"",""time""
""fullscreenexit"",""6"",""42283""
","680.3000001907349","","49","","","3000","1","2632.4000000953674","49","images/earth.jpg","images/tutrocket1","images/tutrocket2","null","images/tutrocket2","","1","practice","null","1","","",""
"d3-animate-choice","71","543932","0.0-61.0-1.3","2358","4977","18","Male","true","true","false","true","""event"",""trial"",""time""
""blur"",""0"",""0""
""focus"",""1"",""16819""
""blur"",""3"",""34242""
""focus"",""3"",""34243""
""fullscreenenter"",""5"",""40468""
""fullscreenexit"",""6"",""42283""
""blur"",""6"",""51768""
""focus"",""6"",""54948""
""blur"",""7"",""74905""
""focus"",""7"",""359145""
""blur"",""7"",""359830""
""focus"",""7"",""360458""
""blur"",""26"",""446831""
""focus"",""27"",""455972""
""blur"",""27"",""458518""
""focus"",""28"",""459222""
""blur"",""30"",""466718""
""focus"",""30"",""468466""
""blur"",""34"",""472995""
