"trial_type","trial_index","time_elapsed","internal_node_id","participant_id","subject_id","age","gender","rocket_sides","red_planet_first_rocket","red_display_order","purple_display_order","interactions","blur_events","focus_events","fullscreenenter_events","fullscreenexit_events","rt","stimulus","key_press","button_pressed","success","duration","valid_pressed","rts","keys","planet_text","right_text","left_text","center_text","chosen_text","reward_text","trial_stage","practice_trial","transition_type","choice","transition","reward","timestamp"
"pavlovia","0","4","0.0-0.0","3944","8813","25","Male","false","true","true","false","
","
","
","
","
","","","","","","","","","","","","","","","","","","","","","",""
"html-keyboard-response","1","16108","0.0-1.0","3944","8813","25","Male","false","true","true","false","
","
","
","
","
","16102.5","Welcome! Press the space bar to begin.","32","","","","","","","","","","","","","","","","","","",""
"audio-keyboard-response","2","19318","0.0-2.0","3944","8813","25","Male","false","true","true","false","
","
","
","
","
","2187","audio/beep_loop.wav","175","","","","","","","","","","","","","","","","","","",""
"audio-button-response","3","21360","0.0-3.0","3944","8813","25","Male","false","true","true","false","
","
","
","
","
","NaN","audio/fish.mp3","","1","","","","","","","","","","","","","","","","","",""
"audio-button-response","4","23684","0.0-4.0","3944","8813","25","Male","false","true","true","false","""event"",""trial"",""time""
""fullscreenenter"",""5"",""26607""
","
","
","""event"",""trial"",""time""
""fullscreenenter"",""5"",""26607""
","
","NaN","audio/tiger.mp3","","4","","","","","","","","","","","","","","","","","",""
"fullscreen","5","27559","0.0-5.0","3944","8813","25","Male","false","true","true","false","""event"",""trial"",""time""
""fullscreenenter"",""5"",""26607""
","
","
","""event"",""trial"",""time""
""fullscreenenter"",""5"",""26607""
","
","","","","","true","","","","","","","","","","","","","","","","",""
"d3-instructions","6","35403","0.0-6.0","3944","8813","25","Male","false","true","true","false","""event"",""trial"",""time""
""fullscreenenter"",""5"",""26607""
","
","
","""event"",""trial"",""time""
""fullscreenenter"",""5"",""26607""
","
","","","","","","","","","","","","","","","","","","","","","",""
"d3-instructions","7","41668","0.0-7.0","3944","8813","25","Male","false","true","true","false","""event"",""trial"",""time""
""fullscreenenter"",""5"",""26607""
","
","
","""event"",""trial"",""time""
""fullscreenenter"",""5"",""26607""
","
","","","","","","","","","","","","","","","","","","","","","",""
"d3-instructions","8","43753","0.0-8.0","3944","8813","25","Male","false","true","true","false","""event"",""trial"",""time""
""fullscreenenter"",""5"",""26607""
","
","
","""event"",""trial"",""time""
""fullscreenenter"",""5"",""26607""
","
","","","","","","","","","","","","","","","","","","","","","",""
"d3-instructions","9","52170","0.0-9.0","3944","8813","25","Male","false","true","true","false","""event"",""trial"",""time""
""fullscreenenter"",""5"",""26607""
","
","
","""event"",""trial"",""time""
""fullscreenenter"",""5"",""26607""
","
","","","","","","","","","","","","","","","","","","","","","",""
"d3-instructions","10","61056","0.0-10.0","3944","8813","25","Male","false","true","true","false","""event"",""trial"",""time""
""fullscreenenter"",""5"",""26607""
","
","
","""event"",""trial"",""time""
""fullscreenenter"",""5"",""26607""
","
","","","","","","","","","","","","","","","","","","","","","",""
"d3-animate-choice","11","65755","0.0-11.0","3944","8813","25","Male","false","true","true","false","""event"",""trial"",""time""
""fullscreenenter"",""5"",""26607""
","
","
","""event"",""trial"",""time""
""fullscreenenter"",""5"",""26607""
","
","2685.100000023842","","48","","","3000","1","","","images/tutgreenplanet.jpg","images/tutalien1","images/tutalien2","null","images/tutalien1","","NA","practice","null","","","",""
"d3-animate-choice","12","68582","0.0-12.0","3944","8813","25","Male","false","true","true","false","""event"",""trial"",""time""
""fullscreenenter"",""5"",""26607""
","
","
","""event"",""trial"",""time""
""fullscreenenter"",""5"",""26607""
","
","820.6000000238419","","49","","","3000","1","","","images/tutgreenplanet.jpg","images/tutalien1","images/tutalien2","null","images/tutalien2","","NA","practice","null","","","",""
"d3-animate-choice","13","71194","0.0-13.0","3944","8813","25","Male","false","true","true","false","""event"",""trial"",""time""
""fullscreenenter"",""5"",""26607""
","
","
","""event"",""trial"",""time""
""fullscreenenter"",""5"",""26607""
","
","608.0999999940395","","48","","","3000","1","","","images/tutgreenplanet.jpg","images/tutalien1","images/tutalien2","null","images/tutalien1","","NA","practice","null","","","",""
"d3-animate-choice","14","73584","0.0-14.0","3944","8813","25","Male","false","true","true","false","""event"",""trial"",""time""
""fullscreenenter"",""5"",""26607""
","
","
","""event"",""trial"",""time""
""fullscreenenter"",""5"",""26607""
","
","366.2999999821186","","49","","","3000","1","","","images/tutgreenplanet.jpg","images/tutalien1","images/tutalien2","null","images/tutalien2","","NA","practice","null","","","",""
"d3-instructions","15","76994","0.0-15.0","3944","8813","25","Male","false","true","true","false","""event"",""trial"",""time""
""fullscreenenter"",""5"",""26607""
","
","
","""event"",""trial"",""time""
""fullscreenenter"",""5"",""26607""
","
","","","","","","","","","","","","","","","","","","","","","",""
"d3-instructions","16","78596","0.0-16.0","3944","8813","25","Male","false","true","true","false","""event"",""trial"",""time""
""fullscreenenter"",""5"",""26607""
","
","
","""event"",""trial"",""time""
""fullscreenenter"",""5"",""26607""
","
","","","","","","","","","","","","","","","","","","","","","",""
"d3-instructions","17","80524","0.0-17.0","3944","8813","25","Male","false","true","true","false","""event"",""trial"",""time""
""fullscreenenter"",""5"",""26607""
","
","
","""event"",""trial"",""time""
""fullscreenenter"",""5"",""26607""
","
","","","","","","","","","","","","","","","","","","","","","",""
"d3-instructions","18","84283","0.0-18.0","3944","8813","25","Male","false","true","true","false","""event"",""trial"",""time""
""fullscreenenter"",""5"",""26607""
","
","
","""event"",""trial"",""time""
""fullscreenenter"",""5"",""26607""
","
","","","","","","","","","","","","","","","","","","","","","",""
"d3-instructions","19","90221","0.0-19.0","3944","8813","25","Male","false","true","true","false","""event"",""trial"",""time""
""fullscreenenter"",""5"",""26607""
","
","
","""event"",""trial"",""time""
""fullscreenenter"",""5"",""26607""
","
","","","","","","","","","","","","","","","","","","","","","",""
"d3-animate-choice","20","93007","0.0-20.0","3944","8813","25","Male","false","true","true","false","""event"",""trial"",""time""
""fullscreenenter"",""5"",""26607""
","
","
","""event"",""trial"",""time""
""fullscreenenter"",""5"",""26607""
","
","763.9000000059605","","49","","","3000","1","2261.300000011921","49","images/tutyellowplanet.jpg","null","images/tutalien3","null","images/tutalien3","images/t.png","NA","practice","null","","","",""
"d3-animate-choice","21","95088","0.0-21.0","3944","8813","25","Male","false","true","true","false","""event"",""trial"",""time""
""fullscreenenter"",""5"",""26607""
","
","
","""event"",""trial"",""time""
""fullscreenenter"",""5"",""26607""
","
","56.599999994039536","","49","","","3000","1","","","images/tutyellowplanet.jpg","null","images/tutalien3","null","images/tutalien3","images/t.png","NA","practice","null","","","",""
"d3-animate-choice","22","97360","0.0-22.0","3944","8813","25","Male","false","true","true","false","""event"",""trial"",""time""
""fullscreenenter"",""5"",""26607""
","
","
","""event"",""trial"",""time""
""fullscreenenter"",""5"",""26607""
","
","268.2999999821186","","49","","","3000","1","","","images/tutyellowplanet.jpg","null","images/tutalien3","null","images/tutalien3","images/nothing.png","NA","practice","null","","","",""
"d3-animate-choice","23","99428","0.0-23.0","3944","8813","25","Male","false","true","true","false","""event"",""trial"",""time""
""fullscreenenter"",""5"",""26607""
","
","
","""event"",""trial"",""time""
""fullscreenenter"",""5"",""26607""
","
","51","","49","","","3000","1","","","images/tutyellowplanet.jpg","null","images/tutalien3","null","images/tutalien3","images/t.png","NA","practice","null","","","",""
"d3-animate-choice","24","102341","0.0-24.0","3944","8813","25","Male","false","true","true","false","""event"",""trial"",""time""
""fullscreenenter"",""5"",""26607""
","
","
","""event"",""trial"",""time""
""fullscreenenter"",""5"",""26607""
","
","901.5","","49","","","3000","1","","","images/tutyellowplanet.jpg","null","images/tutalien3","null","images/tutalien3","images/t.png","NA","practice","null","","","",""
"d3-animate-choice","25","104723","0.0-25.0","3944","8813","25","Male","false","true","true","false","""event"",""trial"",""time""
""fullscreenenter"",""5"",""26607""
","
","
","""event"",""trial"",""time""
""fullscreenenter"",""5"",""26607""
","
","373.30000001192093","","49","","","3000","1","","","images/tutyellowplanet.jpg","null","images/tutalien3","null","images/tutalien3","images/t.png","NA","practice","null","","","",""
"d3-animate-choice","26","107251","0.0-26.0","3944","8813","25","Male","false","true","true","false","""event"",""trial"",""time""
""fullscreenenter"",""5"",""26607""
","
","
","""event"",""trial"",""time""
""fullscreenenter"",""5"",""26607""
","
","504","","49","","","3000","1","","","images/tutyellowplanet.jpg","null","images/tutalien3","null","images/tutalien3","images/t.png","NA","practice","null","","","",""
"d3-animate-choice","27","110554","0.0-27.0","3944","8813","25","Male","false","true","true","false","""event"",""trial"",""time""
""fullscreenenter"",""5"",""26607""
","
","
","""event"",""trial"",""time""
""fullscreenenter"",""5"",""26607""
","
","1281.2999999821186","","49","","","3000","1","","","images/tutyellowplanet.jpg","null","images/tutalien3","null","images/tutalien3","images/t.png","NA","practice","null","","","",""
"d3-animate-choice","28","113950","0.0-28.0","3944","8813","25","Male","false","true","true","false","""event"",""trial"",""time""
""fullscreenenter"",""5"",""26607""
","
","
","""event"",""trial"",""time""
""fullscreenenter"",""5"",""26607""
","
","1372.800000011921","","49","","","3000","1","","","images/tutyellowplanet.jpg","null","images/tutalien3","null","images/tutalien3","images/t.png","NA","practice","null","","","",""
"d3-animate-choice","29","116734","0.0-29.0","3944","8813","25","Male","false","true","true","false","""event"",""trial"",""time""
""fullscreenenter"",""5"",""26607""
","
","
","""event"",""trial"",""time""
""fullscreenenter"",""5"",""26607""
","
","773.0999999940395","","49","","","3000","1","","","images/tutyellowplanet.jpg","null","images/tutalien3","null","images/tutalien3","images/t.png","NA","practice","null","","","",""
"d3-instructions","30","120660","0.0-30.0","3944","8813","25","Male","false","true","true","false","""event"",""trial"",""time""
""fullscreenenter"",""5"",""26607""
","
","
","""event"",""trial"",""time""
""fullscreenenter"",""5"",""26607""
","
","","","","","","","","","","","","","","","","","","","","","",""
"d3-instructions","31","125404","0.0-31.0","3944","8813","25","Male","false","true","true","false","""event"",""trial"",""time""
""fullscreenenter"",""5"",""26607""
","
","
","""event"",""trial"",""time""
""fullscreenenter"",""5"",""26607""
","
","","","","","","","","","","","","","","","","","","","","","",""
"d3-instructions","32","128062","0.0-32.0","3944","8813","25","Male","false","true","true","false","""event"",""trial"",""time""
""fullscreenenter"",""5"",""26607""
","
","
","""event"",""trial"",""time""
""fullscreenenter"",""5"",""26607""
","
","","","","","","","","","","","","","","","","","","","","","",""
"d3-instructions","33","130787","0.0-33.0","3944","8813","25","Male","false","true","true","false","""event"",""trial"",""time""
""fullscreenenter"",""5"",""26607""
","
","
","""event"",""trial"",""time""
""fullscreenenter"",""5"",""26607""
","
","","","","","","","","","","","","","","","","","","","","","",""
"d3-animate-choice","34","133778","0.0-34.0","3944","8813","25","Male","false","true","true","false","""event"",""trial"",""time""
""fullscreenenter"",""5"",""26607""
","
","
","""event"",""trial"",""time""
""fullscreenenter"",""5"",""26607""
","
","976.2000000178814","","48","","","3000","1","","","images/tutgreenplanet.jpg","images/tutalien1","images/tutalien2","null","images/tutalien1","images/nothing.png","NA","practice","null","","","",""
"d3-animate-choice","35","136210","0.0-35.0","3944","8813","25","Male","false","true","true","false","""event"",""trial"",""time""
""fullscreenenter"",""5"",""26607""
","
","
","""event"",""trial"",""time""
""fullscreenenter"",""5"",""26607""
","
","425.80000001192093","","49","","","3000","1","","","images/tutgreenplanet.jpg","images/tutalien1","images/tutalien2","null","images/tutalien2","images/t.png","NA","practice","null","","","",""
"d3-animate-choice","36","138547","0.0-36.0","3944","8813","25","Male","false","true","true","false","""event"",""trial"",""time""
""fullscreenenter"",""5"",""26607""
","
","
","""event"",""trial"",""time""
""fullscreenenter"",""5"",""26607""
","
","327.60000002384186","","49","","","3000","1","","","images/tutgreenplanet.jpg","images/tutalien1","images/tutalien2","null","images/tutalien2","images/t.png","NA","practice","null","","","",""
"d3-animate-choice","37","140848","0.0-37.0","3944","8813","25","Male","false","true","true","false","""event"",""trial"",""time""
""fullscreenenter"",""5"",""26607""
","
","
","""event"",""trial"",""time""
""fullscreenenter"",""5"",""26607""
","
","287.09999999403954","","49","","","3000","1","","","images/tutgreenplanet.jpg","images/tutalien1","images/tutalien2","null","images/tutalien2","images/t.png","NA","practice","null","","","",""
"d3-animate-choice","38","143123","0.0-38.0","3944","8813","25","Male","false","true","true","false","""event"",""trial"",""time""
""fullscreenenter"",""5"",""26607""
","
","
","""event"",""trial"",""time""
""fullscreenenter"",""5"",""26607""
","
","257.30000001192093","","49","","","3000","1","","","images/tutgreenplanet.jpg","images/tutalien1","images/tutalien2","null","images/tutalien2","images/t.png","NA","practice","null","","","",""
"d3-animate-choice","39","145235","0.0-39.0","3944","8813","25","Male","false","true","true","false","""event"",""trial"",""time""
""fullscreenenter"",""5"",""26607""
","
","
","""event"",""trial"",""time""
""fullscreenenter"",""5"",""26607""
","
","100.10000002384186","","49","","","3000","1","","","images/tutgreenplanet.jpg","images/tutalien1","images/tutalien2","null","images/tutalien2","images/nothing.png","NA","practice","null","","","",""
"d3-animate-choice","40","147333","0.0-40.0","3944","8813","25","Male","false","true","true","false","""event"",""trial"",""time""
""fullscreenenter"",""5"",""26607""
","
","
","""event"",""trial"",""time""
""fullscreenenter"",""5"",""26607""
","
","96.30000001192093","","49","","","3000","1","2086.5999999940395","49","images/tutgreenplanet.jpg","images/tutalien1","images/tutalien2","null","images/tutalien2","images/t.png","NA","practice","null","","","",""
"d3-animate-choice","41","150067","0.0-41.0","3944","8813","25","Male","false","true","true","false","""event"",""trial"",""time""
""fullscreenenter"",""5"",""26607""
","
","
","""event"",""trial"",""time""
""fullscreenenter"",""5"",""26607""
","
","719.4000000059605","","49","","","3000","1","","","images/tutgreenplanet.jpg","images/tutalien1","images/tutalien2","null","images/tutalien2","images/t.png","NA","practice","null","","","",""
"d3-animate-choice","42","152302","0.0-42.0","3944","8813","25","Male","false","true","true","false","""event"",""trial"",""time""
""fullscreenenter"",""5"",""26607""
","
","
","""event"",""trial"",""time""
""fullscreenenter"",""5"",""26607""
","
","221.69999998807907","","49","","","3000","1","","","images/tutgreenplanet.jpg","images/tutalien1","images/tutalien2","null","images/tutalien2","images/t.png","NA","practice","null","","","",""
"d3-animate-choice","43","154451","0.0-43.0","3944","8813","25","Male","false","true","true","false","""event"",""trial"",""time""
""fullscreenenter"",""5"",""26607""
","
","
","""event"",""trial"",""time""
""fullscreenenter"",""5"",""26607""
","
","126.5","","49","","","3000","1","","","images/tutgreenplanet.jpg","images/tutalien1","images/tutalien2","null","images/tutalien2","images/t.png","NA","practice","null","","","",""
"d3-instructions","44","165222","0.0-44.0","3944","8813","25","Male","false","true","true","false","""event"",""trial"",""time""
""fullscreenenter"",""5"",""26607""
","
","
","""event"",""trial"",""time""
""fullscreenenter"",""5"",""26607""
","
","","","","","","","","","","","","","","","","","","","","","",""
"d3-instructions","45","167266","0.0-45.0","3944","8813","25","Male","false","true","true","false","""event"",""trial"",""time""
""fullscreenenter"",""5"",""26607""
","
","
","""event"",""trial"",""time""
""fullscreenenter"",""5"",""26607""
","
","","","","","","","","","","","","","","","","","","","","","",""
"d3-instructions","46","169104","0.0-46.0","3944","8813","25","Male","false","true","true","false","""event"",""trial"",""time""
""fullscreenenter"",""5"",""26607""
","
","
","""event"",""trial"",""time""
""fullscreenenter"",""5"",""26607""
","
","","","","","","","","","","","","","","","","","","","","","",""
"d3-instructions","47","173104","0.0-47.0","3944","8813","25","Male","false","true","true","false","""event"",""trial"",""time""
""fullscreenenter"",""5"",""26607""
","
","
","""event"",""trial"",""time""
""fullscreenenter"",""5"",""26607""
","
","","","","","","","","","","","","","","","","","","","","","",""
"d3-instructions","48","175015","0.0-48.0","3944","8813","25","Male","false","true","true","false","""event"",""trial"",""time""
""fullscreenenter"",""5"",""26607""
","
","
","""event"",""trial"",""time""
""fullscreenenter"",""5"",""26607""
","
","","","","","","","","","","","","","","","","","","","","","",""
"d3-instructions","49","182350","0.0-49.0","3944","8813","25","Male","false","true","true","false","""event"",""trial"",""time""
""fullscreenenter"",""5"",""26607""
","
","
","""event"",""trial"",""time""
""fullscreenenter"",""5"",""26607""
","
","","","","","","","","","","","","","","","","","","","","","",""
"d3-instructions","50","184970","0.0-50.0","3944","8813","25","Male","false","true","true","false","""event"",""trial"",""time""
""fullscreenenter"",""5"",""26607""
","
","
","""event"",""trial"",""time""
""fullscreenenter"",""5"",""26607""
","
","","","","","","","","","","","","","","","","","","","","","",""
"d3-instructions","51","187056","0.0-51.0","3944","8813","25","Male","false","true","true","false","""event"",""trial"",""time""
""fullscreenenter"",""5"",""26607""
","
","
","""event"",""trial"",""time""
""fullscreenenter"",""5"",""26607""
","
","","","","","","","","","","","","","","","","","","","","","",""
"d3-instructions","52","189094","0.0-52.0","3944","8813","25","Male","false","true","true","false","""event"",""trial"",""time""
""fullscreenenter"",""5"",""26607""
","
","
","""event"",""trial"",""time""
""fullscreenenter"",""5"",""26607""
","
","","","","","","","","","","","","","","","","","","","","","",""
"d3-instructions","53","192240","0.0-53.0","3944","8813","25","Male","false","true","true","false","""event"",""trial"",""time""
""fullscreenenter"",""5"",""26607""
","
","
","""event"",""trial"",""time""
""fullscreenenter"",""5"",""26607""
","
","","","","","","","","","","","","","","","","","","","","","",""
"d3-instructions","54","207325","0.0-54.0","3944","8813","25","Male","false","true","true","false","""event"",""trial"",""time""
""fullscreenenter"",""5"",""26607""
","
","
","""event"",""trial"",""time""
""fullscreenenter"",""5"",""26607""
","
","","","","","","","","","","","","","","","","","","","","","",""
"d3-instructions","55","210632","0.0-55.0","3944","8813","25","Male","false","true","true","false","""event"",""trial"",""time""
""fullscreenenter"",""5"",""26607""
","
","
","""event"",""trial"",""time""
""fullscreenenter"",""5"",""26607""
","
","","","","","","","","","","","","","","","","","","","","","",""
"d3-instructions","56","213826","0.0-56.0","3944","8813","25","Male","false","true","true","false","""event"",""trial"",""time""
""fullscreenenter"",""5"",""26607""
","
","
","""event"",""trial"",""time""
""fullscreenenter"",""5"",""26607""
","
","","","","","","","","","","","","","","","","","","","","","",""
"d3-instructions","57","216560","0.0-57.0","3944","8813","25","Male","false","true","true","false","""event"",""trial"",""time""
""fullscreenenter"",""5"",""26607""
","
","
","""event"",""trial"",""time""
""fullscreenenter"",""5"",""26607""
","
","","","","","","","","","","","","","","","","","","","","","",""
"d3-instructions","58","219413","0.0-58.0","3944","8813","25","Male","false","true","true","false","""event"",""trial"",""time""
""fullscreenenter"",""5"",""26607""
","
","
","""event"",""trial"",""time""
""fullscreenenter"",""5"",""26607""
","
","","","","","","","","","","","","","","","","","","","","","",""
"d3-instructions","59","223090","0.0-59.0","3944","8813","25","Male","false","true","true","false","""event"",""trial"",""time""
""fullscreenenter"",""5"",""26607""
","
","
","""event"",""trial"",""time""
""fullscreenenter"",""5"",""26607""
","
","","","","","","","","","","","","","","","","","","","","","",""
"d3-instructions","60","224671","0.0-60.0","3944","8813","25","Male","false","true","true","false","""event"",""trial"",""time""
""fullscreenenter"",""5"",""26607""
","
","
","""event"",""trial"",""time""
""fullscreenenter"",""5"",""26607""
","
","","","","","","","","","","","","","","","","","","","","","",""
"d3-animate-choice","61","227656","0.0-61.0-0.0","3944","8813","25","Male","false","true","true","false","""event"",""trial"",""time""
""fullscreenenter"",""5"",""26607""
","
","
","""event"",""trial"",""time""
""fullscreenenter"",""5"",""26607""
","
","968.8999999761581","","49","","","3000","1","","","images/earth.jpg","images/tutrocket1","images/tutrocket2","null","images/tutrocket2","","1","practice","null","1","","",""
"d3-animate-choice","62","229961","0.0-61.0-1.0","3944","8813","25","Male","false","true","true","false","""event"",""trial"",""time""
""fullscreenenter"",""5"",""26607""
","
","
","""event"",""trial"",""time""
""fullscreenenter"",""5"",""26607""
","
","296.5","","49","","","3000","1","","","images/tutyellowplanet.jpg","images/tutalien4","images/tutalien3","images/tutrocket2","images/tutalien3","images/nothing.png","2","practice","true","1","common","0","2023-05-02 18:12:55.485"
"two-step-fixation","63","231007","0.0-61.0-2.0","3944","8813","25","Male","false","true","true","false","""event"",""trial"",""time""
""fullscreenenter"",""5"",""26607""
","
","
","""event"",""trial"",""time""
""fullscreenenter"",""5"",""26607""
","
","","images/earth.jpg","","","","","","","","","","","","","","fixation","","","","","",""
"d3-animate-choice","64","233394","0.0-61.0-0.1","3944","8813","25","Male","false","true","true","false","""event"",""trial"",""time""
""fullscreenenter"",""5"",""26607""
","
","
","""event"",""trial"",""time""
""fullscreenenter"",""5"",""26607""
","
","377","","49","","","3000","1","","","images/earth.jpg","images/tutrocket1","images/tutrocket2","null","images/tutrocket2","","1","practice","null","1","","",""
"d3-animate-choice","65","235914","0.0-61.0-1.1","3944","8813","25","Male","false","true","true","false","""event"",""trial"",""time""
""fullscreenenter"",""5"",""26607""
","
","
","""event"",""trial"",""time""
""fullscreenenter"",""5"",""26607""
","
","513.5","","48","","","3000","1","","","images/tutyellowplanet.jpg","images/tutalien4","images/tutalien3","images/tutrocket2","images/tutalien4","images/nothing.png","2","practice","true","2","common","0","2023-05-02 18:13:01.438"
"two-step-fixation","66","236932","0.0-61.0-2.1","3944","8813","25","Male","false","true","true","false","""event"",""trial"",""time""
""fullscreenenter"",""5"",""26607""
","
","
","""event"",""trial"",""time""
""fullscreenenter"",""5"",""26607""
","
","","images/earth.jpg","","","","","","","","","","","","","","fixation","","","","","",""
"d3-animate-choice","67","239177","0.0-61.0-0.2","3944","8813","25","Male","false","true","true","false","""event"",""trial"",""time""
""fullscreenenter"",""5"",""26607""
","
","
","""event"",""trial"",""time""
""fullscreenenter"",""5"",""26607""
","
","224.19999998807907","","49","","","3000","1","","","images/earth.jpg","images/tutrocket1","images/tutrocket2","null","images/tutrocket2","","1","practice","null","1","","",""
"d3-animate-choice","68","242452","0.0-61.0-1.2","3944","8813","25","Male","false","true","true","false","""event"",""trial"",""time""
""fullscreenenter"",""5"",""26607""
","
","
","""event"",""trial"",""time""
""fullscreenenter"",""5"",""26607""
","
","1267.800000011921","","49","","","3000","1","","","images/tutyellowplanet.jpg","images/tutalien4","images/tutalien3","images/tutrocket2","images/tutalien3","images/t.png","2","practice","true","1","common","1","2023-05-02 18:13:07.976"
"two-step-fixation","69","243456","0.0-61.0-2.2","3944","8813","25","Male","false","true","true","false","""event"",""trial"",""time""
""fullscreenenter"",""5"",""26607""
","
","
","""event"",""trial"",""time""
""fullscreenenter"",""5"",""26607""
","
","","images/earth.jpg","","","","","","","","","","","","","","fixation","","","","","",""
"d3-animate-choice","70","245801","0.0-61.0-0.3","3944","8813","25","Male","false","true","true","false","""event"",""trial"",""time""
""fullscreenenter"",""5"",""26607""
","
","
","""event"",""trial"",""time""
""fullscreenenter"",""5"",""26607""
","
","339.90000000596046","","49","","","3000","1","","","images/earth.jpg","images/tutrocket1","images/tutrocket2","null","images/tutrocket2","","1","practice","null","1","","",""
"d3-animate-choice","71","248980","0.0-61.0-1.3","3944","8813","25","Male","false","true","true","false","""event"",""trial"",""time""
""fullscreenenter"",""5"",""26607""
","
","
","""event"",""trial"",""time""
""fullscreenenter"",""5"",""26607""
","
","1163","","49","","","3000","1","","","images/tutyellowplanet.jpg","images/tutalien4","images/tutalien3","images/tutrocket2","images/tutalien3","images/t.png","2","practice","true","1","common","1","2023-05-02 18:13:14.504"
"two-step-fixation","72","250001","0.0-61.0-2.3","3944","8813","25","Male","false","true","true","false","""event"",""trial"",""time""
""fullscreenenter"",""5"",""26607""
","
","
","""event"",""trial"",""time""
""fullscreenenter"",""5"",""26607""
","
","","images/earth.jpg","","","","","","","","","","","","","","fixation","","","","","",""
"d3-animate-choice","73","252367","0.0-61.0-0.4","3944","8813","25","Male","false","true","true","false","""event"",""trial"",""time""
""fullscreenenter"",""5"",""26607""
","
","
","""event"",""trial"",""time""
""fullscreenenter"",""5"",""26607""
","
","361","","49","","","3000","1","","","images/earth.jpg","images/tutrocket1","images/tutrocket2","null","images/tutrocket2","","1","practice","null","1","","",""
"d3-animate-choice","74","254782","0.0-61.0-1.4","3944","8813","25","Male","false","true","true","false","""event"",""trial"",""time""
""fullscreenenter"",""5"",""26607""
","
","
","""event"",""trial"",""time""
""fullscreenenter"",""5"",""26607""
","
","404.80000001192093","","49","","","3000","1","","","images/tutyellowplanet.jpg","images/tutalien4","images/tutalien3","images/tutrocket2","images/tutalien3","images/nothing.png","2","practice","true","1","common","0","2023-05-02 18:13:20.306"
"two-step-fixation","75","255792","0.0-61.0-2.4","3944","8813","25","Male","false","true","true","false","""event"",""trial"",""time""
""fullscreenenter"",""5"",""26607""
","
","
","""event"",""trial"",""time""
""fullscreenenter"",""5"",""26607""
","
","","images/earth.jpg","","","","","","","","","","","","","","fixation","","","","","",""
"d3-animate-choice","76","257944","0.0-61.0-0.5","3944","8813","25","Male","false","true","true","false","""event"",""trial"",""time""
""fullscreenenter"",""5"",""26607""
","
","
","""event"",""trial"",""time""
""fullscreenenter"",""5"",""26607""
","
","144","","49","","","3000","1","","","images/earth.jpg","images/tutrocket1","images/tutrocket2","null","images/tutrocket2","","1","practice","null","1","","",""
"d3-animate-choice","77","260665","0.0-61.0-1.5","3944","8813","25","Male","false","true","true","false","""event"",""trial"",""time""
""fullscreenenter"",""5"",""26607""
","
","
","""event"",""trial"",""time""
""fullscreenenter"",""5"",""26607""
","
","712.5","","49","","","3000","1","","","images/tutyellowplanet.jpg","images/tutalien4","images/tutalien3","images/tutrocket2","images/tutalien3","images/nothing.png","2","practice","true","1","common","0","2023-05-02 18:13:26.189"
"two-step-fixation","78","261673","0.0-61.0-2.5","3944","8813","25","Male","false","true","true","false","""event"",""trial"",""time""
""fullscreenenter"",""5"",""26607""
","
","
","""event"",""trial"",""time""
""fullscreenenter"",""5"",""26607""
","
","","images/earth.jpg","","","","","","","","","","","","","","fixation","","","","","",""
"d3-animate-choice","79","263744","0.0-61.0-0.6","3944","8813","25","Male","false","true","true","false","""event"",""trial"",""time""
""fullscreenenter"",""5"",""26607""
","
","
","""event"",""trial"",""time""
""fullscreenenter"",""5"",""26607""
","
","62.29999998211861","","49","","","3000","1","","","images/earth.jpg","images/tutrocket1","images/tutrocket2","null","images/tutrocket2","","1","practice","null","1","","",""
"d3-animate-choice","80","267257","0.0-61.0-1.6","3944","8813","25","Male","false","true","true","false","""event"",""trial"",""time""
""fullscreenenter"",""5"",""26607""
","
","
","""event"",""trial"",""time""
""fullscreenenter"",""5"",""26607""
","
","1505.8999999761581","","48","","","3000","1","","","images/tutgreenplanet.jpg","images/tutalien2","images/tutalien1","images/tutrocket2","images/tutalien2","images/nothing.png","2","practice","false","2","rare","0","2023-05-02 18:13:32.781"
"two-step-fixation","81","268261","0.0-61.0-2.6","3944","8813","25","Male","false","true","true","false","""event"",""trial"",""time""
""fullscreenenter"",""5"",""26607""
","
","
","""event"",""trial"",""time""
""fullscreenenter"",""5"",""26607""
","
","","images/earth.jpg","","","","","","","","","","","","","","fixation","","","","","",""
"d3-animate-choice","82","270339","0.0-61.0-0.7","3944","8813","25","Male","false","true","true","false","""event"",""trial"",""time""
""fullscreenenter"",""5"",""26607""
","
","
","""event"",""trial"",""time""
""fullscreenenter"",""5"",""26607""
","
","74.80000001192093","","49","","","3000","1","","","images/earth.jpg","images/tutrocket1","images/tutrocket2","null","images/tutrocket2","","1","practice","null","1","","",""
"d3-animate-choice","83","272791","0.0-61.0-1.7","3944","8813","25","Male","false","true","true","false","""event"",""trial"",""time""
""fullscreenenter"",""5"",""26607""
","
","
","""event"",""trial"",""time""
""fullscreenenter"",""5"",""26607""
","
","444.40000000596046","","49","","","3000","1","","","images/tutgreenplanet.jpg","images/tutalien2","images/tutalien1","images/tutrocket2","images/tutalien1","images/t.png","2","practice","false","1","rare","1","2023-05-02 18:13:38.315"
"two-step-fixation","84","273796","0.0-61.0-2.7","3944","8813","25","Male","false","true","true","false","""event"",""trial"",""time""
""fullscreenenter"",""5"",""26607""
","
","
","""event"",""trial"",""time""
""fullscreenenter"",""5"",""26607""
","
","","images/earth.jpg","","","","","","","","","","","","","","fixation","","","","","",""
"d3-animate-choice","85","276078","0.0-61.0-0.8","3944","8813","25","Male","false","true","true","false","""event"",""trial"",""time""
""fullscreenenter"",""5"",""26607""
","
","
","""event"",""trial"",""time""
""fullscreenenter"",""5"",""26607""
","
","273.7000000178814","","49","","","3000","1","","","images/earth.jpg","images/tutrocket1","images/tutrocket2","null","images/tutrocket2","","1","practice","null","1","","",""
"d3-animate-choice","86","278515","0.0-61.0-1.8","3944","8813","25","Male","false","true","true","false","""event"",""trial"",""time""
""fullscreenenter"",""5"",""26607""
","
","
","""event"",""trial"",""time""
""fullscreenenter"",""5"",""26607""
","
","429.19999998807907","","49","","","3000","1","","","images/tutyellowplanet.jpg","images/tutalien4","images/tutalien3","images/tutrocket2","images/tutalien3","images/nothing.png","2","practice","true","1","common","0","2023-05-02 18:13:44.039"
"two-step-fixation","87","279523","0.0-61.0-2.8","3944","8813","25","Male","false","true","true","false","""event"",""trial"",""time""
""fullscreenenter"",""5"",""26607""
","
","
","""event"",""trial"",""time""
""fullscreenenter"",""5"",""26607""
","
","","images/earth.jpg","","","","","","","","","","","","","","fixation","","","","","",""
"d3-animate-choice","88","281877","0.0-61.0-0.9","3944","8813","25","Male","false","true","true","false","""event"",""trial"",""time""
""fullscreenenter"",""5"",""26607""
","
","
","""event"",""trial"",""time""
""fullscreenenter"",""5"",""26607""
","
","348.7000000178814","","49","","","3000","1","","","images/earth.jpg","images/tutrocket1","images/tutrocket2","null","images/tutrocket2","","1","practice","null","1","","",""
"d3-animate-choice","89","285010","0.0-61.0-1.9","3944","8813","25","Male","false","true","true","false","""event"",""trial"",""time""
""fullscreenenter"",""5"",""26607""
","
","
","""event"",""trial"",""time""
""fullscreenenter"",""5"",""26607""
","
","1128.199999988079","","48","","","3000","1","","","images/tutyellowplanet.jpg","images/tutalien4","images/tutalien3","images/tutrocket2","images/tutalien4","images/t.png","2","practice","true","2","common","1","2023-05-02 18:13:50.534"
"two-step-fixation","90","286016","0.0-61.0-2.9","3944","8813","25","Male","false","true","true","false","""event"",""trial"",""time""
""fullscreenenter"",""5"",""26607""
","
","
","""event"",""trial"",""time""
""fullscreenenter"",""5"",""26607""
","
","","images/earth.jpg","","","","","","","","","","","","","","fixation","","","","","",""
"d3-animate-choice","91","288253","0.0-61.0-0.10","3944","8813","25","Male","false","true","true","false","""event"",""trial"",""time""
""fullscreenenter"",""5"",""26607""
","
","
","""event"",""trial"",""time""
""fullscreenenter"",""5"",""26607""
","
","229","","49","","","3000","1","","","images/earth.jpg","images/tutrocket1","images/tutrocket2","null","images/tutrocket2","","1","practice","null","1","","",""
"d3-animate-choice","92","291506","0.0-61.0-1.10","3944","8813","25","Male","false","true","true","false","""event"",""trial"",""time""
""fullscreenenter"",""5"",""26607""
","
","
","""event"",""trial"",""time""
""fullscreenenter"",""5"",""26607""
","
","1240.800000011921","","48","","","3000","1","","","images/tutyellowplanet.jpg","images/tutalien4","images/tutalien3","images/tutrocket2","images/tutalien4","images/t.png","2","practice","true","2","common","1","2023-05-02 18:13:57.030"
"two-step-fixation","93","292511","0.0-61.0-2.10","3944","8813","25","Male","false","true","true","false","""event"",""trial"",""time""
""fullscreenenter"",""5"",""26607""
","
","
","""event"",""trial"",""time""
""fullscreenenter"",""5"",""26607""
","
","","images/earth.jpg","","","","","","","","","","","","","","fixation","","","","","",""
"d3-animate-choice","94","294661","0.0-61.0-0.11","3944","8813","25","Male","false","true","true","false","""event"",""trial"",""time""
""fullscreenenter"",""5"",""26607""
","
","
","""event"",""trial"",""time""
""fullscreenenter"",""5"",""26607""
","
","144.69999998807907","","49","","","3000","1","","","images/earth.jpg","images/tutrocket1","images/tutrocket2","null","images/tutrocket2","","1","practice","null","1","","",""
"d3-animate-choice","95","297064","0.0-61.0-1.11","3944","8813","25","Male","false","true","true","false","""event"",""trial"",""time""
""fullscreenenter"",""5"",""26607""
","
","
","""event"",""trial"",""time""
""fullscreenenter"",""5"",""26607""
","
","392.5","","49","","","3000","1","","","images/tutyellowplanet.jpg","images/tutalien4","images/tutalien3","images/tutrocket2","images/tutalien3","images/t.png","2","practice","true","1","common","1","2023-05-02 18:14:02.588"
"two-step-fixation","96","298073","0.0-61.0-2.11","3944","8813","25","Male","false","true","true","false","""event"",""trial"",""time""
""fullscreenenter"",""5"",""26607""
","
","
","""event"",""trial"",""time""
""fullscreenenter"",""5"",""26607""
","
","","images/earth.jpg","","","","","","","","","","","","","","fixation","","","","","",""
"d3-animate-choice","97","300590","0.0-61.0-0.12","3944","8813","25","Male","false","true","true","false","""event"",""trial"",""time""
""fullscreenenter"",""5"",""26607""
","
","
","""event"",""trial"",""time""
""fullscreenenter"",""5"",""26607""
","
","512.0999999940395","","49","","","3000","1","","","images/earth.jpg","images/tutrocket1","images/tutrocket2","null","images/tutrocket2","","1","practice","null","1","","",""
"d3-animate-choice","98","303038","0.0-61.0-1.12","3944","8813","25","Male","false","true","true","false","""event"",""trial"",""time""
""fullscreenenter"",""5"",""26607""
","
","
","""event"",""trial"",""time""
""fullscreenenter"",""5"",""26607""
","
","437.10000002384186","","48","","","3000","1","","","images/tutyellowplanet.jpg","images/tutalien4","images/tutalien3","images/tutrocket2","images/tutalien4","images/nothing.png","2","practice","true","2","common","0","2023-05-02 18:14:08.562"
"two-step-fixation","99","304045","0.0-61.0-2.12","3944","8813","25","Male","false","true","true","false","""event"",""trial"",""time""
""fullscreenenter"",""5"",""26607""
","
","
","""event"",""trial"",""time""
""fullscreenenter"",""5"",""26607""
","
","","images/earth.jpg","","","","","","","","","","","","","","fixation","","","","","",""
"d3-animate-choice","100","306268","0.0-61.0-0.13","3944","8813","25","Male","false","true","true","false","""event"",""trial"",""time""
""fullscreenenter"",""5"",""26607""
","
","
","""event"",""trial"",""time""
""fullscreenenter"",""5"",""26607""
","
","217.09999999403954","","49","","","3000","1","","","images/earth.jpg","images/tutrocket1","images/tutrocket2","null","images/tutrocket2","","1","practice","null","1","","",""
"d3-animate-choice","101","308661","0.0-61.0-1.13","3944","8813","25","Male","false","true","true","false","""event"",""trial"",""time""
""fullscreenenter"",""5"",""26607""
","
","
","""event"",""trial"",""time""
""fullscreenenter"",""5"",""26607""
","
","385.80000001192093","","48","","","3000","1","","","images/tutyellowplanet.jpg","images/tutalien4","images/tutalien3","images/tutrocket2","images/tutalien4","images/nothing.png","2","practice","true","2","common","0","2023-05-02 18:14:14.186"
"two-step-fixation","102","309669","0.0-61.0-2.13","3944","8813","25","Male","false","true","true","false","""event"",""trial"",""time""
""fullscreenenter"",""5"",""26607""
","
","
","""event"",""trial"",""time""
""fullscreenenter"",""5"",""26607""
","
","","images/earth.jpg","","","","","","","","","","","","","","fixation","","","","","",""
"d3-animate-choice","103","312035","0.0-61.0-0.14","3944","8813","25","Male","false","true","true","false","""event"",""trial"",""time""
""fullscreenenter"",""5"",""26607""
","
","
","""event"",""trial"",""time""
""fullscreenenter"",""5"",""26607""
","
","356.69999998807907","","48","","","3000","1","","","images/earth.jpg","images/tutrocket1","images/tutrocket2","null","images/tutrocket1","","1","practice","null","2","","",""
"d3-animate-choice","104","314903","0.0-61.0-1.14","3944","8813","25","Male","false","true","true","false","""event"",""trial"",""time""
""fullscreenenter"",""5"",""26607""
","
","
","""event"",""trial"",""time""
""fullscreenenter"",""5"",""26607""
","
","859.1000000238419","","49","","","3000","1","","","images/tutgreenplanet.jpg","images/tutalien2","images/tutalien1","images/tutrocket1","images/tutalien1","images/t.png","2","practice","true","1","common","1","2023-05-02 18:14:20.427"
"two-step-fixation","105","315911","0.0-61.0-2.14","3944","8813","25","Male","false","true","true","false","""event"",""trial"",""time""
""fullscreenenter"",""5"",""26607""
","
","
","""event"",""trial"",""time""
""fullscreenenter"",""5"",""26607""
","
","","images/earth.jpg","","","","","","","","","","","","","","fixation","","","","","",""
"d3-animate-choice","106","318147","0.0-61.0-0.15","3944","8813","25","Male","false","true","true","false","""event"",""trial"",""time""
""fullscreenenter"",""5"",""26607""
","
","
","""event"",""trial"",""time""
""fullscreenenter"",""5"",""26607""
","
","227.80000001192093","","48","","","3000","1","","","images/earth.jpg","images/tutrocket1","images/tutrocket2","null","images/tutrocket1","","1","practice","null","2","","",""
"d3-animate-choice","107","320408","0.0-61.0-1.15","3944","8813","25","Male","false","true","true","false","""event"",""trial"",""time""
""fullscreenenter"",""5"",""26607""
","
","
","""event"",""trial"",""time""
""fullscreenenter"",""5"",""26607""
","
","253.59999999403954","","49","","","3000","1","","","images/tutgreenplanet.jpg","images/tutalien2","images/tutalien1","images/tutrocket1","images/tutalien1","images/nothing.png","2","practice","true","1","common","0","2023-05-02 18:14:25.932"
"two-step-fixation","108","321416","0.0-61.0-2.15","3944","8813","25","Male","false","true","true","false","""event"",""trial"",""time""
""fullscreenenter"",""5"",""26607""
","
","
","""event"",""trial"",""time""
""fullscreenenter"",""5"",""26607""
","
","","images/earth.jpg","","","","","","","","","","","","","","fixation","","","","","",""
"d3-animate-choice","109","323558","0.0-61.0-0.16","3944","8813","25","Male","false","true","true","false","""event"",""trial"",""time""
""fullscreenenter"",""5"",""26607""
","
","
","""event"",""trial"",""time""
""fullscreenenter"",""5"",""26607""
","
","138.89999997615814","","48","","","3000","1","","","images/earth.jpg","images/tutrocket1","images/tutrocket2","null","images/tutrocket1","","1","practice","null","2","","",""
"d3-animate-choice","110","325845","0.0-61.0-1.16","3944","8813","25","Male","false","true","true","false","""event"",""trial"",""time""
""fullscreenenter"",""5"",""26607""
","
","
","""event"",""trial"",""time""
""fullscreenenter"",""5"",""26607""
","
","280.09999999403954","","49","","","3000","1","","","images/tutgreenplanet.jpg","images/tutalien2","images/tutalien1","images/tutrocket1","images/tutalien1","images/t.png","2","practice","true","1","common","1","2023-05-02 18:14:31.369"
"two-step-fixation","111","326854","0.0-61.0-2.16","3944","8813","25","Male","false","true","true","false","""event"",""trial"",""time""
""fullscreenenter"",""5"",""26607""
","
","
","""event"",""trial"",""time""
""fullscreenenter"",""5"",""26607""
","
","","images/earth.jpg","","","","","","","","","","","","","","fixation","","","","","",""
"d3-animate-choice","112","329208","0.0-61.0-0.17","3944","8813","25","Male","false","true","true","false","""event"",""trial"",""time""
""fullscreenenter"",""5"",""26607""
","
","
","""event"",""trial"",""time""
""fullscreenenter"",""5"",""26607""
","
","349.19999998807907","","48","","","3000","1","","","images/earth.jpg","images/tutrocket1","images/tutrocket2","null","images/tutrocket1","","1","practice","null","2","","",""
"d3-animate-choice","113","331503","0.0-61.0-1.17","3944","8813","25","Male","false","true","true","false","""event"",""trial"",""time""
""fullscreenenter"",""5"",""26607""
","
","
","""event"",""trial"",""time""
""fullscreenenter"",""5"",""26607""
","
","290.09999999403954","","49","","","3000","1","","","images/tutgreenplanet.jpg","images/tutalien2","images/tutalien1","images/tutrocket1","images/tutalien1","images/nothing.png","2","practice","true","1","common","0","2023-05-02 18:14:37.027"
"two-step-fixation","114","332511","0.0-61.0-2.17","3944","8813","25","Male","false","true","true","false","""event"",""trial"",""time""
""fullscreenenter"",""5"",""26607""
","
","
","""event"",""trial"",""time""
""fullscreenenter"",""5"",""26607""
","
","","images/earth.jpg","","","","","","","","","","","","","","fixation","","","","","",""
"d3-animate-choice","115","334909","0.0-61.0-0.18","3944","8813","25","Male","false","true","true","false","""event"",""trial"",""time""
""fullscreenenter"",""5"",""26607""
","
","
","""event"",""trial"",""time""
""fullscreenenter"",""5"",""26607""
","
","394.30000001192093","","48","","","3000","1","","","images/earth.jpg","images/tutrocket1","images/tutrocket2","null","images/tutrocket1","","1","practice","null","2","","",""
"d3-animate-choice","116","337448","0.0-61.0-1.18","3944","8813","25","Male","false","true","true","false","""event"",""trial"",""time""
""fullscreenenter"",""5"",""26607""
","
","
","""event"",""trial"",""time""
""fullscreenenter"",""5"",""26607""
","
","535.8000000119209","","49","","","3000","1","","","images/tutgreenplanet.jpg","images/tutalien2","images/tutalien1","images/tutrocket1","images/tutalien1","images/nothing.png","2","practice","true","1","common","0","2023-05-02 18:14:42.973"
"two-step-fixation","117","338457","0.0-61.0-2.18","3944","8813","25","Male","false","true","true","false","""event"",""trial"",""time""
""fullscreenenter"",""5"",""26607""
","
","
","""event"",""trial"",""time""
""fullscreenenter"",""5"",""26607""
","
","","images/earth.jpg","","","","","","","","","","","","","","fixation","","","","","",""
"d3-animate-choice","118","340551","0.0-61.0-0.19","3944","8813","25","Male","false","true","true","false","""event"",""trial"",""time""
""fullscreenenter"",""5"",""26607""
","
","
","""event"",""trial"",""time""
""fullscreenenter"",""5"",""26607""
","
","87","","48","","","3000","1","","","images/earth.jpg","images/tutrocket1","images/tutrocket2","null","images/tutrocket1","","1","practice","null","2","","",""
"d3-animate-choice","119","342961","0.0-61.0-1.19","3944","8813","25","Male","false","true","true","false","""event"",""trial"",""time""
""fullscreenenter"",""5"",""26607""
","
","
","""event"",""trial"",""time""
""fullscreenenter"",""5"",""26607""
","
","400.19999998807907","","49","","","3000","1","","","images/tutgreenplanet.jpg","images/tutalien2","images/tutalien1","images/tutrocket1","images/tutalien1","images/t.png","2","practice","true","1","common","1","2023-05-02 18:14:48.485"
"two-step-fixation","120","343963","0.0-61.0-2.19","3944","8813","25","Male","false","true","true","false","""event"",""trial"",""time""
""fullscreenenter"",""5"",""26607""
","
","
","""event"",""trial"",""time""
""fullscreenenter"",""5"",""26607""
","
","","images/earth.jpg","","","","","","","","","","","","","","fixation","","","","","",""
"d3-instructions","121","347974","0.0-62.0","3944","8813","25","Male","false","true","true","false","""event"",""trial"",""time""
""fullscreenenter"",""5"",""26607""
","
","
","""event"",""trial"",""time""
""fullscreenenter"",""5"",""26607""
","
","","","","","","","","","","","","","","","","","","","","","",""
"audio-keyboard-response","122","349404","0.0-63.0","3944","8813","25","Male","false","true","true","false","""event"",""trial"",""time""
""fullscreenenter"",""5"",""26607""
","
","
","""event"",""trial"",""time""
""fullscreenenter"",""5"",""26607""
","
","1429","audio/instructions/treasure_feedback.wav","32","","","","","","","","","","","","","","","","","","",""
"d3-instructions","123","355587","0.0-64.0","3944","8813","25","Male","false","true","true","false","""event"",""trial"",""time""
""fullscreenenter"",""5"",""26607""
","
","
","""event"",""trial"",""time""
""fullscreenenter"",""5"",""26607""
","
","","","","","","","","","","","","","","","","","","","","","",""
"d3-instructions","124","359047","0.0-65.0","3944","8813","25","Male","false","true","true","false","""event"",""trial"",""time""
""fullscreenenter"",""5"",""26607""
","
","
","""event"",""trial"",""time""
""fullscreenenter"",""5"",""26607""
","
","","","","","","","","","","","","","","","","","","","","","",""
"d3-instructions","125","365460","0.0-66.0","3944","8813","25","Male","false","true","true","false","""event"",""trial"",""time""
""fullscreenenter"",""5"",""26607""
","
","
","""event"",""trial"",""time""
""fullscreenenter"",""5"",""26607""
","
","","","","","","","","","","","","","","","","","","","","","",""
"d3-instructions","126","401911","0.0-67.0","3944","8813","25","Male","false","true","true","false","""event"",""trial"",""time""
""fullscreenenter"",""5"",""26607""
","
","
","""event"",""trial"",""time""
""fullscreenenter"",""5"",""26607""
","
","","","","","","","","","","","","","","","","","","","","","",""
"d3-instructions","127","407060","0.0-68.0","3944","8813","25","Male","false","true","true","false","""event"",""trial"",""time""
""fullscreenenter"",""5"",""26607""
","
","
","""event"",""trial"",""time""
""fullscreenenter"",""5"",""26607""
","
","","","","","","","","","","","","","","","","","","","","","",""
"instructions-quiz","128","408734","0.0-69.0","3944","8813","25","Male","false","true","true","false","""event"",""trial"",""time""
""fullscreenenter"",""5"",""26607""
","
","
","""event"",""trial"",""time""
""fullscreenenter"",""5"",""26607""
","
","1672.699999988079","audio/quiz/Q1_Prompt.wav","","1","","","","","","","","","","","","","","","","","",""
"audio-keyboard-response","129","410029","0.0-70.0","3944","8813","25","Male","false","true","true","false","""event"",""trial"",""time""
""fullscreenenter"",""5"",""26607""
","
","
","""event"",""trial"",""time""
""fullscreenenter"",""5"",""26607""
","
","1291","audio/quiz/Q1_Correct.wav","32","","","","","","","","","","","","","","","","","","",""
"instructions-quiz","130","413377","0.0-71.0","3944","8813","25","Male","false","true","true","false","""event"",""trial"",""time""
""fullscreenenter"",""5"",""26607""
","
","
","""event"",""trial"",""time""
""fullscreenenter"",""5"",""26607""
","
","3345.699999988079","audio/quiz/Q2_Prompt.wav","","0","","","","","","","","","","","","","","","","","",""
"audio-keyboard-response","131","414066","0.0-72.0","3944","8813","25","Male","false","true","true","false","""event"",""trial"",""time""
""fullscreenenter"",""5"",""26607""
","
","
","""event"",""trial"",""time""
""fullscreenenter"",""5"",""26607""
","
","683","audio/quiz/Q2_Correct.wav","32","","","","","","","","","","","","","","","","","","",""
"instructions-quiz","132","415790","0.0-73.0","3944","8813","25","Male","false","true","true","false","""event"",""trial"",""time""
""fullscreenenter"",""5"",""26607""
","
","
","""event"",""trial"",""time""
""fullscreenenter"",""5"",""26607""
","
","1722.300000011921","audio/quiz/Q3_Prompt.wav","","1","","","","","","","","","","","","","","","","","",""
"audio-keyboard-response","133","416419","0.0-74.0","3944","8813","25","Male","false","true","true","false","""event"",""trial"",""time""
""fullscreenenter"",""5"",""26607""
","
","
","""event"",""trial"",""time""
""fullscreenenter"",""5"",""26607""
","
","629","audio/quiz/Q3_Correct.wav","32","","","","","","","","","","","","","","","","","","",""
"d3-instructions","134","418830","0.0-75.0","3944","8813","25","Male","false","true","true","false","""event"",""trial"",""time""
""fullscreenenter"",""5"",""26607""
","
","
","""event"",""trial"",""time""
""fullscreenenter"",""5"",""26607""
","
","","","","","","","","","","","","","","","","","","","","","",""
"pavlovia","135","418832","0.0-76.0","3944","8813","25","Male","false","true","true","false","""event"",""trial"",""time""
""fullscreenenter"",""5"",""26607""
","
","
","""event"",""trial"",""time""
""fullscreenenter"",""5"",""26607""
","
","","","","","","","","","","","","","","","","","","","","","",""
"d3-animate-choice","136","421890","0.0-77.0-0.0","3944","8813","25","Male","false","true","true","false","""event"",""trial"",""time""
""fullscreenenter"",""5"",""26607""
","
","
","""event"",""trial"",""time""
""fullscreenenter"",""5"",""26607""
","
","1049.199999988079","","49","","","3000","1","","","images/earth.jpg","images/rocket1","images/rocket2","null","images/rocket2","","1","real","null","1","","",""
"d3-animate-choice","137","424442","0.0-77.0-1.0","3944","8813","25","Male","false","true","true","false","""event"",""trial"",""time""
""fullscreenenter"",""5"",""26607""
","
","
","""event"",""trial"",""time""
""fullscreenenter"",""5"",""26607""
","
","547.3000000119209","","49","","","3000","1","","","images/purpleplanet.jpg","images/alien4","images/alien3","images/rocket2","images/alien3","images/nothing.png","2","real","true","1","common","0","2023-05-02 18:16:09.966"
"two-step-fixation","138","425446","0.0-77.0-2.0","3944","8813","25","Male","false","true","true","false","""event"",""trial"",""time""
""fullscreenenter"",""5"",""26607""
","
","
","""event"",""trial"",""time""
""fullscreenenter"",""5"",""26607""
","
","","images/earth.jpg","","","","","","","","","","","","","","fixation","","","","","",""
"d3-animate-choice","139","427794","0.0-77.0-0.1","3944","8813","25","Male","false","true","true","false","""event"",""trial"",""time""
""fullscreenenter"",""5"",""26607""
","
","
","""event"",""trial"",""time""
""fullscreenenter"",""5"",""26607""
","
","342","","49","","","3000","1","","","images/earth.jpg","images/rocket1","images/rocket2","null","images/rocket2","","1","real","null","1","","",""
"d3-animate-choice","140","430113","0.0-77.0-1.1","3944","8813","25","Male","false","true","true","false","""event"",""trial"",""time""
""fullscreenenter"",""5"",""26607""
","
","
","""event"",""trial"",""time""
""fullscreenenter"",""5"",""26607""
","
","308.40000000596046","","48","","","3000","1","","","images/purpleplanet.jpg","images/alien4","images/alien3","images/rocket2","images/alien4","images/t.png","2","real","true","2","common","1","2023-05-02 18:16:15.637"
"two-step-fixation","141","431122","0.0-77.0-2.1","3944","8813","25","Male","false","true","true","false","""event"",""trial"",""time""
""fullscreenenter"",""5"",""26607""
","
","
","""event"",""trial"",""time""
""fullscreenenter"",""5"",""26607""
","
","","images/earth.jpg","","","","","","","","","","","","","","fixation","","","","","",""
"d3-animate-choice","142","433355","0.0-77.0-0.2","3944","8813","25","Male","false","true","true","false","""event"",""trial"",""time""
""fullscreenenter"",""5"",""26607""
","
","
","""event"",""trial"",""time""
""fullscreenenter"",""5"",""26607""
","
","227.2000000178814","","49","","","3000","1","","","images/earth.jpg","images/rocket1","images/rocket2","null","images/rocket2","","1","real","null","1","","",""
"d3-animate-choice","143","436636","0.0-77.0-1.2","3944","8813","25","Male","false","true","true","false","""event"",""trial"",""time""
""fullscreenenter"",""5"",""26607""
","
","
","""event"",""trial"",""time""
""fullscreenenter"",""5"",""26607""
","
","1274.199999988079","","49","","","3000","1","","","images/redplanet1.jpg","images/alien2","images/alien1","images/rocket2","images/alien1","images/nothing.png","2","real","false","1","rare","0","2023-05-02 18:16:22.161"
"two-step-fixation","144","437646","0.0-77.0-2.2","3944","8813","25","Male","false","true","true","false","""event"",""trial"",""time""
""fullscreenenter"",""5"",""26607""
","
","
","""event"",""trial"",""time""
""fullscreenenter"",""5"",""26607""
","
","","images/earth.jpg","","","","","","","","","","","","","","fixation","","","","","",""
"d3-animate-choice","145","439890","0.0-77.0-0.3","3944","8813","25","Male","false","true","true","false","""event"",""trial"",""time""
""fullscreenenter"",""5"",""26607""
","
","
","""event"",""trial"",""time""
""fullscreenenter"",""5"",""26607""
","
","237.69999998807907","","49","","","3000","1","","","images/earth.jpg","images/rocket1","images/rocket2","null","images/rocket2","","1","real","null","1","","",""
"d3-animate-choice","146","442385","0.0-77.0-1.3","3944","8813","25","Male","false","true","true","false","""event"",""trial"",""time""
""fullscreenenter"",""5"",""26607""
","
","
","""event"",""trial"",""time""
""fullscreenenter"",""5"",""26607""
","
","484.59999999403954","","48","","","3000","1","","","images/purpleplanet.jpg","images/alien4","images/alien3","images/rocket2","images/alien4","images/nothing.png","2","real","true","2","common","0","2023-05-02 18:16:27.909"
"two-step-fixation","147","443396","0.0-77.0-2.3","3944","8813","25","Male","false","true","true","false","""event"",""trial"",""time""
""fullscreenenter"",""5"",""26607""
","
","
","""event"",""trial"",""time""
""fullscreenenter"",""5"",""26607""
","
","","images/earth.jpg","","","","","","","","","","","","","","fixation","","","","","",""
"d3-animate-choice","148","445597","0.0-77.0-0.4","3944","8813","25","Male","false","true","true","false","""event"",""trial"",""time""
""fullscreenenter"",""5"",""26607""
","
","
","""event"",""trial"",""time""
""fullscreenenter"",""5"",""26607""
","
","186.09999999403954","","49","","","3000","1","","","images/earth.jpg","images/rocket1","images/rocket2","null","images/rocket2","","1","real","null","1","","",""
"d3-animate-choice","149","448008","0.0-77.0-1.4","3944","8813","25","Male","false","true","true","false","""event"",""trial"",""time""
""fullscreenenter"",""5"",""26607""
","
","
","""event"",""trial"",""time""
""fullscreenenter"",""5"",""26607""
","
","407.09999999403954","","48","","","3000","1","","","images/purpleplanet.jpg","images/alien4","images/alien3","images/rocket2","images/alien4","images/t.png","2","real","true","2","common","1","2023-05-02 18:16:33.532"
"two-step-fixation","150","449019","0.0-77.0-2.4","3944","8813","25","Male","false","true","true","false","""event"",""trial"",""time""
""fullscreenenter"",""5"",""26607""
","
","
","""event"",""trial"",""time""
""fullscreenenter"",""5"",""26607""
","
","","images/earth.jpg","","","","","","","","","","","","","","fixation","","","","","",""
"d3-animate-choice","151","451310","0.0-77.0-0.5","3944","8813","25","Male","false","true","true","false","""event"",""trial"",""time""
""fullscreenenter"",""5"",""26607""
","
","
","""event"",""trial"",""time""
""fullscreenenter"",""5"",""26607""
","
","283.90000000596046","","49","","","3000","1","","","images/earth.jpg","images/rocket1","images/rocket2","null","images/rocket2","","1","real","null","1","","",""
"d3-animate-choice","152","453686","0.0-77.0-1.5","3944","8813","25","Male","false","true","true","false","""event"",""trial"",""time""
""fullscreenenter"",""5"",""26607""
","
","
","""event"",""trial"",""time""
""fullscreenenter"",""5"",""26607""
","
","369","","48","","","3000","1","","","images/purpleplanet.jpg","images/alien4","images/alien3","images/rocket2","images/alien4","images/nothing.png","2","real","true","2","common","0","2023-05-02 18:16:39.210"
"two-step-fixation","153","454691","0.0-77.0-2.5","3944","8813","25","Male","false","true","true","false","""event"",""trial"",""time""
""fullscreenenter"",""5"",""26607""
","
","
","""event"",""trial"",""time""
""fullscreenenter"",""5"",""26607""
","
","","images/earth.jpg","","","","","","","","","","","","","","fixation","","","","","",""
"d3-animate-choice","154","456705","0.0-77.0-0.6","3944","8813","25","Male","false","true","true","false","""event"",""trial"",""time""
""fullscreenenter"",""5"",""26607""
","
","
","""event"",""trial"",""time""
""fullscreenenter"",""5"",""26607""
","
","5.5","","48","","","3000","1","","","images/earth.jpg","images/rocket1","images/rocket2","null","images/rocket1","","1","real","null","2","","",""
"d3-animate-choice","155","460167","0.0-77.0-1.6","3944","8813","25","Male","false","true","true","false","""event"",""trial"",""time""
""fullscreenenter"",""5"",""26607""
","
","
","""event"",""trial"",""time""
""fullscreenenter"",""5"",""26607""
","
","1459","","49","","","3000","1","","","images/purpleplanet.jpg","images/alien4","images/alien3","images/rocket1","images/alien3","images/nothing.png","2","real","false","1","rare","0","2023-05-02 18:16:45.691"
"two-step-fixation","156","461175","0.0-77.0-2.6","3944","8813","25","Male","false","true","true","false","""event"",""trial"",""time""
""fullscreenenter"",""5"",""26607""
","
","
","""event"",""trial"",""time""
""fullscreenenter"",""5"",""26607""
","
","","images/earth.jpg","","","","","","","","","","","","","","fixation","","","","","",""
"d3-animate-choice","157","463213","0.0-77.0-0.7","3944","8813","25","Male","false","true","true","false","""event"",""trial"",""time""
""fullscreenenter"",""5"",""26607""
","
","
","""event"",""trial"",""time""
""fullscreenenter"",""5"",""26607""
","
","33.69999998807907","","48","","","3000","1","","","images/earth.jpg","images/rocket1","images/rocket2","null","images/rocket1","","1","real","null","2","","",""
"d3-animate-choice","158","465696","0.0-77.0-1.7","3944","8813","25","Male","false","true","true","false","""event"",""trial"",""time""
""fullscreenenter"",""5"",""26607""
","
","
","""event"",""trial"",""time""
""fullscreenenter"",""5"",""26607""
","
","476.19999998807907","","48","","","3000","1","","","images/redplanet1.jpg","images/alien2","images/alien1","images/rocket1","images/alien2","images/nothing.png","2","real","true","2","common","0","2023-05-02 18:16:51.220"
"two-step-fixation","159","466706","0.0-77.0-2.7","3944","8813","25","Male","false","true","true","false","""event"",""trial"",""time""
""fullscreenenter"",""5"",""26607""
","
","
","""event"",""trial"",""time""
""fullscreenenter"",""5"",""26607""
","
","","images/earth.jpg","","","","","","","","","","","","","","fixation","","","","","",""
"d3-animate-choice","160","469007","0.0-77.0-0.8","3944","8813","25","Male","false","true","true","false","""event"",""trial"",""time""
""fullscreenenter"",""5"",""26607""
","
","
","""event"",""trial"",""time""
""fullscreenenter"",""5"",""26607""
","
","290.90000000596046","","48","","","3000","1","","","images/earth.jpg","images/rocket1","images/rocket2","null","images/rocket1","","1","real","null","2","","",""
"d3-animate-choice","161","471357","0.0-77.0-1.8","3944","8813","25","Male","false","true","true","false","""event"",""trial"",""time""
""fullscreenenter"",""5"",""26607""
","
","
","""event"",""trial"",""time""
""fullscreenenter"",""5"",""26607""
","
","348.09999999403954","","49","","","3000","1","","","images/purpleplanet.jpg","images/alien4","images/alien3","images/rocket1","images/alien3","images/nothing.png","2","real","false","1","rare","0","2023-05-02 18:16:56.882"
"two-step-fixation","162","472363","0.0-77.0-2.8","3944","8813","25","Male","false","true","true","false","""event"",""trial"",""time""
""fullscreenenter"",""5"",""26607""
","
","
","""event"",""trial"",""time""
""fullscreenenter"",""5"",""26607""
","
","","images/earth.jpg","","","","","","","","","","","","","","fixation","","","","","",""
"d3-animate-choice","163","474457","0.0-77.0-0.9","3944","8813","25","Male","false","true","true","false","""event"",""trial"",""time""
""fullscreenenter"",""5"",""26607""
","
","
","""event"",""trial"",""time""
""fullscreenenter"",""5"",""26607""
","
","84.7999999821186","","48","","","3000","1","","","images/earth.jpg","images/rocket1","images/rocket2","null","images/rocket1","","1","real","null","2","","",""
"d3-animate-choice","164","476821","0.0-77.0-1.9","3944","8813","25","Male","false","true","true","false","""event"",""trial"",""time""
""fullscreenenter"",""5"",""26607""
","
","
","""event"",""trial"",""time""
""fullscreenenter"",""5"",""26607""
","
","355.80000001192093","","49","","","3000","1","","","images/redplanet1.jpg","images/alien2","images/alien1","images/rocket1","images/alien1","images/t.png","2","real","true","1","common","1","2023-05-02 18:17:02.345"
"two-step-fixation","165","477827","0.0-77.0-2.9","3944","8813","25","Male","false","true","true","false","""event"",""trial"",""time""
""fullscreenenter"",""5"",""26607""
","
","
","""event"",""trial"",""time""
""fullscreenenter"",""5"",""26607""
","
","","images/earth.jpg","","","","","","","","","","","","","","fixation","","","","","",""
"d3-animate-choice","166","480150","0.0-77.0-0.10","3944","8813","25","Male","false","true","true","false","""event"",""trial"",""time""
""fullscreenenter"",""5"",""26607""
","
","
","""event"",""trial"",""time""
""fullscreenenter"",""5"",""26607""
","
","319.40000000596046","","48","","","3000","1","","","images/earth.jpg","images/rocket1","images/rocket2","null","images/rocket1","","1","real","null","2","","",""
"d3-animate-choice","167","482554","0.0-77.0-1.10","3944","8813","25","Male","false","true","true","false","""event"",""trial"",""time""
""fullscreenenter"",""5"",""26607""
","
","
","""event"",""trial"",""time""
""fullscreenenter"",""5"",""26607""
","
","400.7000000178814","","49","","","3000","1","","","images/redplanet1.jpg","images/alien2","images/alien1","images/rocket1","images/alien1","images/nothing.png","2","real","true","1","common","0","2023-05-02 18:17:08.079"
"two-step-fixation","168","483559","0.0-77.0-2.10","3944","8813","25","Male","false","true","true","false","""event"",""trial"",""time""
""fullscreenenter"",""5"",""26607""
","
","
","""event"",""trial"",""time""
""fullscreenenter"",""5"",""26607""
","
","","images/earth.jpg","","","","","","","","","","","","","","fixation","","","","","",""
"d3-animate-choice","169","485721","0.0-77.0-0.11","3944","8813","25","Male","false","true","true","false","""event"",""trial"",""time""
""fullscreenenter"",""5"",""26607""
","
","
","""event"",""trial"",""time""
""fullscreenenter"",""5"",""26607""
","
","156.5","","48","","","3000","1","","","images/earth.jpg","images/rocket1","images/rocket2","null","images/rocket1","","1","real","null","2","","",""
"d3-animate-choice","170","488033","0.0-77.0-1.11","3944","8813","25","Male","false","true","true","false","""event"",""trial"",""time""
""fullscreenenter"",""5"",""26607""
","
","
","""event"",""trial"",""time""
""fullscreenenter"",""5"",""26607""
","
","307.90000000596046","","49","","","3000","1","","","images/redplanet1.jpg","images/alien2","images/alien1","images/rocket1","images/alien1","images/nothing.png","2","real","true","1","common","0","2023-05-02 18:17:13.557"
"two-step-fixation","171","489037","0.0-77.0-2.11","3944","8813","25","Male","false","true","true","false","""event"",""trial"",""time""
""fullscreenenter"",""5"",""26607""
","
","
","""event"",""trial"",""time""
""fullscreenenter"",""5"",""26607""
","
","","images/earth.jpg","","","","","","","","","","","","","","fixation","","","","","",""
"d3-animate-choice","172","491097","0.0-77.0-0.12","3944","8813","25","Male","false","true","true","false","""event"",""trial"",""time""
""fullscreenenter"",""5"",""26607""
","
","
","""event"",""trial"",""time""
""fullscreenenter"",""5"",""26607""
","
","51.89999997615814","","49","","","3000","1","","","images/earth.jpg","images/rocket1","images/rocket2","null","images/rocket2","","1","real","null","1","","",""
"d3-animate-choice","173","493591","0.0-77.0-1.12","3944","8813","25","Male","false","true","true","false","""event"",""trial"",""time""
""fullscreenenter"",""5"",""26607""
","
","
","""event"",""trial"",""time""
""fullscreenenter"",""5"",""26607""
","
","482.19999998807907","","48","","","3000","1","","","images/purpleplanet.jpg","images/alien4","images/alien3","images/rocket2","images/alien4","images/t.png","2","real","true","2","common","1","2023-05-02 18:17:19.115"
"two-step-fixation","174","494600","0.0-77.0-2.12","3944","8813","25","Male","false","true","true","false","""event"",""trial"",""time""
""fullscreenenter"",""5"",""26607""
","
","
","""event"",""trial"",""time""
""fullscreenenter"",""5"",""26607""
","
","","images/earth.jpg","","","","","","","","","","","","","","fixation","","","","","",""
"d3-animate-choice","175","496983","0.0-77.0-0.13","3944","8813","25","Male","false","true","true","false","""event"",""trial"",""time""
""fullscreenenter"",""5"",""26607""
","
","
","""event"",""trial"",""time""
""fullscreenenter"",""5"",""26607""
","
","372.69999998807907","","49","","","3000","1","","","images/earth.jpg","images/rocket1","images/rocket2","null","images/rocket2","","1","real","null","1","","",""
"d3-animate-choice","176","499050","0.0-77.0-1.13","3944","8813","25","Male","false","true","true","false","""event"",""trial"",""time""
""fullscreenenter"",""5"",""26607""
","
","
","""event"",""trial"",""time""
""fullscreenenter"",""5"",""26607""
","
","62.30000001192093","","48","","","3000","1","","","images/purpleplanet.jpg","images/alien4","images/alien3","images/rocket2","images/alien4","images/t.png","2","real","true","2","common","1","2023-05-02 18:17:24.574"
"two-step-fixation","177","500060","0.0-77.0-2.13","3944","8813","25","Male","false","true","true","false","""event"",""trial"",""time""
""fullscreenenter"",""5"",""26607""
","
","
","""event"",""trial"",""time""
""fullscreenenter"",""5"",""26607""
","
","","images/earth.jpg","","","","","","","","","","","","","","fixation","","","","","",""
"d3-animate-choice","178","502346","0.0-77.0-0.14","3944","8813","25","Male","false","true","true","false","""event"",""trial"",""time""
""fullscreenenter"",""5"",""26607""
","
","
","""event"",""trial"",""time""
""fullscreenenter"",""5"",""26607""
","
","283.2000000178814","","49","","","3000","1","2160.5","48","images/earth.jpg","images/rocket1","images/rocket2","null","images/rocket2","","1","real","null","1","","",""
"d3-animate-choice","179","505930","0.0-77.0-1.14","3944","8813","25","Male","false","true","true","false","""event"",""trial"",""time""
""fullscreenenter"",""5"",""26607""
","
","
","""event"",""trial"",""time""
""fullscreenenter"",""5"",""26607""
","
","1576.0999999940395","","48","","","3000","1","","","images/redplanet1.jpg","images/alien2","images/alien1","images/rocket2","images/alien2","images/nothing.png","2","real","false","2","rare","0","2023-05-02 18:17:31.454"
"two-step-fixation","180","506937","0.0-77.0-2.14","3944","8813","25","Male","false","true","true","false","""event"",""trial"",""time""
""fullscreenenter"",""5"",""26607""
","
","
","""event"",""trial"",""time""
""fullscreenenter"",""5"",""26607""
","
","","images/earth.jpg","","","","","","","","","","","","","","fixation","","","","","",""
"d3-animate-choice","181","509163","0.0-77.0-0.15","3944","8813","25","Male","false","true","true","false","""event"",""trial"",""time""
""fullscreenenter"",""5"",""26607""
","
","
","""event"",""trial"",""time""
""fullscreenenter"",""5"",""26607""
","
","222.09999999403954","","49","","","3000","1","","","images/earth.jpg","images/rocket1","images/rocket2","null","images/rocket2","","1","real","null","1","","",""
"d3-animate-choice","182","511400","0.0-77.0-1.15","3944","8813","25","Male","false","true","true","false","""event"",""trial"",""time""
""fullscreenenter"",""5"",""26607""
","
","
","""event"",""trial"",""time""
""fullscreenenter"",""5"",""26607""
","
","230.59999999403954","","48","","","3000","1","","","images/redplanet1.jpg","images/alien2","images/alien1","images/rocket2","images/alien2","images/t.png","2","real","false","2","rare","1","2023-05-02 18:17:36.924"
"two-step-fixation","183","512404","0.0-77.0-2.15","3944","8813","25","Male","false","true","true","false","""event"",""trial"",""time""
""fullscreenenter"",""5"",""26607""
","
","
","""event"",""trial"",""time""
""fullscreenenter"",""5"",""26607""
","
","","images/earth.jpg","","","","","","","","","","","","","","fixation","","","","","",""
"d3-animate-choice","184","514635","0.0-77.0-0.16","3944","8813","25","Male","false","true","true","false","""event"",""trial"",""time""
""fullscreenenter"",""5"",""26607""
","
","
","""event"",""trial"",""time""
""fullscreenenter"",""5"",""26607""
","
","227","","49","","","3000","1","","","images/earth.jpg","images/rocket1","images/rocket2","null","images/rocket2","","1","real","null","1","","",""
"d3-animate-choice","185","517261","0.0-77.0-1.16","3944","8813","25","Male","false","true","true","false","""event"",""trial"",""time""
""fullscreenenter"",""5"",""26607""
","
","
","""event"",""trial"",""time""
""fullscreenenter"",""5"",""26607""
","
","618.3000000119209","","48","","","3000","1","","","images/purpleplanet.jpg","images/alien4","images/alien3","images/rocket2","images/alien4","images/t.png","2","real","true","2","common","1","2023-05-02 18:17:42.785"
"two-step-fixation","186","518269","0.0-77.0-2.16","3944","8813","25","Male","false","true","true","false","""event"",""trial"",""time""
""fullscreenenter"",""5"",""26607""
","
","
","""event"",""trial"",""time""
""fullscreenenter"",""5"",""26607""
","
","","images/earth.jpg","","","","","","","","","","","","","","fixation","","","","","",""
"d3-animate-choice","187","520452","0.0-77.0-0.17","3944","8813","25","Male","false","true","true","false","""event"",""trial"",""time""
""fullscreenenter"",""5"",""26607""
","
","
","""event"",""trial"",""time""
""fullscreenenter"",""5"",""26607""
","
","172.59999999403954","","49","","","3000","1","","","images/earth.jpg","images/rocket1","images/rocket2","null","images/rocket2","","1","real","null","1","","",""
"d3-animate-choice","188","522733","0.0-77.0-1.17","3944","8813","25","Male","false","true","true","false","""event"",""trial"",""time""
""fullscreenenter"",""5"",""26607""
","
","
","""event"",""trial"",""time""
""fullscreenenter"",""5"",""26607""
","
","277","","48","","","3000","1","","","images/purpleplanet.jpg","images/alien4","images/alien3","images/rocket2","images/alien4","images/t.png","2","real","true","2","common","1","2023-05-02 18:17:48.257"
"two-step-fixation","189","523739","0.0-77.0-2.17","3944","8813","25","Male","false","true","true","false","""event"",""trial"",""time""
""fullscreenenter"",""5"",""26607""
","
","
","""event"",""trial"",""time""
""fullscreenenter"",""5"",""26607""
","
","","images/earth.jpg","","","","","","","","","","","","","","fixation","","","","","",""
"d3-animate-choice","190","525897","0.0-77.0-0.18","3944","8813","25","Male","false","true","true","false","""event"",""trial"",""time""
""fullscreenenter"",""5"",""26607""
","
","
","""event"",""trial"",""time""
""fullscreenenter"",""5"",""26607""
","
","148","","49","","","3000","1","","","images/earth.jpg","images/rocket1","images/rocket2","null","images/rocket2","","1","real","null","1","","",""
"d3-animate-choice","191","528182","0.0-77.0-1.18","3944","8813","25","Male","false","true","true","false","""event"",""trial"",""time""
""fullscreenenter"",""5"",""26607""
","
","
","""event"",""trial"",""time""
""fullscreenenter"",""5"",""26607""
","
","278.30000001192093","","48","","","3000","1","","","images/purpleplanet.jpg","images/alien4","images/alien3","images/rocket2","images/alien4","images/nothing.png","2","real","true","2","common","0","2023-05-02 18:17:53.706"
"two-step-fixation","192","529188","0.0-77.0-2.18","3944","8813","25","Male","false","true","true","false","""event"",""trial"",""time""
""fullscreenenter"",""5"",""26607""
","
","
","""event"",""trial"",""time""
""fullscreenenter"",""5"",""26607""
","
","","images/earth.jpg","","","","","","","","","","","","","","fixation","","","","","",""
"d3-animate-choice","193","531242","0.0-77.0-0.19","3944","8813","25","Male","false","true","true","false","""event"",""trial"",""time""
""fullscreenenter"",""5"",""26607""
","
","
","""event"",""trial"",""time""
""fullscreenenter"",""5"",""26607""
","
","49.29999998211861","","49","","","3000","1","","","images/earth.jpg","images/rocket1","images/rocket2","null","images/rocket2","","1","real","null","1","","",""
"d3-animate-choice","194","533543","0.0-77.0-1.19","3944","8813","25","Male","false","true","true","false","""event"",""trial"",""time""
""fullscreenenter"",""5"",""26607""
","
","
","""event"",""trial"",""time""
""fullscreenenter"",""5"",""26607""
","
","295.2000000178814","","48","","","3000","1","","","images/redplanet1.jpg","images/alien2","images/alien1","images/rocket2","images/alien2","images/nothing.png","2","real","false","2","rare","0","2023-05-02 18:17:59.067"
"two-step-fixation","195","534549","0.0-77.0-2.19","3944","8813","25","Male","false","true","true","false","""event"",""trial"",""time""
""fullscreenenter"",""5"",""26607""
","
","
","""event"",""trial"",""time""
""fullscreenenter"",""5"",""26607""
","
","","images/earth.jpg","","","","","","","","","","","","","","fixation","","","","","",""
"d3-animate-choice","196","536857","0.0-77.0-0.20","3944","8813","25","Male","false","true","true","false","""event"",""trial"",""time""
""fullscreenenter"",""5"",""26607""
","
","
","""event"",""trial"",""time""
""fullscreenenter"",""5"",""26607""
","
","299","","48","","","3000","1","","","images/earth.jpg","images/rocket1","images/rocket2","null","images/rocket1","","1","real","null","2","","",""
"d3-animate-choice","197","539121","0.0-77.0-1.20","3944","8813","25","Male","false","true","true","false","""event"",""trial"",""time""
""fullscreenenter"",""5"",""26607""
","
","
","""event"",""trial"",""time""
""fullscreenenter"",""5"",""26607""
","
","255.30000001192093","","49","","","3000","1","","","images/redplanet1.jpg","images/alien2","images/alien1","images/rocket1","images/alien1","images/t.png","2","real","true","1","common","1","2023-05-02 18:18:04.645"
"two-step-fixation","198","540127","0.0-77.0-2.20","3944","8813","25","Male","false","true","true","false","""event"",""trial"",""time""
""fullscreenenter"",""5"",""26607""
","
","
","""event"",""trial"",""time""
""fullscreenenter"",""5"",""26607""
","
","","images/earth.jpg","","","","","","","","","","","","","","fixation","","","","","",""
"d3-animate-choice","199","542157","0.0-77.0-0.21","3944","8813","25","Male","false","true","true","false","""event"",""trial"",""time""
""fullscreenenter"",""5"",""26607""
","
","
","""event"",""trial"",""time""
""fullscreenenter"",""5"",""26607""
","
","20.099999994039536","","48","","","3000","1","","","images/earth.jpg","images/rocket1","images/rocket2","null","images/rocket1","","1","real","null","2","","",""
"d3-animate-choice","200","544651","0.0-77.0-1.21","3944","8813","25","Male","false","true","true","false","""event"",""trial"",""time""
""fullscreenenter"",""5"",""26607""
","
","
","""event"",""trial"",""time""
""fullscreenenter"",""5"",""26607""
","
","485.7999999821186","","49","","","3000","1","","","images/redplanet1.jpg","images/alien2","images/alien1","images/rocket1","images/alien1","images/nothing.png","2","real","true","1","common","0","2023-05-02 18:18:10.176"
"two-step-fixation","201","545656","0.0-77.0-2.21","3944","8813","25","Male","false","true","true","false","""event"",""trial"",""time""
""fullscreenenter"",""5"",""26607""
","
","
","""event"",""trial"",""time""
""fullscreenenter"",""5"",""26607""
","
","","images/earth.jpg","","","","","","","","","","","","","","fixation","","","","","",""
"d3-animate-choice","202","547753","0.0-77.0-0.22","3944","8813","25","Male","false","true","true","false","""event"",""trial"",""time""
""fullscreenenter"",""5"",""26607""
","
","
","""event"",""trial"",""time""
""fullscreenenter"",""5"",""26607""
","
","90.69999998807907","","49","","","3000","1","","","images/earth.jpg","images/rocket1","images/rocket2","null","images/rocket2","","1","real","null","1","","",""
"d3-animate-choice","203","549862","0.0-77.0-1.22","3944","8813","25","Male","false","true","true","false","""event"",""trial"",""time""
""fullscreenenter"",""5"",""26607""
","
","
","""event"",""trial"",""time""
""fullscreenenter"",""5"",""26607""
","
","98.90000000596046","","48","","","3000","1","","","images/purpleplanet.jpg","images/alien4","images/alien3","images/rocket2","images/alien4","images/nothing.png","2","real","true","2","common","0","2023-05-02 18:18:15.387"
"two-step-fixation","204","550868","0.0-77.0-2.22","3944","8813","25","Male","false","true","true","false","""event"",""trial"",""time""
""fullscreenenter"",""5"",""26607""
","
","
","""event"",""trial"",""time""
""fullscreenenter"",""5"",""26607""
","
","","images/earth.jpg","","","","","","","","","","","","","","fixation","","","","","",""
"d3-animate-choice","205","553054","0.0-77.0-0.23","3944","8813","25","Male","false","true","true","false","""event"",""trial"",""time""
""fullscreenenter"",""5"",""26607""
","
","
","""event"",""trial"",""time""
""fullscreenenter"",""5"",""26607""
","
","179.09999999403954","","49","","","3000","1","","","images/earth.jpg","images/rocket1","images/rocket2","null","images/rocket2","","1","real","null","1","","",""
"d3-animate-choice","206","555572","0.0-77.0-1.23","3944","8813","25","Male","false","true","true","false","""event"",""trial"",""time""
""fullscreenenter"",""5"",""26607""
","
","
","""event"",""trial"",""time""
""fullscreenenter"",""5"",""26607""
","
","509.40000000596046","","49","","","3000","1","","","images/purpleplanet.jpg","images/alien4","images/alien3","images/rocket2","images/alien3","images/nothing.png","2","real","true","1","common","0","2023-05-02 18:18:21.096"
"two-step-fixation","207","556576","0.0-77.0-2.23","3944","8813","25","Male","false","true","true","false","""event"",""trial"",""time""
""fullscreenenter"",""5"",""26607""
","
","
","""event"",""trial"",""time""
""fullscreenenter"",""5"",""26607""
","
","","images/earth.jpg","","","","","","","","","","","","","","fixation","","","","","",""
"d3-animate-choice","208","558594","0.0-77.0-0.24","3944","8813","25","Male","false","true","true","false","""event"",""trial"",""time""
""fullscreenenter"",""5"",""26607""
","
","
","""event"",""trial"",""time""
""fullscreenenter"",""5"",""26607""
","
","12.400000005960464","","48","","","3000","1","","","images/earth.jpg","images/rocket1","images/rocket2","null","images/rocket1","","1","real","null","2","","",""
"d3-animate-choice","209","560902","0.0-77.0-1.24","3944","8813","25","Male","false","true","true","false","""event"",""trial"",""time""
""fullscreenenter"",""5"",""26607""
","
","
","""event"",""trial"",""time""
""fullscreenenter"",""5"",""26607""
","
","300.19999998807907","","48","","","3000","1","","","images/redplanet1.jpg","images/alien2","images/alien1","images/rocket1","images/alien2","images/nothing.png","2","real","true","2","common","0","2023-05-02 18:18:26.426"
"two-step-fixation","210","561911","0.0-77.0-2.24","3944","8813","25","Male","false","true","true","false","""event"",""trial"",""time""
""fullscreenenter"",""5"",""26607""
","
","
","""event"",""trial"",""time""
""fullscreenenter"",""5"",""26607""
","
","","images/earth.jpg","","","","","","","","","","","","","","fixation","","","","","",""
"d3-animate-choice","211","563982","0.0-77.0-0.25","3944","8813","25","Male","false","true","true","false","""event"",""trial"",""time""
""fullscreenenter"",""5"",""26607""
","
","
","""event"",""trial"",""time""
""fullscreenenter"",""5"",""26607""
","
","60.900000005960464","","48","","","3000","1","2021","49","images/earth.jpg","images/rocket1","images/rocket2","null","images/rocket1","","1","real","null","2","","",""
"d3-animate-choice","212","566569","0.0-77.0-1.25","3944","8813","25","Male","false","true","true","false","""event"",""trial"",""time""
""fullscreenenter"",""5"",""26607""
","
","
","""event"",""trial"",""time""
""fullscreenenter"",""5"",""26607""
","
","578.3000000119209","","48","","","3000","1","","","images/redplanet1.jpg","images/alien2","images/alien1","images/rocket1","images/alien2","images/t.png","2","real","true","2","common","1","2023-05-02 18:18:32.093"
"two-step-fixation","213","567578","0.0-77.0-2.25","3944","8813","25","Male","false","true","true","false","""event"",""trial"",""time""
""fullscreenenter"",""5"",""26607""
","
","
","""event"",""trial"",""time""
""fullscreenenter"",""5"",""26607""
","
","","images/earth.jpg","","","","","","","","","","","","","","fixation","","","","","",""
"d3-animate-choice","214","569800","0.0-77.0-0.26","3944","8813","25","Male","false","true","true","false","""event"",""trial"",""time""
""fullscreenenter"",""5"",""26607""
","
","
","""event"",""trial"",""time""
""fullscreenenter"",""5"",""26607""
","
","217","","48","","","3000","1","","","images/earth.jpg","images/rocket1","images/rocket2","null","images/rocket1","","1","real","null","2","","",""
"d3-animate-choice","215","572082","0.0-77.0-1.26","3944","8813","25","Male","false","true","true","false","""event"",""trial"",""time""
""fullscreenenter"",""5"",""26607""
","
","
","""event"",""trial"",""time""
""fullscreenenter"",""5"",""26607""
","
","278.59999999403954","","48","","","3000","1","","","images/redplanet1.jpg","images/alien2","images/alien1","images/rocket1","images/alien2","images/t.png","2","real","true","2","common","1","2023-05-02 18:18:37.606"
"two-step-fixation","216","573085","0.0-77.0-2.26","3944","8813","25","Male","false","true","true","false","""event"",""trial"",""time""
""fullscreenenter"",""5"",""26607""
","
","
","""event"",""trial"",""time""
""fullscreenenter"",""5"",""26607""
","
","","images/earth.jpg","","","","","","","","","","","","","","fixation","","","","","",""
"d3-animate-choice","217","575390","0.0-77.0-0.27","3944","8813","25","Male","false","true","true","false","""event"",""trial"",""time""
""fullscreenenter"",""5"",""26607""
","
","
","""event"",""trial"",""time""
""fullscreenenter"",""5"",""26607""
","
","295.89999997615814","","48","","","3000","1","2036.5999999940395","48","images/earth.jpg","images/rocket1","images/rocket2","null","images/rocket1","","1","real","null","2","","",""
"d3-animate-choice","218","577848","0.0-77.0-1.27","3944","8813","25","Male","false","true","true","false","""event"",""trial"",""time""
""fullscreenenter"",""5"",""26607""
","
","
","""event"",""trial"",""time""
""fullscreenenter"",""5"",""26607""
","
","451.30000001192093","","48","","","3000","1","","","images/redplanet1.jpg","images/alien2","images/alien1","images/rocket1","images/alien2","images/t.png","2","real","true","2","common","1","2023-05-02 18:18:43.372"
"two-step-fixation","219","578856","0.0-77.0-2.27","3944","8813","25","Male","false","true","true","false","""event"",""trial"",""time""
""fullscreenenter"",""5"",""26607""
","
","
","""event"",""trial"",""time""
""fullscreenenter"",""5"",""26607""
","
","","images/earth.jpg","","","","","","","","","","","","","","fixation","","","","","",""
"d3-animate-choice","220","581139","0.0-77.0-0.28","3944","8813","25","Male","false","true","true","false","""event"",""trial"",""time""
""fullscreenenter"",""5"",""26607""
","
","
","""event"",""trial"",""time""
""fullscreenenter"",""5"",""26607""
","
","277.19999998807907","","48","","","3000","1","","","images/earth.jpg","images/rocket1","images/rocket2","null","images/rocket1","","1","real","null","2","","",""
"d3-animate-choice","221","583395","0.0-77.0-1.28","3944","8813","25","Male","false","true","true","false","""event"",""trial"",""time""
""fullscreenenter"",""5"",""26607""
","
","
","""event"",""trial"",""time""
""fullscreenenter"",""5"",""26607""
","
","250.69999998807907","","48","","","3000","1","","","images/redplanet1.jpg","images/alien2","images/alien1","images/rocket1","images/alien2","images/t.png","2","real","true","2","common","1","2023-05-02 18:18:48.919"
"two-step-fixation","222","584392","0.0-77.0-2.28","3944","8813","25","Male","false","true","true","false","""event"",""trial"",""time""
""fullscreenenter"",""5"",""26607""
","
","
","""event"",""trial"",""time""
""fullscreenenter"",""5"",""26607""
","
","","images/earth.jpg","","","","","","","","","","","","","","fixation","","","","","",""
"d3-animate-choice","223","586621","0.0-77.0-0.29","3944","8813","25","Male","false","true","true","false","""event"",""trial"",""time""
""fullscreenenter"",""5"",""26607""
","
","
","""event"",""trial"",""time""
""fullscreenenter"",""5"",""26607""
","
","217.5","","48","","","3000","1","","","images/earth.jpg","images/rocket1","images/rocket2","null","images/rocket1","","1","real","null","2","","",""
"d3-animate-choice","224","588952","0.0-77.0-1.29","3944","8813","25","Male","false","true","true","false","""event"",""trial"",""time""
""fullscreenenter"",""5"",""26607""
","
","
","""event"",""trial"",""time""
""fullscreenenter"",""5"",""26607""
","
","321.09999999403954","","48","","","3000","1","","","images/redplanet1.jpg","images/alien2","images/alien1","images/rocket1","images/alien2","images/t.png","2","real","true","2","common","1","2023-05-02 18:18:54.477"
"two-step-fixation","225","589957","0.0-77.0-2.29","3944","8813","25","Male","false","true","true","false","""event"",""trial"",""time""
""fullscreenenter"",""5"",""26607""
","
","
","""event"",""trial"",""time""
""fullscreenenter"",""5"",""26607""
","
","","images/earth.jpg","","","","","","","","","","","","","","fixation","","","","","",""
"d3-animate-choice","226","592155","0.0-77.0-0.30","3944","8813","25","Male","false","true","true","false","""event"",""trial"",""time""
""fullscreenenter"",""5"",""26607""
","
","
","""event"",""trial"",""time""
""fullscreenenter"",""5"",""26607""
","
","191.80000001192093","","48","","","3000","1","","","images/earth.jpg","images/rocket1","images/rocket2","null","images/rocket1","","1","real","null","2","","",""
"d3-animate-choice","227","594393","0.0-77.0-1.30","3944","8813","25","Male","false","true","true","false","""event"",""trial"",""time""
""fullscreenenter"",""5"",""26607""
","
","
","""event"",""trial"",""time""
""fullscreenenter"",""5"",""26607""
","
","230.90000000596046","","48","","","3000","1","","","images/redplanet1.jpg","images/alien2","images/alien1","images/rocket1","images/alien2","images/nothing.png","2","real","true","2","common","0","2023-05-02 18:18:59.917"
"two-step-fixation","228","595399","0.0-77.0-2.30","3944","8813","25","Male","false","true","true","false","""event"",""trial"",""time""
""fullscreenenter"",""5"",""26607""
","
","
","""event"",""trial"",""time""
""fullscreenenter"",""5"",""26607""
","
","","images/earth.jpg","","","","","","","","","","","","","","fixation","","","","","",""
"d3-animate-choice","229","597780","0.0-77.0-0.31","3944","8813","25","Male","false","true","true","false","""event"",""trial"",""time""
""fullscreenenter"",""5"",""26607""
","
","
","""event"",""trial"",""time""
""fullscreenenter"",""5"",""26607""
","
","370.30000001192093","","48","","","3000","1","","","images/earth.jpg","images/rocket1","images/rocket2","null","images/rocket1","","1","real","null","2","","",""
"d3-animate-choice","230","599853","0.0-77.0-1.31","3944","8813","25","Male","false","true","true","false","""event"",""trial"",""time""
""fullscreenenter"",""5"",""26607""
","
","
","""event"",""trial"",""time""
""fullscreenenter"",""5"",""26607""
","
","64","","48","","","3000","1","","","images/redplanet1.jpg","images/alien2","images/alien1","images/rocket1","images/alien2","images/t.png","2","real","true","2","common","1","2023-05-02 18:19:05.377"
"two-step-fixation","231","600858","0.0-77.0-2.31","3944","8813","25","Male","false","true","true","false","""event"",""trial"",""time""
""fullscreenenter"",""5"",""26607""
","
","
","""event"",""trial"",""time""
""fullscreenenter"",""5"",""26607""
","
","","images/earth.jpg","","","","","","","","","","","","","","fixation","","","","","",""
"d3-animate-choice","232","603176","0.0-77.0-0.32","3944","8813","25","Male","false","true","true","false","""event"",""trial"",""time""
""fullscreenenter"",""5"",""26607""
","
","
","""event"",""trial"",""time""
""fullscreenenter"",""5"",""26607""
","
","312.69999998807907","","48","","","3000","1","","","images/earth.jpg","images/rocket1","images/rocket2","null","images/rocket1","","1","real","null","2","","",""
"d3-animate-choice","233","605484","0.0-77.0-1.32","3944","8813","25","Male","false","true","true","false","""event"",""trial"",""time""
""fullscreenenter"",""5"",""26607""
","
","
","""event"",""trial"",""time""
""fullscreenenter"",""5"",""26607""
","
","300.09999999403954","","48","","","3000","1","","","images/redplanet1.jpg","images/alien2","images/alien1","images/rocket1","images/alien2","images/t.png","2","real","true","2","common","1","2023-05-02 18:19:11.008"
"two-step-fixation","234","606492","0.0-77.0-2.32","3944","8813","25","Male","false","true","true","false","""event"",""trial"",""time""
""fullscreenenter"",""5"",""26607""
","
","
","""event"",""trial"",""time""
""fullscreenenter"",""5"",""26607""
","
","","images/earth.jpg","","","","","","","","","","","","","","fixation","","","","","",""
"d3-animate-choice","235","608753","0.0-77.0-0.33","3944","8813","25","Male","false","true","true","false","""event"",""trial"",""time""
""fullscreenenter"",""5"",""26607""
","
","
","""event"",""trial"",""time""
""fullscreenenter"",""5"",""26607""
","
","255.59999999403954","","48","","","3000","1","","","images/earth.jpg","images/rocket1","images/rocket2","null","images/rocket1","","1","real","null","2","","",""
"d3-animate-choice","236","610787","0.0-77.0-1.33","3944","8813","25","Male","false","true","true","false","""event"",""trial"",""time""
""fullscreenenter"",""5"",""26607""
","
","
","""event"",""trial"",""time""
""fullscreenenter"",""5"",""26607""
","
","30.299999982118607","","48","","","3000","1","","","images/purpleplanet.jpg","images/alien4","images/alien3","images/rocket1","images/alien4","images/nothing.png","2","real","false","2","rare","0","2023-05-02 18:19:16.312"
"two-step-fixation","237","611791","0.0-77.0-2.33","3944","8813","25","Male","false","true","true","false","""event"",""trial"",""time""
""fullscreenenter"",""5"",""26607""
","
","
","""event"",""trial"",""time""
""fullscreenenter"",""5"",""26607""
","
","","images/earth.jpg","","","","","","","","","","","","","","fixation","","","","","",""
"d3-animate-choice","238","613801","0.0-77.0-0.34","3944","8813","25","Male","false","true","true","false","""event"",""trial"",""time""
""fullscreenenter"",""5"",""26607""
","
","
","""event"",""trial"",""time""
""fullscreenenter"",""5"",""26607""
","
","7.100000023841858","","48","","","3000","1","1461.2000000178814","48","images/earth.jpg","images/rocket1","images/rocket2","null","images/rocket1","","1","real","null","2","","",""
"d3-animate-choice","239","616043","0.0-77.0-1.34","3944","8813","25","Male","false","true","true","false","""event"",""trial"",""time""
""fullscreenenter"",""5"",""26607""
","
","
","""event"",""trial"",""time""
""fullscreenenter"",""5"",""26607""
","
","238.19999998807907","","48","","","3000","1","","","images/purpleplanet.jpg","images/alien4","images/alien3","images/rocket1","images/alien4","images/t.png","2","real","false","2","rare","1","2023-05-02 18:19:21.568"
"two-step-fixation","240","617048","0.0-77.0-2.34","3944","8813","25","Male","false","true","true","false","""event"",""trial"",""time""
""fullscreenenter"",""5"",""26607""
","
","
","""event"",""trial"",""time""
""fullscreenenter"",""5"",""26607""
","
","","images/earth.jpg","","","","","","","","","","","","","","fixation","","","","","",""
"d3-animate-choice","241","619112","0.0-77.0-0.35","3944","8813","25","Male","false","true","true","false","""event"",""trial"",""time""
""fullscreenenter"",""5"",""26607""
","
","
","""event"",""trial"",""time""
""fullscreenenter"",""5"",""26607""
","
","60.20000001788139","","48","","","3000","1","","","images/earth.jpg","images/rocket1","images/rocket2","null","images/rocket1","","1","real","null","2","","",""
"d3-animate-choice","242","621358","0.0-77.0-1.35","3944","8813","25","Male","false","true","true","false","""event"",""trial"",""time""
""fullscreenenter"",""5"",""26607""
","
","
","""event"",""trial"",""time""
""fullscreenenter"",""5"",""26607""
","
","240.19999998807907","","48","","","3000","1","","","images/redplanet1.jpg","images/alien2","images/alien1","images/rocket1","images/alien2","images/nothing.png","2","real","true","2","common","0","2023-05-02 18:19:26.882"
"two-step-fixation","243","622367","0.0-77.0-2.35","3944","8813","25","Male","false","true","true","false","""event"",""trial"",""time""
""fullscreenenter"",""5"",""26607""
","
","
","""event"",""trial"",""time""
""fullscreenenter"",""5"",""26607""
","
","","images/earth.jpg","","","","","","","","","","","","","","fixation","","","","","",""
"d3-animate-choice","244","624552","0.0-77.0-0.36","3944","8813","25","Male","false","true","true","false","""event"",""trial"",""time""
""fullscreenenter"",""5"",""26607""
","
","
","""event"",""trial"",""time""
""fullscreenenter"",""5"",""26607""
","
","174.5","","48","","","3000","1","1407.7999999821186,2014.7999999821186","48,48","images/earth.jpg","images/rocket1","images/rocket2","null","images/rocket1","","1","real","null","2","","",""
"d3-animate-choice","245","626823","0.0-77.0-1.36","3944","8813","25","Male","false","true","true","false","""event"",""trial"",""time""
""fullscreenenter"",""5"",""26607""
","
","
","""event"",""trial"",""time""
""fullscreenenter"",""5"",""26607""
","
","264.59999999403954","","48","","","3000","1","","","images/redplanet1.jpg","images/alien2","images/alien1","images/rocket1","images/alien2","images/nothing.png","2","real","true","2","common","0","2023-05-02 18:19:32.347"
"two-step-fixation","246","627825","0.0-77.0-2.36","3944","8813","25","Male","false","true","true","false","""event"",""trial"",""time""
""fullscreenenter"",""5"",""26607""
","
","
","""event"",""trial"",""time""
""fullscreenenter"",""5"",""26607""
","
