"trial_type","trial_index","time_elapsed","internal_node_id","participant_id","subject_id","age","gender","rocket_sides","red_planet_first_rocket","red_display_order","purple_display_order","interactions","blur_events","focus_events","fullscreenenter_events","fullscreenexit_events","rt","stimulus","key_press","button_pressed","success","duration","valid_pressed","rts","keys","planet_text","right_text","left_text","center_text","chosen_text","reward_text","trial_stage","practice_trial","transition_type","choice","transition","reward","timestamp"
"pavlovia","0","1","0.0-0.0","3923","7268","25","Male","false","false","false","true","
","
","
","
","
","","","","","","","","","","","","","","","","","","","","","",""
"html-keyboard-response","1","12838","0.0-1.0","3923","7268","25","Male","false","false","false","true","
","
","
","
","
","12836.59999999986","Welcome! Press the space bar to begin.","32","","","","","","","","","","","","","","","","","","",""
"audio-keyboard-response","2","19248","0.0-2.0","3923","7268","25","Male","false","false","false","true","
","
","
","
","
","5971","audio/beep_loop.wav","32","","","","","","","","","","","","","","","","","","",""
"audio-button-response","3","21983","0.0-3.0","3923","7268","25","Male","false","false","false","true","
","
","
","
","
","NaN","audio/fish.mp3","","1","","","","","","","","","","","","","","","","","",""
"audio-button-response","4","24415","0.0-4.0","3923","7268","25","Male","false","false","false","true","""event"",""trial"",""time""
""fullscreenenter"",""5"",""26585""
","
","
","""event"",""trial"",""time""
""fullscreenenter"",""5"",""26585""
","
","NaN","audio/tiger.mp3","","4","","","","","","","","","","","","","","","","","",""
"fullscreen","5","27594","0.0-5.0","3923","7268","25","Male","false","false","false","true","""event"",""trial"",""time""
""fullscreenenter"",""5"",""26585""
","
","
","""event"",""trial"",""time""
""fullscreenenter"",""5"",""26585""
","
","","","","","true","","","","","","","","","","","","","","","","",""
"d3-instructions","6","39071","0.0-6.0","3923","7268","25","Male","false","false","false","true","""event"",""trial"",""time""
""fullscreenenter"",""5"",""26585""
","
","
","""event"",""trial"",""time""
""fullscreenenter"",""5"",""26585""
","
","","","","","","","","","","","","","","","","","","","","","",""
"d3-instructions","7","44413","0.0-7.0","3923","7268","25","Male","false","false","false","true","""event"",""trial"",""time""
""fullscreenenter"",""5"",""26585""
","
","
","""event"",""trial"",""time""
""fullscreenenter"",""5"",""26585""
","
","","","","","","","","","","","","","","","","","","","","","",""
"d3-instructions","8","50339","0.0-8.0","3923","7268","25","Male","false","false","false","true","""event"",""trial"",""time""
""fullscreenenter"",""5"",""26585""
","
","
","""event"",""trial"",""time""
""fullscreenenter"",""5"",""26585""
","
","","","","","","","","","","","","","","","","","","","","","",""
"d3-instructions","9","62326","0.0-9.0","3923","7268","25","Male","false","false","false","true","""event"",""trial"",""time""
""fullscreenenter"",""5"",""26585""
","
","
","""event"",""trial"",""time""
""fullscreenenter"",""5"",""26585""
","
","","","","","","","","","","","","","","","","","","","","","",""
"d3-instructions","10","78161","0.0-10.0","3923","7268","25","Male","false","false","false","true","""event"",""trial"",""time""
""fullscreenenter"",""5"",""26585""
","
","
","""event"",""trial"",""time""
""fullscreenenter"",""5"",""26585""
","
","","","","","","","","","","","","","","","","","","","","","",""
"d3-animate-choice","11","82814","0.0-11.0","3923","7268","25","Male","false","false","false","true","""event"",""trial"",""time""
""fullscreenenter"",""5"",""26585""
","
","
","""event"",""trial"",""time""
""fullscreenenter"",""5"",""26585""
","
","1372.6000000000931","","97","","","3000","1","2634.3000000002794,4049","49,97","images/tutgreenplanet.jpg","images/tutalien1","images/tutalien2","null","images/tutalien2","","NA","practice","null","","","",""
"d3-animate-choice","12","87724","0.0-12.0","3923","7268","25","Male","false","false","false","true","""event"",""trial"",""time""
""fullscreenenter"",""5"",""26585""
","
","
","""event"",""trial"",""time""
""fullscreenenter"",""5"",""26585""
","
","54.60000000009313","","32","","","3000","1","2901,3449.5","48,32","images/tutgreenplanet.jpg","images/tutalien1","images/tutalien2","null","images/tutalien1","","NA","practice","null","","","",""
"d3-animate-choice","13","93674","0.0-13.0","3923","7268","25","Male","false","false","false","true","""event"",""trial"",""time""
""fullscreenenter"",""5"",""26585""
","
","
","""event"",""trial"",""time""
""fullscreenenter"",""5"",""26585""
","
","3942.1999999997206","","48","","","3000","1","","","images/tutgreenplanet.jpg","images/tutalien1","images/tutalien2","null","images/tutalien1","","NA","practice","null","","","",""
"d3-animate-choice","14","96247","0.0-14.0","3923","7268","25","Male","false","false","false","true","""event"",""trial"",""time""
""fullscreenenter"",""5"",""26585""
","
","
","""event"",""trial"",""time""
""fullscreenenter"",""5"",""26585""
","
","565.2000000001863","","49","","","3000","1","1981.7000000001863","32","images/tutgreenplanet.jpg","images/tutalien1","images/tutalien2","null","images/tutalien2","","NA","practice","null","","","",""
"d3-instructions","15","104251","0.0-15.0","3923","7268","25","Male","false","false","false","true","""event"",""trial"",""time""
""fullscreenenter"",""5"",""26585""
","
","
","""event"",""trial"",""time""
""fullscreenenter"",""5"",""26585""
","
","","","","","","","","","","","","","","","","","","","","","",""
"d3-instructions","16","110336","0.0-16.0","3923","7268","25","Male","false","false","false","true","""event"",""trial"",""time""
""fullscreenenter"",""5"",""26585""
","
","
","""event"",""trial"",""time""
""fullscreenenter"",""5"",""26585""
","
","","","","","","","","","","","","","","","","","","","","","",""
"d3-instructions","17","118794","0.0-17.0","3923","7268","25","Male","false","false","false","true","""event"",""trial"",""time""
""fullscreenenter"",""5"",""26585""
","
","
","""event"",""trial"",""time""
""fullscreenenter"",""5"",""26585""
","
","","","","","","","","","","","","","","","","","","","","","",""
"d3-instructions","18","131404","0.0-18.0","3923","7268","25","Male","false","false","false","true","""event"",""trial"",""time""
""fullscreenenter"",""5"",""26585""
","
","
","""event"",""trial"",""time""
""fullscreenenter"",""5"",""26585""
","
","","","","","","","","","","","","","","","","","","","","","",""
"d3-instructions","19","142679","0.0-19.0","3923","7268","25","Male","false","false","false","true","""event"",""trial"",""time""
""fullscreenenter"",""5"",""26585""
","
","
","""event"",""trial"",""time""
""fullscreenenter"",""5"",""26585""
","
","","","","","","","","","","","","","","","","","","","","","",""
"d3-animate-choice","20","145608","0.0-20.0","3923","7268","25","Male","false","false","false","true","""event"",""trial"",""time""
""fullscreenenter"",""5"",""26585""
","
","
","""event"",""trial"",""time""
""fullscreenenter"",""5"",""26585""
","
","913.7000000001863","","49","","","3000","1","","","images/tutyellowplanet.jpg","null","images/tutalien3","null","images/tutalien3","images/t.png","NA","practice","null","","","",""
"d3-animate-choice","21","148087","0.0-21.0","3923","7268","25","Male","false","false","false","true","""event"",""trial"",""time""
""fullscreenenter"",""5"",""26585""
","
","
","""event"",""trial"",""time""
""fullscreenenter"",""5"",""26585""
","
","462.10000000009313","","49","","","3000","1","","","images/tutyellowplanet.jpg","null","images/tutalien3","null","images/tutalien3","images/t.png","NA","practice","null","","","",""
"d3-animate-choice","22","150347","0.0-22.0","3923","7268","25","Male","false","false","false","true","""event"",""trial"",""time""
""fullscreenenter"",""5"",""26585""
","
","
","""event"",""trial"",""time""
""fullscreenenter"",""5"",""26585""
","
","244.60000000009313","","49","","","3000","1","","","images/tutyellowplanet.jpg","null","images/tutalien3","null","images/tutalien3","images/t.png","NA","practice","null","","","",""
"d3-animate-choice","23","152877","0.0-23.0","3923","7268","25","Male","false","false","false","true","""event"",""trial"",""time""
""fullscreenenter"",""5"",""26585""
","
","
","""event"",""trial"",""time""
""fullscreenenter"",""5"",""26585""
","
","518.6000000000931","","49","","","3000","1","","","images/tutyellowplanet.jpg","null","images/tutalien3","null","images/tutalien3","images/t.png","NA","practice","null","","","",""
"d3-animate-choice","24","155244","0.0-24.0","3923","7268","25","Male","false","false","false","true","""event"",""trial"",""time""
""fullscreenenter"",""5"",""26585""
","
","
","""event"",""trial"",""time""
""fullscreenenter"",""5"",""26585""
","
","338.29999999981374","","49","","","3000","1","","","images/tutyellowplanet.jpg","null","images/tutalien3","null","images/tutalien3","images/t.png","NA","practice","null","","","",""
"d3-animate-choice","25","157654","0.0-25.0","3923","7268","25","Male","false","false","false","true","""event"",""trial"",""time""
""fullscreenenter"",""5"",""26585""
","
","
","""event"",""trial"",""time""
""fullscreenenter"",""5"",""26585""
","
","402.10000000009313","","49","","","3000","1","","","images/tutyellowplanet.jpg","null","images/tutalien3","null","images/tutalien3","images/nothing.png","NA","practice","null","","","",""
"d3-animate-choice","26","160270","0.0-26.0","3923","7268","25","Male","false","false","false","true","""event"",""trial"",""time""
""fullscreenenter"",""5"",""26585""
","
","
","""event"",""trial"",""time""
""fullscreenenter"",""5"",""26585""
","
","611.5","","49","","","3000","1","","","images/tutyellowplanet.jpg","null","images/tutalien3","null","images/tutalien3","images/t.png","NA","practice","null","","","",""
"d3-animate-choice","27","162884","0.0-27.0","3923","7268","25","Male","false","false","false","true","""event"",""trial"",""time""
""fullscreenenter"",""5"",""26585""
","
","
","""event"",""trial"",""time""
""fullscreenenter"",""5"",""26585""
","
","598","","49","","","3000","1","","","images/tutyellowplanet.jpg","null","images/tutalien3","null","images/tutalien3","images/t.png","NA","practice","null","","","",""
"d3-animate-choice","28","166284","0.0-28.0","3923","7268","25","Male","false","false","false","true","""event"",""trial"",""time""
""fullscreenenter"",""5"",""26585""
","
","
","""event"",""trial"",""time""
""fullscreenenter"",""5"",""26585""
","
","1383.8000000002794","","49","","","3000","1","","","images/tutyellowplanet.jpg","null","images/tutalien3","null","images/tutalien3","images/t.png","NA","practice","null","","","",""
"d3-animate-choice","29","168654","0.0-29.0","3923","7268","25","Male","false","false","false","true","""event"",""trial"",""time""
""fullscreenenter"",""5"",""26585""
","
","
","""event"",""trial"",""time""
""fullscreenenter"",""5"",""26585""
","
","364.89999999990687","","49","","","3000","1","","","images/tutyellowplanet.jpg","null","images/tutalien3","null","images/tutalien3","images/nothing.png","NA","practice","null","","","",""
"d3-instructions","30","173167","0.0-30.0","3923","7268","25","Male","false","false","false","true","""event"",""trial"",""time""
""fullscreenenter"",""5"",""26585""
","
","
","""event"",""trial"",""time""
""fullscreenenter"",""5"",""26585""
","
","","","","","","","","","","","","","","","","","","","","","",""
"d3-instructions","31","197227","0.0-31.0","3923","7268","25","Male","false","false","false","true","""event"",""trial"",""time""
""fullscreenenter"",""5"",""26585""
","
","
","""event"",""trial"",""time""
""fullscreenenter"",""5"",""26585""
","
","","","","","","","","","","","","","","","","","","","","","",""
"d3-instructions","32","201748","0.0-32.0","3923","7268","25","Male","false","false","false","true","""event"",""trial"",""time""
""fullscreenenter"",""5"",""26585""
","
","
","""event"",""trial"",""time""
""fullscreenenter"",""5"",""26585""
","
","","","","","","","","","","","","","","","","","","","","","",""
"d3-instructions","33","206579","0.0-33.0","3923","7268","25","Male","false","false","false","true","""event"",""trial"",""time""
""fullscreenenter"",""5"",""26585""
","
","
","""event"",""trial"",""time""
""fullscreenenter"",""5"",""26585""
","
","","","","","","","","","","","","","","","","","","","","","",""
"d3-animate-choice","34","210154","0.0-34.0","3923","7268","25","Male","false","false","false","true","""event"",""trial"",""time""
""fullscreenenter"",""5"",""26585""
","
","
","""event"",""trial"",""time""
""fullscreenenter"",""5"",""26585""
","
","1563.6999999997206","","49","","","3000","1","","","images/tutgreenplanet.jpg","images/tutalien1","images/tutalien2","null","images/tutalien2","images/t.png","NA","practice","null","","","",""
"d3-animate-choice","35","212444","0.0-35.0","3923","7268","25","Male","false","false","false","true","""event"",""trial"",""time""
""fullscreenenter"",""5"",""26585""
","
","
","""event"",""trial"",""time""
""fullscreenenter"",""5"",""26585""
","
","282.39999999990687","","48","","","3000","1","","","images/tutgreenplanet.jpg","images/tutalien1","images/tutalien2","null","images/tutalien1","images/nothing.png","NA","practice","null","","","",""
"d3-animate-choice","36","214704","0.0-36.0","3923","7268","25","Male","false","false","false","true","""event"",""trial"",""time""
""fullscreenenter"",""5"",""26585""
","
","
","""event"",""trial"",""time""
""fullscreenenter"",""5"",""26585""
","
","237.39999999990687","","49","","","3000","1","","","images/tutgreenplanet.jpg","images/tutalien1","images/tutalien2","null","images/tutalien2","images/t.png","NA","practice","null","","","",""
"d3-animate-choice","37","216994","0.0-37.0","3923","7268","25","Male","false","false","false","true","""event"",""trial"",""time""
""fullscreenenter"",""5"",""26585""
","
","
","""event"",""trial"",""time""
""fullscreenenter"",""5"",""26585""
","
","286.60000000009313","","49","","","3000","1","1649","49","images/tutgreenplanet.jpg","images/tutalien1","images/tutalien2","null","images/tutalien2","images/t.png","NA","practice","null","","","",""
"d3-animate-choice","38","219194","0.0-38.0","3923","7268","25","Male","false","false","false","true","""event"",""trial"",""time""
""fullscreenenter"",""5"",""26585""
","
","
","""event"",""trial"",""time""
""fullscreenenter"",""5"",""26585""
","
","194.1999999997206","","49","","","3000","1","1508,2051.2999999998137","49,49","images/tutgreenplanet.jpg","images/tutalien1","images/tutalien2","null","images/tutalien2","images/t.png","NA","practice","null","","","",""
"d3-animate-choice","39","221283","0.0-39.0","3923","7268","25","Male","false","false","false","true","""event"",""trial"",""time""
""fullscreenenter"",""5"",""26585""
","
","
","""event"",""trial"",""time""
""fullscreenenter"",""5"",""26585""
","
","86.39999999990687","","49","","","3000","1","297.89999999990687,489.1999999997206,677.0999999996275,862.3999999999069,1081.0999999996275,1290.3999999999069,1493,1696,1920.5","49,49,49,49,49,49,49,49,49","images/tutgreenplanet.jpg","images/tutalien1","images/tutalien2","null","images/tutalien2","images/t.png","NA","practice","null","","","",""
"d3-animate-choice","40","223344","0.0-40.0","3923","7268","25","Male","false","false","false","true","""event"",""trial"",""time""
""fullscreenenter"",""5"",""26585""
","
","
","""event"",""trial"",""time""
""fullscreenenter"",""5"",""26585""
","
","56.89999999990687","","49","","","3000","1","267.10000000009313,468.89999999990687,682.5,862.2000000001863,1083.1000000000931,1290.5,1523.7999999998137,1735.8999999999069,1946.6000000000931","49,49,49,49,49,49,49,49,49","images/tutgreenplanet.jpg","images/tutalien1","images/tutalien2","null","images/tutalien2","images/t.png","NA","practice","null","","","",""
"d3-animate-choice","41","225467","0.0-41.0","3923","7268","25","Male","false","false","false","true","""event"",""trial"",""time""
""fullscreenenter"",""5"",""26585""
","
","
","""event"",""trial"",""time""
""fullscreenenter"",""5"",""26585""
","
","118.5","","49","","","3000","1","335.60000000009313,543.7000000001863,793.9000000003725,1462.1000000000931,1687.7000000001863,1903.5","49,49,49,49,49,49","images/tutgreenplanet.jpg","images/tutalien1","images/tutalien2","null","images/tutalien2","images/t.png","NA","practice","null","","","",""
"d3-animate-choice","42","227484","0.0-42.0","3923","7268","25","Male","false","false","false","true","""event"",""trial"",""time""
""fullscreenenter"",""5"",""26585""
","
","
","""event"",""trial"",""time""
""fullscreenenter"",""5"",""26585""
","
","0.39999999990686774","","49","","","3000","1","227.5,428.29999999981374,630.0999999996275,838.5,1071.5999999996275,1284.5999999996275,1527.3999999999069,1770.5","49,49,49,49,49,49,49,49","images/tutgreenplanet.jpg","images/tutalien1","images/tutalien2","null","images/tutalien2","images/t.png","NA","practice","null","","","",""
"d3-animate-choice","43","229765","0.0-43.0","3923","7268","25","Male","false","false","false","true","""event"",""trial"",""time""
""fullscreenenter"",""5"",""26585""
","
","
","""event"",""trial"",""time""
""fullscreenenter"",""5"",""26585""
","
","277.5","","49","","","3000","1","501.10000000009313,696,894.2000000001863,1127.8999999999069,1719,1942.1000000000931,2205.899999999907","49,49,49,49,49,49,49","images/tutgreenplanet.jpg","images/tutalien1","images/tutalien2","null","images/tutalien2","images/t.png","NA","practice","null","","","",""
"d3-instructions","44","241759","0.0-44.0","3923","7268","25","Male","false","false","false","true","""event"",""trial"",""time""
""fullscreenenter"",""5"",""26585""
","
","
","""event"",""trial"",""time""
""fullscreenenter"",""5"",""26585""
","
","","","","","","","","","","","","","","","","","","","","","",""
"d3-instructions","45","248681","0.0-45.0","3923","7268","25","Male","false","false","false","true","""event"",""trial"",""time""
""fullscreenenter"",""5"",""26585""
","
","
","""event"",""trial"",""time""
""fullscreenenter"",""5"",""26585""
","
","","","","","","","","","","","","","","","","","","","","","",""
"d3-instructions","46","253761","0.0-46.0","3923","7268","25","Male","false","false","false","true","""event"",""trial"",""time""
""fullscreenenter"",""5"",""26585""
","
","
","""event"",""trial"",""time""
""fullscreenenter"",""5"",""26585""
","
","","","","","","","","","","","","","","","","","","","","","",""
"d3-instructions","47","271769","0.0-47.0","3923","7268","25","Male","false","false","false","true","""event"",""trial"",""time""
""fullscreenenter"",""5"",""26585""
","
","
","""event"",""trial"",""time""
""fullscreenenter"",""5"",""26585""
","
","","","","","","","","","","","","","","","","","","","","","",""
"d3-instructions","48","278982","0.0-48.0","3923","7268","25","Male","false","false","false","true","""event"",""trial"",""time""
""fullscreenenter"",""5"",""26585""
","
","
","""event"",""trial"",""time""
""fullscreenenter"",""5"",""26585""
","
","","","","","","","","","","","","","","","","","","","","","",""
"d3-instructions","49","289489","0.0-49.0","3923","7268","25","Male","false","false","false","true","""event"",""trial"",""time""
""fullscreenenter"",""5"",""26585""
","
","
","""event"",""trial"",""time""
""fullscreenenter"",""5"",""26585""
","
","","","","","","","","","","","","","","","","","","","","","",""
"d3-instructions","50","298998","0.0-50.0","3923","7268","25","Male","false","false","false","true","""event"",""trial"",""time""
""fullscreenenter"",""5"",""26585""
","
","
","""event"",""trial"",""time""
""fullscreenenter"",""5"",""26585""
","
","","","","","","","","","","","","","","","","","","","","","",""
"d3-instructions","51","302988","0.0-51.0","3923","7268","25","Male","false","false","false","true","""event"",""trial"",""time""
""fullscreenenter"",""5"",""26585""
","
","
","""event"",""trial"",""time""
""fullscreenenter"",""5"",""26585""
","
","","","","","","","","","","","","","","","","","","","","","",""
"d3-instructions","52","304418","0.0-52.0","3923","7268","25","Male","false","false","false","true","""event"",""trial"",""time""
""fullscreenenter"",""5"",""26585""
","
","
","""event"",""trial"",""time""
""fullscreenenter"",""5"",""26585""
","
","","","","","","","","","","","","","","","","","","","","","",""
"d3-instructions","53","316634","0.0-53.0","3923","7268","25","Male","false","false","false","true","""event"",""trial"",""time""
""fullscreenenter"",""5"",""26585""
","
","
","""event"",""trial"",""time""
""fullscreenenter"",""5"",""26585""
","
","","","","","","","","","","","","","","","","","","","","","",""
"d3-instructions","54","329785","0.0-54.0","3923","7268","25","Male","false","false","false","true","""event"",""trial"",""time""
""fullscreenenter"",""5"",""26585""
","
","
","""event"",""trial"",""time""
""fullscreenenter"",""5"",""26585""
","
","","","","","","","","","","","","","","","","","","","","","",""
"d3-instructions","55","334712","0.0-55.0","3923","7268","25","Male","false","false","false","true","""event"",""trial"",""time""
""fullscreenenter"",""5"",""26585""
","
","
","""event"",""trial"",""time""
""fullscreenenter"",""5"",""26585""
","
","","","","","","","","","","","","","","","","","","","","","",""
"d3-instructions","56","343199","0.0-56.0","3923","7268","25","Male","false","false","false","true","""event"",""trial"",""time""
""fullscreenenter"",""5"",""26585""
","
","
","""event"",""trial"",""time""
""fullscreenenter"",""5"",""26585""
","
","","","","","","","","","","","","","","","","","","","","","",""
"d3-instructions","57","351923","0.0-57.0","3923","7268","25","Male","false","false","false","true","""event"",""trial"",""time""
""fullscreenenter"",""5"",""26585""
","
","
","""event"",""trial"",""time""
""fullscreenenter"",""5"",""26585""
","
","","","","","","","","","","","","","","","","","","","","","",""
"d3-instructions","58","365906","0.0-58.0","3923","7268","25","Male","false","false","false","true","""event"",""trial"",""time""
""fullscreenenter"",""5"",""26585""
","
","
","""event"",""trial"",""time""
""fullscreenenter"",""5"",""26585""
","
","","","","","","","","","","","","","","","","","","","","","",""
"d3-instructions","59","370474","0.0-59.0","3923","7268","25","Male","false","false","false","true","""event"",""trial"",""time""
""fullscreenenter"",""5"",""26585""
","
","
","""event"",""trial"",""time""
""fullscreenenter"",""5"",""26585""
","
","","","","","","","","","","","","","","","","","","","","","",""
"d3-instructions","60","372934","0.0-60.0","3923","7268","25","Male","false","false","false","true","""event"",""trial"",""time""
""fullscreenenter"",""5"",""26585""
","
","
","""event"",""trial"",""time""
""fullscreenenter"",""5"",""26585""
","
","","","","","","","","","","","","","","","","","","","","","",""
"d3-animate-choice","61","376104","0.0-61.0-0.0","3923","7268","25","Male","false","false","false","true","""event"",""trial"",""time""
""fullscreenenter"",""5"",""26585""
","
","
","""event"",""trial"",""time""
""fullscreenenter"",""5"",""26585""
","
","1160.2999999998137","","48","","","3000","1","","","images/earth.jpg","images/tutrocket1","images/tutrocket2","null","images/tutrocket1","","1","practice","null","2","","",""
"d3-animate-choice","62","379514","0.0-61.0-1.0","3923","7268","25","Male","false","false","false","true","""event"",""trial"",""time""
""fullscreenenter"",""5"",""26585""
","
","
","""event"",""trial"",""time""
""fullscreenenter"",""5"",""26585""
","
","1402.2000000001863","","49","","","3000","1","","","images/tutgreenplanet.jpg","images/tutalien2","images/tutalien1","images/tutrocket1","images/tutalien1","images/nothing.png","2","practice","false","1","rare","0","2023-03-04 20:12:28.196"
"two-step-fixation","63","380534","0.0-61.0-2.0","3923","7268","25","Male","false","false","false","true","""event"",""trial"",""time""
""fullscreenenter"",""5"",""26585""
","
","
","""event"",""trial"",""time""
""fullscreenenter"",""5"",""26585""
","
","","images/earth.jpg","","","","","","","","","","","","","","fixation","","","","","",""
"d3-animate-choice","64","383296","0.0-61.0-0.1","3923","7268","25","Male","false","false","false","true","""event"",""trial"",""time""
""fullscreenenter"",""5"",""26585""
","
","
","""event"",""trial"",""time""
""fullscreenenter"",""5"",""26585""
","
","756","","48","","","3000","1","","","images/earth.jpg","images/tutrocket1","images/tutrocket2","null","images/tutrocket1","","1","practice","null","2","","",""
"d3-animate-choice","65","386674","0.0-61.0-1.1","3923","7268","25","Male","false","false","false","true","""event"",""trial"",""time""
""fullscreenenter"",""5"",""26585""
","
","
","""event"",""trial"",""time""
""fullscreenenter"",""5"",""26585""
","
","1363.8999999999069","","49","","","3000","1","","","images/tutyellowplanet.jpg","images/tutalien4","images/tutalien3","images/tutrocket1","images/tutalien3","images/nothing.png","2","practice","true","1","common","0","2023-03-04 20:12:35.355"
"two-step-fixation","66","387681","0.0-61.0-2.1","3923","7268","25","Male","false","false","false","true","""event"",""trial"",""time""
""fullscreenenter"",""5"",""26585""
","
","
","""event"",""trial"",""time""
""fullscreenenter"",""5"",""26585""
","
","","images/earth.jpg","","","","","","","","","","","","","","fixation","","","","","",""
"d3-animate-choice","67","390054","0.0-61.0-0.2","3923","7268","25","Male","false","false","false","true","""event"",""trial"",""time""
""fullscreenenter"",""5"",""26585""
","
","
","""event"",""trial"",""time""
""fullscreenenter"",""5"",""26585""
","
","354","","48","","","3000","1","","","images/earth.jpg","images/tutrocket1","images/tutrocket2","null","images/tutrocket1","","1","practice","null","2","","",""
"d3-animate-choice","68","393064","0.0-61.0-1.2","3923","7268","25","Male","false","false","false","true","""event"",""trial"",""time""
""fullscreenenter"",""5"",""26585""
","
","
","""event"",""trial"",""time""
""fullscreenenter"",""5"",""26585""
","
","999.7000000001863","","49","","","3000","1","","","images/tutgreenplanet.jpg","images/tutalien2","images/tutalien1","images/tutrocket1","images/tutalien1","images/t.png","2","practice","false","1","rare","1","2023-03-04 20:12:41.746"
"two-step-fixation","69","394084","0.0-61.0-2.2","3923","7268","25","Male","false","false","false","true","""event"",""trial"",""time""
""fullscreenenter"",""5"",""26585""
","
","
","""event"",""trial"",""time""
""fullscreenenter"",""5"",""26585""
","
","","images/earth.jpg","","","","","","","","","","","","","","fixation","","","","","",""
"d3-animate-choice","70","396477","0.0-61.0-0.3","3923","7268","25","Male","false","false","false","true","""event"",""trial"",""time""
""fullscreenenter"",""5"",""26585""
","
","
","""event"",""trial"",""time""
""fullscreenenter"",""5"",""26585""
","
","385.60000000009313","","48","","","3000","1","","","images/earth.jpg","images/tutrocket1","images/tutrocket2","null","images/tutrocket1","","1","practice","null","2","","",""
"d3-animate-choice","71","398880","0.0-61.0-1.3","3923","7268","25","Male","false","false","false","true","""event"",""trial"",""time""
""fullscreenenter"",""5"",""26585""
","
","
","""event"",""trial"",""time""
""fullscreenenter"",""5"",""26585""
","
","400.90000000037253","","48","","","3000","1","","","images/tutyellowplanet.jpg","images/tutalien4","images/tutalien3","images/tutrocket1","images/tutalien4","images/t.png","2","practice","true","2","common","1","2023-03-04 20:12:47.561"
"two-step-fixation","72","399883","0.0-61.0-2.3","3923","7268","25","Male","false","false","false","true","""event"",""trial"",""time""
""fullscreenenter"",""5"",""26585""
","
","
","""event"",""trial"",""time""
""fullscreenenter"",""5"",""26585""
","
","","images/earth.jpg","","","","","","","","","","","","","","fixation","","","","","",""
"d3-animate-choice","73","402411","0.0-61.0-0.4","3923","7268","25","Male","false","false","false","true","""event"",""trial"",""time""
""fullscreenenter"",""5"",""26585""
","
","
","""event"",""trial"",""time""
""fullscreenenter"",""5"",""26585""
","
","524.6999999997206","","48","","","3000","1","","","images/earth.jpg","images/tutrocket1","images/tutrocket2","null","images/tutrocket1","","1","practice","null","2","","",""
"d3-animate-choice","74","404783","0.0-61.0-1.4","3923","7268","25","Male","false","false","false","true","""event"",""trial"",""time""
""fullscreenenter"",""5"",""26585""
","
","
","""event"",""trial"",""time""
""fullscreenenter"",""5"",""26585""
","
","369.5","","49","","","3000","1","","","images/tutgreenplanet.jpg","images/tutalien2","images/tutalien1","images/tutrocket1","images/tutalien1","images/nothing.png","2","practice","false","1","rare","0","2023-03-04 20:12:53.464"
"two-step-fixation","75","405784","0.0-61.0-2.4","3923","7268","25","Male","false","false","false","true","""event"",""trial"",""time""
""fullscreenenter"",""5"",""26585""
","
","
","""event"",""trial"",""time""
""fullscreenenter"",""5"",""26585""
","
","","images/earth.jpg","","","","","","","","","","","","","","fixation","","","","","",""
"d3-animate-choice","76","408179","0.0-61.0-0.5","3923","7268","25","Male","false","false","false","true","""event"",""trial"",""time""
""fullscreenenter"",""5"",""26585""
","
","
","""event"",""trial"",""time""
""fullscreenenter"",""5"",""26585""
","
","378.89999999990687","","48","","","3000","1","","","images/earth.jpg","images/tutrocket1","images/tutrocket2","null","images/tutrocket1","","1","practice","null","2","","",""
"d3-animate-choice","77","410810","0.0-61.0-1.5","3923","7268","25","Male","false","false","false","true","""event"",""trial"",""time""
""fullscreenenter"",""5"",""26585""
","
","
","""event"",""trial"",""time""
""fullscreenenter"",""5"",""26585""
","
","627.6000000000931","","48","","","3000","1","","","images/tutyellowplanet.jpg","images/tutalien4","images/tutalien3","images/tutrocket1","images/tutalien4","images/nothing.png","2","practice","true","2","common","0","2023-03-04 20:12:59.491"
"two-step-fixation","78","411812","0.0-61.0-2.5","3923","7268","25","Male","false","false","false","true","""event"",""trial"",""time""
""fullscreenenter"",""5"",""26585""
","
","
","""event"",""trial"",""time""
""fullscreenenter"",""5"",""26585""
","
","","images/earth.jpg","","","","","","","","","","","","","","fixation","","","","","",""
"d3-animate-choice","79","414161","0.0-61.0-0.6","3923","7268","25","Male","false","false","false","true","""event"",""trial"",""time""
""fullscreenenter"",""5"",""26585""
","
","
","""event"",""trial"",""time""
""fullscreenenter"",""5"",""26585""
","
","346.10000000009313","","48","","","3000","1","","","images/earth.jpg","images/tutrocket1","images/tutrocket2","null","images/tutrocket1","","1","practice","null","2","","",""
"d3-animate-choice","80","416460","0.0-61.0-1.6","3923","7268","25","Male","false","false","false","true","""event"",""trial"",""time""
""fullscreenenter"",""5"",""26585""
","
","
","""event"",""trial"",""time""
""fullscreenenter"",""5"",""26585""
","
","296.79999999981374","","49","","","3000","1","","","images/tutyellowplanet.jpg","images/tutalien4","images/tutalien3","images/tutrocket1","images/tutalien3","images/nothing.png","2","practice","true","1","common","0","2023-03-04 20:13:05.142"
"two-step-fixation","81","417464","0.0-61.0-2.6","3923","7268","25","Male","false","false","false","true","""event"",""trial"",""time""
""fullscreenenter"",""5"",""26585""
","
","
","""event"",""trial"",""time""
""fullscreenenter"",""5"",""26585""
","
","","images/earth.jpg","","","","","","","","","","","","","","fixation","","","","","",""
"d3-animate-choice","82","419470","0.0-61.0-0.7","3923","7268","25","Male","false","false","false","true","""event"",""trial"",""time""
""fullscreenenter"",""5"",""26585""
","
","
","""event"",""trial"",""time""
""fullscreenenter"",""5"",""26585""
","
","3.599999999627471","","48","","","3000","1","","","images/earth.jpg","images/tutrocket1","images/tutrocket2","null","images/tutrocket1","","1","practice","null","2","","",""
"d3-animate-choice","83","422536","0.0-61.0-1.7","3923","7268","25","Male","false","false","false","true","""event"",""trial"",""time""
""fullscreenenter"",""5"",""26585""
","
","
","""event"",""trial"",""time""
""fullscreenenter"",""5"",""26585""
","
","1063.5","","49","","","3000","1","","","images/tutgreenplanet.jpg","images/tutalien2","images/tutalien1","images/tutrocket1","images/tutalien1","images/t.png","2","practice","false","1","rare","1","2023-03-04 20:13:11.217"
"two-step-fixation","84","423538","0.0-61.0-2.7","3923","7268","25","Male","false","false","false","true","""event"",""trial"",""time""
""fullscreenenter"",""5"",""26585""
","
","
","""event"",""trial"",""time""
""fullscreenenter"",""5"",""26585""
","
","","images/earth.jpg","","","","","","","","","","","","","","fixation","","","","","",""
"d3-animate-choice","85","426039","0.0-61.0-0.8","3923","7268","25","Male","false","false","false","true","""event"",""trial"",""time""
""fullscreenenter"",""5"",""26585""
","
","
","""event"",""trial"",""time""
""fullscreenenter"",""5"",""26585""
","
","497.60000000009313","","48","","","3000","1","","","images/earth.jpg","images/tutrocket1","images/tutrocket2","null","images/tutrocket1","","1","practice","null","2","","",""
"d3-animate-choice","86","428464","0.0-61.0-1.8","3923","7268","25","Male","false","false","false","true","""event"",""trial"",""time""
""fullscreenenter"",""5"",""26585""
","
","
","""event"",""trial"",""time""
""fullscreenenter"",""5"",""26585""
","
","423.29999999981374","","48","","","3000","1","","","images/tutyellowplanet.jpg","images/tutalien4","images/tutalien3","images/tutrocket1","images/tutalien4","images/nothing.png","2","practice","true","2","common","0","2023-03-04 20:13:17.146"
"two-step-fixation","87","429468","0.0-61.0-2.8","3923","7268","25","Male","false","false","false","true","""event"",""trial"",""time""
""fullscreenenter"",""5"",""26585""
","
","
","""event"",""trial"",""time""
""fullscreenenter"",""5"",""26585""
","
","","images/earth.jpg","","","","","","","","","","","","","","fixation","","","","","",""
"d3-animate-choice","88","431670","0.0-61.0-0.9","3923","7268","25","Male","false","false","false","true","""event"",""trial"",""time""
""fullscreenenter"",""5"",""26585""
","
","
","""event"",""trial"",""time""
""fullscreenenter"",""5"",""26585""
","
","199.59999999962747","","48","","","3000","1","427.89999999990687,640","48,48","images/earth.jpg","images/tutrocket1","images/tutrocket2","null","images/tutrocket1","","1","practice","null","2","","",""
"d3-animate-choice","89","434191","0.0-61.0-1.9","3923","7268","25","Male","false","false","false","true","""event"",""trial"",""time""
""fullscreenenter"",""5"",""26585""
","
","
","""event"",""trial"",""time""
""fullscreenenter"",""5"",""26585""
","
","517.7000000001863","","48","","","3000","1","","","images/tutyellowplanet.jpg","images/tutalien4","images/tutalien3","images/tutrocket1","images/tutalien4","images/nothing.png","2","practice","true","2","common","0","2023-03-04 20:13:22.872"
"two-step-fixation","90","435192","0.0-61.0-2.9","3923","7268","25","Male","false","false","false","true","""event"",""trial"",""time""
""fullscreenenter"",""5"",""26585""
","
","
","""event"",""trial"",""time""
""fullscreenenter"",""5"",""26585""
","
","","images/earth.jpg","","","","","","","","","","","","","","fixation","","","","","",""
"d3-animate-choice","91","437497","0.0-61.0-0.10","3923","7268","25","Male","false","false","false","true","""event"",""trial"",""time""
""fullscreenenter"",""5"",""26585""
","
","
","""event"",""trial"",""time""
""fullscreenenter"",""5"",""26585""
","
","303.6999999997206","","48","","","3000","1","","","images/earth.jpg","images/tutrocket1","images/tutrocket2","null","images/tutrocket1","","1","practice","null","2","","",""
"d3-animate-choice","92","439796","0.0-61.0-1.10","3923","7268","25","Male","false","false","false","true","""event"",""trial"",""time""
""fullscreenenter"",""5"",""26585""
","
","
","""event"",""trial"",""time""
""fullscreenenter"",""5"",""26585""
","
","295.39999999990687","","48","","","3000","1","","","images/tutyellowplanet.jpg","images/tutalien4","images/tutalien3","images/tutrocket1","images/tutalien4","images/nothing.png","2","practice","true","2","common","0","2023-03-04 20:13:28.477"
"two-step-fixation","93","440798","0.0-61.0-2.10","3923","7268","25","Male","false","false","false","true","""event"",""trial"",""time""
""fullscreenenter"",""5"",""26585""
","
","
","""event"",""trial"",""time""
""fullscreenenter"",""5"",""26585""
","
","","images/earth.jpg","","","","","","","","","","","","","","fixation","","","","","",""
"d3-animate-choice","94","443059","0.0-61.0-0.11","3923","7268","25","Male","false","false","false","true","""event"",""trial"",""time""
""fullscreenenter"",""5"",""26585""
","
","
","""event"",""trial"",""time""
""fullscreenenter"",""5"",""26585""
","
","258.8000000002794","","48","","","3000","1","","","images/earth.jpg","images/tutrocket1","images/tutrocket2","null","images/tutrocket1","","1","practice","null","2","","",""
"d3-animate-choice","95","445438","0.0-61.0-1.11","3923","7268","25","Male","false","false","false","true","""event"",""trial"",""time""
""fullscreenenter"",""5"",""26585""
","
","
","""event"",""trial"",""time""
""fullscreenenter"",""5"",""26585""
","
","377.10000000009313","","49","","","3000","1","","","images/tutyellowplanet.jpg","images/tutalien4","images/tutalien3","images/tutrocket1","images/tutalien3","images/nothing.png","2","practice","true","1","common","0","2023-03-04 20:13:34.119"
"two-step-fixation","96","446440","0.0-61.0-2.11","3923","7268","25","Male","false","false","false","true","""event"",""trial"",""time""
""fullscreenenter"",""5"",""26585""
","
","
","""event"",""trial"",""time""
""fullscreenenter"",""5"",""26585""
","
","","images/earth.jpg","","","","","","","","","","","","","","fixation","","","","","",""
"d3-animate-choice","97","448728","0.0-61.0-0.12","3923","7268","25","Male","false","false","false","true","""event"",""trial"",""time""
""fullscreenenter"",""5"",""26585""
","
","
","""event"",""trial"",""time""
""fullscreenenter"",""5"",""26585""
","
","284.59999999962747","","48","","","3000","1","","","images/earth.jpg","images/tutrocket1","images/tutrocket2","null","images/tutrocket1","","1","practice","null","2","","",""
"d3-animate-choice","98","451315","0.0-61.0-1.12","3923","7268","25","Male","false","false","false","true","""event"",""trial"",""time""
""fullscreenenter"",""5"",""26585""
","
","
","""event"",""trial"",""time""
""fullscreenenter"",""5"",""26585""
","
","585.0999999996275","","48","","","3000","1","","","images/tutyellowplanet.jpg","images/tutalien4","images/tutalien3","images/tutrocket1","images/tutalien4","images/nothing.png","2","practice","true","2","common","0","2023-03-04 20:13:39.996"
"two-step-fixation","99","452319","0.0-61.0-2.12","3923","7268","25","Male","false","false","false","true","""event"",""trial"",""time""
""fullscreenenter"",""5"",""26585""
","
","
","""event"",""trial"",""time""
""fullscreenenter"",""5"",""26585""
","
","","images/earth.jpg","","","","","","","","","","","","","","fixation","","","","","",""
"d3-animate-choice","100","454773","0.0-61.0-0.13","3923","7268","25","Male","false","false","false","true","""event"",""trial"",""time""
""fullscreenenter"",""5"",""26585""
","
","
","""event"",""trial"",""time""
""fullscreenenter"",""5"",""26585""
","
","449.70000000018626","","49","","","3000","1","","","images/earth.jpg","images/tutrocket1","images/tutrocket2","null","images/tutrocket2","","1","practice","null","1","","",""
"d3-animate-choice","101","457099","0.0-61.0-1.13","3923","7268","25","Male","false","false","false","true","""event"",""trial"",""time""
""fullscreenenter"",""5"",""26585""
","
","
","""event"",""trial"",""time""
""fullscreenenter"",""5"",""26585""
","
","322.89999999990687","","49","","","3000","1","","","images/tutgreenplanet.jpg","images/tutalien2","images/tutalien1","images/tutrocket2","images/tutalien1","images/nothing.png","2","practice","true","1","common","0","2023-03-04 20:13:45.780"
"two-step-fixation","102","458102","0.0-61.0-2.13","3923","7268","25","Male","false","false","false","true","""event"",""trial"",""time""
""fullscreenenter"",""5"",""26585""
","
","
","""event"",""trial"",""time""
""fullscreenenter"",""5"",""26585""
","
","","images/earth.jpg","","","","","","","","","","","","","","fixation","","","","","",""
"d3-animate-choice","103","460355","0.0-61.0-0.14","3923","7268","25","Male","false","false","false","true","""event"",""trial"",""time""
""fullscreenenter"",""5"",""26585""
","
","
","""event"",""trial"",""time""
""fullscreenenter"",""5"",""26585""
","
","249","","49","","","3000","1","","","images/earth.jpg","images/tutrocket1","images/tutrocket2","null","images/tutrocket2","","1","practice","null","1","","",""
"d3-animate-choice","104","462617","0.0-61.0-1.14","3923","7268","25","Male","false","false","false","true","""event"",""trial"",""time""
""fullscreenenter"",""5"",""26585""
","
","
","""event"",""trial"",""time""
""fullscreenenter"",""5"",""26585""
","
","258","","48","","","3000","1","","","images/tutgreenplanet.jpg","images/tutalien2","images/tutalien1","images/tutrocket2","images/tutalien2","images/t.png","2","practice","true","2","common","1","2023-03-04 20:13:51.298"
"two-step-fixation","105","463620","0.0-61.0-2.14","3923","7268","25","Male","false","false","false","true","""event"",""trial"",""time""
""fullscreenenter"",""5"",""26585""
","
","
","""event"",""trial"",""time""
""fullscreenenter"",""5"",""26585""
","
","","images/earth.jpg","","","","","","","","","","","","","","fixation","","","","","",""
"d3-animate-choice","106","465862","0.0-61.0-0.15","3923","7268","25","Male","false","false","false","true","""event"",""trial"",""time""
""fullscreenenter"",""5"",""26585""
","
","
","""event"",""trial"",""time""
""fullscreenenter"",""5"",""26585""
","
","238.39999999990687","","49","","","3000","1","","","images/earth.jpg","images/tutrocket1","images/tutrocket2","null","images/tutrocket2","","1","practice","null","1","","",""
"d3-animate-choice","107","468713","0.0-61.0-1.15","3923","7268","25","Male","false","false","false","true","""event"",""trial"",""time""
""fullscreenenter"",""5"",""26585""
","
","
","""event"",""trial"",""time""
""fullscreenenter"",""5"",""26585""
","
","850","","49","","","3000","1","","","images/tutyellowplanet.jpg","images/tutalien4","images/tutalien3","images/tutrocket2","images/tutalien3","images/nothing.png","2","practice","false","1","rare","0","2023-03-04 20:13:57.394"
"two-step-fixation","108","469714","0.0-61.0-2.15","3923","7268","25","Male","false","false","false","true","""event"",""trial"",""time""
""fullscreenenter"",""5"",""26585""
","
","
","""event"",""trial"",""time""
""fullscreenenter"",""5"",""26585""
","
","","images/earth.jpg","","","","","","","","","","","","","","fixation","","","","","",""
"d3-animate-choice","109","471954","0.0-61.0-0.16","3923","7268","25","Male","false","false","false","true","""event"",""trial"",""time""
""fullscreenenter"",""5"",""26585""
","
","
","""event"",""trial"",""time""
""fullscreenenter"",""5"",""26585""
","
","237","","49","","","3000","1","","","images/earth.jpg","images/tutrocket1","images/tutrocket2","null","images/tutrocket2","","1","practice","null","1","","",""
"d3-animate-choice","110","474305","0.0-61.0-1.16","3923","7268","25","Male","false","false","false","true","""event"",""trial"",""time""
""fullscreenenter"",""5"",""26585""
","
","
","""event"",""trial"",""time""
""fullscreenenter"",""5"",""26585""
","
","347.29999999981374","","49","","","3000","1","","","images/tutgreenplanet.jpg","images/tutalien2","images/tutalien1","images/tutrocket2","images/tutalien1","images/nothing.png","2","practice","true","1","common","0","2023-03-04 20:14:02.986"
"two-step-fixation","111","475309","0.0-61.0-2.16","3923","7268","25","Male","false","false","false","true","""event"",""trial"",""time""
""fullscreenenter"",""5"",""26585""
","
","
","""event"",""trial"",""time""
""fullscreenenter"",""5"",""26585""
","
","","images/earth.jpg","","","","","","","","","","","","","","fixation","","","","","",""
"d3-animate-choice","112","477641","0.0-61.0-0.17","3923","7268","25","Male","false","false","false","true","""event"",""trial"",""time""
""fullscreenenter"",""5"",""26585""
","
","
","""event"",""trial"",""time""
""fullscreenenter"",""5"",""26585""
","
","328.39999999990687","","49","","","3000","1","","","images/earth.jpg","images/tutrocket1","images/tutrocket2","null","images/tutrocket2","","1","practice","null","1","","",""
"d3-animate-choice","113","479944","0.0-61.0-1.17","3923","7268","25","Male","false","false","false","true","""event"",""trial"",""time""
""fullscreenenter"",""5"",""26585""
","
","
","""event"",""trial"",""time""
""fullscreenenter"",""5"",""26585""
","
","300.90000000037253","","48","","","3000","1","","","images/tutyellowplanet.jpg","images/tutalien4","images/tutalien3","images/tutrocket2","images/tutalien4","images/t.png","2","practice","false","2","rare","1","2023-03-04 20:14:08.625"
"two-step-fixation","114","480948","0.0-61.0-2.17","3923","7268","25","Male","false","false","false","true","""event"",""trial"",""time""
""fullscreenenter"",""5"",""26585""
","
","
","""event"",""trial"",""time""
""fullscreenenter"",""5"",""26585""
","
","","images/earth.jpg","","","","","","","","","","","","","","fixation","","","","","",""
"d3-animate-choice","115","483364","0.0-61.0-0.18","3923","7268","25","Male","false","false","false","true","""event"",""trial"",""time""
""fullscreenenter"",""5"",""26585""
","
","
","""event"",""trial"",""time""
""fullscreenenter"",""5"",""26585""
","
","413.79999999981374","","49","","","3000","1","","","images/earth.jpg","images/tutrocket1","images/tutrocket2","null","images/tutrocket2","","1","practice","null","1","","",""
"d3-animate-choice","116","485803","0.0-61.0-1.18","3923","7268","25","Male","false","false","false","true","""event"",""trial"",""time""
""fullscreenenter"",""5"",""26585""
","
","
","""event"",""trial"",""time""
""fullscreenenter"",""5"",""26585""
","
","435.20000000018626","","48","","","3000","1","","","images/tutgreenplanet.jpg","images/tutalien2","images/tutalien1","images/tutrocket2","images/tutalien2","images/nothing.png","2","practice","true","2","common","0","2023-03-04 20:14:14.484"
"two-step-fixation","117","486806","0.0-61.0-2.18","3923","7268","25","Male","false","false","false","true","""event"",""trial"",""time""
""fullscreenenter"",""5"",""26585""
","
","
","""event"",""trial"",""time""
""fullscreenenter"",""5"",""26585""
","
","","images/earth.jpg","","","","","","","","","","","","","","fixation","","","","","",""
"d3-animate-choice","118","488971","0.0-61.0-0.19","3923","7268","25","Male","false","false","false","true","""event"",""trial"",""time""
""fullscreenenter"",""5"",""26585""
","
","
","""event"",""trial"",""time""
""fullscreenenter"",""5"",""26585""
","
","161.5","","49","","","3000","1","","","images/earth.jpg","images/tutrocket1","images/tutrocket2","null","images/tutrocket2","","1","practice","null","1","","",""
"d3-animate-choice","119","491368","0.0-61.0-1.19","3923","7268","25","Male","false","false","false","true","""event"",""trial"",""time""
""fullscreenenter"",""5"",""26585""
","
","
","""event"",""trial"",""time""
""fullscreenenter"",""5"",""26585""
","
","395.5","","49","","","3000","1","","","images/tutgreenplanet.jpg","images/tutalien2","images/tutalien1","images/tutrocket2","images/tutalien1","images/nothing.png","2","practice","true","1","common","0","2023-03-04 20:14:20.049"
"two-step-fixation","120","492370","0.0-61.0-2.19","3923","7268","25","Male","false","false","false","true","""event"",""trial"",""time""
""fullscreenenter"",""5"",""26585""
","
","
","""event"",""trial"",""time""
""fullscreenenter"",""5"",""26585""
","
","","images/earth.jpg","","","","","","","","","","","","","","fixation","","","","","",""
"d3-instructions","121","495723","0.0-62.0","3923","7268","25","Male","false","false","false","true","""event"",""trial"",""time""
""fullscreenenter"",""5"",""26585""
","
","
","""event"",""trial"",""time""
""fullscreenenter"",""5"",""26585""
","
","","","","","","","","","","","","","","","","","","","","","",""
"audio-keyboard-response","122","499548","0.0-63.0","3923","7268","25","Male","false","false","false","true","""event"",""trial"",""time""
""fullscreenenter"",""5"",""26585""
","
","
","""event"",""trial"",""time""
""fullscreenenter"",""5"",""26585""
","
","3821","audio/instructions/treasure_feedback.wav","32","","","","","","","","","","","","","","","","","","",""
"d3-instructions","123","514665","0.0-64.0","3923","7268","25","Male","false","false","false","true","""event"",""trial"",""time""
""fullscreenenter"",""5"",""26585""
","
","
","""event"",""trial"",""time""
""fullscreenenter"",""5"",""26585""
","
","","","","","","","","","","","","","","","","","","","","","",""
"d3-instructions","124","531259","0.0-65.0","3923","7268","25","Male","false","false","false","true","""event"",""trial"",""time""
""fullscreenenter"",""5"",""26585""
","
","
","""event"",""trial"",""time""
""fullscreenenter"",""5"",""26585""
","
","","","","","","","","","","","","","","","","","","","","","",""
"d3-instructions","125","561435","0.0-66.0","3923","7268","25","Male","false","false","false","true","""event"",""trial"",""time""
""fullscreenenter"",""5"",""26585""
","
","
","""event"",""trial"",""time""
""fullscreenenter"",""5"",""26585""
","
","","","","","","","","","","","","","","","","","","","","","",""
"d3-instructions","126","577128","0.0-67.0","3923","7268","25","Male","false","false","false","true","""event"",""trial"",""time""
""fullscreenenter"",""5"",""26585""
","
","
","""event"",""trial"",""time""
""fullscreenenter"",""5"",""26585""
","
","","","","","","","","","","","","","","","","","","","","","",""
"d3-instructions","127","580690","0.0-68.0","3923","7268","25","Male","false","false","false","true","""event"",""trial"",""time""
""fullscreenenter"",""5"",""26585""
","
","
","""event"",""trial"",""time""
""fullscreenenter"",""5"",""26585""
","
","","","","","","","","","","","","","","","","","","","","","",""
"instructions-quiz","128","583559","0.0-69.0","3923","7268","25","Male","false","false","false","true","""event"",""trial"",""time""
""fullscreenenter"",""5"",""26585""
","
","
","""event"",""trial"",""time""
""fullscreenenter"",""5"",""26585""
","
","2868.0999999996275","audio/quiz/Q1_Prompt.wav","","1","","","","","","","","","","","","","","","","","",""
"audio-keyboard-response","129","585614","0.0-70.0","3923","7268","25","Male","false","false","false","true","""event"",""trial"",""time""
""fullscreenenter"",""5"",""26585""
","
","
","""event"",""trial"",""time""
""fullscreenenter"",""5"",""26585""
","
","2061","audio/quiz/Q1_Correct.wav","32","","","","","","","","","","","","","","","","","","",""
"instructions-quiz","130","593784","0.0-71.0","3923","7268","25","Male","false","false","false","true","""event"",""trial"",""time""
""fullscreenenter"",""5"",""26585""
","
","
","""event"",""trial"",""time""
""fullscreenenter"",""5"",""26585""
","
","8168.9000000003725","audio/quiz/Q2_Prompt.wav","","0","","","","","","","","","","","","","","","","","",""
"audio-keyboard-response","131","598666","0.0-72.0","3923","7268","25","Male","false","false","false","true","""event"",""trial"",""time""
""fullscreenenter"",""5"",""26585""
","
","
","""event"",""trial"",""time""
""fullscreenenter"",""5"",""26585""
","
","4880","audio/quiz/Q2_Correct.wav","32","","","","","","","","","","","","","","","","","","",""
"instructions-quiz","132","601511","0.0-73.0","3923","7268","25","Male","false","false","false","true","""event"",""trial"",""time""
""fullscreenenter"",""5"",""26585""
","
","
","""event"",""trial"",""time""
""fullscreenenter"",""5"",""26585""
","
","2843.399999999907","audio/quiz/Q3_Prompt.wav","","1","","","","","","","","","","","","","","","","","",""
"audio-keyboard-response","133","602336","0.0-74.0","3923","7268","25","Male","false","false","false","true","""event"",""trial"",""time""
""fullscreenenter"",""5"",""26585""
","
","
","""event"",""trial"",""time""
""fullscreenenter"",""5"",""26585""
","
","829","audio/quiz/Q3_Correct.wav","32","","","","","","","","","","","","","","","","","","",""
"d3-instructions","134","603786","0.0-75.0","3923","7268","25","Male","false","false","false","true","""event"",""trial"",""time""
""fullscreenenter"",""5"",""26585""
","
","
","""event"",""trial"",""time""
""fullscreenenter"",""5"",""26585""
","
","","","","","","","","","","","","","","","","","","","","","",""
"pavlovia","135","603788","0.0-76.0","3923","7268","25","Male","false","false","false","true","""event"",""trial"",""time""
""fullscreenenter"",""5"",""26585""
","
","
","""event"",""trial"",""time""
""fullscreenenter"",""5"",""26585""
","
","","","","","","","","","","","","","","","","","","","","","",""
"d3-animate-choice","136","607355","0.0-77.0-0.0","3923","7268","25","Male","false","false","false","true","""event"",""trial"",""time""
""fullscreenenter"",""5"",""26585""
","
","
","""event"",""trial"",""time""
""fullscreenenter"",""5"",""26585""
","
","1563.3000000002794","","49","","","3000","1","","","images/earth.jpg","images/rocket1","images/rocket2","null","images/rocket2","","1","real","null","1","","",""
"d3-animate-choice","137","609795","0.0-77.0-1.0","3923","7268","25","Male","false","false","false","true","""event"",""trial"",""time""
""fullscreenenter"",""5"",""26585""
","
","
","""event"",""trial"",""time""
""fullscreenenter"",""5"",""26585""
","
","437.39999999990687","","49","","","3000","1","","","images/purpleplanet.jpg","images/alien4","images/alien3","images/rocket2","images/alien3","images/nothing.png","2","real","false","1","rare","0","2023-03-04 20:16:18.476"
"two-step-fixation","138","610797","0.0-77.0-2.0","3923","7268","25","Male","false","false","false","true","""event"",""trial"",""time""
""fullscreenenter"",""5"",""26585""
","
","
","""event"",""trial"",""time""
""fullscreenenter"",""5"",""26585""
","
","","images/earth.jpg","","","","","","","","","","","","","","fixation","","","","","",""
"d3-animate-choice","139","613168","0.0-77.0-0.1","3923","7268","25","Male","false","false","false","true","""event"",""trial"",""time""
""fullscreenenter"",""5"",""26585""
","
","
","""event"",""trial"",""time""
""fullscreenenter"",""5"",""26585""
","
","367.90000000037253","","48","","","3000","1","","","images/earth.jpg","images/rocket1","images/rocket2","null","images/rocket1","","1","real","null","2","","",""
"d3-animate-choice","140","615484","0.0-77.0-1.1","3923","7268","25","Male","false","false","false","true","""event"",""trial"",""time""
""fullscreenenter"",""5"",""26585""
","
","
","""event"",""trial"",""time""
""fullscreenenter"",""5"",""26585""
","
","308.90000000037253","","49","","","3000","1","","","images/purpleplanet.jpg","images/alien4","images/alien3","images/rocket1","images/alien3","images/nothing.png","2","real","true","1","common","0","2023-03-04 20:16:24.166"
"two-step-fixation","141","616501","0.0-77.0-2.1","3923","7268","25","Male","false","false","false","true","""event"",""trial"",""time""
""fullscreenenter"",""5"",""26585""
","
","
","""event"",""trial"",""time""
""fullscreenenter"",""5"",""26585""
","
","","images/earth.jpg","","","","","","","","","","","","","","fixation","","","","","",""
"d3-animate-choice","142","618749","0.0-77.0-0.2","3923","7268","25","Male","false","false","false","true","""event"",""trial"",""time""
""fullscreenenter"",""5"",""26585""
","
","
","""event"",""trial"",""time""
""fullscreenenter"",""5"",""26585""
","
","244.10000000009313","","49","","","3000","1","","","images/earth.jpg","images/rocket1","images/rocket2","null","images/rocket2","","1","real","null","1","","",""
"d3-animate-choice","143","621361","0.0-77.0-1.2","3923","7268","25","Male","false","false","false","true","""event"",""trial"",""time""
""fullscreenenter"",""5"",""26585""
","
","
","""event"",""trial"",""time""
""fullscreenenter"",""5"",""26585""
","
","603.2999999998137","","49","","","3000","1","","","images/redplanet1.jpg","images/alien2","images/alien1","images/rocket2","images/alien1","images/nothing.png","2","real","true","1","common","0","2023-03-04 20:16:30.042"
"two-step-fixation","144","622377","0.0-77.0-2.2","3923","7268","25","Male","false","false","false","true","""event"",""trial"",""time""
""fullscreenenter"",""5"",""26585""
","
","
","""event"",""trial"",""time""
""fullscreenenter"",""5"",""26585""
","
","","images/earth.jpg","","","","","","","","","","","","","","fixation","","","","","",""
"d3-animate-choice","145","624631","0.0-77.0-0.3","3923","7268","25","Male","false","false","false","true","""event"",""trial"",""time""
""fullscreenenter"",""5"",""26585""
","
","
","""event"",""trial"",""time""
""fullscreenenter"",""5"",""26585""
","
","237.89999999990687","","49","","","3000","1","","","images/earth.jpg","images/rocket1","images/rocket2","null","images/rocket2","","1","real","null","1","","",""
"d3-animate-choice","146","627406","0.0-77.0-1.3","3923","7268","25","Male","false","false","false","true","""event"",""trial"",""time""
""fullscreenenter"",""5"",""26585""
","
","
","""event"",""trial"",""time""
""fullscreenenter"",""5"",""26585""
","
","772.1999999997206","","48","","","3000","1","","","images/purpleplanet.jpg","images/alien4","images/alien3","images/rocket2","images/alien4","images/t.png","2","real","false","2","rare","1","2023-03-04 20:16:36.087"
"two-step-fixation","147","628410","0.0-77.0-2.3","3923","7268","25","Male","false","false","false","true","""event"",""trial"",""time""
""fullscreenenter"",""5"",""26585""
","
","
","""event"",""trial"",""time""
""fullscreenenter"",""5"",""26585""
","
","","images/earth.jpg","","","","","","","","","","","","","","fixation","","","","","",""
"d3-animate-choice","148","630794","0.0-77.0-0.4","3923","7268","25","Male","false","false","false","true","""event"",""trial"",""time""
""fullscreenenter"",""5"",""26585""
","
","
","""event"",""trial"",""time""
""fullscreenenter"",""5"",""26585""
","
","382","","48","","","3000","1","","","images/earth.jpg","images/rocket1","images/rocket2","null","images/rocket1","","1","real","null","2","","",""
"d3-animate-choice","149","633551","0.0-77.0-1.4","3923","7268","25","Male","false","false","false","true","""event"",""trial"",""time""
""fullscreenenter"",""5"",""26585""
","
","
","""event"",""trial"",""time""
""fullscreenenter"",""5"",""26585""
","
","745.0999999996275","","48","","","3000","1","","","images/redplanet1.jpg","images/alien2","images/alien1","images/rocket1","images/alien2","images/t.png","2","real","false","2","rare","1","2023-03-04 20:16:42.233"
"two-step-fixation","150","634555","0.0-77.0-2.4","3923","7268","25","Male","false","false","false","true","""event"",""trial"",""time""
""fullscreenenter"",""5"",""26585""
","
","
","""event"",""trial"",""time""
""fullscreenenter"",""5"",""26585""
","
","","images/earth.jpg","","","","","","","","","","","","","","fixation","","","","","",""
"d3-animate-choice","151","636830","0.0-77.0-0.5","3923","7268","25","Male","false","false","false","true","""event"",""trial"",""time""
""fullscreenenter"",""5"",""26585""
","
","
","""event"",""trial"",""time""
""fullscreenenter"",""5"",""26585""
","
","273","","49","","","3000","1","","","images/earth.jpg","images/rocket1","images/rocket2","null","images/rocket2","","1","real","null","1","","",""
"d3-animate-choice","152","639299","0.0-77.0-1.5","3923","7268","25","Male","false","false","false","true","""event"",""trial"",""time""
""fullscreenenter"",""5"",""26585""
","
","
","""event"",""trial"",""time""
""fullscreenenter"",""5"",""26585""
","
","467.59999999962747","","48","","","3000","1","","","images/redplanet1.jpg","images/alien2","images/alien1","images/rocket2","images/alien2","images/t.png","2","real","true","2","common","1","2023-03-04 20:16:47.980"
"two-step-fixation","153","640301","0.0-77.0-2.5","3923","7268","25","Male","false","false","false","true","""event"",""trial"",""time""
""fullscreenenter"",""5"",""26585""
","
","
","""event"",""trial"",""time""
""fullscreenenter"",""5"",""26585""
","
","","images/earth.jpg","","","","","","","","","","","","","","fixation","","","","","",""
"d3-animate-choice","154","642562","0.0-77.0-0.6","3923","7268","25","Male","false","false","false","true","""event"",""trial"",""time""
""fullscreenenter"",""5"",""26585""
","
","
","""event"",""trial"",""time""
""fullscreenenter"",""5"",""26585""
","
","257.10000000009313","","49","","","3000","1","","","images/earth.jpg","images/rocket1","images/rocket2","null","images/rocket2","","1","real","null","1","","",""
"d3-animate-choice","155","645097","0.0-77.0-1.6","3923","7268","25","Male","false","false","false","true","""event"",""trial"",""time""
""fullscreenenter"",""5"",""26585""
","
","
","""event"",""trial"",""time""
""fullscreenenter"",""5"",""26585""
","
","532.3000000002794","","48","","","3000","1","","","images/redplanet1.jpg","images/alien2","images/alien1","images/rocket2","images/alien2","images/nothing.png","2","real","true","2","common","0","2023-03-04 20:16:53.778"
"two-step-fixation","156","646100","0.0-77.0-2.6","3923","7268","25","Male","false","false","false","true","""event"",""trial"",""time""
""fullscreenenter"",""5"",""26585""
","
","
","""event"",""trial"",""time""
""fullscreenenter"",""5"",""26585""
","
","","images/earth.jpg","","","","","","","","","","","","","","fixation","","","","","",""
"d3-animate-choice","157","648339","0.0-77.0-0.7","3923","7268","25","Male","false","false","false","true","""event"",""trial"",""time""
""fullscreenenter"",""5"",""26585""
","
","
","""event"",""trial"",""time""
""fullscreenenter"",""5"",""26585""
","
","237.3000000002794","","49","","","3000","1","","","images/earth.jpg","images/rocket1","images/rocket2","null","images/rocket2","","1","real","null","1","","",""
"d3-animate-choice","158","650838","0.0-77.0-1.7","3923","7268","25","Male","false","false","false","true","""event"",""trial"",""time""
""fullscreenenter"",""5"",""26585""
","
","
","""event"",""trial"",""time""
""fullscreenenter"",""5"",""26585""
","
","496.70000000018626","","48","","","3000","1","","","images/redplanet1.jpg","images/alien2","images/alien1","images/rocket2","images/alien2","images/nothing.png","2","real","true","2","common","0","2023-03-04 20:16:59.519"
"two-step-fixation","159","651841","0.0-77.0-2.7","3923","7268","25","Male","false","false","false","true","""event"",""trial"",""time""
""fullscreenenter"",""5"",""26585""
","
","
","""event"",""trial"",""time""
""fullscreenenter"",""5"",""26585""
","
","","images/earth.jpg","","","","","","","","","","","","","","fixation","","","","","",""
"d3-animate-choice","160","654054","0.0-77.0-0.8","3923","7268","25","Male","false","false","false","true","""event"",""trial"",""time""
""fullscreenenter"",""5"",""26585""
","
","
","""event"",""trial"",""time""
""fullscreenenter"",""5"",""26585""
","
","211","","49","","","3000","1","","","images/earth.jpg","images/rocket1","images/rocket2","null","images/rocket2","","1","real","null","1","","",""
"d3-animate-choice","161","656348","0.0-77.0-1.8","3923","7268","25","Male","false","false","false","true","""event"",""trial"",""time""
""fullscreenenter"",""5"",""26585""
","
","
","""event"",""trial"",""time""
""fullscreenenter"",""5"",""26585""
","
","291.39999999990687","","49","","","3000","1","","","images/purpleplanet.jpg","images/alien4","images/alien3","images/rocket2","images/alien3","images/nothing.png","2","real","false","1","rare","0","2023-03-04 20:17:05.030"
"two-step-fixation","162","657353","0.0-77.0-2.8","3923","7268","25","Male","false","false","false","true","""event"",""trial"",""time""
""fullscreenenter"",""5"",""26585""
","
","
","""event"",""trial"",""time""
""fullscreenenter"",""5"",""26585""
","
","","images/earth.jpg","","","","","","","","","","","","","","fixation","","","","","",""
"d3-animate-choice","163","659592","0.0-77.0-0.9","3923","7268","25","Male","false","false","false","true","""event"",""trial"",""time""
""fullscreenenter"",""5"",""26585""
","
","
","""event"",""trial"",""time""
""fullscreenenter"",""5"",""26585""
","
","236.1999999997206","","49","","","3000","1","","","images/earth.jpg","images/rocket1","images/rocket2","null","images/rocket2","","1","real","null","1","","",""
"d3-animate-choice","164","661909","0.0-77.0-1.9","3923","7268","25","Male","false","false","false","true","""event"",""trial"",""time""
""fullscreenenter"",""5"",""26585""
","
","
","""event"",""trial"",""time""
""fullscreenenter"",""5"",""26585""
","
","316.1999999997206","","48","","","3000","1","","","images/redplanet1.jpg","images/alien2","images/alien1","images/rocket2","images/alien2","images/t.png","2","real","true","2","common","1","2023-03-04 20:17:10.590"
"two-step-fixation","165","662911","0.0-77.0-2.9","3923","7268","25","Male","false","false","false","true","""event"",""trial"",""time""
""fullscreenenter"",""5"",""26585""
","
","
","""event"",""trial"",""time""
""fullscreenenter"",""5"",""26585""
","
","","images/earth.jpg","","","","","","","","","","","","","","fixation","","","","","",""
"d3-animate-choice","166","664917","0.0-77.0-0.10","3923","7268","25","Male","false","false","false","true","""event"",""trial"",""time""
""fullscreenenter"",""5"",""26585""
","
","
","""event"",""trial"",""time""
""fullscreenenter"",""5"",""26585""
","
","5.5","","49","","","3000","1","","","images/earth.jpg","images/rocket1","images/rocket2","null","images/rocket2","","1","real","null","1","","",""
"d3-animate-choice","167","667347","0.0-77.0-1.10","3923","7268","25","Male","false","false","false","true","""event"",""trial"",""time""
""fullscreenenter"",""5"",""26585""
","
","
","""event"",""trial"",""time""
""fullscreenenter"",""5"",""26585""
","
","426.8000000002794","","48","","","3000","1","","","images/redplanet1.jpg","images/alien2","images/alien1","images/rocket2","images/alien2","images/t.png","2","real","true","2","common","1","2023-03-04 20:17:16.028"
"two-step-fixation","168","668349","0.0-77.0-2.10","3923","7268","25","Male","false","false","false","true","""event"",""trial"",""time""
""fullscreenenter"",""5"",""26585""
","
","
","""event"",""trial"",""time""
""fullscreenenter"",""5"",""26585""
","
","","images/earth.jpg","","","","","","","","","","","","","","fixation","","","","","",""
"d3-animate-choice","169","670583","0.0-77.0-0.11","3923","7268","25","Male","false","false","false","true","""event"",""trial"",""time""
""fullscreenenter"",""5"",""26585""
","
","
","""event"",""trial"",""time""
""fullscreenenter"",""5"",""26585""
","
","231","","49","","","3000","1","","","images/earth.jpg","images/rocket1","images/rocket2","null","images/rocket2","","1","real","null","1","","",""
"d3-animate-choice","170","672951","0.0-77.0-1.11","3923","7268","25","Male","false","false","false","true","""event"",""trial"",""time""
""fullscreenenter"",""5"",""26585""
","
","
","""event"",""trial"",""time""
""fullscreenenter"",""5"",""26585""
","
","365.70000000018626","","48","","","3000","1","","","images/redplanet1.jpg","images/alien2","images/alien1","images/rocket2","images/alien2","images/t.png","2","real","true","2","common","1","2023-03-04 20:17:21.632"
"two-step-fixation","171","673955","0.0-77.0-2.11","3923","7268","25","Male","false","false","false","true","""event"",""trial"",""time""
""fullscreenenter"",""5"",""26585""
","
","
","""event"",""trial"",""time""
""fullscreenenter"",""5"",""26585""
","
","","images/earth.jpg","","","","","","","","","","","","","","fixation","","","","","",""
"d3-animate-choice","172","676168","0.0-77.0-0.12","3923","7268","25","Male","false","false","false","true","""event"",""trial"",""time""
""fullscreenenter"",""5"",""26585""
","
","
","""event"",""trial"",""time""
""fullscreenenter"",""5"",""26585""
","
","209.5","","49","","","3000","1","","","images/earth.jpg","images/rocket1","images/rocket2","null","images/rocket2","","1","real","null","1","","",""
"d3-animate-choice","173","678556","0.0-77.0-1.12","3923","7268","25","Male","false","false","false","true","""event"",""trial"",""time""
""fullscreenenter"",""5"",""26585""
","
","
","""event"",""trial"",""time""
""fullscreenenter"",""5"",""26585""
","
","385.29999999981374","","48","","","3000","1","","","images/redplanet1.jpg","images/alien2","images/alien1","images/rocket2","images/alien2","images/nothing.png","2","real","true","2","common","0","2023-03-04 20:17:27.237"
"two-step-fixation","174","679560","0.0-77.0-2.12","3923","7268","25","Male","false","false","false","true","""event"",""trial"",""time""
""fullscreenenter"",""5"",""26585""
","
","
","""event"",""trial"",""time""
""fullscreenenter"",""5"",""26585""
","
","","images/earth.jpg","","","","","","","","","","","","","","fixation","","","","","",""
"d3-animate-choice","175","681820","0.0-77.0-0.13","3923","7268","25","Male","false","false","false","true","""event"",""trial"",""time""
""fullscreenenter"",""5"",""26585""
","
","
","""event"",""trial"",""time""
""fullscreenenter"",""5"",""26585""
","
","259","","49","","","3000","1","","","images/earth.jpg","images/rocket1","images/rocket2","null","images/rocket2","","1","real","null","1","","",""
"d3-animate-choice","176","684185","0.0-77.0-1.13","3923","7268","25","Male","false","false","false","true","""event"",""trial"",""time""
""fullscreenenter"",""5"",""26585""
","
","
","""event"",""trial"",""time""
""fullscreenenter"",""5"",""26585""
","
","362.29999999981374","","48","","","3000","1","","","images/redplanet1.jpg","images/alien2","images/alien1","images/rocket2","images/alien2","images/t.png","2","real","true","2","common","1","2023-03-04 20:17:32.866"
"two-step-fixation","177","685188","0.0-77.0-2.13","3923","7268","25","Male","false","false","false","true","""event"",""trial"",""time""
""fullscreenenter"",""5"",""26585""
","
","
","""event"",""trial"",""time""
""fullscreenenter"",""5"",""26585""
","
","","images/earth.jpg","","","","","","","","","","","","","","fixation","","","","","",""
"d3-animate-choice","178","687456","0.0-77.0-0.14","3923","7268","25","Male","false","false","false","true","""event"",""trial"",""time""
""fullscreenenter"",""5"",""26585""
","
","
","""event"",""trial"",""time""
""fullscreenenter"",""5"",""26585""
","
","266.70000000018626","","49","","","3000","1","","","images/earth.jpg","images/rocket1","images/rocket2","null","images/rocket2","","1","real","null","1","","",""
"d3-animate-choice","179","689939","0.0-77.0-1.14","3923","7268","25","Male","false","false","false","true","""event"",""trial"",""time""
""fullscreenenter"",""5"",""26585""
","
","
","""event"",""trial"",""time""
""fullscreenenter"",""5"",""26585""
","
","480.70000000018626","","48","","","3000","1","","","images/redplanet1.jpg","images/alien2","images/alien1","images/rocket2","images/alien2","images/nothing.png","2","real","true","2","common","0","2023-03-04 20:17:38.620"
"two-step-fixation","180","690942","0.0-77.0-2.14","3923","7268","25","Male","false","false","false","true","""event"",""trial"",""time""
""fullscreenenter"",""5"",""26585""
","
","
","""event"",""trial"",""time""
""fullscreenenter"",""5"",""26585""
","
","","images/earth.jpg","","","","","","","","","","","","","","fixation","","","","","",""
"d3-animate-choice","181","692979","0.0-77.0-0.15","3923","7268","25","Male","false","false","false","true","""event"",""trial"",""time""
""fullscreenenter"",""5"",""26585""
","
","
","""event"",""trial"",""time""
""fullscreenenter"",""5"",""26585""
","
","35.5","","49","","","3000","1","","","images/earth.jpg","images/rocket1","images/rocket2","null","images/rocket2","","1","real","null","1","","",""
"d3-animate-choice","182","695935","0.0-77.0-1.15","3923","7268","25","Male","false","false","false","true","""event"",""trial"",""time""
""fullscreenenter"",""5"",""26585""
","
","
","""event"",""trial"",""time""
""fullscreenenter"",""5"",""26585""
","
","954.1000000000931","","49","","","3000","1","","","images/purpleplanet.jpg","images/alien4","images/alien3","images/rocket2","images/alien3","images/nothing.png","2","real","false","1","rare","0","2023-03-04 20:17:44.616"
"two-step-fixation","183","696937","0.0-77.0-2.15","3923","7268","25","Male","false","false","false","true","""event"",""trial"",""time""
""fullscreenenter"",""5"",""26585""
","
","
","""event"",""trial"",""time""
""fullscreenenter"",""5"",""26585""
","
","","images/earth.jpg","","","","","","","","","","","","","","fixation","","","","","",""
"d3-animate-choice","184","699158","0.0-77.0-0.16","3923","7268","25","Male","false","false","false","true","""event"",""trial"",""time""
""fullscreenenter"",""5"",""26585""
","
","
","""event"",""trial"",""time""
""fullscreenenter"",""5"",""26585""
","
","217.39999999990687","","49","","","3000","1","","","images/earth.jpg","images/rocket1","images/rocket2","null","images/rocket2","","1","real","null","1","","",""
"d3-animate-choice","185","701495","0.0-77.0-1.16","3923","7268","25","Male","false","false","false","true","""event"",""trial"",""time""
""fullscreenenter"",""5"",""26585""
","
","
","""event"",""trial"",""time""
""fullscreenenter"",""5"",""26585""
","
","334.89999999990687","","48","","","3000","1","","","images/redplanet1.jpg","images/alien2","images/alien1","images/rocket2","images/alien2","images/t.png","2","real","true","2","common","1","2023-03-04 20:17:50.176"
"two-step-fixation","186","702498","0.0-77.0-2.16","3923","7268","25","Male","false","false","false","true","""event"",""trial"",""time""
""fullscreenenter"",""5"",""26585""
","
","
","""event"",""trial"",""time""
""fullscreenenter"",""5"",""26585""
","
","","images/earth.jpg","","","","","","","","","","","","","","fixation","","","","","",""
"d3-animate-choice","187","704728","0.0-77.0-0.17","3923","7268","25","Male","false","false","false","true","""event"",""trial"",""time""
""fullscreenenter"",""5"",""26585""
","
","
","""event"",""trial"",""time""
""fullscreenenter"",""5"",""26585""
","
","226.5","","49","","","3000","1","","","images/earth.jpg","images/rocket1","images/rocket2","null","images/rocket2","","1","real","null","1","","",""
"d3-animate-choice","188","707485","0.0-77.0-1.17","3923","7268","25","Male","false","false","false","true","""event"",""trial"",""time""
""fullscreenenter"",""5"",""26585""
","
","
","""event"",""trial"",""time""
""fullscreenenter"",""5"",""26585""
","
","755.6000000000931","","48","","","3000","1","","","images/purpleplanet.jpg","images/alien4","images/alien3","images/rocket2","images/alien4","images/t.png","2","real","false","2","rare","1","2023-03-04 20:17:56.166"
"two-step-fixation","189","708487","0.0-77.0-2.17","3923","7268","25","Male","false","false","false","true","""event"",""trial"",""time""
""fullscreenenter"",""5"",""26585""
","
","
","""event"",""trial"",""time""
""fullscreenenter"",""5"",""26585""
","
","","images/earth.jpg","","","","","","","","","","","","","","fixation","","","","","",""
"d3-animate-choice","190","710762","0.0-77.0-0.18","3923","7268","25","Male","false","false","false","true","""event"",""trial"",""time""
""fullscreenenter"",""5"",""26585""
","
","
","""event"",""trial"",""time""
""fullscreenenter"",""5"",""26585""
","
","272.60000000009313","","49","","","3000","1","","","images/earth.jpg","images/rocket1","images/rocket2","null","images/rocket2","","1","real","null","1","","",""
"d3-animate-choice","191","713251","0.0-77.0-1.18","3923","7268","25","Male","false","false","false","true","""event"",""trial"",""time""
""fullscreenenter"",""5"",""26585""
","
","
","""event"",""trial"",""time""
""fullscreenenter"",""5"",""26585""
","
","486.70000000018626","","48","","","3000","1","","","images/redplanet1.jpg","images/alien2","images/alien1","images/rocket2","images/alien2","images/t.png","2","real","true","2","common","1","2023-03-04 20:18:01.932"
"two-step-fixation","192","714256","0.0-77.0-2.18","3923","7268","25","Male","false","false","false","true","""event"",""trial"",""time""
""fullscreenenter"",""5"",""26585""
","
","
","""event"",""trial"",""time""
""fullscreenenter"",""5"",""26585""
","
","","images/earth.jpg","","","","","","","","","","","","","","fixation","","","","","",""
"d3-animate-choice","193","716506","0.0-77.0-0.19","3923","7268","25","Male","false","false","false","true","""event"",""trial"",""time""
""fullscreenenter"",""5"",""26585""
","
","
","""event"",""trial"",""time""
""fullscreenenter"",""5"",""26585""
","
","247.90000000037253","","49","","","3000","1","","","images/earth.jpg","images/rocket1","images/rocket2","null","images/rocket2","","1","real","null","1","","",""
"d3-animate-choice","194","718880","0.0-77.0-1.19","3923","7268","25","Male","false","false","false","true","""event"",""trial"",""time""
""fullscreenenter"",""5"",""26585""
","
","
","""event"",""trial"",""time""
""fullscreenenter"",""5"",""26585""
","
","371.3000000002794","","48","","","3000","1","","","images/redplanet1.jpg","images/alien2","images/alien1","images/rocket2","images/alien2","images/t.png","2","real","true","2","common","1","2023-03-04 20:18:07.561"
"two-step-fixation","195","719882","0.0-77.0-2.19","3923","7268","25","Male","false","false","false","true","""event"",""trial"",""time""
""fullscreenenter"",""5"",""26585""
","
","
","""event"",""trial"",""time""
""fullscreenenter"",""5"",""26585""
","
","","images/earth.jpg","","","","","","","","","","","","","","fixation","","","","","",""
"d3-animate-choice","196","722089","0.0-77.0-0.20","3923","7268","25","Male","false","false","false","true","""event"",""trial"",""time""
""fullscreenenter"",""5"",""26585""
","
","
","""event"",""trial"",""time""
""fullscreenenter"",""5"",""26585""
","
","204.39999999990687","","49","","","3000","1","","","images/earth.jpg","images/rocket1","images/rocket2","null","images/rocket2","","1","real","null","1","","",""
"d3-animate-choice","197","724890","0.0-77.0-1.20","3923","7268","25","Male","false","false","false","true","""event"",""trial"",""time""
""fullscreenenter"",""5"",""26585""
","
","
","""event"",""trial"",""time""
""fullscreenenter"",""5"",""26585""
","
","796.5","","48","","","3000","1","","","images/purpleplanet.jpg","images/alien4","images/alien3","images/rocket2","images/alien4","images/t.png","2","real","false","2","rare","1","2023-03-04 20:18:13.571"
"two-step-fixation","198","725891","0.0-77.0-2.20","3923","7268","25","Male","false","false","false","true","""event"",""trial"",""time""
""fullscreenenter"",""5"",""26585""
","
","
","""event"",""trial"",""time""
""fullscreenenter"",""5"",""26585""
","
","","images/earth.jpg","","","","","","","","","","","","","","fixation","","","","","",""
"d3-animate-choice","199","728154","0.0-77.0-0.21","3923","7268","25","Male","false","false","false","true","""event"",""trial"",""time""
""fullscreenenter"",""5"",""26585""
","
","
","""event"",""trial"",""time""
""fullscreenenter"",""5"",""26585""
","
","260.39999999990687","","49","","","3000","1","","","images/earth.jpg","images/rocket1","images/rocket2","null","images/rocket2","","1","real","null","1","","",""
"d3-animate-choice","200","730549","0.0-77.0-1.21","3923","7268","25","Male","false","false","false","true","""event"",""trial"",""time""
""fullscreenenter"",""5"",""26585""
","
","
","""event"",""trial"",""time""
""fullscreenenter"",""5"",""26585""
","
","392.89999999990687","","48","","","3000","1","","","images/redplanet1.jpg","images/alien2","images/alien1","images/rocket2","images/alien2","images/t.png","2","real","true","2","common","1","2023-03-04 20:18:19.230"
"two-step-fixation","201","731551","0.0-77.0-2.21","3923","7268","25","Male","false","false","false","true","""event"",""trial"",""time""
""fullscreenenter"",""5"",""26585""
","
","
","""event"",""trial"",""time""
""fullscreenenter"",""5"",""26585""
","
","","images/earth.jpg","","","","","","","","","","","","","","fixation","","","","","",""
"d3-animate-choice","202","733767","0.0-77.0-0.22","3923","7268","25","Male","false","false","false","true","""event"",""trial"",""time""
""fullscreenenter"",""5"",""26585""
","
","
","""event"",""trial"",""time""
""fullscreenenter"",""5"",""26585""
","
","215.39999999990687","","49","","","3000","1","","","images/earth.jpg","images/rocket1","images/rocket2","null","images/rocket2","","1","real","null","1","","",""
"d3-animate-choice","203","736165","0.0-77.0-1.22","3923","7268","25","Male","false","false","false","true","""event"",""trial"",""time""
""fullscreenenter"",""5"",""26585""
","
","
","""event"",""trial"",""time""
""fullscreenenter"",""5"",""26585""
","
","396.29999999981374","","48","","","3000","1","","","images/redplanet1.jpg","images/alien2","images/alien1","images/rocket2","images/alien2","images/t.png","2","real","true","2","common","1","2023-03-04 20:18:24.847"
"two-step-fixation","204","737167","0.0-77.0-2.22","3923","7268","25","Male","false","false","false","true","""event"",""trial"",""time""
""fullscreenenter"",""5"",""26585""
","
","
","""event"",""trial"",""time""
""fullscreenenter"",""5"",""26585""
","
","","images/earth.jpg","","","","","","","","","","","","","","fixation","","","","","",""
"d3-animate-choice","205","739411","0.0-77.0-0.23","3923","7268","25","Male","false","false","false","true","""event"",""trial"",""time""
""fullscreenenter"",""5"",""26585""
","
","
","""event"",""trial"",""time""
""fullscreenenter"",""5"",""26585""
","
","242.29999999981374","","49","","","3000","1","","","images/earth.jpg","images/rocket1","images/rocket2","null","images/rocket2","","1","real","null","1","","",""
"d3-animate-choice","206","741827","0.0-77.0-1.23","3923","7268","25","Male","false","false","false","true","""event"",""trial"",""time""
""fullscreenenter"",""5"",""26585""
","
","
","""event"",""trial"",""time""
""fullscreenenter"",""5"",""26585""
","
","414.5","","48","","","3000","1","","","images/redplanet1.jpg","images/alien2","images/alien1","images/rocket2","images/alien2","images/nothing.png","2","real","true","2","common","0","2023-03-04 20:18:30.508"
"two-step-fixation","207","742829","0.0-77.0-2.23","3923","7268","25","Male","false","false","false","true","""event"",""trial"",""time""
""fullscreenenter"",""5"",""26585""
","
","
","""event"",""trial"",""time""
""fullscreenenter"",""5"",""26585""
","
","","images/earth.jpg","","","","","","","","","","","","","","fixation","","","","","",""
"d3-animate-choice","208","744854","0.0-77.0-0.24","3923","7268","25","Male","false","false","false","true","""event"",""trial"",""time""
""fullscreenenter"",""5"",""26585""
","
","
","""event"",""trial"",""time""
""fullscreenenter"",""5"",""26585""
","
","22.300000000279397","","49","","","3000","1","","","images/earth.jpg","images/rocket1","images/rocket2","null","images/rocket2","","1","real","null","1","","",""
"d3-animate-choice","209","747131","0.0-77.0-1.24","3923","7268","25","Male","false","false","false","true","""event"",""trial"",""time""
""fullscreenenter"",""5"",""26585""
","
","
","""event"",""trial"",""time""
""fullscreenenter"",""5"",""26585""
","
","273.89999999990687","","48","","","3000","1","","","images/redplanet1.jpg","images/alien2","images/alien1","images/rocket2","images/alien2","images/t.png","2","real","true","2","common","1","2023-03-04 20:18:35.813"
"two-step-fixation","210","748135","0.0-77.0-2.24","3923","7268","25","Male","false","false","false","true","""event"",""trial"",""time""
""fullscreenenter"",""5"",""26585""
","
","
","""event"",""trial"",""time""
""fullscreenenter"",""5"",""26585""
","
","","images/earth.jpg","","","","","","","","","","","","","","fixation","","","","","",""
"d3-animate-choice","211","750393","0.0-77.0-0.25","3923","7268","25","Male","false","false","false","true","""event"",""trial"",""time""
""fullscreenenter"",""5"",""26585""
","
","
","""event"",""trial"",""time""
""fullscreenenter"",""5"",""26585""
","
","254.29999999981374","","49","","","3000","1","","","images/earth.jpg","images/rocket1","images/rocket2","null","images/rocket2","","1","real","null","1","","",""
"d3-animate-choice","212","752762","0.0-77.0-1.25","3923","7268","25","Male","false","false","false","true","""event"",""trial"",""time""
""fullscreenenter"",""5"",""26585""
","
","
","""event"",""trial"",""time""
""fullscreenenter"",""5"",""26585""
","
","368.10000000009313","","48","","","3000","1","","","images/purpleplanet.jpg","images/alien4","images/alien3","images/rocket2","images/alien4","images/nothing.png","2","real","false","2","rare","0","2023-03-04 20:18:41.443"
"two-step-fixation","213","753765","0.0-77.0-2.25","3923","7268","25","Male","false","false","false","true","""event"",""trial"",""time""
""fullscreenenter"",""5"",""26585""
","
","
","""event"",""trial"",""time""
""fullscreenenter"",""5"",""26585""
","
","","images/earth.jpg","","","","","","","","","","","","","","fixation","","","","","",""
"d3-animate-choice","214","756003","0.0-77.0-0.26","3923","7268","25","Male","false","false","false","true","""event"",""trial"",""time""
""fullscreenenter"",""5"",""26585""
","
","
","""event"",""trial"",""time""
""fullscreenenter"",""5"",""26585""
","
","236.70000000018626","","49","","","3000","1","","","images/earth.jpg","images/rocket1","images/rocket2","null","images/rocket2","","1","real","null","1","","",""
"d3-animate-choice","215","758158","0.0-77.0-1.26","3923","7268","25","Male","false","false","false","true","""event"",""trial"",""time""
""fullscreenenter"",""5"",""26585""
","
","
","""event"",""trial"",""time""
""fullscreenenter"",""5"",""26585""
","
","153.60000000009313","","48","","","3000","1","","","images/redplanet1.jpg","images/alien2","images/alien1","images/rocket2","images/alien2","images/t.png","2","real","true","2","common","1","2023-03-04 20:18:46.839"
"two-step-fixation","216","759162","0.0-77.0-2.26","3923","7268","25","Male","false","false","false","true","""event"",""trial"",""time""
""fullscreenenter"",""5"",""26585""
","
","
","""event"",""trial"",""time""
""fullscreenenter"",""5"",""26585""
","
","","images/earth.jpg","","","","","","","","","","","","","","fixation","","","","","",""
"d3-animate-choice","217","761452","0.0-77.0-0.27","3923","7268","25","Male","false","false","false","true","""event"",""trial"",""time""
""fullscreenenter"",""5"",""26585""
","
","
","""event"",""trial"",""time""
""fullscreenenter"",""5"",""26585""
","
","288.09999999962747","","49","","","3000","1","","","images/earth.jpg","images/rocket1","images/rocket2","null","images/rocket2","","1","real","null","1","","",""
"d3-animate-choice","218","763826","0.0-77.0-1.27","3923","7268","25","Male","false","false","false","true","""event"",""trial"",""time""
""fullscreenenter"",""5"",""26585""
","
","
","""event"",""trial"",""time""
""fullscreenenter"",""5"",""26585""
","
","372.39999999990687","","48","","","3000","1","","","images/purpleplanet.jpg","images/alien4","images/alien3","images/rocket2","images/alien4","images/t.png","2","real","false","2","rare","1","2023-03-04 20:18:52.507"
"two-step-fixation","219","764828","0.0-77.0-2.27","3923","7268","25","Male","false","false","false","true","""event"",""trial"",""time""
""fullscreenenter"",""5"",""26585""
","
","
","""event"",""trial"",""time""
""fullscreenenter"",""5"",""26585""
","
","","images/earth.jpg","","","","","","","","","","","","","","fixation","","","","","",""
"d3-animate-choice","220","767128","0.0-77.0-0.28","3923","7268","25","Male","false","false","false","true","""event"",""trial"",""time""
""fullscreenenter"",""5"",""26585""
","
","
","""event"",""trial"",""time""
""fullscreenenter"",""5"",""26585""
","
","298.10000000009313","","49","","","3000","1","","","images/earth.jpg","images/rocket1","images/rocket2","null","images/rocket2","","1","real","null","1","","",""
"d3-animate-choice","221","769419","0.0-77.0-1.28","3923","7268","25","Male","false","false","false","true","""event"",""trial"",""time""
""fullscreenenter"",""5"",""26585""
","
","
","""event"",""trial"",""time""
""fullscreenenter"",""5"",""26585""
","
","289.1999999997206","","48","","","3000","1","","","images/redplanet1.jpg","images/alien2","images/alien1","images/rocket2","images/alien2","images/t.png","2","real","true","2","common","1","2023-03-04 20:18:58.100"
"two-step-fixation","222","770420","0.0-77.0-2.28","3923","7268","25","Male","false","false","false","true","""event"",""trial"",""time""
""fullscreenenter"",""5"",""26585""
","
","
","""event"",""trial"",""time""
""fullscreenenter"",""5"",""26585""
","
","","images/earth.jpg","","","","","","","","","","","","","","fixation","","","","","",""
"d3-animate-choice","223","772721","0.0-77.0-0.29","3923","7268","25","Male","false","false","false","true","""event"",""trial"",""time""
""fullscreenenter"",""5"",""26585""
","
","
","""event"",""trial"",""time""
""fullscreenenter"",""5"",""26585""
","
","298.60000000009313","","49","","","3000","1","","","images/earth.jpg","images/rocket1","images/rocket2","null","images/rocket2","","1","real","null","1","","",""
"d3-animate-choice","224","775157","0.0-77.0-1.29","3923","7268","25","Male","false","false","false","true","""event"",""trial"",""time""
""fullscreenenter"",""5"",""26585""
","
","
","""event"",""trial"",""time""
""fullscreenenter"",""5"",""26585""
","
","434.6999999997206","","48","","","3000","1","","","images/redplanet1.jpg","images/alien2","images/alien1","images/rocket2","images/alien2","images/t.png","2","real","true","2","common","1","2023-03-04 20:19:03.838"
"two-step-fixation","225","776159","0.0-77.0-2.29","3923","7268","25","Male","false","false","false","true","""event"",""trial"",""time""
""fullscreenenter"",""5"",""26585""
","
","
","""event"",""trial"",""time""
""fullscreenenter"",""5"",""26585""
","
","","images/earth.jpg","","","","","","","","","","","","","","fixation","","","","","",""
"d3-animate-choice","226","778441","0.0-77.0-0.30","3923","7268","25","Male","false","false","false","true","""event"",""trial"",""time""
""fullscreenenter"",""5"",""26585""
","
","
","""event"",""trial"",""time""
""fullscreenenter"",""5"",""26585""
","
","280","","49","","","3000","1","","","images/earth.jpg","images/rocket1","images/rocket2","null","images/rocket2","","1","real","null","1","","",""
"d3-animate-choice","227","780982","0.0-77.0-1.30","3923","7268","25","Male","false","false","false","true","""event"",""trial"",""time""
""fullscreenenter"",""5"",""26585""
","
","
","""event"",""trial"",""time""
""fullscreenenter"",""5"",""26585""
","
","540.3000000002794","","48","","","3000","1","","","images/redplanet1.jpg","images/alien2","images/alien1","images/rocket2","images/alien2","images/t.png","2","real","true","2","common","1","2023-03-04 20:19:09.663"
"two-step-fixation","228","781984","0.0-77.0-2.30","3923","7268","25","Male","false","false","false","true","""event"",""trial"",""time""
""fullscreenenter"",""5"",""26585""
","
","
","""event"",""trial"",""time""
""fullscreenenter"",""5"",""26585""
","
","","images/earth.jpg","","","","","","","","","","","","","","fixation","","","","","",""
"d3-animate-choice","229","784259","0.0-77.0-0.31","3923","7268","25","Male","false","false","false","true","""event"",""trial"",""time""
""fullscreenenter"",""5"",""26585""
","
","
","""event"",""trial"",""time""
""fullscreenenter"",""5"",""26585""
","
","272.40000000037253","","49","","","3000","1","","","images/earth.jpg","images/rocket1","images/rocket2","null","images/rocket2","","1","real","null","1","","",""
"d3-animate-choice","230","787005","0.0-77.0-1.31","3923","7268","25","Male","false","false","false","true","""event"",""trial"",""time""
""fullscreenenter"",""5"",""26585""
","
","
","""event"",""trial"",""time""
""fullscreenenter"",""5"",""26585""
","
","744.5","","48","","","3000","1","","","images/redplanet1.jpg","images/alien2","images/alien1","images/rocket2","images/alien2","images/t.png","2","real","true","2","common","1","2023-03-04 20:19:15.686"
"two-step-fixation","231","788007","0.0-77.0-2.31","3923","7268","25","Male","false","false","false","true","""event"",""trial"",""time""
""fullscreenenter"",""5"",""26585""
","
","
","""event"",""trial"",""time""
""fullscreenenter"",""5"",""26585""
","
","","images/earth.jpg","","","","","","","","","","","","","","fixation","","","","","",""
"d3-animate-choice","232","790137","0.0-77.0-0.32","3923","7268","25","Male","false","false","false","true","""event"",""trial"",""time""
""fullscreenenter"",""5"",""26585""
","
","
","""event"",""trial"",""time""
""fullscreenenter"",""5"",""26585""
","
","128.10000000009313","","49","","","3000","1","","","images/earth.jpg","images/rocket1","images/rocket2","null","images/rocket2","","1","real","null","1","","",""
"d3-animate-choice","233","792520","0.0-77.0-1.32","3923","7268","25","Male","false","false","false","true","""event"",""trial"",""time""
""fullscreenenter"",""5"",""26585""
","
","
","""event"",""trial"",""time""
""fullscreenenter"",""5"",""26585""
","
","380.5","","48","","","3000","1","","","images/redplanet1.jpg","images/alien2","images/alien1","images/rocket2","images/alien2","images/nothing.png","2","real","true","2","common","0","2023-03-04 20:19:21.201"
"two-step-fixation","234","793522","0.0-77.0-2.32","3923","7268","25","Male","false","false","false","true","""event"",""trial"",""time""
""fullscreenenter"",""5"",""26585""
","
","
","""event"",""trial"",""time""
""fullscreenenter"",""5"",""26585""
","
","","images/earth.jpg","","","","","","","","","","","","","","fixation","","","","","",""
"d3-animate-choice","235","795768","0.0-77.0-0.33","3923","7268","25","Male","false","false","false","true","""event"",""trial"",""time""
""fullscreenenter"",""5"",""26585""
","
","
","""event"",""trial"",""time""
""fullscreenenter"",""5"",""26585""
","
","244.8000000002794","","49","","","3000","1","","","images/earth.jpg","images/rocket1","images/rocket2","null","images/rocket2","","1","real","null","1","","",""
"d3-animate-choice","236","798135","0.0-77.0-1.33","3923","7268","25","Male","false","false","false","true","""event"",""trial"",""time""
""fullscreenenter"",""5"",""26585""
","
","
","""event"",""trial"",""time""
""fullscreenenter"",""5"",""26585""
","
","363.59999999962747","","48","","","3000","1","","","images/redplanet1.jpg","images/alien2","images/alien1","images/rocket2","images/alien2","images/nothing.png","2","real","true","2","common","0","2023-03-04 20:19:26.816"
"two-step-fixation","237","799137","0.0-77.0-2.33","3923","7268","25","Male","false","false","false","true","""event"",""trial"",""time""
""fullscreenenter"",""5"",""26585""
","
","
","""event"",""trial"",""time""
""fullscreenenter"",""5"",""26585""
","
","","images/earth.jpg","","","","","","","","","","","","","","fixation","","","","","",""
"d3-animate-choice","238","801788","0.0-77.0-0.34","3923","7268","25","Male","false","false","false","true","""event"",""trial"",""time""
""fullscreenenter"",""5"",""26585""
","
","
","""event"",""trial"",""time""
""fullscreenenter"",""5"",""26585""
","
","647","","49","","","3000","1","","","images/earth.jpg","images/rocket1","images/rocket2","null","images/rocket2","","1","real","null","1","","",""
"d3-animate-choice","239","804031","0.0-77.0-1.34","3923","7268","25","Male","false","false","false","true","""event"",""trial"",""time""
""fullscreenenter"",""5"",""26585""
","
","
","""event"",""trial"",""time""
""fullscreenenter"",""5"",""26585""
","
","240.40000000037253","","48","","","3000","1","","","images/redplanet1.jpg","images/alien2","images/alien1","images/rocket2","images/alien2","images/t.png","2","real","true","2","common","1","2023-03-04 20:19:32.712"
"two-step-fixation","240","805032","0.0-77.0-2.34","3923","7268","25","Male","false","false","false","true","""event"",""trial"",""time""
""fullscreenenter"",""5"",""26585""
","
","
","""event"",""trial"",""time""
""fullscreenenter"",""5"",""26585""
","
","","images/earth.jpg","","","","","","","","","","","","","","fixation","","","","","",""
"d3-animate-choice","241","807310","0.0-77.0-0.35","3923","7268","25","Male","false","false","false","true","""event"",""trial"",""time""
""fullscreenenter"",""5"",""26585""
","
","
","""event"",""trial"",""time""
""fullscreenenter"",""5"",""26585""
","
","275.5","","49","","","3000","1","","","images/earth.jpg","images/rocket1","images/rocket2","null","images/rocket2","","1","real","null","1","","",""
"d3-animate-choice","242","809596","0.0-77.0-1.35","3923","7268","25","Male","false","false","false","true","""event"",""trial"",""time""
""fullscreenenter"",""5"",""26585""
","
","
","""event"",""trial"",""time""
""fullscreenenter"",""5"",""26585""
","
","284.60000000009313","","48","","","3000","1","","","images/redplanet1.jpg","images/alien2","images/alien1","images/rocket2","images/alien2","images/nothing.png","2","real","true","2","common","0","2023-03-04 20:19:38.277"
"two-step-fixation","243","810599","0.0-77.0-2.35","3923","7268","25","Male","false","false","false","true","""event"",""trial"",""time""
""fullscreenenter"",""5"",""26585""
","
","
","""event"",""trial"",""time""
""fullscreenenter"",""5"",""26585""
","
","","images/earth.jpg","","","","","","","","","","","","","","fixation","","","","","",""
"d3-animate-choice","244","812848","0.0-77.0-0.36","3923","7268","25","Male","false","false","false","true","""event"",""trial"",""time""
""fullscreenenter"",""5"",""26585""
","
","
","""event"",""trial"",""time""
""fullscreenenter"",""5"",""26585""
","
