"trial_type","trial_index","time_elapsed","internal_node_id","participant_id","subject_id","age","gender","rocket_sides","red_planet_first_rocket","red_display_order","purple_display_order","interactions","blur_events","focus_events","fullscreenenter_events","fullscreenexit_events","rt","stimulus","key_press","button_pressed","success","duration","valid_pressed","rts","keys","planet_text","right_text","left_text","center_text","chosen_text","reward_text","trial_stage","practice_trial","transition_type","choice","transition","reward","timestamp"
"pavlovia","0","2","0.0-0.0","2307","6127","15","Female","true","false","true","true","
","
","
","
","
","","","","","","","","","","","","","","","","","","","","","",""
"html-keyboard-response","1","1366","0.0-1.0","2307","6127","15","Female","true","false","true","true","
","
","
","
","
","1363.5","Welcome! Press the space bar to begin.","32","","","","","","","","","","","","","","","","","","",""
"audio-keyboard-response","2","4212","0.0-2.0","2307","6127","15","Female","true","false","true","true","
","
","
","
","
","2779","audio/beep_loop.wav","32","","","","","","","","","","","","","","","","","","",""
"audio-button-response","3","7426","0.0-3.0","2307","6127","15","Female","true","false","true","true","
","
","
","
","
","NaN","audio/fish.mp3","","1","","","","","","","","","","","","","","","","","",""
"audio-button-response","4","10209","0.0-4.0","2307","6127","15","Female","true","false","true","true","""event"",""trial"",""time""
""fullscreenenter"",""5"",""14853""
","
","
","""event"",""trial"",""time""
""fullscreenenter"",""5"",""14853""
","
","NaN","audio/tiger.mp3","","4","","","","","","","","","","","","","","","","","",""
"fullscreen","5","15846","0.0-5.0","2307","6127","15","Female","true","false","true","true","""event"",""trial"",""time""
""fullscreenenter"",""5"",""14853""
","
","
","""event"",""trial"",""time""
""fullscreenenter"",""5"",""14853""
","
","","","","","true","","","","","","","","","","","","","","","","",""
"d3-instructions","6","28967","0.0-6.0","2307","6127","15","Female","true","false","true","true","""event"",""trial"",""time""
""fullscreenenter"",""5"",""14853""
","
","
","""event"",""trial"",""time""
""fullscreenenter"",""5"",""14853""
","
","","","","","","","","","","","","","","","","","","","","","",""
"d3-instructions","7","37539","0.0-7.0","2307","6127","15","Female","true","false","true","true","""event"",""trial"",""time""
""fullscreenenter"",""5"",""14853""
","
","
","""event"",""trial"",""time""
""fullscreenenter"",""5"",""14853""
","
","","","","","","","","","","","","","","","","","","","","","",""
"d3-instructions","8","43518","0.0-8.0","2307","6127","15","Female","true","false","true","true","""event"",""trial"",""time""
""fullscreenenter"",""5"",""14853""
","
","
","""event"",""trial"",""time""
""fullscreenenter"",""5"",""14853""
","
","","","","","","","","","","","","","","","","","","","","","",""
"d3-instructions","9","49981","0.0-9.0","2307","6127","15","Female","true","false","true","true","""event"",""trial"",""time""
""fullscreenenter"",""5"",""14853""
","
","
","""event"",""trial"",""time""
""fullscreenenter"",""5"",""14853""
","
","","","","","","","","","","","","","","","","","","","","","",""
"d3-instructions","10","63609","0.0-10.0","2307","6127","15","Female","true","false","true","true","""event"",""trial"",""time""
""fullscreenenter"",""5"",""14853""
","
","
","""event"",""trial"",""time""
""fullscreenenter"",""5"",""14853""
","
","","","","","","","","","","","","","","","","","","","","","",""
"d3-animate-choice","11","66969","0.0-11.0","2307","6127","15","Female","true","false","true","true","""event"",""trial"",""time""
""fullscreenenter"",""5"",""14853""
","
","
","""event"",""trial"",""time""
""fullscreenenter"",""5"",""14853""
","
","1345.7000000029802","","49","","","3000","1","2073.5,3315.1000000089407","48,48","images/tutgreenplanet.jpg","images/tutalien1","images/tutalien2","null","images/tutalien2","","NA","practice","null","","","",""
"d3-animate-choice","12","70310","0.0-12.0","2307","6127","15","Female","true","false","true","true","""event"",""trial"",""time""
""fullscreenenter"",""5"",""14853""
","
","
","""event"",""trial"",""time""
""fullscreenenter"",""5"",""14853""
","
","1333.7000000029802","","48","","","3000","1","","","images/tutgreenplanet.jpg","images/tutalien1","images/tutalien2","null","images/tutalien1","","NA","practice","null","","","",""
"d3-animate-choice","13","73053","0.0-13.0","2307","6127","15","Female","true","false","true","true","""event"",""trial"",""time""
""fullscreenenter"",""5"",""14853""
","
","
","""event"",""trial"",""time""
""fullscreenenter"",""5"",""14853""
","
","735.8000000119209","","49","","","3000","1","","","images/tutgreenplanet.jpg","images/tutalien1","images/tutalien2","null","images/tutalien2","","NA","practice","null","","","",""
"d3-animate-choice","14","75655","0.0-14.0","2307","6127","15","Female","true","false","true","true","""event"",""trial"",""time""
""fullscreenenter"",""5"",""14853""
","
","
","""event"",""trial"",""time""
""fullscreenenter"",""5"",""14853""
","
","596.7000000029802","","48","","","3000","1","","","images/tutgreenplanet.jpg","images/tutalien1","images/tutalien2","null","images/tutalien1","","NA","practice","null","","","",""
"d3-instructions","15","82285","0.0-15.0","2307","6127","15","Female","true","false","true","true","""event"",""trial"",""time""
""fullscreenenter"",""5"",""14853""
","
","
","""event"",""trial"",""time""
""fullscreenenter"",""5"",""14853""
","
","","","","","","","","","","","","","","","","","","","","","",""
"d3-instructions","16","86347","0.0-16.0","2307","6127","15","Female","true","false","true","true","""event"",""trial"",""time""
""fullscreenenter"",""5"",""14853""
","
","
","""event"",""trial"",""time""
""fullscreenenter"",""5"",""14853""
","
","","","","","","","","","","","","","","","","","","","","","",""
"d3-instructions","17","93720","0.0-17.0","2307","6127","15","Female","true","false","true","true","""event"",""trial"",""time""
""fullscreenenter"",""5"",""14853""
","
","
","""event"",""trial"",""time""
""fullscreenenter"",""5"",""14853""
","
","","","","","","","","","","","","","","","","","","","","","",""
"d3-instructions","18","105114","0.0-18.0","2307","6127","15","Female","true","false","true","true","""event"",""trial"",""time""
""fullscreenenter"",""5"",""14853""
","
","
","""event"",""trial"",""time""
""fullscreenenter"",""5"",""14853""
","
","","","","","","","","","","","","","","","","","","","","","",""
"d3-instructions","19","114884","0.0-19.0","2307","6127","15","Female","true","false","true","true","""event"",""trial"",""time""
""fullscreenenter"",""5"",""14853""
","
","
","""event"",""trial"",""time""
""fullscreenenter"",""5"",""14853""
","
","","","","","","","","","","","","","","","","","","","","","",""
"d3-animate-choice","20","117638","0.0-20.0","2307","6127","15","Female","true","false","true","true","""event"",""trial"",""time""
""fullscreenenter"",""5"",""14853""
","
","
","""event"",""trial"",""time""
""fullscreenenter"",""5"",""14853""
","
","748.9000000059605","","49","","","3000","1","1171.4000000059605,1517.2000000029802,2044.9000000059605,2300.7000000029802","49,49,49,49","images/tutyellowplanet.jpg","null","images/tutalien3","null","images/tutalien3","images/nothing.png","NA","practice","null","","","",""
"d3-animate-choice","21","119949","0.0-21.0","2307","6127","15","Female","true","false","true","true","""event"",""trial"",""time""
""fullscreenenter"",""5"",""14853""
","
","
","""event"",""trial"",""time""
""fullscreenenter"",""5"",""14853""
","
","301","","49","","","3000","1","","","images/tutyellowplanet.jpg","null","images/tutalien3","null","images/tutalien3","images/t.png","NA","practice","null","","","",""
"d3-animate-choice","22","122220","0.0-22.0","2307","6127","15","Female","true","false","true","true","""event"",""trial"",""time""
""fullscreenenter"",""5"",""14853""
","
","
","""event"",""trial"",""time""
""fullscreenenter"",""5"",""14853""
","
","263","","49","","","3000","1","","","images/tutyellowplanet.jpg","null","images/tutalien3","null","images/tutalien3","images/t.png","NA","practice","null","","","",""
"d3-animate-choice","23","124467","0.0-23.0","2307","6127","15","Female","true","false","true","true","""event"",""trial"",""time""
""fullscreenenter"",""5"",""14853""
","
","
","""event"",""trial"",""time""
""fullscreenenter"",""5"",""14853""
","
","240.29999999701977","","49","","","3000","1","","","images/tutyellowplanet.jpg","null","images/tutalien3","null","images/tutalien3","images/t.png","NA","practice","null","","","",""
"d3-animate-choice","24","126853","0.0-24.0","2307","6127","15","Female","true","false","true","true","""event"",""trial"",""time""
""fullscreenenter"",""5"",""14853""
","
","
","""event"",""trial"",""time""
""fullscreenenter"",""5"",""14853""
","
","373.30000001192093","","49","","","3000","1","","","images/tutyellowplanet.jpg","null","images/tutalien3","null","images/tutalien3","images/nothing.png","NA","practice","null","","","",""
"d3-animate-choice","25","129288","0.0-25.0","2307","6127","15","Female","true","false","true","true","""event"",""trial"",""time""
""fullscreenenter"",""5"",""14853""
","
","
","""event"",""trial"",""time""
""fullscreenenter"",""5"",""14853""
","
","431.6000000089407","","49","","","3000","1","","","images/tutyellowplanet.jpg","null","images/tutalien3","null","images/tutalien3","images/nothing.png","NA","practice","null","","","",""
"d3-animate-choice","26","131604","0.0-26.0","2307","6127","15","Female","true","false","true","true","""event"",""trial"",""time""
""fullscreenenter"",""5"",""14853""
","
","
","""event"",""trial"",""time""
""fullscreenenter"",""5"",""14853""
","
","303.79999999701977","","49","","","3000","1","","","images/tutyellowplanet.jpg","null","images/tutalien3","null","images/tutalien3","images/nothing.png","NA","practice","null","","","",""
"d3-animate-choice","27","133853","0.0-27.0","2307","6127","15","Female","true","false","true","true","""event"",""trial"",""time""
""fullscreenenter"",""5"",""14853""
","
","
","""event"",""trial"",""time""
""fullscreenenter"",""5"",""14853""
","
","236.8999999910593","","49","","","3000","1","","","images/tutyellowplanet.jpg","null","images/tutalien3","null","images/tutalien3","images/t.png","NA","practice","null","","","",""
"d3-animate-choice","28","136151","0.0-28.0","2307","6127","15","Female","true","false","true","true","""event"",""trial"",""time""
""fullscreenenter"",""5"",""14853""
","
","
","""event"",""trial"",""time""
""fullscreenenter"",""5"",""14853""
","
","288.5","","49","","","3000","1","","","images/tutyellowplanet.jpg","null","images/tutalien3","null","images/tutalien3","images/t.png","NA","practice","null","","","",""
"d3-animate-choice","29","138438","0.0-29.0","2307","6127","15","Female","true","false","true","true","""event"",""trial"",""time""
""fullscreenenter"",""5"",""14853""
","
","
","""event"",""trial"",""time""
""fullscreenenter"",""5"",""14853""
","
","282.59999999403954","","49","","","3000","1","","","images/tutyellowplanet.jpg","null","images/tutalien3","null","images/tutalien3","images/t.png","NA","practice","null","","","",""
"d3-instructions","30","143256","0.0-30.0","2307","6127","15","Female","true","false","true","true","""event"",""trial"",""time""
""fullscreenenter"",""5"",""14853""
","
","
","""event"",""trial"",""time""
""fullscreenenter"",""5"",""14853""
","
","","","","","","","","","","","","","","","","","","","","","",""
"d3-instructions","31","148489","0.0-31.0","2307","6127","15","Female","true","false","true","true","""event"",""trial"",""time""
""fullscreenenter"",""5"",""14853""
","
","
","""event"",""trial"",""time""
""fullscreenenter"",""5"",""14853""
","
","","","","","","","","","","","","","","","","","","","","","",""
"d3-instructions","32","151962","0.0-32.0","2307","6127","15","Female","true","false","true","true","""event"",""trial"",""time""
""fullscreenenter"",""5"",""14853""
","
","
","""event"",""trial"",""time""
""fullscreenenter"",""5"",""14853""
","
","","","","","","","","","","","","","","","","","","","","","",""
"d3-instructions","33","154100","0.0-33.0","2307","6127","15","Female","true","false","true","true","""event"",""trial"",""time""
""fullscreenenter"",""5"",""14853""
","
","
","""event"",""trial"",""time""
""fullscreenenter"",""5"",""14853""
","
","","","","","","","","","","","","","","","","","","","","","",""
"d3-animate-choice","34","157070","0.0-34.0","2307","6127","15","Female","true","false","true","true","""event"",""trial"",""time""
""fullscreenenter"",""5"",""14853""
","
","
","""event"",""trial"",""time""
""fullscreenenter"",""5"",""14853""
","
","962.6999999880791","","49","","","3000","1","2796.7999999970198","48","images/tutgreenplanet.jpg","images/tutalien1","images/tutalien2","null","images/tutalien2","images/nothing.png","NA","practice","null","","","",""
"d3-animate-choice","35","159431","0.0-35.0","2307","6127","15","Female","true","false","true","true","""event"",""trial"",""time""
""fullscreenenter"",""5"",""14853""
","
","
","""event"",""trial"",""time""
""fullscreenenter"",""5"",""14853""
","
","353","","48","","","3000","1","","","images/tutgreenplanet.jpg","images/tutalien1","images/tutalien2","null","images/tutalien1","images/nothing.png","NA","practice","null","","","",""
"d3-animate-choice","36","161763","0.0-36.0","2307","6127","15","Female","true","false","true","true","""event"",""trial"",""time""
""fullscreenenter"",""5"",""14853""
","
","
","""event"",""trial"",""time""
""fullscreenenter"",""5"",""14853""
","
","322.70000000298023","","49","","","3000","1","","","images/tutgreenplanet.jpg","images/tutalien1","images/tutalien2","null","images/tutalien2","images/t.png","NA","practice","null","","","",""
"d3-animate-choice","37","164047","0.0-37.0","2307","6127","15","Female","true","false","true","true","""event"",""trial"",""time""
""fullscreenenter"",""5"",""14853""
","
","
","""event"",""trial"",""time""
""fullscreenenter"",""5"",""14853""
","
","273.70000000298023","","49","","","3000","1","","","images/tutgreenplanet.jpg","images/tutalien1","images/tutalien2","null","images/tutalien2","images/t.png","NA","practice","null","","","",""
"d3-animate-choice","38","166299","0.0-38.0","2307","6127","15","Female","true","false","true","true","""event"",""trial"",""time""
""fullscreenenter"",""5"",""14853""
","
","
","""event"",""trial"",""time""
""fullscreenenter"",""5"",""14853""
","
","244.1000000089407","","49","","","3000","1","","","images/tutgreenplanet.jpg","images/tutalien1","images/tutalien2","null","images/tutalien2","images/t.png","NA","practice","null","","","",""
"d3-animate-choice","39","168554","0.0-39.0","2307","6127","15","Female","true","false","true","true","""event"",""trial"",""time""
""fullscreenenter"",""5"",""14853""
","
","
","""event"",""trial"",""time""
""fullscreenenter"",""5"",""14853""
","
","249.09999999403954","","49","","","3000","1","","","images/tutgreenplanet.jpg","images/tutalien1","images/tutalien2","null","images/tutalien2","images/t.png","NA","practice","null","","","",""
"d3-animate-choice","40","170822","0.0-40.0","2307","6127","15","Female","true","false","true","true","""event"",""trial"",""time""
""fullscreenenter"",""5"",""14853""
","
","
","""event"",""trial"",""time""
""fullscreenenter"",""5"",""14853""
","
","260.70000000298023","","49","","","3000","1","","","images/tutgreenplanet.jpg","images/tutalien1","images/tutalien2","null","images/tutalien2","images/t.png","NA","practice","null","","","",""
"d3-animate-choice","41","173040","0.0-41.0","2307","6127","15","Female","true","false","true","true","""event"",""trial"",""time""
""fullscreenenter"",""5"",""14853""
","
","
","""event"",""trial"",""time""
""fullscreenenter"",""5"",""14853""
","
","215.59999999403954","","49","","","3000","1","","","images/tutgreenplanet.jpg","images/tutalien1","images/tutalien2","null","images/tutalien2","images/nothing.png","NA","practice","null","","","",""
"d3-animate-choice","42","175362","0.0-42.0","2307","6127","15","Female","true","false","true","true","""event"",""trial"",""time""
""fullscreenenter"",""5"",""14853""
","
","
","""event"",""trial"",""time""
""fullscreenenter"",""5"",""14853""
","
","312.6000000089407","","49","","","3000","1","","","images/tutgreenplanet.jpg","images/tutalien1","images/tutalien2","null","images/tutalien2","images/t.png","NA","practice","null","","","",""
"d3-animate-choice","43","177682","0.0-43.0","2307","6127","15","Female","true","false","true","true","""event"",""trial"",""time""
""fullscreenenter"",""5"",""14853""
","
","
","""event"",""trial"",""time""
""fullscreenenter"",""5"",""14853""
","
","313.30000001192093","","49","","","3000","1","","","images/tutgreenplanet.jpg","images/tutalien1","images/tutalien2","null","images/tutalien2","images/t.png","NA","practice","null","","","",""
"d3-instructions","44","183026","0.0-44.0","2307","6127","15","Female","true","false","true","true","""event"",""trial"",""time""
""fullscreenenter"",""5"",""14853""
","
","
","""event"",""trial"",""time""
""fullscreenenter"",""5"",""14853""
","
","","","","","","","","","","","","","","","","","","","","","",""
"d3-instructions","45","188094","0.0-45.0","2307","6127","15","Female","true","false","true","true","""event"",""trial"",""time""
""fullscreenenter"",""5"",""14853""
","
","
","""event"",""trial"",""time""
""fullscreenenter"",""5"",""14853""
","
","","","","","","","","","","","","","","","","","","","","","",""
"d3-instructions","46","190027","0.0-46.0","2307","6127","15","Female","true","false","true","true","""event"",""trial"",""time""
""fullscreenenter"",""5"",""14853""
","
","
","""event"",""trial"",""time""
""fullscreenenter"",""5"",""14853""
","
","","","","","","","","","","","","","","","","","","","","","",""
"d3-instructions","47","202842","0.0-47.0","2307","6127","15","Female","true","false","true","true","""event"",""trial"",""time""
""fullscreenenter"",""5"",""14853""
","
","
","""event"",""trial"",""time""
""fullscreenenter"",""5"",""14853""
","
","","","","","","","","","","","","","","","","","","","","","",""
"d3-instructions","48","208459","0.0-48.0","2307","6127","15","Female","true","false","true","true","""event"",""trial"",""time""
""fullscreenenter"",""5"",""14853""
","
","
","""event"",""trial"",""time""
""fullscreenenter"",""5"",""14853""
","
","","","","","","","","","","","","","","","","","","","","","",""
"d3-instructions","49","217850","0.0-49.0","2307","6127","15","Female","true","false","true","true","""event"",""trial"",""time""
""fullscreenenter"",""5"",""14853""
","
","
","""event"",""trial"",""time""
""fullscreenenter"",""5"",""14853""
","
","","","","","","","","","","","","","","","","","","","","","",""
"d3-instructions","50","223465","0.0-50.0","2307","6127","15","Female","true","false","true","true","""event"",""trial"",""time""
""fullscreenenter"",""5"",""14853""
","
","
","""event"",""trial"",""time""
""fullscreenenter"",""5"",""14853""
","
","","","","","","","","","","","","","","","","","","","","","",""
"d3-instructions","51","226308","0.0-51.0","2307","6127","15","Female","true","false","true","true","""event"",""trial"",""time""
""fullscreenenter"",""5"",""14853""
","
","
","""event"",""trial"",""time""
""fullscreenenter"",""5"",""14853""
","
","","","","","","","","","","","","","","","","","","","","","",""
"d3-instructions","52","227724","0.0-52.0","2307","6127","15","Female","true","false","true","true","""event"",""trial"",""time""
""fullscreenenter"",""5"",""14853""
","
","
","""event"",""trial"",""time""
""fullscreenenter"",""5"",""14853""
","
","","","","","","","","","","","","","","","","","","","","","",""
"d3-instructions","53","235600","0.0-53.0","2307","6127","15","Female","true","false","true","true","""event"",""trial"",""time""
""fullscreenenter"",""5"",""14853""
","
","
","""event"",""trial"",""time""
""fullscreenenter"",""5"",""14853""
","
","","","","","","","","","","","","","","","","","","","","","",""
"d3-instructions","54","246205","0.0-54.0","2307","6127","15","Female","true","false","true","true","""event"",""trial"",""time""
""fullscreenenter"",""5"",""14853""
","
","
","""event"",""trial"",""time""
""fullscreenenter"",""5"",""14853""
","
","","","","","","","","","","","","","","","","","","","","","",""
"d3-instructions","55","250771","0.0-55.0","2307","6127","15","Female","true","false","true","true","""event"",""trial"",""time""
""fullscreenenter"",""5"",""14853""
","
","
","""event"",""trial"",""time""
""fullscreenenter"",""5"",""14853""
","
","","","","","","","","","","","","","","","","","","","","","",""
"d3-instructions","56","254563","0.0-56.0","2307","6127","15","Female","true","false","true","true","""event"",""trial"",""time""
""fullscreenenter"",""5"",""14853""
","
","
","""event"",""trial"",""time""
""fullscreenenter"",""5"",""14853""
","
","","","","","","","","","","","","","","","","","","","","","",""
"d3-instructions","57","262335","0.0-57.0","2307","6127","15","Female","true","false","true","true","""event"",""trial"",""time""
""fullscreenenter"",""5"",""14853""
","
","
","""event"",""trial"",""time""
""fullscreenenter"",""5"",""14853""
","
","","","","","","","","","","","","","","","","","","","","","",""
"d3-instructions","58","267295","0.0-58.0","2307","6127","15","Female","true","false","true","true","""event"",""trial"",""time""
""fullscreenenter"",""5"",""14853""
","
","
","""event"",""trial"",""time""
""fullscreenenter"",""5"",""14853""
","
","","","","","","","","","","","","","","","","","","","","","",""
"d3-instructions","59","271035","0.0-59.0","2307","6127","15","Female","true","false","true","true","""event"",""trial"",""time""
""fullscreenenter"",""5"",""14853""
","
","
","""event"",""trial"",""time""
""fullscreenenter"",""5"",""14853""
","
","","","","","","","","","","","","","","","","","","","","","",""
"d3-instructions","60","274386","0.0-60.0","2307","6127","15","Female","true","false","true","true","""event"",""trial"",""time""
""fullscreenenter"",""5"",""14853""
","
","
","""event"",""trial"",""time""
""fullscreenenter"",""5"",""14853""
","
","","","","","","","","","","","","","","","","","","","","","",""
"d3-animate-choice","61","277788","0.0-61.0-0.0","2307","6127","15","Female","true","false","true","true","""event"",""trial"",""time""
""fullscreenenter"",""5"",""14853""
","
","
","""event"",""trial"",""time""
""fullscreenenter"",""5"",""14853""
","
","1100.5","","192","","","3000","1","1384.5999999940395,2797.7000000029802","49,48","images/earth.jpg","images/tutrocket1","images/tutrocket2","null","images/tutrocket2","","1","practice","null","","","",""
"d3-animate-choice","62","281289","0.0-61.0-1.0","2307","6127","15","Female","true","false","true","true","""event"",""trial"",""time""
""fullscreenenter"",""5"",""14853""
","
","
","""event"",""trial"",""time""
""fullscreenenter"",""5"",""14853""
","
","1492.9000000059605","","49","","","3000","1","","","images/tutgreenplanet.jpg","images/tutalien2","images/tutalien1","images/tutrocket2","images/tutalien1","images/t.png","2","practice","true","1","common","1","2023-02-05 17:43:57.715"
"two-step-fixation","63","282306","0.0-61.0-2.0","2307","6127","15","Female","true","false","true","true","""event"",""trial"",""time""
""fullscreenenter"",""5"",""14853""
","
","
","""event"",""trial"",""time""
""fullscreenenter"",""5"",""14853""
","
","","images/earth.jpg","","","","","","","","","","","","","","fixation","","","","","",""
"d3-animate-choice","64","284865","0.0-61.0-0.1","2307","6127","15","Female","true","false","true","true","""event"",""trial"",""time""
""fullscreenenter"",""5"",""14853""
","
","
","""event"",""trial"",""time""
""fullscreenenter"",""5"",""14853""
","
","547.8000000119209","","48","","","3000","1","","","images/earth.jpg","images/tutrocket1","images/tutrocket2","null","images/tutrocket1","","1","practice","null","2","","",""
"d3-animate-choice","65","287664","0.0-61.0-1.1","2307","6127","15","Female","true","false","true","true","""event"",""trial"",""time""
""fullscreenenter"",""5"",""14853""
","
","
","""event"",""trial"",""time""
""fullscreenenter"",""5"",""14853""
","
","787.5","","48","","","3000","1","","","images/tutyellowplanet.jpg","images/tutalien4","images/tutalien3","images/tutrocket1","images/tutalien4","images/t.png","2","practice","true","2","common","1","2023-02-05 17:44:04.089"
"two-step-fixation","66","288672","0.0-61.0-2.1","2307","6127","15","Female","true","false","true","true","""event"",""trial"",""time""
""fullscreenenter"",""5"",""14853""
","
","
","""event"",""trial"",""time""
""fullscreenenter"",""5"",""14853""
","
","","images/earth.jpg","","","","","","","","","","","","","","fixation","","","","","",""
"d3-animate-choice","67","291130","0.0-61.0-0.2","2307","6127","15","Female","true","false","true","true","""event"",""trial"",""time""
""fullscreenenter"",""5"",""14853""
","
","
","""event"",""trial"",""time""
""fullscreenenter"",""5"",""14853""
","
","446.1000000089407","","48","","","3000","1","","","images/earth.jpg","images/tutrocket1","images/tutrocket2","null","images/tutrocket1","","1","practice","null","2","","",""
"d3-animate-choice","68","293554","0.0-61.0-1.2","2307","6127","15","Female","true","false","true","true","""event"",""trial"",""time""
""fullscreenenter"",""5"",""14853""
","
","
","""event"",""trial"",""time""
""fullscreenenter"",""5"",""14853""
","
","412","","48","","","3000","1","","","images/tutyellowplanet.jpg","images/tutalien4","images/tutalien3","images/tutrocket1","images/tutalien4","images/nothing.png","2","practice","true","2","common","0","2023-02-05 17:44:09.979"
"two-step-fixation","69","294561","0.0-61.0-2.2","2307","6127","15","Female","true","false","true","true","""event"",""trial"",""time""
""fullscreenenter"",""5"",""14853""
","
","
","""event"",""trial"",""time""
""fullscreenenter"",""5"",""14853""
","
","","images/earth.jpg","","","","","","","","","","","","","","fixation","","","","","",""
"d3-animate-choice","70","296880","0.0-61.0-0.3","2307","6127","15","Female","true","false","true","true","""event"",""trial"",""time""
""fullscreenenter"",""5"",""14853""
","
","
","""event"",""trial"",""time""
""fullscreenenter"",""5"",""14853""
","
","307","","49","","","3000","1","","","images/earth.jpg","images/tutrocket1","images/tutrocket2","null","images/tutrocket2","","1","practice","null","1","","",""
"d3-animate-choice","71","299321","0.0-61.0-1.3","2307","6127","15","Female","true","false","true","true","""event"",""trial"",""time""
""fullscreenenter"",""5"",""14853""
","
","
","""event"",""trial"",""time""
""fullscreenenter"",""5"",""14853""
","
","429.19999998807907","","48","","","3000","1","","","images/tutgreenplanet.jpg","images/tutalien2","images/tutalien1","images/tutrocket2","images/tutalien2","images/t.png","2","practice","true","2","common","1","2023-02-05 17:44:15.746"
"two-step-fixation","72","300328","0.0-61.0-2.3","2307","6127","15","Female","true","false","true","true","""event"",""trial"",""time""
""fullscreenenter"",""5"",""14853""
","
","
","""event"",""trial"",""time""
""fullscreenenter"",""5"",""14853""
","
","","images/earth.jpg","","","","","","","","","","","","","","fixation","","","","","",""
"d3-animate-choice","73","302819","0.0-61.0-0.4","2307","6127","15","Female","true","false","true","true","""event"",""trial"",""time""
""fullscreenenter"",""5"",""14853""
","
","
","""event"",""trial"",""time""
""fullscreenenter"",""5"",""14853""
","
","475","","48","","","3000","1","","","images/earth.jpg","images/tutrocket1","images/tutrocket2","null","images/tutrocket1","","1","practice","null","2","","",""
"d3-animate-choice","74","305205","0.0-61.0-1.4","2307","6127","15","Female","true","false","true","true","""event"",""trial"",""time""
""fullscreenenter"",""5"",""14853""
","
","
","""event"",""trial"",""time""
""fullscreenenter"",""5"",""14853""
","
","378.59999999403954","","49","","","3000","1","","","images/tutgreenplanet.jpg","images/tutalien2","images/tutalien1","images/tutrocket1","images/tutalien1","images/nothing.png","2","practice","false","1","rare","0","2023-02-05 17:44:21.630"
"two-step-fixation","75","306217","0.0-61.0-2.4","2307","6127","15","Female","true","false","true","true","""event"",""trial"",""time""
""fullscreenenter"",""5"",""14853""
","
","
","""event"",""trial"",""time""
""fullscreenenter"",""5"",""14853""
","
","","images/earth.jpg","","","","","","","","","","","","","","fixation","","","","","",""
"d3-animate-choice","76","308689","0.0-61.0-0.5","2307","6127","15","Female","true","false","true","true","""event"",""trial"",""time""
""fullscreenenter"",""5"",""14853""
","
","
","""event"",""trial"",""time""
""fullscreenenter"",""5"",""14853""
","
","461.90000000596046","","48","","","3000","1","","","images/earth.jpg","images/tutrocket1","images/tutrocket2","null","images/tutrocket1","","1","practice","null","2","","",""
"d3-animate-choice","77","311022","0.0-61.0-1.5","2307","6127","15","Female","true","false","true","true","""event"",""trial"",""time""
""fullscreenenter"",""5"",""14853""
","
","
","""event"",""trial"",""time""
""fullscreenenter"",""5"",""14853""
","
","326.8999999910593","","48","","","3000","1","","","images/tutyellowplanet.jpg","images/tutalien4","images/tutalien3","images/tutrocket1","images/tutalien4","images/t.png","2","practice","true","2","common","1","2023-02-05 17:44:27.447"
"two-step-fixation","78","312033","0.0-61.0-2.5","2307","6127","15","Female","true","false","true","true","""event"",""trial"",""time""
""fullscreenenter"",""5"",""14853""
","
","
","""event"",""trial"",""time""
""fullscreenenter"",""5"",""14853""
","
","","images/earth.jpg","","","","","","","","","","","","","","fixation","","","","","",""
"d3-animate-choice","79","314571","0.0-61.0-0.6","2307","6127","15","Female","true","false","true","true","""event"",""trial"",""time""
""fullscreenenter"",""5"",""14853""
","
","
","""event"",""trial"",""time""
""fullscreenenter"",""5"",""14853""
","
","527.8000000119209","","49","","","3000","1","","","images/earth.jpg","images/tutrocket1","images/tutrocket2","null","images/tutrocket2","","1","practice","null","1","","",""
"d3-animate-choice","80","317555","0.0-61.0-1.6","2307","6127","15","Female","true","false","true","true","""event"",""trial"",""time""
""fullscreenenter"",""5"",""14853""
","
","
","""event"",""trial"",""time""
""fullscreenenter"",""5"",""14853""
","
","977.6999999880791","","49","","","3000","1","","","images/tutgreenplanet.jpg","images/tutalien2","images/tutalien1","images/tutrocket2","images/tutalien1","images/t.png","2","practice","true","1","common","1","2023-02-05 17:44:33.981"
"two-step-fixation","81","318568","0.0-61.0-2.6","2307","6127","15","Female","true","false","true","true","""event"",""trial"",""time""
""fullscreenenter"",""5"",""14853""
","
","
","""event"",""trial"",""time""
""fullscreenenter"",""5"",""14853""
","
","","images/earth.jpg","","","","","","","","","","","","","","fixation","","","","","",""
"d3-animate-choice","82","320904","0.0-61.0-0.7","2307","6127","15","Female","true","false","true","true","""event"",""trial"",""time""
""fullscreenenter"",""5"",""14853""
","
","
","""event"",""trial"",""time""
""fullscreenenter"",""5"",""14853""
","
","326.3999999910593","","48","","","3000","1","","","images/earth.jpg","images/tutrocket1","images/tutrocket2","null","images/tutrocket1","","1","practice","null","2","","",""
"d3-animate-choice","83","323603","0.0-61.0-1.7","2307","6127","15","Female","true","false","true","true","""event"",""trial"",""time""
""fullscreenenter"",""5"",""14853""
","
","
","""event"",""trial"",""time""
""fullscreenenter"",""5"",""14853""
","
","683","","48","","","3000","1","","","images/tutyellowplanet.jpg","images/tutalien4","images/tutalien3","images/tutrocket1","images/tutalien4","images/t.png","2","practice","true","2","common","1","2023-02-05 17:44:40.028"
"two-step-fixation","84","324616","0.0-61.0-2.7","2307","6127","15","Female","true","false","true","true","""event"",""trial"",""time""
""fullscreenenter"",""5"",""14853""
","
","
","""event"",""trial"",""time""
""fullscreenenter"",""5"",""14853""
","
","","images/earth.jpg","","","","","","","","","","","","","","fixation","","","","","",""
"d3-animate-choice","85","326972","0.0-61.0-0.8","2307","6127","15","Female","true","false","true","true","""event"",""trial"",""time""
""fullscreenenter"",""5"",""14853""
","
","
","""event"",""trial"",""time""
""fullscreenenter"",""5"",""14853""
","
","352.6000000089407","","48","","","3000","1","","","images/earth.jpg","images/tutrocket1","images/tutrocket2","null","images/tutrocket1","","1","practice","null","2","","",""
"d3-animate-choice","86","329471","0.0-61.0-1.8","2307","6127","15","Female","true","false","true","true","""event"",""trial"",""time""
""fullscreenenter"",""5"",""14853""
","
","
","""event"",""trial"",""time""
""fullscreenenter"",""5"",""14853""
","
","493.20000000298023","","48","","","3000","1","","","images/tutyellowplanet.jpg","images/tutalien4","images/tutalien3","images/tutrocket1","images/tutalien4","images/nothing.png","2","practice","true","2","common","0","2023-02-05 17:44:45.896"
"two-step-fixation","87","330483","0.0-61.0-2.8","2307","6127","15","Female","true","false","true","true","""event"",""trial"",""time""
""fullscreenenter"",""5"",""14853""
","
","
","""event"",""trial"",""time""
""fullscreenenter"",""5"",""14853""
","
","","images/earth.jpg","","","","","","","","","","","","","","fixation","","","","","",""
"d3-animate-choice","88","332922","0.0-61.0-0.9","2307","6127","15","Female","true","false","true","true","""event"",""trial"",""time""
""fullscreenenter"",""5"",""14853""
","
","
","""event"",""trial"",""time""
""fullscreenenter"",""5"",""14853""
","
","433.3999999910593","","49","","","3000","1","","","images/earth.jpg","images/tutrocket1","images/tutrocket2","null","images/tutrocket2","","1","practice","null","1","","",""
"d3-animate-choice","89","335432","0.0-61.0-1.9","2307","6127","15","Female","true","false","true","true","""event"",""trial"",""time""
""fullscreenenter"",""5"",""14853""
","
","
","""event"",""trial"",""time""
""fullscreenenter"",""5"",""14853""
","
","501.20000000298023","","49","","","3000","1","","","images/tutgreenplanet.jpg","images/tutalien2","images/tutalien1","images/tutrocket2","images/tutalien1","images/nothing.png","2","practice","true","1","common","0","2023-02-05 17:44:51.857"
"two-step-fixation","90","336439","0.0-61.0-2.9","2307","6127","15","Female","true","false","true","true","""event"",""trial"",""time""
""fullscreenenter"",""5"",""14853""
","
","
","""event"",""trial"",""time""
""fullscreenenter"",""5"",""14853""
","
","","images/earth.jpg","","","","","","","","","","","","","","fixation","","","","","",""
"d3-animate-choice","91","338822","0.0-61.0-0.10","2307","6127","15","Female","true","false","true","true","""event"",""trial"",""time""
""fullscreenenter"",""5"",""14853""
","
","
","""event"",""trial"",""time""
""fullscreenenter"",""5"",""14853""
","
","372","","48","","","3000","1","","","images/earth.jpg","images/tutrocket1","images/tutrocket2","null","images/tutrocket1","","1","practice","null","2","","",""
"d3-animate-choice","92","341234","0.0-61.0-1.10","2307","6127","15","Female","true","false","true","true","""event"",""trial"",""time""
""fullscreenenter"",""5"",""14853""
","
","
","""event"",""trial"",""time""
""fullscreenenter"",""5"",""14853""
","
","397.09999999403954","","48","","","3000","1","","","images/tutyellowplanet.jpg","images/tutalien4","images/tutalien3","images/tutrocket1","images/tutalien4","images/t.png","2","practice","true","2","common","1","2023-02-05 17:44:57.659"
"two-step-fixation","93","342239","0.0-61.0-2.10","2307","6127","15","Female","true","false","true","true","""event"",""trial"",""time""
""fullscreenenter"",""5"",""14853""
","
","
","""event"",""trial"",""time""
""fullscreenenter"",""5"",""14853""
","
","","images/earth.jpg","","","","","","","","","","","","","","fixation","","","","","",""
"d3-animate-choice","94","344770","0.0-61.0-0.11","2307","6127","15","Female","true","false","true","true","""event"",""trial"",""time""
""fullscreenenter"",""5"",""14853""
","
","
","""event"",""trial"",""time""
""fullscreenenter"",""5"",""14853""
","
","521.6000000089407","","48","","","3000","1","","","images/earth.jpg","images/tutrocket1","images/tutrocket2","null","images/tutrocket1","","1","practice","null","2","","",""
"d3-animate-choice","95","347383","0.0-61.0-1.11","2307","6127","15","Female","true","false","true","true","""event"",""trial"",""time""
""fullscreenenter"",""5"",""14853""
","
","
","""event"",""trial"",""time""
""fullscreenenter"",""5"",""14853""
","
","608.2999999970198","","49","","","3000","1","","","images/tutgreenplanet.jpg","images/tutalien2","images/tutalien1","images/tutrocket1","images/tutalien1","images/nothing.png","2","practice","false","1","rare","0","2023-02-05 17:45:03.809"
"two-step-fixation","96","348389","0.0-61.0-2.11","2307","6127","15","Female","true","false","true","true","""event"",""trial"",""time""
""fullscreenenter"",""5"",""14853""
","
","
","""event"",""trial"",""time""
""fullscreenenter"",""5"",""14853""
","
","","images/earth.jpg","","","","","","","","","","","","","","fixation","","","","","",""
"d3-animate-choice","97","351155","0.0-61.0-0.12","2307","6127","15","Female","true","false","true","true","""event"",""trial"",""time""
""fullscreenenter"",""5"",""14853""
","
","
","""event"",""trial"",""time""
""fullscreenenter"",""5"",""14853""
","
","760.4000000059605","","48","","","3000","1","","","images/earth.jpg","images/tutrocket1","images/tutrocket2","null","images/tutrocket1","","1","practice","null","2","","",""
"d3-animate-choice","98","353606","0.0-61.0-1.12","2307","6127","15","Female","true","false","true","true","""event"",""trial"",""time""
""fullscreenenter"",""5"",""14853""
","
","
","""event"",""trial"",""time""
""fullscreenenter"",""5"",""14853""
","
","439.8999999910593","","48","","","3000","1","","","images/tutyellowplanet.jpg","images/tutalien4","images/tutalien3","images/tutrocket1","images/tutalien4","images/t.png","2","practice","true","2","common","1","2023-02-05 17:45:10.031"
"two-step-fixation","99","354616","0.0-61.0-2.12","2307","6127","15","Female","true","false","true","true","""event"",""trial"",""time""
""fullscreenenter"",""5"",""14853""
","
","
","""event"",""trial"",""time""
""fullscreenenter"",""5"",""14853""
","
","","images/earth.jpg","","","","","","","","","","","","","","fixation","","","","","",""
"d3-animate-choice","100","356720","0.0-61.0-0.13","2307","6127","15","Female","true","false","true","true","""event"",""trial"",""time""
""fullscreenenter"",""5"",""14853""
","
","
","""event"",""trial"",""time""
""fullscreenenter"",""5"",""14853""
","
","95.70000000298023","","48","","","3000","1","","","images/earth.jpg","images/tutrocket1","images/tutrocket2","null","images/tutrocket1","","1","practice","null","2","","",""
"d3-animate-choice","101","359199","0.0-61.0-1.13","2307","6127","15","Female","true","false","true","true","""event"",""trial"",""time""
""fullscreenenter"",""5"",""14853""
","
","
","""event"",""trial"",""time""
""fullscreenenter"",""5"",""14853""
","
","468.5","","48","","","3000","1","","","images/tutyellowplanet.jpg","images/tutalien4","images/tutalien3","images/tutrocket1","images/tutalien4","images/t.png","2","practice","true","2","common","1","2023-02-05 17:45:15.624"
"two-step-fixation","102","360206","0.0-61.0-2.13","2307","6127","15","Female","true","false","true","true","""event"",""trial"",""time""
""fullscreenenter"",""5"",""14853""
","
","
","""event"",""trial"",""time""
""fullscreenenter"",""5"",""14853""
","
","","images/earth.jpg","","","","","","","","","","","","","","fixation","","","","","",""
"d3-animate-choice","103","362503","0.0-61.0-0.14","2307","6127","15","Female","true","false","true","true","""event"",""trial"",""time""
""fullscreenenter"",""5"",""14853""
","
","
","""event"",""trial"",""time""
""fullscreenenter"",""5"",""14853""
","
","285.20000000298023","","48","","","3000","1","","","images/earth.jpg","images/tutrocket1","images/tutrocket2","null","images/tutrocket1","","1","practice","null","2","","",""
"d3-animate-choice","104","364839","0.0-61.0-1.14","2307","6127","15","Female","true","false","true","true","""event"",""trial"",""time""
""fullscreenenter"",""5"",""14853""
","
","
","""event"",""trial"",""time""
""fullscreenenter"",""5"",""14853""
","
","324.59999999403954","","48","","","3000","1","494.8999999910593","80","images/tutgreenplanet.jpg","images/tutalien2","images/tutalien1","images/tutrocket1","images/tutalien2","images/nothing.png","2","practice","false","2","rare","0","2023-02-05 17:45:21.264"
"two-step-fixation","105","365848","0.0-61.0-2.14","2307","6127","15","Female","true","false","true","true","""event"",""trial"",""time""
""fullscreenenter"",""5"",""14853""
","
","
","""event"",""trial"",""time""
""fullscreenenter"",""5"",""14853""
","
","","images/earth.jpg","","","","","","","","","","","","","","fixation","","","","","",""
"d3-animate-choice","106","368255","0.0-61.0-0.15","2307","6127","15","Female","true","false","true","true","""event"",""trial"",""time""
""fullscreenenter"",""5"",""14853""
","
","
","""event"",""trial"",""time""
""fullscreenenter"",""5"",""14853""
","
","397.6000000089407","","48","","","3000","1","","","images/earth.jpg","images/tutrocket1","images/tutrocket2","null","images/tutrocket1","","1","practice","null","2","","",""
"d3-animate-choice","107","370647","0.0-61.0-1.15","2307","6127","15","Female","true","false","true","true","""event"",""trial"",""time""
""fullscreenenter"",""5"",""14853""
","
","
","""event"",""trial"",""time""
""fullscreenenter"",""5"",""14853""
","
","381.1000000089407","","48","","","3000","1","","","images/tutyellowplanet.jpg","images/tutalien4","images/tutalien3","images/tutrocket1","images/tutalien4","images/nothing.png","2","practice","true","2","common","0","2023-02-05 17:45:27.072"
"two-step-fixation","108","371655","0.0-61.0-2.15","2307","6127","15","Female","true","false","true","true","""event"",""trial"",""time""
""fullscreenenter"",""5"",""14853""
","
","
","""event"",""trial"",""time""
""fullscreenenter"",""5"",""14853""
","
","","images/earth.jpg","","","","","","","","","","","","","","fixation","","","","","",""
"d3-animate-choice","109","373783","0.0-61.0-0.16","2307","6127","15","Female","true","false","true","true","""event"",""trial"",""time""
""fullscreenenter"",""5"",""14853""
","
","
","""event"",""trial"",""time""
""fullscreenenter"",""5"",""14853""
","
","117.8999999910593","","48","","","3000","1","","","images/earth.jpg","images/tutrocket1","images/tutrocket2","null","images/tutrocket1","","1","practice","null","2","","",""
"d3-animate-choice","110","376088","0.0-61.0-1.16","2307","6127","15","Female","true","false","true","true","""event"",""trial"",""time""
""fullscreenenter"",""5"",""14853""
","
","
","""event"",""trial"",""time""
""fullscreenenter"",""5"",""14853""
","
","298","","48","","","3000","1","","","images/tutyellowplanet.jpg","images/tutalien4","images/tutalien3","images/tutrocket1","images/tutalien4","images/nothing.png","2","practice","true","2","common","0","2023-02-05 17:45:32.513"
"two-step-fixation","111","377095","0.0-61.0-2.16","2307","6127","15","Female","true","false","true","true","""event"",""trial"",""time""
""fullscreenenter"",""5"",""14853""
","
","
","""event"",""trial"",""time""
""fullscreenenter"",""5"",""14853""
","
","","images/earth.jpg","","","","","","","","","","","","","","fixation","","","","","",""
"d3-animate-choice","112","379506","0.0-61.0-0.17","2307","6127","15","Female","true","false","true","true","""event"",""trial"",""time""
""fullscreenenter"",""5"",""14853""
","
","
","""event"",""trial"",""time""
""fullscreenenter"",""5"",""14853""
","
","400.69999998807907","","48","","","3000","1","1997.5999999940395","49","images/earth.jpg","images/tutrocket1","images/tutrocket2","null","images/tutrocket1","","1","practice","null","2","","",""
"d3-animate-choice","113","381606","0.0-61.0-1.17","2307","6127","15","Female","true","false","true","true","""event"",""trial"",""time""
""fullscreenenter"",""5"",""14853""
","
","
","""event"",""trial"",""time""
""fullscreenenter"",""5"",""14853""
","
","90.5","","49","","","3000","1","","","images/tutyellowplanet.jpg","images/tutalien4","images/tutalien3","images/tutrocket1","images/tutalien3","images/nothing.png","2","practice","true","1","common","0","2023-02-05 17:45:38.031"
"two-step-fixation","114","382615","0.0-61.0-2.17","2307","6127","15","Female","true","false","true","true","""event"",""trial"",""time""
""fullscreenenter"",""5"",""14853""
","
","
","""event"",""trial"",""time""
""fullscreenenter"",""5"",""14853""
","
","","images/earth.jpg","","","","","","","","","","","","","","fixation","","","","","",""
"d3-animate-choice","115","384871","0.0-61.0-0.18","2307","6127","15","Female","true","false","true","true","""event"",""trial"",""time""
""fullscreenenter"",""5"",""14853""
","
","
","""event"",""trial"",""time""
""fullscreenenter"",""5"",""14853""
","
","243.90000000596046","","49","","","3000","1","","","images/earth.jpg","images/tutrocket1","images/tutrocket2","null","images/tutrocket2","","1","practice","null","1","","",""
"d3-animate-choice","116","387072","0.0-61.0-1.18","2307","6127","15","Female","true","false","true","true","""event"",""trial"",""time""
""fullscreenenter"",""5"",""14853""
","
","
","""event"",""trial"",""time""
""fullscreenenter"",""5"",""14853""
","
","197.80000001192093","","49","","","3000","1","","","images/tutgreenplanet.jpg","images/tutalien2","images/tutalien1","images/tutrocket2","images/tutalien1","images/nothing.png","2","practice","true","1","common","0","2023-02-05 17:45:43.497"
"two-step-fixation","117","388081","0.0-61.0-2.18","2307","6127","15","Female","true","false","true","true","""event"",""trial"",""time""
""fullscreenenter"",""5"",""14853""
","
","
","""event"",""trial"",""time""
""fullscreenenter"",""5"",""14853""
","
","","images/earth.jpg","","","","","","","","","","","","","","fixation","","","","","",""
"d3-animate-choice","118","390631","0.0-61.0-0.19","2307","6127","15","Female","true","false","true","true","""event"",""trial"",""time""
""fullscreenenter"",""5"",""14853""
","
","
","""event"",""trial"",""time""
""fullscreenenter"",""5"",""14853""
","
","540.4000000059605","","48","","","3000","1","2002.1000000089407,2498.6000000089407","48,48","images/earth.jpg","images/tutrocket1","images/tutrocket2","null","images/tutrocket1","","1","practice","null","2","","",""
"d3-animate-choice","119","392973","0.0-61.0-1.19","2307","6127","15","Female","true","false","true","true","""event"",""trial"",""time""
""fullscreenenter"",""5"",""14853""
","
","
","""event"",""trial"",""time""
""fullscreenenter"",""5"",""14853""
","
","332.20000000298023","","48","","","3000","1","","","images/tutgreenplanet.jpg","images/tutalien2","images/tutalien1","images/tutrocket1","images/tutalien2","images/nothing.png","2","practice","false","2","rare","0","2023-02-05 17:45:49.398"
"two-step-fixation","120","393985","0.0-61.0-2.19","2307","6127","15","Female","true","false","true","true","""event"",""trial"",""time""
""fullscreenenter"",""5"",""14853""
","
","
","""event"",""trial"",""time""
""fullscreenenter"",""5"",""14853""
","
","","images/earth.jpg","","","","","","","","","","","","","","fixation","","","","","",""
"d3-instructions","121","396739","0.0-62.0","2307","6127","15","Female","true","false","true","true","""event"",""trial"",""time""
""fullscreenenter"",""5"",""14853""
","
","
","""event"",""trial"",""time""
""fullscreenenter"",""5"",""14853""
","
","","","","","","","","","","","","","","","","","","","","","",""
"audio-keyboard-response","122","400138","0.0-63.0","2307","6127","15","Female","true","false","true","true","""event"",""trial"",""time""
""fullscreenenter"",""5"",""14853""
","
","
","""event"",""trial"",""time""
""fullscreenenter"",""5"",""14853""
","
","3392","audio/instructions/treasure_feedback.wav","32","","","","","","","","","","","","","","","","","","",""
"d3-instructions","123","412875","0.0-64.0","2307","6127","15","Female","true","false","true","true","""event"",""trial"",""time""
""fullscreenenter"",""5"",""14853""
","
","
","""event"",""trial"",""time""
""fullscreenenter"",""5"",""14853""
","
","","","","","","","","","","","","","","","","","","","","","",""
"d3-instructions","124","425802","0.0-65.0","2307","6127","15","Female","true","false","true","true","""event"",""trial"",""time""
""fullscreenenter"",""5"",""14853""
","
","
","""event"",""trial"",""time""
""fullscreenenter"",""5"",""14853""
","
","","","","","","","","","","","","","","","","","","","","","",""
"d3-instructions","125","449883","0.0-66.0","2307","6127","15","Female","true","false","true","true","""event"",""trial"",""time""
""fullscreenenter"",""5"",""14853""
","
","
","""event"",""trial"",""time""
""fullscreenenter"",""5"",""14853""
","
","","","","","","","","","","","","","","","","","","","","","",""
"d3-instructions","126","465655","0.0-67.0","2307","6127","15","Female","true","false","true","true","""event"",""trial"",""time""
""fullscreenenter"",""5"",""14853""
","
","
","""event"",""trial"",""time""
""fullscreenenter"",""5"",""14853""
","
","","","","","","","","","","","","","","","","","","","","","",""
"d3-instructions","127","469179","0.0-68.0","2307","6127","15","Female","true","false","true","true","""event"",""trial"",""time""
""fullscreenenter"",""5"",""14853""
","
","
","""event"",""trial"",""time""
""fullscreenenter"",""5"",""14853""
","
","","","","","","","","","","","","","","","","","","","","","",""
"instructions-quiz","128","472282","0.0-69.0","2307","6127","15","Female","true","false","true","true","""event"",""trial"",""time""
""fullscreenenter"",""5"",""14853""
","
","
","""event"",""trial"",""time""
""fullscreenenter"",""5"",""14853""
","
","3097.699999988079","audio/quiz/Q1_Prompt.wav","","1","","","","","","","","","","","","","","","","","",""
"audio-keyboard-response","129","475364","0.0-70.0","2307","6127","15","Female","true","false","true","true","""event"",""trial"",""time""
""fullscreenenter"",""5"",""14853""
","
","
","""event"",""trial"",""time""
""fullscreenenter"",""5"",""14853""
","
","3077","audio/quiz/Q1_Correct.wav","32","","","","","","","","","","","","","","","","","","",""
"instructions-quiz","130","481995","0.0-71.0","2307","6127","15","Female","true","false","true","true","""event"",""trial"",""time""
""fullscreenenter"",""5"",""14853""
","
","
","""event"",""trial"",""time""
""fullscreenenter"",""5"",""14853""
","
","6628.29999999702","audio/quiz/Q2_Prompt.wav","","0","","","","","","","","","","","","","","","","","",""
"audio-keyboard-response","131","482719","0.0-72.0","2307","6127","15","Female","true","false","true","true","""event"",""trial"",""time""
""fullscreenenter"",""5"",""14853""
","
","
","""event"",""trial"",""time""
""fullscreenenter"",""5"",""14853""
","
","720","audio/quiz/Q2_Correct.wav","32","","","","","","","","","","","","","","","","","","",""
"instructions-quiz","132","486495","0.0-73.0","2307","6127","15","Female","true","false","true","true","""event"",""trial"",""time""
""fullscreenenter"",""5"",""14853""
","
","
","""event"",""trial"",""time""
""fullscreenenter"",""5"",""14853""
","
","3773.3999999910593","audio/quiz/Q3_Prompt.wav","","1","","","","","","","","","","","","","","","","","",""
"audio-keyboard-response","133","486840","0.0-74.0","2307","6127","15","Female","true","false","true","true","""event"",""trial"",""time""
""fullscreenenter"",""5"",""14853""
","
","
","""event"",""trial"",""time""
""fullscreenenter"",""5"",""14853""
","
","341","audio/quiz/Q3_Correct.wav","32","","","","","","","","","","","","","","","","","","",""
"d3-instructions","134","489887","0.0-75.0","2307","6127","15","Female","true","false","true","true","""event"",""trial"",""time""
""fullscreenenter"",""5"",""14853""
","
","
","""event"",""trial"",""time""
""fullscreenenter"",""5"",""14853""
","
","","","","","","","","","","","","","","","","","","","","","",""
"pavlovia","135","489891","0.0-76.0","2307","6127","15","Female","true","false","true","true","""event"",""trial"",""time""
""fullscreenenter"",""5"",""14853""
","
","
","""event"",""trial"",""time""
""fullscreenenter"",""5"",""14853""
","
","","","","","","","","","","","","","","","","","","","","","",""
"d3-animate-choice","136","493451","0.0-77.0-0.0","2307","6127","15","Female","true","false","true","true","""event"",""trial"",""time""
""fullscreenenter"",""5"",""14853""
","
","
","""event"",""trial"",""time""
""fullscreenenter"",""5"",""14853""
","
","1548.5999999940395","","48","","","3000","1","","","images/earth.jpg","images/rocket2","images/rocket1","null","images/rocket2","","1","real","null","2","","",""
"d3-animate-choice","137","496021","0.0-77.0-1.0","2307","6127","15","Female","true","false","true","true","""event"",""trial"",""time""
""fullscreenenter"",""5"",""14853""
","
","
","""event"",""trial"",""time""
""fullscreenenter"",""5"",""14853""
","
","564.5","","48","","","3000","1","","","images/redplanet1.jpg","images/alien2","images/alien1","images/rocket2","images/alien2","images/t.png","2","real","true","2","common","1","2023-02-05 17:47:32.446"
"two-step-fixation","138","497028","0.0-77.0-2.0","2307","6127","15","Female","true","false","true","true","""event"",""trial"",""time""
""fullscreenenter"",""5"",""14853""
","
","
","""event"",""trial"",""time""
""fullscreenenter"",""5"",""14853""
","
","","images/earth.jpg","","","","","","","","","","","","","","fixation","","","","","",""
"d3-animate-choice","139","499373","0.0-77.0-0.1","2307","6127","15","Female","true","false","true","true","""event"",""trial"",""time""
""fullscreenenter"",""5"",""14853""
","
","
","""event"",""trial"",""time""
""fullscreenenter"",""5"",""14853""
","
","333.20000000298023","","48","","","3000","1","","","images/earth.jpg","images/rocket2","images/rocket1","null","images/rocket2","","1","real","null","2","","",""
"d3-animate-choice","140","501787","0.0-77.0-1.1","2307","6127","15","Female","true","false","true","true","""event"",""trial"",""time""
""fullscreenenter"",""5"",""14853""
","
","
","""event"",""trial"",""time""
""fullscreenenter"",""5"",""14853""
","
","410.29999999701977","","48","","","3000","1","","","images/redplanet1.jpg","images/alien2","images/alien1","images/rocket2","images/alien2","images/t.png","2","real","true","2","common","1","2023-02-05 17:47:38.212"
"two-step-fixation","141","502795","0.0-77.0-2.1","2307","6127","15","Female","true","false","true","true","""event"",""trial"",""time""
""fullscreenenter"",""5"",""14853""
","
","
","""event"",""trial"",""time""
""fullscreenenter"",""5"",""14853""
","
","","images/earth.jpg","","","","","","","","","","","","","","fixation","","","","","",""
"d3-animate-choice","142","505139","0.0-77.0-0.2","2307","6127","15","Female","true","false","true","true","""event"",""trial"",""time""
""fullscreenenter"",""5"",""14853""
","
","
","""event"",""trial"",""time""
""fullscreenenter"",""5"",""14853""
","
","336.1000000089407","","48","","","3000","1","","","images/earth.jpg","images/rocket2","images/rocket1","null","images/rocket2","","1","real","null","2","","",""
"d3-animate-choice","143","508007","0.0-77.0-1.2","2307","6127","15","Female","true","false","true","true","""event"",""trial"",""time""
""fullscreenenter"",""5"",""14853""
","
","
","""event"",""trial"",""time""
""fullscreenenter"",""5"",""14853""
","
","859.2999999970198","","48","","","3000","1","","","images/redplanet1.jpg","images/alien2","images/alien1","images/rocket2","images/alien2","images/nothing.png","2","real","true","2","common","0","2023-02-05 17:47:44.432"
"two-step-fixation","144","509023","0.0-77.0-2.2","2307","6127","15","Female","true","false","true","true","""event"",""trial"",""time""
""fullscreenenter"",""5"",""14853""
","
","
","""event"",""trial"",""time""
""fullscreenenter"",""5"",""14853""
","
","","images/earth.jpg","","","","","","","","","","","","","","fixation","","","","","",""
"d3-animate-choice","145","511254","0.0-77.0-0.3","2307","6127","15","Female","true","false","true","true","""event"",""trial"",""time""
""fullscreenenter"",""5"",""14853""
","
","
","""event"",""trial"",""time""
""fullscreenenter"",""5"",""14853""
","
","221.90000000596046","","48","","","3000","1","","","images/earth.jpg","images/rocket2","images/rocket1","null","images/rocket2","","1","real","null","2","","",""
"d3-animate-choice","146","513810","0.0-77.0-1.3","2307","6127","15","Female","true","false","true","true","""event"",""trial"",""time""
""fullscreenenter"",""5"",""14853""
","
","
","""event"",""trial"",""time""
""fullscreenenter"",""5"",""14853""
","
","551.5","","48","","","3000","1","","","images/redplanet1.jpg","images/alien2","images/alien1","images/rocket2","images/alien2","images/t.png","2","real","true","2","common","1","2023-02-05 17:47:50.235"
"two-step-fixation","147","514819","0.0-77.0-2.3","2307","6127","15","Female","true","false","true","true","""event"",""trial"",""time""
""fullscreenenter"",""5"",""14853""
","
","
","""event"",""trial"",""time""
""fullscreenenter"",""5"",""14853""
","
","","images/earth.jpg","","","","","","","","","","","","","","fixation","","","","","",""
"d3-animate-choice","148","517140","0.0-77.0-0.4","2307","6127","15","Female","true","false","true","true","""event"",""trial"",""time""
""fullscreenenter"",""5"",""14853""
","
","
","""event"",""trial"",""time""
""fullscreenenter"",""5"",""14853""
","
","313.20000000298023","","48","","","3000","1","","","images/earth.jpg","images/rocket2","images/rocket1","null","images/rocket2","","1","real","null","2","","",""
"d3-animate-choice","149","519807","0.0-77.0-1.4","2307","6127","15","Female","true","false","true","true","""event"",""trial"",""time""
""fullscreenenter"",""5"",""14853""
","
","
","""event"",""trial"",""time""
""fullscreenenter"",""5"",""14853""
","
","658.7999999970198","","48","","","3000","1","","","images/redplanet1.jpg","images/alien2","images/alien1","images/rocket2","images/alien2","images/t.png","2","real","true","2","common","1","2023-02-05 17:47:56.232"
"two-step-fixation","150","520818","0.0-77.0-2.4","2307","6127","15","Female","true","false","true","true","""event"",""trial"",""time""
""fullscreenenter"",""5"",""14853""
","
","
","""event"",""trial"",""time""
""fullscreenenter"",""5"",""14853""
","
","","images/earth.jpg","","","","","","","","","","","","","","fixation","","","","","",""
"d3-animate-choice","151","523149","0.0-77.0-0.5","2307","6127","15","Female","true","false","true","true","""event"",""trial"",""time""
""fullscreenenter"",""5"",""14853""
","
","
","""event"",""trial"",""time""
""fullscreenenter"",""5"",""14853""
","
","323.1000000089407","","48","","","3000","1","","","images/earth.jpg","images/rocket2","images/rocket1","null","images/rocket2","","1","real","null","2","","",""
"d3-animate-choice","152","525556","0.0-77.0-1.5","2307","6127","15","Female","true","false","true","true","""event"",""trial"",""time""
""fullscreenenter"",""5"",""14853""
","
","
","""event"",""trial"",""time""
""fullscreenenter"",""5"",""14853""
","
","394.70000000298023","","48","","","3000","1","","","images/purpleplanet.jpg","images/alien4","images/alien3","images/rocket2","images/alien4","images/nothing.png","2","real","false","2","rare","0","2023-02-05 17:48:01.981"
"two-step-fixation","153","526562","0.0-77.0-2.5","2307","6127","15","Female","true","false","true","true","""event"",""trial"",""time""
""fullscreenenter"",""5"",""14853""
","
","
","""event"",""trial"",""time""
""fullscreenenter"",""5"",""14853""
","
","","images/earth.jpg","","","","","","","","","","","","","","fixation","","","","","",""
"d3-animate-choice","154","528883","0.0-77.0-0.6","2307","6127","15","Female","true","false","true","true","""event"",""trial"",""time""
""fullscreenenter"",""5"",""14853""
","
","
","""event"",""trial"",""time""
""fullscreenenter"",""5"",""14853""
","
","313.20000000298023","","48","","","3000","1","","","images/earth.jpg","images/rocket2","images/rocket1","null","images/rocket2","","1","real","null","2","","",""
"d3-animate-choice","155","531506","0.0-77.0-1.6","2307","6127","15","Female","true","false","true","true","""event"",""trial"",""time""
""fullscreenenter"",""5"",""14853""
","
","
","""event"",""trial"",""time""
""fullscreenenter"",""5"",""14853""
","
","616.8999999910593","","49","","","3000","1","","","images/purpleplanet.jpg","images/alien4","images/alien3","images/rocket2","images/alien3","images/nothing.png","2","real","false","1","rare","0","2023-02-05 17:48:07.931"
"two-step-fixation","156","532514","0.0-77.0-2.6","2307","6127","15","Female","true","false","true","true","""event"",""trial"",""time""
""fullscreenenter"",""5"",""14853""
","
","
","""event"",""trial"",""time""
""fullscreenenter"",""5"",""14853""
","
","","images/earth.jpg","","","","","","","","","","","","","","fixation","","","","","",""
"d3-animate-choice","157","534941","0.0-77.0-0.7","2307","6127","15","Female","true","false","true","true","""event"",""trial"",""time""
""fullscreenenter"",""5"",""14853""
","
","
","""event"",""trial"",""time""
""fullscreenenter"",""5"",""14853""
","
","419.5","","48","","","3000","1","","","images/earth.jpg","images/rocket2","images/rocket1","null","images/rocket2","","1","real","null","2","","",""
"d3-animate-choice","158","538002","0.0-77.0-1.7","2307","6127","15","Female","true","false","true","true","""event"",""trial"",""time""
""fullscreenenter"",""5"",""14853""
","
","
","""event"",""trial"",""time""
""fullscreenenter"",""5"",""14853""
","
","1054.5999999940395","","48","","","3000","1","","","images/purpleplanet.jpg","images/alien4","images/alien3","images/rocket2","images/alien4","images/t.png","2","real","false","2","rare","1","2023-02-05 17:48:14.427"
"two-step-fixation","159","539007","0.0-77.0-2.7","2307","6127","15","Female","true","false","true","true","""event"",""trial"",""time""
""fullscreenenter"",""5"",""14853""
","
","
","""event"",""trial"",""time""
""fullscreenenter"",""5"",""14853""
","
","","images/earth.jpg","","","","","","","","","","","","","","fixation","","","","","",""
"d3-animate-choice","160","541297","0.0-77.0-0.8","2307","6127","15","Female","true","false","true","true","""event"",""trial"",""time""
""fullscreenenter"",""5"",""14853""
","
","
","""event"",""trial"",""time""
""fullscreenenter"",""5"",""14853""
","
","282.29999999701977","","49","","","3000","1","","","images/earth.jpg","images/rocket2","images/rocket1","null","images/rocket1","","1","real","null","1","","",""
"d3-animate-choice","161","544108","0.0-77.0-1.8","2307","6127","15","Female","true","false","true","true","""event"",""trial"",""time""
""fullscreenenter"",""5"",""14853""
","
","
","""event"",""trial"",""time""
""fullscreenenter"",""5"",""14853""
","
","801.5999999940395","","48","","","3000","1","","","images/purpleplanet.jpg","images/alien4","images/alien3","images/rocket1","images/alien4","images/nothing.png","2","real","true","2","common","0","2023-02-05 17:48:20.534"
"two-step-fixation","162","545116","0.0-77.0-2.8","2307","6127","15","Female","true","false","true","true","""event"",""trial"",""time""
""fullscreenenter"",""5"",""14853""
","
","
","""event"",""trial"",""time""
""fullscreenenter"",""5"",""14853""
","
","","images/earth.jpg","","","","","","","","","","","","","","fixation","","","","","",""
"d3-animate-choice","163","547435","0.0-77.0-0.9","2307","6127","15","Female","true","false","true","true","""event"",""trial"",""time""
""fullscreenenter"",""5"",""14853""
","
","
","""event"",""trial"",""time""
""fullscreenenter"",""5"",""14853""
","
","309.3999999910593","","48","","","3000","1","","","images/earth.jpg","images/rocket2","images/rocket1","null","images/rocket2","","1","real","null","2","","",""
"d3-animate-choice","164","550017","0.0-77.0-1.9","2307","6127","15","Female","true","false","true","true","""event"",""trial"",""time""
""fullscreenenter"",""5"",""14853""
","
","
","""event"",""trial"",""time""
""fullscreenenter"",""5"",""14853""
","
","577.6000000089407","","48","","","3000","1","","","images/redplanet1.jpg","images/alien2","images/alien1","images/rocket2","images/alien2","images/nothing.png","2","real","true","2","common","0","2023-02-05 17:48:26.442"
"two-step-fixation","165","551024","0.0-77.0-2.9","2307","6127","15","Female","true","false","true","true","""event"",""trial"",""time""
""fullscreenenter"",""5"",""14853""
","
","
","""event"",""trial"",""time""
""fullscreenenter"",""5"",""14853""
","
","","images/earth.jpg","","","","","","","","","","","","","","fixation","","","","","",""
"d3-animate-choice","166","553123","0.0-77.0-0.10","2307","6127","15","Female","true","false","true","true","""event"",""trial"",""time""
""fullscreenenter"",""5"",""14853""
","
","
","""event"",""trial"",""time""
""fullscreenenter"",""5"",""14853""
","
","93.1000000089407","","48","","","3000","1","","","images/earth.jpg","images/rocket2","images/rocket1","null","images/rocket2","","1","real","null","2","","",""
"d3-animate-choice","167","555491","0.0-77.0-1.10","2307","6127","15","Female","true","false","true","true","""event"",""trial"",""time""
""fullscreenenter"",""5"",""14853""
","
","
","""event"",""trial"",""time""
""fullscreenenter"",""5"",""14853""
","
","364.8999999910593","","48","","","3000","1","","","images/redplanet1.jpg","images/alien2","images/alien1","images/rocket2","images/alien2","images/nothing.png","2","real","true","2","common","0","2023-02-05 17:48:31.916"
"two-step-fixation","168","556497","0.0-77.0-2.10","2307","6127","15","Female","true","false","true","true","""event"",""trial"",""time""
""fullscreenenter"",""5"",""14853""
","
","
","""event"",""trial"",""time""
""fullscreenenter"",""5"",""14853""
","
","","images/earth.jpg","","","","","","","","","","","","","","fixation","","","","","",""
"d3-animate-choice","169","558791","0.0-77.0-0.11","2307","6127","15","Female","true","false","true","true","""event"",""trial"",""time""
""fullscreenenter"",""5"",""14853""
","
","
","""event"",""trial"",""time""
""fullscreenenter"",""5"",""14853""
","
","286.5","","48","","","3000","1","","","images/earth.jpg","images/rocket2","images/rocket1","null","images/rocket2","","1","real","null","2","","",""
"d3-animate-choice","170","561253","0.0-77.0-1.11","2307","6127","15","Female","true","false","true","true","""event"",""trial"",""time""
""fullscreenenter"",""5"",""14853""
","
","
","""event"",""trial"",""time""
""fullscreenenter"",""5"",""14853""
","
","452.20000000298023","","49","","","3000","1","","","images/redplanet1.jpg","images/alien2","images/alien1","images/rocket2","images/alien1","images/nothing.png","2","real","true","1","common","0","2023-02-05 17:48:37.678"
"two-step-fixation","171","562258","0.0-77.0-2.11","2307","6127","15","Female","true","false","true","true","""event"",""trial"",""time""
""fullscreenenter"",""5"",""14853""
","
","
","""event"",""trial"",""time""
""fullscreenenter"",""5"",""14853""
","
","","images/earth.jpg","","","","","","","","","","","","","","fixation","","","","","",""
"d3-animate-choice","172","564513","0.0-77.0-0.12","2307","6127","15","Female","true","false","true","true","""event"",""trial"",""time""
""fullscreenenter"",""5"",""14853""
","
","
","""event"",""trial"",""time""
""fullscreenenter"",""5"",""14853""
","
","251.09999999403954","","49","","","3000","1","","","images/earth.jpg","images/rocket2","images/rocket1","null","images/rocket1","","1","real","null","1","","",""
"d3-animate-choice","173","566907","0.0-77.0-1.12","2307","6127","15","Female","true","false","true","true","""event"",""trial"",""time""
""fullscreenenter"",""5"",""14853""
","
","
","""event"",""trial"",""time""
""fullscreenenter"",""5"",""14853""
","
","389.29999999701977","","48","","","3000","1","","","images/purpleplanet.jpg","images/alien4","images/alien3","images/rocket1","images/alien4","images/t.png","2","real","true","2","common","1","2023-02-05 17:48:43.332"
"two-step-fixation","174","567913","0.0-77.0-2.12","2307","6127","15","Female","true","false","true","true","""event"",""trial"",""time""
""fullscreenenter"",""5"",""14853""
","
","
","""event"",""trial"",""time""
""fullscreenenter"",""5"",""14853""
","
","","images/earth.jpg","","","","","","","","","","","","","","fixation","","","","","",""
"d3-animate-choice","175","570155","0.0-77.0-0.13","2307","6127","15","Female","true","false","true","true","""event"",""trial"",""time""
""fullscreenenter"",""5"",""14853""
","
","
","""event"",""trial"",""time""
""fullscreenenter"",""5"",""14853""
","
","231.80000001192093","","49","","","3000","1","","","images/earth.jpg","images/rocket2","images/rocket1","null","images/rocket1","","1","real","null","1","","",""
"d3-animate-choice","176","572513","0.0-77.0-1.13","2307","6127","15","Female","true","false","true","true","""event"",""trial"",""time""
""fullscreenenter"",""5"",""14853""
","
","
","""event"",""trial"",""time""
""fullscreenenter"",""5"",""14853""
","
","352.79999999701977","","48","","","3000","1","","","images/purpleplanet.jpg","images/alien4","images/alien3","images/rocket1","images/alien4","images/nothing.png","2","real","true","2","common","0","2023-02-05 17:48:48.938"
"two-step-fixation","177","573521","0.0-77.0-2.13","2307","6127","15","Female","true","false","true","true","""event"",""trial"",""time""
""fullscreenenter"",""5"",""14853""
","
","
","""event"",""trial"",""time""
""fullscreenenter"",""5"",""14853""
","
","","images/earth.jpg","","","","","","","","","","","","","","fixation","","","","","",""
"d3-animate-choice","178","575777","0.0-77.0-0.14","2307","6127","15","Female","true","false","true","true","""event"",""trial"",""time""
""fullscreenenter"",""5"",""14853""
","
","
","""event"",""trial"",""time""
""fullscreenenter"",""5"",""14853""
","
","250.70000000298023","","48","","","3000","1","","","images/earth.jpg","images/rocket2","images/rocket1","null","images/rocket2","","1","real","null","2","","",""
"d3-animate-choice","179","578041","0.0-77.0-1.14","2307","6127","15","Female","true","false","true","true","""event"",""trial"",""time""
""fullscreenenter"",""5"",""14853""
","
","
","""event"",""trial"",""time""
""fullscreenenter"",""5"",""14853""
","
","259","","48","","","3000","1","","","images/redplanet1.jpg","images/alien2","images/alien1","images/rocket2","images/alien2","images/nothing.png","2","real","true","2","common","0","2023-02-05 17:48:54.466"
"two-step-fixation","180","579051","0.0-77.0-2.14","2307","6127","15","Female","true","false","true","true","""event"",""trial"",""time""
""fullscreenenter"",""5"",""14853""
","
","
","""event"",""trial"",""time""
""fullscreenenter"",""5"",""14853""
","
","","images/earth.jpg","","","","","","","","","","","","","","fixation","","","","","",""
"d3-animate-choice","181","581334","0.0-77.0-0.15","2307","6127","15","Female","true","false","true","true","""event"",""trial"",""time""
""fullscreenenter"",""5"",""14853""
","
","
","""event"",""trial"",""time""
""fullscreenenter"",""5"",""14853""
","
","272.6000000089407","","48","","","3000","1","","","images/earth.jpg","images/rocket2","images/rocket1","null","images/rocket2","","1","real","null","2","","",""
"d3-animate-choice","182","583773","0.0-77.0-1.15","2307","6127","15","Female","true","false","true","true","""event"",""trial"",""time""
""fullscreenenter"",""5"",""14853""
","
","
","""event"",""trial"",""time""
""fullscreenenter"",""5"",""14853""
","
","426.3999999910593","","49","","","3000","1","","","images/redplanet1.jpg","images/alien2","images/alien1","images/rocket2","images/alien1","images/t.png","2","real","true","1","common","1","2023-02-05 17:49:00.198"
"two-step-fixation","183","584779","0.0-77.0-2.15","2307","6127","15","Female","true","false","true","true","""event"",""trial"",""time""
""fullscreenenter"",""5"",""14853""
","
","
","""event"",""trial"",""time""
""fullscreenenter"",""5"",""14853""
","
","","images/earth.jpg","","","","","","","","","","","","","","fixation","","","","","",""
"d3-animate-choice","184","587025","0.0-77.0-0.16","2307","6127","15","Female","true","false","true","true","""event"",""trial"",""time""
""fullscreenenter"",""5"",""14853""
","
","
","""event"",""trial"",""time""
""fullscreenenter"",""5"",""14853""
","
","234.5","","48","","","3000","1","","","images/earth.jpg","images/rocket2","images/rocket1","null","images/rocket2","","1","real","null","2","","",""
"d3-animate-choice","185","589459","0.0-77.0-1.16","2307","6127","15","Female","true","false","true","true","""event"",""trial"",""time""
""fullscreenenter"",""5"",""14853""
","
","
","""event"",""trial"",""time""
""fullscreenenter"",""5"",""14853""
","
","427.69999998807907","","49","","","3000","1","","","images/redplanet1.jpg","images/alien2","images/alien1","images/rocket2","images/alien1","images/nothing.png","2","real","true","1","common","0","2023-02-05 17:49:05.884"
"two-step-fixation","186","590466","0.0-77.0-2.16","2307","6127","15","Female","true","false","true","true","""event"",""trial"",""time""
""fullscreenenter"",""5"",""14853""
","
","
","""event"",""trial"",""time""
""fullscreenenter"",""5"",""14853""
","
","","images/earth.jpg","","","","","","","","","","","","","","fixation","","","","","",""
"d3-animate-choice","187","592881","0.0-77.0-0.17","2307","6127","15","Female","true","false","true","true","""event"",""trial"",""time""
""fullscreenenter"",""5"",""14853""
","
","
","""event"",""trial"",""time""
""fullscreenenter"",""5"",""14853""
","
","408.70000000298023","","48","","","3000","1","","","images/earth.jpg","images/rocket2","images/rocket1","null","images/rocket2","","1","real","null","2","","",""
"d3-animate-choice","188","595152","0.0-77.0-1.17","2307","6127","15","Female","true","false","true","true","""event"",""trial"",""time""
""fullscreenenter"",""5"",""14853""
","
","
","""event"",""trial"",""time""
""fullscreenenter"",""5"",""14853""
","
","265.59999999403954","","49","","","3000","1","","","images/redplanet1.jpg","images/alien2","images/alien1","images/rocket2","images/alien1","images/nothing.png","2","real","true","1","common","0","2023-02-05 17:49:11.577"
"two-step-fixation","189","596158","0.0-77.0-2.17","2307","6127","15","Female","true","false","true","true","""event"",""trial"",""time""
""fullscreenenter"",""5"",""14853""
","
","
","""event"",""trial"",""time""
""fullscreenenter"",""5"",""14853""
","
","","images/earth.jpg","","","","","","","","","","","","","","fixation","","","","","",""
"d3-animate-choice","190","598357","0.0-77.0-0.18","2307","6127","15","Female","true","false","true","true","""event"",""trial"",""time""
""fullscreenenter"",""5"",""14853""
","
","
","""event"",""trial"",""time""
""fullscreenenter"",""5"",""14853""
","
","187.09999999403954","","49","","","3000","1","","","images/earth.jpg","images/rocket2","images/rocket1","null","images/rocket1","","1","real","null","1","","",""
"d3-animate-choice","191","600683","0.0-77.0-1.18","2307","6127","15","Female","true","false","true","true","""event"",""trial"",""time""
""fullscreenenter"",""5"",""14853""
","
","
","""event"",""trial"",""time""
""fullscreenenter"",""5"",""14853""
","
","319.5","","48","","","3000","1","","","images/purpleplanet.jpg","images/alien4","images/alien3","images/rocket1","images/alien4","images/t.png","2","real","true","2","common","1","2023-02-05 17:49:17.108"
"two-step-fixation","192","601690","0.0-77.0-2.18","2307","6127","15","Female","true","false","true","true","""event"",""trial"",""time""
""fullscreenenter"",""5"",""14853""
","
","
","""event"",""trial"",""time""
""fullscreenenter"",""5"",""14853""
","
","","images/earth.jpg","","","","","","","","","","","","","","fixation","","","","","",""
"d3-animate-choice","193","604041","0.0-77.0-0.19","2307","6127","15","Female","true","false","true","true","""event"",""trial"",""time""
""fullscreenenter"",""5"",""14853""
","
","
","""event"",""trial"",""time""
""fullscreenenter"",""5"",""14853""
","
","346.29999999701977","","49","","","3000","1","","","images/earth.jpg","images/rocket2","images/rocket1","null","images/rocket1","","1","real","null","1","","",""
"d3-animate-choice","194","606557","0.0-77.0-1.19","2307","6127","15","Female","true","false","true","true","""event"",""trial"",""time""
""fullscreenenter"",""5"",""14853""
","
","
","""event"",""trial"",""time""
""fullscreenenter"",""5"",""14853""
","
","505.1000000089407","","48","","","3000","1","","","images/purpleplanet.jpg","images/alien4","images/alien3","images/rocket1","images/alien4","images/t.png","2","real","true","2","common","1","2023-02-05 17:49:22.982"
"two-step-fixation","195","607571","0.0-77.0-2.19","2307","6127","15","Female","true","false","true","true","""event"",""trial"",""time""
""fullscreenenter"",""5"",""14853""
","
","
","""event"",""trial"",""time""
""fullscreenenter"",""5"",""14853""
","
","","images/earth.jpg","","","","","","","","","","","","","","fixation","","","","","",""
"d3-animate-choice","196","609792","0.0-77.0-0.20","2307","6127","15","Female","true","false","true","true","""event"",""trial"",""time""
""fullscreenenter"",""5"",""14853""
","
","
","""event"",""trial"",""time""
""fullscreenenter"",""5"",""14853""
","
","216.3999999910593","","49","","","3000","1","","","images/earth.jpg","images/rocket2","images/rocket1","null","images/rocket1","","1","real","null","1","","",""
"d3-animate-choice","197","612218","0.0-77.0-1.20","2307","6127","15","Female","true","false","true","true","""event"",""trial"",""time""
""fullscreenenter"",""5"",""14853""
","
","
","""event"",""trial"",""time""
""fullscreenenter"",""5"",""14853""
","
","420","","48","","","3000","1","","","images/purpleplanet.jpg","images/alien4","images/alien3","images/rocket1","images/alien4","images/t.png","2","real","true","2","common","1","2023-02-05 17:49:28.643"
"two-step-fixation","198","613225","0.0-77.0-2.20","2307","6127","15","Female","true","false","true","true","""event"",""trial"",""time""
""fullscreenenter"",""5"",""14853""
","
","
","""event"",""trial"",""time""
""fullscreenenter"",""5"",""14853""
","
","","images/earth.jpg","","","","","","","","","","","","","","fixation","","","","","",""
"d3-animate-choice","199","615641","0.0-77.0-0.21","2307","6127","15","Female","true","false","true","true","""event"",""trial"",""time""
""fullscreenenter"",""5"",""14853""
","
","
","""event"",""trial"",""time""
""fullscreenenter"",""5"",""14853""
","
","410.29999999701977","","49","","","3000","1","","","images/earth.jpg","images/rocket2","images/rocket1","null","images/rocket1","","1","real","null","1","","",""
"d3-animate-choice","200","617936","0.0-77.0-1.21","2307","6127","15","Female","true","false","true","true","""event"",""trial"",""time""
""fullscreenenter"",""5"",""14853""
","
","
","""event"",""trial"",""time""
""fullscreenenter"",""5"",""14853""
","
","286.3999999910593","","48","","","3000","1","","","images/purpleplanet.jpg","images/alien4","images/alien3","images/rocket1","images/alien4","images/t.png","2","real","true","2","common","1","2023-02-05 17:49:34.361"
"two-step-fixation","201","618942","0.0-77.0-2.21","2307","6127","15","Female","true","false","true","true","""event"",""trial"",""time""
""fullscreenenter"",""5"",""14853""
","
","
","""event"",""trial"",""time""
""fullscreenenter"",""5"",""14853""
","
","","images/earth.jpg","","","","","","","","","","","","","","fixation","","","","","",""
"d3-animate-choice","202","621306","0.0-77.0-0.22","2307","6127","15","Female","true","false","true","true","""event"",""trial"",""time""
""fullscreenenter"",""5"",""14853""
","
","
","""event"",""trial"",""time""
""fullscreenenter"",""5"",""14853""
","
","357.3999999910593","","49","","","3000","1","","","images/earth.jpg","images/rocket2","images/rocket1","null","images/rocket1","","1","real","null","1","","",""
"d3-animate-choice","203","623890","0.0-77.0-1.22","2307","6127","15","Female","true","false","true","true","""event"",""trial"",""time""
""fullscreenenter"",""5"",""14853""
","
","
","""event"",""trial"",""time""
""fullscreenenter"",""5"",""14853""
","
","573.9000000059605","","48","","","3000","1","","","images/redplanet1.jpg","images/alien2","images/alien1","images/rocket1","images/alien2","images/nothing.png","2","real","false","2","rare","0","2023-02-05 17:49:40.316"
"two-step-fixation","204","624895","0.0-77.0-2.22","2307","6127","15","Female","true","false","true","true","""event"",""trial"",""time""
""fullscreenenter"",""5"",""14853""
","
","
","""event"",""trial"",""time""
""fullscreenenter"",""5"",""14853""
","
","","images/earth.jpg","","","","","","","","","","","","","","fixation","","","","","",""
"d3-animate-choice","205","627024","0.0-77.0-0.23","2307","6127","15","Female","true","false","true","true","""event"",""trial"",""time""
""fullscreenenter"",""5"",""14853""
","
","
","""event"",""trial"",""time""
""fullscreenenter"",""5"",""14853""
","
","118.29999999701977","","49","","","3000","1","","","images/earth.jpg","images/rocket2","images/rocket1","null","images/rocket1","","1","real","null","1","","",""
"d3-animate-choice","206","629691","0.0-77.0-1.23","2307","6127","15","Female","true","false","true","true","""event"",""trial"",""time""
""fullscreenenter"",""5"",""14853""
","
","
","""event"",""trial"",""time""
""fullscreenenter"",""5"",""14853""
","
","663.2999999970198","","48","","","3000","1","","","images/purpleplanet.jpg","images/alien4","images/alien3","images/rocket1","images/alien4","images/t.png","2","real","true","2","common","1","2023-02-05 17:49:46.116"
"two-step-fixation","207","630698","0.0-77.0-2.23","2307","6127","15","Female","true","false","true","true","""event"",""trial"",""time""
""fullscreenenter"",""5"",""14853""
","
","
","""event"",""trial"",""time""
""fullscreenenter"",""5"",""14853""
","
","","images/earth.jpg","","","","","","","","","","","","","","fixation","","","","","",""
"d3-animate-choice","208","633231","0.0-77.0-0.24","2307","6127","15","Female","true","false","true","true","""event"",""trial"",""time""
""fullscreenenter"",""5"",""14853""
","
","
","""event"",""trial"",""time""
""fullscreenenter"",""5"",""14853""
","
","527.7999999970198","","49","","","3000","1","","","images/earth.jpg","images/rocket2","images/rocket1","null","images/rocket1","","1","real","null","1","","",""
"d3-animate-choice","209","635758","0.0-77.0-1.24","2307","6127","15","Female","true","false","true","true","""event"",""trial"",""time""
""fullscreenenter"",""5"",""14853""
","
","
","""event"",""trial"",""time""
""fullscreenenter"",""5"",""14853""
","
","520.8999999910593","","48","","","3000","1","","","images/purpleplanet.jpg","images/alien4","images/alien3","images/rocket1","images/alien4","images/t.png","2","real","true","2","common","1","2023-02-05 17:49:52.183"
"two-step-fixation","210","636767","0.0-77.0-2.24","2307","6127","15","Female","true","false","true","true","""event"",""trial"",""time""
""fullscreenenter"",""5"",""14853""
","
","
","""event"",""trial"",""time""
""fullscreenenter"",""5"",""14853""
","
","","images/earth.jpg","","","","","","","","","","","","","","fixation","","","","","",""
"d3-animate-choice","211","638808","0.0-77.0-0.25","2307","6127","15","Female","true","false","true","true","""event"",""trial"",""time""
""fullscreenenter"",""5"",""14853""
","
","
","""event"",""trial"",""time""
""fullscreenenter"",""5"",""14853""
","
","34","","49","","","3000","1","","","images/earth.jpg","images/rocket2","images/rocket1","null","images/rocket1","","1","real","null","1","","",""
"d3-animate-choice","212","641359","0.0-77.0-1.25","2307","6127","15","Female","true","false","true","true","""event"",""trial"",""time""
""fullscreenenter"",""5"",""14853""
","
","
","""event"",""trial"",""time""
""fullscreenenter"",""5"",""14853""
","
","541.2000000029802","","48","","","3000","1","","","images/purpleplanet.jpg","images/alien4","images/alien3","images/rocket1","images/alien4","images/t.png","2","real","true","2","common","1","2023-02-05 17:49:57.784"
"two-step-fixation","213","642367","0.0-77.0-2.25","2307","6127","15","Female","true","false","true","true","""event"",""trial"",""time""
""fullscreenenter"",""5"",""14853""
","
","
","""event"",""trial"",""time""
""fullscreenenter"",""5"",""14853""
","
","","images/earth.jpg","","","","","","","","","","","","","","fixation","","","","","",""
"d3-animate-choice","214","644706","0.0-77.0-0.26","2307","6127","15","Female","true","false","true","true","""event"",""trial"",""time""
""fullscreenenter"",""5"",""14853""
","
","
","""event"",""trial"",""time""
""fullscreenenter"",""5"",""14853""
","
","324.69999998807907","","49","","","3000","1","","","images/earth.jpg","images/rocket2","images/rocket1","null","images/rocket1","","1","real","null","1","","",""
"d3-animate-choice","215","647194","0.0-77.0-1.26","2307","6127","15","Female","true","false","true","true","""event"",""trial"",""time""
""fullscreenenter"",""5"",""14853""
","
","
","""event"",""trial"",""time""
""fullscreenenter"",""5"",""14853""
","
","484.40000000596046","","48","","","3000","1","","","images/purpleplanet.jpg","images/alien4","images/alien3","images/rocket1","images/alien4","images/nothing.png","2","real","true","2","common","0","2023-02-05 17:50:03.619"
"two-step-fixation","216","648202","0.0-77.0-2.26","2307","6127","15","Female","true","false","true","true","""event"",""trial"",""time""
""fullscreenenter"",""5"",""14853""
","
","
","""event"",""trial"",""time""
""fullscreenenter"",""5"",""14853""
","
","","images/earth.jpg","","","","","","","","","","","","","","fixation","","","","","",""
"d3-animate-choice","217","650709","0.0-77.0-0.27","2307","6127","15","Female","true","false","true","true","""event"",""trial"",""time""
""fullscreenenter"",""5"",""14853""
","
","
","""event"",""trial"",""time""
""fullscreenenter"",""5"",""14853""
","
","500.70000000298023","","49","","","3000","1","","","images/earth.jpg","images/rocket2","images/rocket1","null","images/rocket1","","1","real","null","1","","",""
"d3-animate-choice","218","653354","0.0-77.0-1.27","2307","6127","15","Female","true","false","true","true","""event"",""trial"",""time""
""fullscreenenter"",""5"",""14853""
","
","
","""event"",""trial"",""time""
""fullscreenenter"",""5"",""14853""
","
","637.3999999910593","","49","","","3000","1","","","images/purpleplanet.jpg","images/alien4","images/alien3","images/rocket1","images/alien3","images/t.png","2","real","true","1","common","1","2023-02-05 17:50:09.779"
"two-step-fixation","219","654361","0.0-77.0-2.27","2307","6127","15","Female","true","false","true","true","""event"",""trial"",""time""
""fullscreenenter"",""5"",""14853""
","
","
","""event"",""trial"",""time""
""fullscreenenter"",""5"",""14853""
","
","","images/earth.jpg","","","","","","","","","","","","","","fixation","","","","","",""
"d3-animate-choice","220","656655","0.0-77.0-0.28","2307","6127","15","Female","true","false","true","true","""event"",""trial"",""time""
""fullscreenenter"",""5"",""14853""
","
","
","""event"",""trial"",""time""
""fullscreenenter"",""5"",""14853""
","
","289.69999998807907","","49","","","3000","1","","","images/earth.jpg","images/rocket2","images/rocket1","null","images/rocket1","","1","real","null","1","","",""
"d3-animate-choice","221","659240","0.0-77.0-1.28","2307","6127","15","Female","true","false","true","true","""event"",""trial"",""time""
""fullscreenenter"",""5"",""14853""
","
","
","""event"",""trial"",""time""
""fullscreenenter"",""5"",""14853""
","
","573.9000000059605","","49","","","3000","1","","","images/purpleplanet.jpg","images/alien4","images/alien3","images/rocket1","images/alien3","images/nothing.png","2","real","true","1","common","0","2023-02-05 17:50:15.666"
"two-step-fixation","222","660249","0.0-77.0-2.28","2307","6127","15","Female","true","false","true","true","""event"",""trial"",""time""
""fullscreenenter"",""5"",""14853""
","
","
","""event"",""trial"",""time""
""fullscreenenter"",""5"",""14853""
","
","","images/earth.jpg","","","","","","","","","","","","","","fixation","","","","","",""
"d3-animate-choice","223","662607","0.0-77.0-0.29","2307","6127","15","Female","true","false","true","true","""event"",""trial"",""time""
""fullscreenenter"",""5"",""14853""
","
","
","""event"",""trial"",""time""
""fullscreenenter"",""5"",""14853""
","
","346.40000000596046","","49","","","3000","1","","","images/earth.jpg","images/rocket2","images/rocket1","null","images/rocket1","","1","real","null","1","","",""
"d3-animate-choice","224","664959","0.0-77.0-1.29","2307","6127","15","Female","true","false","true","true","""event"",""trial"",""time""
""fullscreenenter"",""5"",""14853""
","
","
","""event"",""trial"",""time""
""fullscreenenter"",""5"",""14853""
","
","345","","48","","","3000","1","","","images/redplanet1.jpg","images/alien2","images/alien1","images/rocket1","images/alien2","images/nothing.png","2","real","false","2","rare","0","2023-02-05 17:50:21.384"
"two-step-fixation","225","665967","0.0-77.0-2.29","2307","6127","15","Female","true","false","true","true","""event"",""trial"",""time""
""fullscreenenter"",""5"",""14853""
","
","
","""event"",""trial"",""time""
""fullscreenenter"",""5"",""14853""
","
","","images/earth.jpg","","","","","","","","","","","","","","fixation","","","","","",""
"d3-animate-choice","226","668265","0.0-77.0-0.30","2307","6127","15","Female","true","false","true","true","""event"",""trial"",""time""
""fullscreenenter"",""5"",""14853""
","
","
","""event"",""trial"",""time""
""fullscreenenter"",""5"",""14853""
","
","290.1000000089407","","49","","","3000","1","","","images/earth.jpg","images/rocket2","images/rocket1","null","images/rocket1","","1","real","null","1","","",""
"d3-animate-choice","227","670687","0.0-77.0-1.30","2307","6127","15","Female","true","false","true","true","""event"",""trial"",""time""
""fullscreenenter"",""5"",""14853""
","
","
","""event"",""trial"",""time""
""fullscreenenter"",""5"",""14853""
","
","411","","48","","","3000","1","","","images/purpleplanet.jpg","images/alien4","images/alien3","images/rocket1","images/alien4","images/nothing.png","2","real","true","2","common","0","2023-02-05 17:50:27.112"
"two-step-fixation","228","671692","0.0-77.0-2.30","2307","6127","15","Female","true","false","true","true","""event"",""trial"",""time""
""fullscreenenter"",""5"",""14853""
","
","
","""event"",""trial"",""time""
""fullscreenenter"",""5"",""14853""
","
","","images/earth.jpg","","","","","","","","","","","","","","fixation","","","","","",""
"d3-animate-choice","229","674248","0.0-77.0-0.31","2307","6127","15","Female","true","false","true","true","""event"",""trial"",""time""
""fullscreenenter"",""5"",""14853""
","
","
","""event"",""trial"",""time""
""fullscreenenter"",""5"",""14853""
","
","548.2000000029802","","48","","","3000","1","","","images/earth.jpg","images/rocket2","images/rocket1","null","images/rocket2","","1","real","null","2","","",""
"d3-animate-choice","230","676569","0.0-77.0-1.31","2307","6127","15","Female","true","false","true","true","""event"",""trial"",""time""
""fullscreenenter"",""5"",""14853""
","
","
","""event"",""trial"",""time""
""fullscreenenter"",""5"",""14853""
","
","313.29999999701977","","48","","","3000","1","","","images/redplanet1.jpg","images/alien2","images/alien1","images/rocket2","images/alien2","images/nothing.png","2","real","true","2","common","0","2023-02-05 17:50:32.995"
"two-step-fixation","231","677575","0.0-77.0-2.31","2307","6127","15","Female","true","false","true","true","""event"",""trial"",""time""
""fullscreenenter"",""5"",""14853""
","
","
","""event"",""trial"",""time""
""fullscreenenter"",""5"",""14853""
","
","","images/earth.jpg","","","","","","","","","","","","","","fixation","","","","","",""
"d3-animate-choice","232","679753","0.0-77.0-0.32","2307","6127","15","Female","true","false","true","true","""event"",""trial"",""time""
""fullscreenenter"",""5"",""14853""
","
","
","""event"",""trial"",""time""
""fullscreenenter"",""5"",""14853""
","
","170.3999999910593","","48","","","3000","1","","","images/earth.jpg","images/rocket2","images/rocket1","null","images/rocket2","","1","real","null","2","","",""
"d3-animate-choice","233","682075","0.0-77.0-1.32","2307","6127","15","Female","true","false","true","true","""event"",""trial"",""time""
""fullscreenenter"",""5"",""14853""
","
","
","""event"",""trial"",""time""
""fullscreenenter"",""5"",""14853""
","
","316.59999999403954","","49","","","3000","1","","","images/redplanet1.jpg","images/alien2","images/alien1","images/rocket2","images/alien1","images/t.png","2","real","true","1","common","1","2023-02-05 17:50:38.501"
"two-step-fixation","234","683086","0.0-77.0-2.32","2307","6127","15","Female","true","false","true","true","""event"",""trial"",""time""
""fullscreenenter"",""5"",""14853""
","
","
","""event"",""trial"",""time""
""fullscreenenter"",""5"",""14853""
","
","","images/earth.jpg","","","","","","","","","","","","","","fixation","","","","","",""
"d3-animate-choice","235","685368","0.0-77.0-0.33","2307","6127","15","Female","true","false","true","true","""event"",""trial"",""time""
""fullscreenenter"",""5"",""14853""
","
","
","""event"",""trial"",""time""
""fullscreenenter"",""5"",""14853""
","
","269.70000000298023","","48","","","3000","1","","","images/earth.jpg","images/rocket2","images/rocket1","null","images/rocket2","","1","real","null","2","","",""
"d3-animate-choice","236","687672","0.0-77.0-1.33","2307","6127","15","Female","true","false","true","true","""event"",""trial"",""time""
""fullscreenenter"",""5"",""14853""
","
","
","""event"",""trial"",""time""
""fullscreenenter"",""5"",""14853""
","
","297","","49","","","3000","1","","","images/redplanet1.jpg","images/alien2","images/alien1","images/rocket2","images/alien1","images/t.png","2","real","true","1","common","1","2023-02-05 17:50:44.098"
"two-step-fixation","237","688680","0.0-77.0-2.33","2307","6127","15","Female","true","false","true","true","""event"",""trial"",""time""
""fullscreenenter"",""5"",""14853""
","
","
","""event"",""trial"",""time""
""fullscreenenter"",""5"",""14853""
","
","","images/earth.jpg","","","","","","","","","","","","","","fixation","","","","","",""
"d3-animate-choice","238","691023","0.0-77.0-0.34","2307","6127","15","Female","true","false","true","true","""event"",""trial"",""time""
""fullscreenenter"",""5"",""14853""
","
","
","""event"",""trial"",""time""
""fullscreenenter"",""5"",""14853""
","
","331.20000000298023","","48","","","3000","1","","","images/earth.jpg","images/rocket2","images/rocket1","null","images/rocket2","","1","real","null","2","","",""
"d3-animate-choice","239","693490","0.0-77.0-1.34","2307","6127","15","Female","true","false","true","true","""event"",""trial"",""time""
""fullscreenenter"",""5"",""14853""
","
","
","""event"",""trial"",""time""
""fullscreenenter"",""5"",""14853""
","
","455.80000001192093","","49","","","3000","1","","","images/redplanet1.jpg","images/alien2","images/alien1","images/rocket2","images/alien1","images/t.png","2","real","true","1","common","1","2023-02-05 17:50:49.915"
"two-step-fixation","240","694493","0.0-77.0-2.34","2307","6127","15","Female","true","false","true","true","""event"",""trial"",""time""
""fullscreenenter"",""5"",""14853""
","
","
","""event"",""trial"",""time""
""fullscreenenter"",""5"",""14853""
","
","","images/earth.jpg","","","","","","","","","","","","","","fixation","","","","","",""
"d3-animate-choice","241","696765","0.0-77.0-0.35","2307","6127","15","Female","true","false","true","true","""event"",""trial"",""time""
""fullscreenenter"",""5"",""14853""
","
","
","""event"",""trial"",""time""
""fullscreenenter"",""5"",""14853""
","
","265.70000000298023","","48","","","3000","1","","","images/earth.jpg","images/rocket2","images/rocket1","null","images/rocket2","","1","real","null","2","","",""
"d3-animate-choice","242","699490","0.0-77.0-1.35","2307","6127","15","Female","true","false","true","true","""event"",""trial"",""time""
""fullscreenenter"",""5"",""14853""
","
","
","""event"",""trial"",""time""
""fullscreenenter"",""5"",""14853""
","
","709.6000000089407","","49","","","3000","1","","","images/purpleplanet.jpg","images/alien4","images/alien3","images/rocket2","images/alien3","images/nothing.png","2","real","false","1","rare","0","2023-02-05 17:50:55.915"
"two-step-fixation","243","700504","0.0-77.0-2.35","2307","6127","15","Female","true","false","true","true","""event"",""trial"",""time""
""fullscreenenter"",""5"",""14853""
","
","
","""event"",""trial"",""time""
""fullscreenenter"",""5"",""14853""
","
","","images/earth.jpg","","","","","","","","","","","","","","fixation","","","","","",""
"d3-animate-choice","244","702623","0.0-77.0-0.36","2307","6127","15","Female","true","false","true","true","""event"",""trial"",""time""
""fullscreenenter"",""5"",""14853""
","
","
","""event"",""trial"",""time""
""fullscreenenter"",""5"",""14853""
","
","106.70000000298023","","48","","","3000","1","369.5,727.6000000089407","48,48","images/earth.jpg","images/rocket2","images/rocket1","null","images/rocket2","","1","real","null","2","","",""
"d3-animate-choice","245","705165","0.0-77.0-1.36","2307","6127","15","Female","true","false","true","true","""event"",""trial"",""time""
""fullscreenenter"",""5"",""14853""
","
","
","""event"",""trial"",""time""
""fullscreenenter"",""5"",""14853""
","
