"trial_type","trial_index","time_elapsed","internal_node_id","participant_id","subject_id","age","gender","rocket_sides","red_planet_first_rocket","red_display_order","purple_display_order","interactions","blur_events","focus_events","fullscreenenter_events","fullscreenexit_events","rt","stimulus","key_press","button_pressed","success","duration","valid_pressed","rts","keys","planet_text","right_text","left_text","center_text","chosen_text","reward_text","trial_stage","practice_trial","transition_type","choice","transition","reward","timestamp"
"pavlovia","0","5","0.0-0.0","136","684","14","Male","false","true","false","false","
","
","
","
","
","","","","","","","","","","","","","","","","","","","","","",""
"html-keyboard-response","1","3205","0.0-1.0","136","684","14","Male","false","true","false","false","
","
","
","
","
","3199","Welcome! Press the space bar to begin.","32","","","","","","","","","","","","","","","","","","",""
"audio-keyboard-response","2","7802","0.0-2.0","136","684","14","Male","false","true","false","false","
","
","
","
","
","4331","audio/beep_loop.wav","32","","","","","","","","","","","","","","","","","","",""
"audio-button-response","3","9659","0.0-3.0","136","684","14","Male","false","true","false","false","
","
","
","
","
","NaN","audio/fish.mp3","","1","","","","","","","","","","","","","","","","","",""
"audio-button-response","4","12355","0.0-4.0","136","684","14","Male","false","true","false","false","""event"",""trial"",""time""
""fullscreenenter"",""5"",""15407""
","
","
","""event"",""trial"",""time""
""fullscreenenter"",""5"",""15407""
","
","NaN","audio/tiger.mp3","","4","","","","","","","","","","","","","","","","","",""
"fullscreen","5","16403","0.0-5.0","136","684","14","Male","false","true","false","false","""event"",""trial"",""time""
""fullscreenenter"",""5"",""15407""
","
","
","""event"",""trial"",""time""
""fullscreenenter"",""5"",""15407""
","
","","","","","true","","","","","","","","","","","","","","","","",""
"d3-instructions","6","30171","0.0-6.0","136","684","14","Male","false","true","false","false","""event"",""trial"",""time""
""fullscreenenter"",""5"",""15407""
","
","
","""event"",""trial"",""time""
""fullscreenenter"",""5"",""15407""
","
","","","","","","","","","","","","","","","","","","","","","",""
"d3-instructions","7","38901","0.0-7.0","136","684","14","Male","false","true","false","false","""event"",""trial"",""time""
""fullscreenenter"",""5"",""15407""
","
","
","""event"",""trial"",""time""
""fullscreenenter"",""5"",""15407""
","
","","","","","","","","","","","","","","","","","","","","","",""
"d3-instructions","8","45801","0.0-8.0","136","684","14","Male","false","true","false","false","""event"",""trial"",""time""
""fullscreenenter"",""5"",""15407""
","
","
","""event"",""trial"",""time""
""fullscreenenter"",""5"",""15407""
","
","","","","","","","","","","","","","","","","","","","","","",""
"d3-instructions","9","60967","0.0-9.0","136","684","14","Male","false","true","false","false","""event"",""trial"",""time""
""fullscreenenter"",""5"",""15407""
","
","
","""event"",""trial"",""time""
""fullscreenenter"",""5"",""15407""
","
","","","","","","","","","","","","","","","","","","","","","",""
"d3-instructions","10","80587","0.0-10.0","136","684","14","Male","false","true","false","false","""event"",""trial"",""time""
""fullscreenenter"",""5"",""15407""
","
","
","""event"",""trial"",""time""
""fullscreenenter"",""5"",""15407""
","
","","","","","","","","","","","","","","","","","","","","","",""
"d3-animate-choice","11","83713","0.0-11.0","136","684","14","Male","false","true","false","false","""event"",""trial"",""time""
""fullscreenenter"",""5"",""15407""
","
","
","""event"",""trial"",""time""
""fullscreenenter"",""5"",""15407""
","
","1118.6000000238419","","49","","","3000","1","2959.100000023842","48","images/tutgreenplanet.jpg","images/tutalien1","images/tutalien2","null","images/tutalien2","","NA","practice","null","","","",""
"d3-animate-choice","12","86113","0.0-12.0","136","684","14","Male","false","true","false","false","""event"",""trial"",""time""
""fullscreenenter"",""5"",""15407""
","
","
","""event"",""trial"",""time""
""fullscreenenter"",""5"",""15407""
","
","389.69999998807907","","48","","","3000","1","","","images/tutgreenplanet.jpg","images/tutalien1","images/tutalien2","null","images/tutalien1","","NA","practice","null","","","",""
"d3-animate-choice","13","88492","0.0-13.0","136","684","14","Male","false","true","false","false","""event"",""trial"",""time""
""fullscreenenter"",""5"",""15407""
","
","
","""event"",""trial"",""time""
""fullscreenenter"",""5"",""15407""
","
","366.5","","49","","","3000","1","2354.800000011921","48","images/tutgreenplanet.jpg","images/tutalien1","images/tutalien2","null","images/tutalien2","","NA","practice","null","","","",""
"d3-animate-choice","14","91180","0.0-14.0","136","684","14","Male","false","true","false","false","""event"",""trial"",""time""
""fullscreenenter"",""5"",""15407""
","
","
","""event"",""trial"",""time""
""fullscreenenter"",""5"",""15407""
","
","672.6999999880791","","48","","","3000","1","","","images/tutgreenplanet.jpg","images/tutalien1","images/tutalien2","null","images/tutalien1","","NA","practice","null","","","",""
"d3-instructions","15","98122","0.0-15.0","136","684","14","Male","false","true","false","false","""event"",""trial"",""time""
""fullscreenenter"",""5"",""15407""
","
","
","""event"",""trial"",""time""
""fullscreenenter"",""5"",""15407""
","
","","","","","","","","","","","","","","","","","","","","","",""
"d3-instructions","16","105367","0.0-16.0","136","684","14","Male","false","true","false","false","""event"",""trial"",""time""
""fullscreenenter"",""5"",""15407""
","
","
","""event"",""trial"",""time""
""fullscreenenter"",""5"",""15407""
","
","","","","","","","","","","","","","","","","","","","","","",""
"d3-instructions","17","113458","0.0-17.0","136","684","14","Male","false","true","false","false","""event"",""trial"",""time""
""fullscreenenter"",""5"",""15407""
","
","
","""event"",""trial"",""time""
""fullscreenenter"",""5"",""15407""
","
","","","","","","","","","","","","","","","","","","","","","",""
"d3-instructions","18","126459","0.0-18.0","136","684","14","Male","false","true","false","false","""event"",""trial"",""time""
""fullscreenenter"",""5"",""15407""
","
","
","""event"",""trial"",""time""
""fullscreenenter"",""5"",""15407""
","
","","","","","","","","","","","","","","","","","","","","","",""
"d3-instructions","19","140003","0.0-19.0","136","684","14","Male","false","true","false","false","""event"",""trial"",""time""
""fullscreenenter"",""5"",""15407""
","
","
","""event"",""trial"",""time""
""fullscreenenter"",""5"",""15407""
","
","","","","","","","","","","","","","","","","","","","","","",""
"d3-animate-choice","20","142954","0.0-20.0","136","684","14","Male","false","true","false","false","""event"",""trial"",""time""
""fullscreenenter"",""5"",""15407""
","
","
","""event"",""trial"",""time""
""fullscreenenter"",""5"",""15407""
","
","933.2999999523163","","49","","","3000","1","","","images/tutyellowplanet.jpg","null","images/tutalien3","null","images/tutalien3","images/t.png","NA","practice","null","","","",""
"d3-animate-choice","21","145293","0.0-21.0","136","684","14","Male","false","true","false","false","""event"",""trial"",""time""
""fullscreenenter"",""5"",""15407""
","
","
","""event"",""trial"",""time""
""fullscreenenter"",""5"",""15407""
","
","329","","49","","","3000","1","","","images/tutyellowplanet.jpg","null","images/tutalien3","null","images/tutalien3","images/t.png","NA","practice","null","","","",""
"d3-animate-choice","22","147558","0.0-22.0","136","684","14","Male","false","true","false","false","""event"",""trial"",""time""
""fullscreenenter"",""5"",""15407""
","
","
","""event"",""trial"",""time""
""fullscreenenter"",""5"",""15407""
","
","251.69999998807907","","49","","","3000","1","","","images/tutyellowplanet.jpg","null","images/tutalien3","null","images/tutalien3","images/t.png","NA","practice","null","","","",""
"d3-animate-choice","23","149812","0.0-23.0","136","684","14","Male","false","true","false","false","""event"",""trial"",""time""
""fullscreenenter"",""5"",""15407""
","
","
","""event"",""trial"",""time""
""fullscreenenter"",""5"",""15407""
","
","248.19999998807907","","49","","","3000","1","","","images/tutyellowplanet.jpg","null","images/tutalien3","null","images/tutalien3","images/t.png","NA","practice","null","","","",""
"d3-animate-choice","24","152029","0.0-24.0","136","684","14","Male","false","true","false","false","""event"",""trial"",""time""
""fullscreenenter"",""5"",""15407""
","
","
","""event"",""trial"",""time""
""fullscreenenter"",""5"",""15407""
","
","200.89999997615814","","49","","","3000","1","1763.699999988079","49","images/tutyellowplanet.jpg","null","images/tutalien3","null","images/tutalien3","images/t.png","NA","practice","null","","","",""
"d3-animate-choice","25","154312","0.0-25.0","136","684","14","Male","false","true","false","false","""event"",""trial"",""time""
""fullscreenenter"",""5"",""15407""
","
","
","""event"",""trial"",""time""
""fullscreenenter"",""5"",""15407""
","
","280.69999998807907","","49","","","3000","1","1852.6000000238419","49","images/tutyellowplanet.jpg","null","images/tutalien3","null","images/tutalien3","images/t.png","NA","practice","null","","","",""
"d3-animate-choice","26","156863","0.0-26.0","136","684","14","Male","false","true","false","false","""event"",""trial"",""time""
""fullscreenenter"",""5"",""15407""
","
","
","""event"",""trial"",""time""
""fullscreenenter"",""5"",""15407""
","
","544.8000000119209","","49","","","3000","1","","","images/tutyellowplanet.jpg","null","images/tutalien3","null","images/tutalien3","images/t.png","NA","practice","null","","","",""
"d3-animate-choice","27","159398","0.0-27.0","136","684","14","Male","false","true","false","false","""event"",""trial"",""time""
""fullscreenenter"",""5"",""15407""
","
","
","""event"",""trial"",""time""
""fullscreenenter"",""5"",""15407""
","
","522.3999999761581","","49","","","3000","1","","","images/tutyellowplanet.jpg","null","images/tutalien3","null","images/tutalien3","images/nothing.png","NA","practice","null","","","",""
"d3-animate-choice","28","162176","0.0-28.0","136","684","14","Male","false","true","false","false","""event"",""trial"",""time""
""fullscreenenter"",""5"",""15407""
","
","
","""event"",""trial"",""time""
""fullscreenenter"",""5"",""15407""
","
","766.6000000238419","","49","","","3000","1","2269.5","49","images/tutyellowplanet.jpg","null","images/tutalien3","null","images/tutalien3","images/t.png","NA","practice","null","","","",""
"d3-animate-choice","29","164266","0.0-29.0","136","684","14","Male","false","true","false","false","""event"",""trial"",""time""
""fullscreenenter"",""5"",""15407""
","
","
","""event"",""trial"",""time""
""fullscreenenter"",""5"",""15407""
","
","84","","49","","","3000","1","1964.5999999642372","49","images/tutyellowplanet.jpg","null","images/tutalien3","null","images/tutalien3","images/nothing.png","NA","practice","null","","","",""
"d3-instructions","30","170947","0.0-30.0","136","684","14","Male","false","true","false","false","""event"",""trial"",""time""
""fullscreenenter"",""5"",""15407""
","
","
","""event"",""trial"",""time""
""fullscreenenter"",""5"",""15407""
","
","","","","","","","","","","","","","","","","","","","","","",""
"d3-instructions","31","183819","0.0-31.0","136","684","14","Male","false","true","false","false","""event"",""trial"",""time""
""fullscreenenter"",""5"",""15407""
","
","
","""event"",""trial"",""time""
""fullscreenenter"",""5"",""15407""
","
","","","","","","","","","","","","","","","","","","","","","",""
"d3-instructions","32","191105","0.0-32.0","136","684","14","Male","false","true","false","false","""event"",""trial"",""time""
""fullscreenenter"",""5"",""15407""
","
","
","""event"",""trial"",""time""
""fullscreenenter"",""5"",""15407""
","
","","","","","","","","","","","","","","","","","","","","","",""
"d3-instructions","33","201357","0.0-33.0","136","684","14","Male","false","true","false","false","""event"",""trial"",""time""
""fullscreenenter"",""5"",""15407""
","
","
","""event"",""trial"",""time""
""fullscreenenter"",""5"",""15407""
","
","","","","","","","","","","","","","","","","","","","","","",""
"d3-animate-choice","34","204831","0.0-34.0","136","684","14","Male","false","true","false","false","""event"",""trial"",""time""
""fullscreenenter"",""5"",""15407""
","
","
","""event"",""trial"",""time""
""fullscreenenter"",""5"",""15407""
","
","1455.699999988079","","49","","","3000","1","","","images/tutgreenplanet.jpg","images/tutalien1","images/tutalien2","null","images/tutalien2","images/t.png","NA","practice","null","","","",""
"d3-animate-choice","35","207165","0.0-35.0","136","684","14","Male","false","true","false","false","""event"",""trial"",""time""
""fullscreenenter"",""5"",""15407""
","
","
","""event"",""trial"",""time""
""fullscreenenter"",""5"",""15407""
","
","320.80000001192093","","49","","","3000","1","","","images/tutgreenplanet.jpg","images/tutalien1","images/tutalien2","null","images/tutalien2","images/t.png","NA","practice","null","","","",""
"d3-animate-choice","36","209445","0.0-36.0","136","684","14","Male","false","true","false","false","""event"",""trial"",""time""
""fullscreenenter"",""5"",""15407""
","
","
","""event"",""trial"",""time""
""fullscreenenter"",""5"",""15407""
","
","276.60000002384186","","49","","","3000","1","1816.2000000476837","49","images/tutgreenplanet.jpg","images/tutalien1","images/tutalien2","null","images/tutalien2","images/t.png","NA","practice","null","","","",""
"d3-animate-choice","37","211716","0.0-37.0","136","684","14","Male","false","true","false","false","""event"",""trial"",""time""
""fullscreenenter"",""5"",""15407""
","
","
","""event"",""trial"",""time""
""fullscreenenter"",""5"",""15407""
","
","264.39999997615814","","49","","","3000","1","","","images/tutgreenplanet.jpg","images/tutalien1","images/tutalien2","null","images/tutalien2","images/t.png","NA","practice","null","","","",""
"d3-animate-choice","38","214050","0.0-38.0","136","684","14","Male","false","true","false","false","""event"",""trial"",""time""
""fullscreenenter"",""5"",""15407""
","
","
","""event"",""trial"",""time""
""fullscreenenter"",""5"",""15407""
","
","317","","49","","","3000","1","","","images/tutgreenplanet.jpg","images/tutalien1","images/tutalien2","null","images/tutalien2","images/t.png","NA","practice","null","","","",""
"d3-animate-choice","39","216295","0.0-39.0","136","684","14","Male","false","true","false","false","""event"",""trial"",""time""
""fullscreenenter"",""5"",""15407""
","
","
","""event"",""trial"",""time""
""fullscreenenter"",""5"",""15407""
","
","243.10000002384186","","48","","","3000","1","","","images/tutgreenplanet.jpg","images/tutalien1","images/tutalien2","null","images/tutalien1","images/nothing.png","NA","practice","null","","","",""
"d3-animate-choice","40","218613","0.0-40.0","136","684","14","Male","false","true","false","false","""event"",""trial"",""time""
""fullscreenenter"",""5"",""15407""
","
","
","""event"",""trial"",""time""
""fullscreenenter"",""5"",""15407""
","
","300.5","","48","","","3000","1","","","images/tutgreenplanet.jpg","images/tutalien1","images/tutalien2","null","images/tutalien1","images/nothing.png","NA","practice","null","","","",""
"d3-animate-choice","41","220926","0.0-41.0","136","684","14","Male","false","true","false","false","""event"",""trial"",""time""
""fullscreenenter"",""5"",""15407""
","
","
","""event"",""trial"",""time""
""fullscreenenter"",""5"",""15407""
","
","303.0999999642372","","49","","","3000","1","","","images/tutgreenplanet.jpg","images/tutalien1","images/tutalien2","null","images/tutalien2","images/t.png","NA","practice","null","","","",""
"d3-animate-choice","42","223167","0.0-42.0","136","684","14","Male","false","true","false","false","""event"",""trial"",""time""
""fullscreenenter"",""5"",""15407""
","
","
","""event"",""trial"",""time""
""fullscreenenter"",""5"",""15407""
","
","237.5","","49","","","3000","1","","","images/tutgreenplanet.jpg","images/tutalien1","images/tutalien2","null","images/tutalien2","images/t.png","NA","practice","null","","","",""
"d3-animate-choice","43","225266","0.0-43.0","136","684","14","Male","false","true","false","false","""event"",""trial"",""time""
""fullscreenenter"",""5"",""15407""
","
","
","""event"",""trial"",""time""
""fullscreenenter"",""5"",""15407""
","
","97.69999998807907","","49","","","3000","1","1524.3999999761581,1760.199999988079,1996.6000000238419","49,49,49","images/tutgreenplanet.jpg","images/tutalien1","images/tutalien2","null","images/tutalien2","images/t.png","NA","practice","null","","","",""
"d3-instructions","44","238681","0.0-44.0","136","684","14","Male","false","true","false","false","""event"",""trial"",""time""
""fullscreenenter"",""5"",""15407""
","
","
","""event"",""trial"",""time""
""fullscreenenter"",""5"",""15407""
","
","","","","","","","","","","","","","","","","","","","","","",""
"d3-instructions","45","245007","0.0-45.0","136","684","14","Male","false","true","false","false","""event"",""trial"",""time""
""fullscreenenter"",""5"",""15407""
","
","
","""event"",""trial"",""time""
""fullscreenenter"",""5"",""15407""
","
","","","","","","","","","","","","","","","","","","","","","",""
"d3-instructions","46","250395","0.0-46.0","136","684","14","Male","false","true","false","false","""event"",""trial"",""time""
""fullscreenenter"",""5"",""15407""
","
","
","""event"",""trial"",""time""
""fullscreenenter"",""5"",""15407""
","
","","","","","","","","","","","","","","","","","","","","","",""
"d3-instructions","47","269862","0.0-47.0","136","684","14","Male","false","true","false","false","""event"",""trial"",""time""
""fullscreenenter"",""5"",""15407""
","
","
","""event"",""trial"",""time""
""fullscreenenter"",""5"",""15407""
","
","","","","","","","","","","","","","","","","","","","","","",""
"d3-instructions","48","276520","0.0-48.0","136","684","14","Male","false","true","false","false","""event"",""trial"",""time""
""fullscreenenter"",""5"",""15407""
","
","
","""event"",""trial"",""time""
""fullscreenenter"",""5"",""15407""
","
","","","","","","","","","","","","","","","","","","","","","",""
"d3-instructions","49","287684","0.0-49.0","136","684","14","Male","false","true","false","false","""event"",""trial"",""time""
""fullscreenenter"",""5"",""15407""
","
","
","""event"",""trial"",""time""
""fullscreenenter"",""5"",""15407""
","
","","","","","","","","","","","","","","","","","","","","","",""
"d3-instructions","50","300493","0.0-50.0","136","684","14","Male","false","true","false","false","""event"",""trial"",""time""
""fullscreenenter"",""5"",""15407""
","
","
","""event"",""trial"",""time""
""fullscreenenter"",""5"",""15407""
","
","","","","","","","","","","","","","","","","","","","","","",""
"d3-instructions","51","302880","0.0-51.0","136","684","14","Male","false","true","false","false","""event"",""trial"",""time""
""fullscreenenter"",""5"",""15407""
","
","
","""event"",""trial"",""time""
""fullscreenenter"",""5"",""15407""
","
","","","","","","","","","","","","","","","","","","","","","",""
"d3-instructions","52","305369","0.0-52.0","136","684","14","Male","false","true","false","false","""event"",""trial"",""time""
""fullscreenenter"",""5"",""15407""
","
","
","""event"",""trial"",""time""
""fullscreenenter"",""5"",""15407""
","
","","","","","","","","","","","","","","","","","","","","","",""
"d3-instructions","53","317263","0.0-53.0","136","684","14","Male","false","true","false","false","""event"",""trial"",""time""
""fullscreenenter"",""5"",""15407""
","
","
","""event"",""trial"",""time""
""fullscreenenter"",""5"",""15407""
","
","","","","","","","","","","","","","","","","","","","","","",""
"d3-instructions","54","329513","0.0-54.0","136","684","14","Male","false","true","false","false","""event"",""trial"",""time""
""fullscreenenter"",""5"",""15407""
","
","
","""event"",""trial"",""time""
""fullscreenenter"",""5"",""15407""
","
","","","","","","","","","","","","","","","","","","","","","",""
"d3-instructions","55","339805","0.0-55.0","136","684","14","Male","false","true","false","false","""event"",""trial"",""time""
""fullscreenenter"",""5"",""15407""
","
","
","""event"",""trial"",""time""
""fullscreenenter"",""5"",""15407""
","
","","","","","","","","","","","","","","","","","","","","","",""
"d3-instructions","56","348638","0.0-56.0","136","684","14","Male","false","true","false","false","""event"",""trial"",""time""
""fullscreenenter"",""5"",""15407""
","
","
","""event"",""trial"",""time""
""fullscreenenter"",""5"",""15407""
","
","","","","","","","","","","","","","","","","","","","","","",""
"d3-instructions","57","360987","0.0-57.0","136","684","14","Male","false","true","false","false","""event"",""trial"",""time""
""fullscreenenter"",""5"",""15407""
","
","
","""event"",""trial"",""time""
""fullscreenenter"",""5"",""15407""
","
","","","","","","","","","","","","","","","","","","","","","",""
"d3-instructions","58","371445","0.0-58.0","136","684","14","Male","false","true","false","false","""event"",""trial"",""time""
""fullscreenenter"",""5"",""15407""
","
","
","""event"",""trial"",""time""
""fullscreenenter"",""5"",""15407""
","
","","","","","","","","","","","","","","","","","","","","","",""
"d3-instructions","59","376481","0.0-59.0","136","684","14","Male","false","true","false","false","""event"",""trial"",""time""
""fullscreenenter"",""5"",""15407""
","
","
","""event"",""trial"",""time""
""fullscreenenter"",""5"",""15407""
","
","","","","","","","","","","","","","","","","","","","","","",""
"d3-instructions","60","383291","0.0-60.0","136","684","14","Male","false","true","false","false","""event"",""trial"",""time""
""fullscreenenter"",""5"",""15407""
","
","
","""event"",""trial"",""time""
""fullscreenenter"",""5"",""15407""
","
","","","","","","","","","","","","","","","","","","","","","",""
"d3-animate-choice","61","385781","0.0-61.0-0.0","136","684","14","Male","false","true","false","false","""event"",""trial"",""time""
""fullscreenenter"",""5"",""15407""
","
","
","""event"",""trial"",""time""
""fullscreenenter"",""5"",""15407""
","
","475.9000000357628","","49","","","3000","1","","","images/earth.jpg","images/tutrocket1","images/tutrocket2","null","images/tutrocket2","","1","practice","null","1","","",""
"d3-animate-choice","62","388268","0.0-61.0-1.0","136","684","14","Male","false","true","false","false","""event"",""trial"",""time""
""fullscreenenter"",""5"",""15407""
","
","
","""event"",""trial"",""time""
""fullscreenenter"",""5"",""15407""
","
","483.19999998807907","","49","","","3000","1","","","images/tutgreenplanet.jpg","images/tutalien2","images/tutalien1","images/tutrocket2","images/tutalien1","images/t.png","2","practice","false","1","rare","1","2022-02-09 05:03:20.181"
"two-step-fixation","63","389273","0.0-61.0-2.0","136","684","14","Male","false","true","false","false","""event"",""trial"",""time""
""fullscreenenter"",""5"",""15407""
","
","
","""event"",""trial"",""time""
""fullscreenenter"",""5"",""15407""
","
","","images/earth.jpg","","","","","","","","","","","","","","fixation","","","","","",""
"d3-animate-choice","64","391606","0.0-61.0-0.1","136","684","14","Male","false","true","false","false","""event"",""trial"",""time""
""fullscreenenter"",""5"",""15407""
","
","
","""event"",""trial"",""time""
""fullscreenenter"",""5"",""15407""
","
","324.5","","49","","","3000","1","","","images/earth.jpg","images/tutrocket1","images/tutrocket2","null","images/tutrocket2","","1","practice","null","1","","",""
"d3-animate-choice","65","394365","0.0-61.0-1.1","136","684","14","Male","false","true","false","false","""event"",""trial"",""time""
""fullscreenenter"",""5"",""15407""
","
","
","""event"",""trial"",""time""
""fullscreenenter"",""5"",""15407""
","
","749.3000000119209","","49","","","3000","1","","","images/tutgreenplanet.jpg","images/tutalien2","images/tutalien1","images/tutrocket2","images/tutalien1","images/t.png","2","practice","false","1","rare","1","2022-02-09 05:03:26.278"
"two-step-fixation","66","395380","0.0-61.0-2.1","136","684","14","Male","false","true","false","false","""event"",""trial"",""time""
""fullscreenenter"",""5"",""15407""
","
","
","""event"",""trial"",""time""
""fullscreenenter"",""5"",""15407""
","
","","images/earth.jpg","","","","","","","","","","","","","","fixation","","","","","",""
"d3-animate-choice","67","398047","0.0-61.0-0.2","136","684","14","Male","false","true","false","false","""event"",""trial"",""time""
""fullscreenenter"",""5"",""15407""
","
","
","""event"",""trial"",""time""
""fullscreenenter"",""5"",""15407""
","
","665.4000000357628","","49","","","3000","1","","","images/earth.jpg","images/tutrocket1","images/tutrocket2","null","images/tutrocket2","","1","practice","null","1","","",""
"d3-animate-choice","68","400932","0.0-61.0-1.2","136","684","14","Male","false","true","false","false","""event"",""trial"",""time""
""fullscreenenter"",""5"",""15407""
","
","
","""event"",""trial"",""time""
""fullscreenenter"",""5"",""15407""
","
","882.7999999523163","","49","","","3000","1","","","images/tutyellowplanet.jpg","images/tutalien4","images/tutalien3","images/tutrocket2","images/tutalien3","images/nothing.png","2","practice","true","1","common","0","2022-02-09 05:03:32.845"
"two-step-fixation","69","401934","0.0-61.0-2.2","136","684","14","Male","false","true","false","false","""event"",""trial"",""time""
""fullscreenenter"",""5"",""15407""
","
","
","""event"",""trial"",""time""
""fullscreenenter"",""5"",""15407""
","
","","images/earth.jpg","","","","","","","","","","","","","","fixation","","","","","",""
"d3-animate-choice","70","404129","0.0-61.0-0.3","136","684","14","Male","false","true","false","false","""event"",""trial"",""time""
""fullscreenenter"",""5"",""15407""
","
","
","""event"",""trial"",""time""
""fullscreenenter"",""5"",""15407""
","
","193.5999999642372","","49","","","3000","1","","","images/earth.jpg","images/tutrocket1","images/tutrocket2","null","images/tutrocket2","","1","practice","null","1","","",""
"d3-animate-choice","71","406670","0.0-61.0-1.3","136","684","14","Male","false","true","false","false","""event"",""trial"",""time""
""fullscreenenter"",""5"",""15407""
","
","
","""event"",""trial"",""time""
""fullscreenenter"",""5"",""15407""
","
","539.1999999880791","","49","","","3000","1","","","images/tutgreenplanet.jpg","images/tutalien2","images/tutalien1","images/tutrocket2","images/tutalien1","images/nothing.png","2","practice","false","1","rare","0","2022-02-09 05:03:38.583"
"two-step-fixation","72","407672","0.0-61.0-2.3","136","684","14","Male","false","true","false","false","""event"",""trial"",""time""
""fullscreenenter"",""5"",""15407""
","
","
","""event"",""trial"",""time""
""fullscreenenter"",""5"",""15407""
","
","","images/earth.jpg","","","","","","","","","","","","","","fixation","","","","","",""
"d3-animate-choice","73","409680","0.0-61.0-0.4","136","684","14","Male","false","true","false","false","""event"",""trial"",""time""
""fullscreenenter"",""5"",""15407""
","
","
","""event"",""trial"",""time""
""fullscreenenter"",""5"",""15407""
","
","4.699999988079071","","49","","","3000","1","","","images/earth.jpg","images/tutrocket1","images/tutrocket2","null","images/tutrocket2","","1","practice","null","1","","",""
"d3-animate-choice","74","412531","0.0-61.0-1.4","136","684","14","Male","false","true","false","false","""event"",""trial"",""time""
""fullscreenenter"",""5"",""15407""
","
","
","""event"",""trial"",""time""
""fullscreenenter"",""5"",""15407""
","
","848.6000000238419","","49","","","3000","1","","","images/tutyellowplanet.jpg","images/tutalien4","images/tutalien3","images/tutrocket2","images/tutalien3","images/nothing.png","2","practice","true","1","common","0","2022-02-09 05:03:44.444"
"two-step-fixation","75","413534","0.0-61.0-2.4","136","684","14","Male","false","true","false","false","""event"",""trial"",""time""
""fullscreenenter"",""5"",""15407""
","
","
","""event"",""trial"",""time""
""fullscreenenter"",""5"",""15407""
","
","","images/earth.jpg","","","","","","","","","","","","","","fixation","","","","","",""
"d3-animate-choice","76","415838","0.0-61.0-0.5","136","684","14","Male","false","true","false","false","""event"",""trial"",""time""
""fullscreenenter"",""5"",""15407""
","
","
","""event"",""trial"",""time""
""fullscreenenter"",""5"",""15407""
","
","301.30000001192093","","49","","","3000","1","","","images/earth.jpg","images/tutrocket1","images/tutrocket2","null","images/tutrocket2","","1","practice","null","1","","",""
"d3-animate-choice","77","418442","0.0-61.0-1.5","136","684","14","Male","false","true","false","false","""event"",""trial"",""time""
""fullscreenenter"",""5"",""15407""
","
","
","""event"",""trial"",""time""
""fullscreenenter"",""5"",""15407""
","
","602.3999999761581","","48","","","3000","1","","","images/tutyellowplanet.jpg","images/tutalien4","images/tutalien3","images/tutrocket2","images/tutalien4","images/t.png","2","practice","true","2","common","1","2022-02-09 05:03:50.355"
"two-step-fixation","78","419444","0.0-61.0-2.5","136","684","14","Male","false","true","false","false","""event"",""trial"",""time""
""fullscreenenter"",""5"",""15407""
","
","
","""event"",""trial"",""time""
""fullscreenenter"",""5"",""15407""
","
","","images/earth.jpg","","","","","","","","","","","","","","fixation","","","","","",""
"d3-animate-choice","79","421926","0.0-61.0-0.6","136","684","14","Male","false","true","false","false","""event"",""trial"",""time""
""fullscreenenter"",""5"",""15407""
","
","
","""event"",""trial"",""time""
""fullscreenenter"",""5"",""15407""
","
","479.5999999642372","","49","","","3000","1","","","images/earth.jpg","images/tutrocket1","images/tutrocket2","null","images/tutrocket2","","1","practice","null","1","","",""
"d3-animate-choice","80","424628","0.0-61.0-1.6","136","684","14","Male","false","true","false","false","""event"",""trial"",""time""
""fullscreenenter"",""5"",""15407""
","
","
","""event"",""trial"",""time""
""fullscreenenter"",""5"",""15407""
","
","700.9000000357628","","48","","","3000","1","","","images/tutyellowplanet.jpg","images/tutalien4","images/tutalien3","images/tutrocket2","images/tutalien4","images/t.png","2","practice","true","2","common","1","2022-02-09 05:03:56.541"
"two-step-fixation","81","425631","0.0-61.0-2.6","136","684","14","Male","false","true","false","false","""event"",""trial"",""time""
""fullscreenenter"",""5"",""15407""
","
","
","""event"",""trial"",""time""
""fullscreenenter"",""5"",""15407""
","
","","images/earth.jpg","","","","","","","","","","","","","","fixation","","","","","",""
"d3-animate-choice","82","428389","0.0-61.0-0.7","136","684","14","Male","false","true","false","false","""event"",""trial"",""time""
""fullscreenenter"",""5"",""15407""
","
","
","""event"",""trial"",""time""
""fullscreenenter"",""5"",""15407""
","
","756.2000000476837","","49","","","3000","1","","","images/earth.jpg","images/tutrocket1","images/tutrocket2","null","images/tutrocket2","","1","practice","null","1","","",""
"d3-animate-choice","83","431051","0.0-61.0-1.7","136","684","14","Male","false","true","false","false","""event"",""trial"",""time""
""fullscreenenter"",""5"",""15407""
","
","
","""event"",""trial"",""time""
""fullscreenenter"",""5"",""15407""
","
","661.1000000238419","","48","","","3000","1","","","images/tutyellowplanet.jpg","images/tutalien4","images/tutalien3","images/tutrocket2","images/tutalien4","images/t.png","2","practice","true","2","common","1","2022-02-09 05:04:02.964"
"two-step-fixation","84","432054","0.0-61.0-2.7","136","684","14","Male","false","true","false","false","""event"",""trial"",""time""
""fullscreenenter"",""5"",""15407""
","
","
","""event"",""trial"",""time""
""fullscreenenter"",""5"",""15407""
","
","","images/earth.jpg","","","","","","","","","","","","","","fixation","","","","","",""
"d3-animate-choice","85","434370","0.0-61.0-0.8","136","684","14","Male","false","true","false","false","""event"",""trial"",""time""
""fullscreenenter"",""5"",""15407""
","
","
","""event"",""trial"",""time""
""fullscreenenter"",""5"",""15407""
","
","313.30000001192093","","49","","","3000","1","","","images/earth.jpg","images/tutrocket1","images/tutrocket2","null","images/tutrocket2","","1","practice","null","1","","",""
"d3-animate-choice","86","437642","0.0-61.0-1.8","136","684","14","Male","false","true","false","false","""event"",""trial"",""time""
""fullscreenenter"",""5"",""15407""
","
","
","""event"",""trial"",""time""
""fullscreenenter"",""5"",""15407""
","
","1269.7000000476837","","49","","","3000","1","","","images/tutgreenplanet.jpg","images/tutalien2","images/tutalien1","images/tutrocket2","images/tutalien1","images/t.png","2","practice","false","1","rare","1","2022-02-09 05:04:09.555"
"two-step-fixation","87","438644","0.0-61.0-2.8","136","684","14","Male","false","true","false","false","""event"",""trial"",""time""
""fullscreenenter"",""5"",""15407""
","
","
","""event"",""trial"",""time""
""fullscreenenter"",""5"",""15407""
","
","","images/earth.jpg","","","","","","","","","","","","","","fixation","","","","","",""
"d3-animate-choice","88","441074","0.0-61.0-0.9","136","684","14","Male","false","true","false","false","""event"",""trial"",""time""
""fullscreenenter"",""5"",""15407""
","
","
","""event"",""trial"",""time""
""fullscreenenter"",""5"",""15407""
","
","428.10000002384186","","49","","","3000","1","","","images/earth.jpg","images/tutrocket1","images/tutrocket2","null","images/tutrocket2","","1","practice","null","1","","",""
"d3-animate-choice","89","443522","0.0-61.0-1.9","136","684","14","Male","false","true","false","false","""event"",""trial"",""time""
""fullscreenenter"",""5"",""15407""
","
","
","""event"",""trial"",""time""
""fullscreenenter"",""5"",""15407""
","
","446.69999998807907","","48","","","3000","1","","","images/tutyellowplanet.jpg","images/tutalien4","images/tutalien3","images/tutrocket2","images/tutalien4","images/t.png","2","practice","true","2","common","1","2022-02-09 05:04:15.435"
"two-step-fixation","90","444524","0.0-61.0-2.9","136","684","14","Male","false","true","false","false","""event"",""trial"",""time""
""fullscreenenter"",""5"",""15407""
","
","
","""event"",""trial"",""time""
""fullscreenenter"",""5"",""15407""
","
","","images/earth.jpg","","","","","","","","","","","","","","fixation","","","","","",""
"d3-animate-choice","91","446934","0.0-61.0-0.10","136","684","14","Male","false","true","false","false","""event"",""trial"",""time""
""fullscreenenter"",""5"",""15407""
","
","
","""event"",""trial"",""time""
""fullscreenenter"",""5"",""15407""
","
","407.5999999642372","","49","","","3000","1","","","images/earth.jpg","images/tutrocket1","images/tutrocket2","null","images/tutrocket2","","1","practice","null","1","","",""
"d3-animate-choice","92","450010","0.0-61.0-1.10","136","684","14","Male","false","true","false","false","""event"",""trial"",""time""
""fullscreenenter"",""5"",""15407""
","
","
","""event"",""trial"",""time""
""fullscreenenter"",""5"",""15407""
","
","1074","","49","","","3000","1","","","images/tutgreenplanet.jpg","images/tutalien2","images/tutalien1","images/tutrocket2","images/tutalien1","images/nothing.png","2","practice","false","1","rare","0","2022-02-09 05:04:21.923"
"two-step-fixation","93","451011","0.0-61.0-2.10","136","684","14","Male","false","true","false","false","""event"",""trial"",""time""
""fullscreenenter"",""5"",""15407""
","
","
","""event"",""trial"",""time""
""fullscreenenter"",""5"",""15407""
","
","","images/earth.jpg","","","","","","","","","","","","","","fixation","","","","","",""
"d3-animate-choice","94","453344","0.0-61.0-0.11","136","684","14","Male","false","true","false","false","""event"",""trial"",""time""
""fullscreenenter"",""5"",""15407""
","
","
","""event"",""trial"",""time""
""fullscreenenter"",""5"",""15407""
","
","329.9000000357628","","49","","","3000","1","","","images/earth.jpg","images/tutrocket1","images/tutrocket2","null","images/tutrocket2","","1","practice","null","1","","",""
"d3-animate-choice","95","456182","0.0-61.0-1.11","136","684","14","Male","false","true","false","false","""event"",""trial"",""time""
""fullscreenenter"",""5"",""15407""
","
","
","""event"",""trial"",""time""
""fullscreenenter"",""5"",""15407""
","
","835.5","","49","","","3000","1","","","images/tutgreenplanet.jpg","images/tutalien2","images/tutalien1","images/tutrocket2","images/tutalien1","images/t.png","2","practice","false","1","rare","1","2022-02-09 05:04:28.095"
"two-step-fixation","96","457184","0.0-61.0-2.11","136","684","14","Male","false","true","false","false","""event"",""trial"",""time""
""fullscreenenter"",""5"",""15407""
","
","
","""event"",""trial"",""time""
""fullscreenenter"",""5"",""15407""
","
","","images/earth.jpg","","","","","","","","","","","","","","fixation","","","","","",""
"d3-animate-choice","97","459506","0.0-61.0-0.12","136","684","14","Male","false","true","false","false","""event"",""trial"",""time""
""fullscreenenter"",""5"",""15407""
","
","
","""event"",""trial"",""time""
""fullscreenenter"",""5"",""15407""
","
","320.2999999523163","","49","","","3000","1","","","images/earth.jpg","images/tutrocket1","images/tutrocket2","null","images/tutrocket2","","1","practice","null","1","","",""
"d3-animate-choice","98","462289","0.0-61.0-1.12","136","684","14","Male","false","true","false","false","""event"",""trial"",""time""
""fullscreenenter"",""5"",""15407""
","
","
","""event"",""trial"",""time""
""fullscreenenter"",""5"",""15407""
","
","781.4000000357628","","48","","","3000","1","","","images/tutyellowplanet.jpg","images/tutalien4","images/tutalien3","images/tutrocket2","images/tutalien4","images/t.png","2","practice","true","2","common","1","2022-02-09 05:04:34.202"
"two-step-fixation","99","463291","0.0-61.0-2.12","136","684","14","Male","false","true","false","false","""event"",""trial"",""time""
""fullscreenenter"",""5"",""15407""
","
","
","""event"",""trial"",""time""
""fullscreenenter"",""5"",""15407""
","
","","images/earth.jpg","","","","","","","","","","","","","","fixation","","","","","",""
"d3-animate-choice","100","465557","0.0-61.0-0.13","136","684","14","Male","false","true","false","false","""event"",""trial"",""time""
""fullscreenenter"",""5"",""15407""
","
","
","""event"",""trial"",""time""
""fullscreenenter"",""5"",""15407""
","
","262.5999999642372","","49","","","3000","1","","","images/earth.jpg","images/tutrocket1","images/tutrocket2","null","images/tutrocket2","","1","practice","null","1","","",""
"d3-animate-choice","101","468356","0.0-61.0-1.13","136","684","14","Male","false","true","false","false","""event"",""trial"",""time""
""fullscreenenter"",""5"",""15407""
","
","
","""event"",""trial"",""time""
""fullscreenenter"",""5"",""15407""
","
","796.3999999761581","","48","","","3000","1","","","images/tutyellowplanet.jpg","images/tutalien4","images/tutalien3","images/tutrocket2","images/tutalien4","images/t.png","2","practice","true","2","common","1","2022-02-09 05:04:40.269"
"two-step-fixation","102","469359","0.0-61.0-2.13","136","684","14","Male","false","true","false","false","""event"",""trial"",""time""
""fullscreenenter"",""5"",""15407""
","
","
","""event"",""trial"",""time""
""fullscreenenter"",""5"",""15407""
","
","","images/earth.jpg","","","","","","","","","","","","","","fixation","","","","","",""
"d3-animate-choice","103","471607","0.0-61.0-0.14","136","684","14","Male","false","true","false","false","""event"",""trial"",""time""
""fullscreenenter"",""5"",""15407""
","
","
","""event"",""trial"",""time""
""fullscreenenter"",""5"",""15407""
","
","246.80000001192093","","49","","","3000","1","","","images/earth.jpg","images/tutrocket1","images/tutrocket2","null","images/tutrocket2","","1","practice","null","1","","",""
"d3-animate-choice","104","474486","0.0-61.0-1.14","136","684","14","Male","false","true","false","false","""event"",""trial"",""time""
""fullscreenenter"",""5"",""15407""
","
","
","""event"",""trial"",""time""
""fullscreenenter"",""5"",""15407""
","
","877.1000000238419","","48","","","3000","1","","","images/tutyellowplanet.jpg","images/tutalien4","images/tutalien3","images/tutrocket2","images/tutalien4","images/t.png","2","practice","true","2","common","1","2022-02-09 05:04:46.400"
"two-step-fixation","105","475488","0.0-61.0-2.14","136","684","14","Male","false","true","false","false","""event"",""trial"",""time""
""fullscreenenter"",""5"",""15407""
","
","
","""event"",""trial"",""time""
""fullscreenenter"",""5"",""15407""
","
","","images/earth.jpg","","","","","","","","","","","","","","fixation","","","","","",""
"d3-animate-choice","106","477830","0.0-61.0-0.15","136","684","14","Male","false","true","false","false","""event"",""trial"",""time""
""fullscreenenter"",""5"",""15407""
","
","
","""event"",""trial"",""time""
""fullscreenenter"",""5"",""15407""
","
","339.19999998807907","","49","","","3000","1","","","images/earth.jpg","images/tutrocket1","images/tutrocket2","null","images/tutrocket2","","1","practice","null","1","","",""
"d3-animate-choice","107","480674","0.0-61.0-1.15","136","684","14","Male","false","true","false","false","""event"",""trial"",""time""
""fullscreenenter"",""5"",""15407""
","
","
","""event"",""trial"",""time""
""fullscreenenter"",""5"",""15407""
","
","841.6000000238419","","49","","","3000","1","","","images/tutgreenplanet.jpg","images/tutalien2","images/tutalien1","images/tutrocket2","images/tutalien1","images/nothing.png","2","practice","false","1","rare","0","2022-02-09 05:04:52.587"
"two-step-fixation","108","481675","0.0-61.0-2.15","136","684","14","Male","false","true","false","false","""event"",""trial"",""time""
""fullscreenenter"",""5"",""15407""
","
","
","""event"",""trial"",""time""
""fullscreenenter"",""5"",""15407""
","
","","images/earth.jpg","","","","","","","","","","","","","","fixation","","","","","",""
"d3-animate-choice","109","484162","0.0-61.0-0.16","136","684","14","Male","false","true","false","false","""event"",""trial"",""time""
""fullscreenenter"",""5"",""15407""
","
","
","""event"",""trial"",""time""
""fullscreenenter"",""5"",""15407""
","
","484","","49","","","3000","1","","","images/earth.jpg","images/tutrocket1","images/tutrocket2","null","images/tutrocket2","","1","practice","null","1","","",""
"d3-animate-choice","110","486811","0.0-61.0-1.16","136","684","14","Male","false","true","false","false","""event"",""trial"",""time""
""fullscreenenter"",""5"",""15407""
","
","
","""event"",""trial"",""time""
""fullscreenenter"",""5"",""15407""
","
","646.2999999523163","","48","","","3000","1","","","images/tutyellowplanet.jpg","images/tutalien4","images/tutalien3","images/tutrocket2","images/tutalien4","images/nothing.png","2","practice","true","2","common","0","2022-02-09 05:04:58.724"
"two-step-fixation","111","487812","0.0-61.0-2.16","136","684","14","Male","false","true","false","false","""event"",""trial"",""time""
""fullscreenenter"",""5"",""15407""
","
","
","""event"",""trial"",""time""
""fullscreenenter"",""5"",""15407""
","
","","images/earth.jpg","","","","","","","","","","","","","","fixation","","","","","",""
"d3-animate-choice","112","490101","0.0-61.0-0.17","136","684","14","Male","false","true","false","false","""event"",""trial"",""time""
""fullscreenenter"",""5"",""15407""
","
","
","""event"",""trial"",""time""
""fullscreenenter"",""5"",""15407""
","
","284.7999999523163","","49","","","3000","1","","","images/earth.jpg","images/tutrocket1","images/tutrocket2","null","images/tutrocket2","","1","practice","null","1","","",""
"d3-animate-choice","113","492792","0.0-61.0-1.17","136","684","14","Male","false","true","false","false","""event"",""trial"",""time""
""fullscreenenter"",""5"",""15407""
","
","
","""event"",""trial"",""time""
""fullscreenenter"",""5"",""15407""
","
","688.4000000357628","","49","","","3000","1","","","images/tutgreenplanet.jpg","images/tutalien2","images/tutalien1","images/tutrocket2","images/tutalien1","images/nothing.png","2","practice","false","1","rare","0","2022-02-09 05:05:04.705"
"two-step-fixation","114","493794","0.0-61.0-2.17","136","684","14","Male","false","true","false","false","""event"",""trial"",""time""
""fullscreenenter"",""5"",""15407""
","
","
","""event"",""trial"",""time""
""fullscreenenter"",""5"",""15407""
","
","","images/earth.jpg","","","","","","","","","","","","","","fixation","","","","","",""
"d3-animate-choice","115","496070","0.0-61.0-0.18","136","684","14","Male","false","true","false","false","""event"",""trial"",""time""
""fullscreenenter"",""5"",""15407""
","
","
","""event"",""trial"",""time""
""fullscreenenter"",""5"",""15407""
","
","274.5","","49","","","3000","1","","","images/earth.jpg","images/tutrocket1","images/tutrocket2","null","images/tutrocket2","","1","practice","null","1","","",""
"d3-animate-choice","116","498290","0.0-61.0-1.18","136","684","14","Male","false","true","false","false","""event"",""trial"",""time""
""fullscreenenter"",""5"",""15407""
","
","
","""event"",""trial"",""time""
""fullscreenenter"",""5"",""15407""
","
","217.29999995231628","","48","","","3000","1","","","images/tutyellowplanet.jpg","images/tutalien4","images/tutalien3","images/tutrocket2","images/tutalien4","images/t.png","2","practice","true","2","common","1","2022-02-09 05:05:10.203"
"two-step-fixation","117","499292","0.0-61.0-2.18","136","684","14","Male","false","true","false","false","""event"",""trial"",""time""
""fullscreenenter"",""5"",""15407""
","
","
","""event"",""trial"",""time""
""fullscreenenter"",""5"",""15407""
","
","","images/earth.jpg","","","","","","","","","","","","","","fixation","","","","","",""
"d3-animate-choice","118","501381","0.0-61.0-0.19","136","684","14","Male","false","true","false","false","""event"",""trial"",""time""
""fullscreenenter"",""5"",""15407""
","
","
","""event"",""trial"",""time""
""fullscreenenter"",""5"",""15407""
","
","86.60000002384186","","49","","","3000","1","378.5,730.1000000238419,1002,1394.1000000238419,1634.7000000476837,1870.9000000357628","49,48,48,48,48,48","images/earth.jpg","images/tutrocket1","images/tutrocket2","null","images/tutrocket2","","1","practice","null","1","","",""
"d3-animate-choice","119","503407","0.0-61.0-1.19","136","684","14","Male","false","true","false","false","""event"",""trial"",""time""
""fullscreenenter"",""5"",""15407""
","
","
","""event"",""trial"",""time""
""fullscreenenter"",""5"",""15407""
","
","23.399999976158142","","48","","","3000","1","269.69999998807907","48","images/tutyellowplanet.jpg","images/tutalien4","images/tutalien3","images/tutrocket2","images/tutalien4","images/nothing.png","2","practice","true","2","common","0","2022-02-09 05:05:15.320"
"two-step-fixation","120","504409","0.0-61.0-2.19","136","684","14","Male","false","true","false","false","""event"",""trial"",""time""
""fullscreenenter"",""5"",""15407""
","
","
","""event"",""trial"",""time""
""fullscreenenter"",""5"",""15407""
","
","","images/earth.jpg","","","","","","","","","","","","","","fixation","","","","","",""
"d3-instructions","121","509610","0.0-62.0","136","684","14","Male","false","true","false","false","""event"",""trial"",""time""
""fullscreenenter"",""5"",""15407""
","
","
","""event"",""trial"",""time""
""fullscreenenter"",""5"",""15407""
","
","","","","","","","","","","","","","","","","","","","","","",""
"audio-keyboard-response","122","513247","0.0-63.0","136","684","14","Male","false","true","false","false","""event"",""trial"",""time""
""fullscreenenter"",""5"",""15407""
","
","
","""event"",""trial"",""time""
""fullscreenenter"",""5"",""15407""
","
","3643","audio/instructions/treasure_feedback.wav","32","","","","","","","","","","","","","","","","","","",""
"d3-instructions","123","531055","0.0-64.0","136","684","14","Male","false","true","false","false","""event"",""trial"",""time""
""fullscreenenter"",""5"",""15407""
","
","
","""event"",""trial"",""time""
""fullscreenenter"",""5"",""15407""
","
","","","","","","","","","","","","","","","","","","","","","",""
"d3-instructions","124","544646","0.0-65.0","136","684","14","Male","false","true","false","false","""event"",""trial"",""time""
""fullscreenenter"",""5"",""15407""
","
","
","""event"",""trial"",""time""
""fullscreenenter"",""5"",""15407""
","
","","","","","","","","","","","","","","","","","","","","","",""
"d3-instructions","125","568790","0.0-66.0","136","684","14","Male","false","true","false","false","""event"",""trial"",""time""
""fullscreenenter"",""5"",""15407""
","
","
","""event"",""trial"",""time""
""fullscreenenter"",""5"",""15407""
","
","","","","","","","","","","","","","","","","","","","","","",""
"d3-instructions","126","585006","0.0-67.0","136","684","14","Male","false","true","false","false","""event"",""trial"",""time""
""fullscreenenter"",""5"",""15407""
","
","
","""event"",""trial"",""time""
""fullscreenenter"",""5"",""15407""
","
","","","","","","","","","","","","","","","","","","","","","",""
"d3-instructions","127","593912","0.0-68.0","136","684","14","Male","false","true","false","false","""event"",""trial"",""time""
""fullscreenenter"",""5"",""15407""
","
","
","""event"",""trial"",""time""
""fullscreenenter"",""5"",""15407""
","
","","","","","","","","","","","","","","","","","","","","","",""
"instructions-quiz","128","598570","0.0-69.0","136","684","14","Male","false","true","false","false","""event"",""trial"",""time""
""fullscreenenter"",""5"",""15407""
","
","
","""event"",""trial"",""time""
""fullscreenenter"",""5"",""15407""
","
","4657.400000035763","audio/quiz/Q1_Prompt.wav","","1","","","","","","","","","","","","","","","","","",""
"audio-keyboard-response","129","607736","0.0-70.0","136","684","14","Male","false","true","false","false","""event"",""trial"",""time""
""fullscreenenter"",""5"",""15407""
","
","
","""event"",""trial"",""time""
""fullscreenenter"",""5"",""15407""
","
","null","audio/quiz/Q1_Correct.wav","null","","","","","","","","","","","","","","","","","","",""
"instructions-quiz","130","612410","0.0-71.0","136","684","14","Male","false","true","false","false","""event"",""trial"",""time""
""fullscreenenter"",""5"",""15407""
","
","
","""event"",""trial"",""time""
""fullscreenenter"",""5"",""15407""
","
","4673.099999964237","audio/quiz/Q2_Prompt.wav","","0","","","","","","","","","","","","","","","","","",""
"audio-keyboard-response","131","617855","0.0-72.0","136","684","14","Male","false","true","false","false","""event"",""trial"",""time""
""fullscreenenter"",""5"",""15407""
","
","
","""event"",""trial"",""time""
""fullscreenenter"",""5"",""15407""
","
","5439","audio/quiz/Q2_Correct.wav","91","","","","","","","","","","","","","","","","","","",""
"instructions-quiz","132","621743","0.0-73.0","136","684","14","Male","false","true","false","false","""event"",""trial"",""time""
""fullscreenenter"",""5"",""15407""
","
","
","""event"",""trial"",""time""
""fullscreenenter"",""5"",""15407""
","
","3886.399999976158","audio/quiz/Q3_Prompt.wav","","1","","","","","","","","","","","","","","","","","",""
"audio-keyboard-response","133","627536","0.0-74.0","136","684","14","Male","false","true","false","false","""event"",""trial"",""time""
""fullscreenenter"",""5"",""15407""
","
","
","""event"",""trial"",""time""
""fullscreenenter"",""5"",""15407""
","
","null","audio/quiz/Q3_Correct.wav","null","","","","","","","","","","","","","","","","","","",""
"d3-instructions","134","643258","0.0-75.0","136","684","14","Male","false","true","false","false","""event"",""trial"",""time""
""fullscreenenter"",""5"",""15407""
","
","
","""event"",""trial"",""time""
""fullscreenenter"",""5"",""15407""
","
","","","","","","","","","","","","","","","","","","","","","",""
"d3-animate-choice","135","645681","0.0-76.0-0.0","136","684","14","Male","false","true","false","false","""event"",""trial"",""time""
""fullscreenenter"",""5"",""15407""
","
","
","""event"",""trial"",""time""
""fullscreenenter"",""5"",""15407""
","
","419.5","","49","","","3000","1","","","images/earth.jpg","images/rocket1","images/rocket2","null","images/rocket2","","1","real","null","1","","",""
"d3-animate-choice","136","648499","0.0-76.0-1.0","136","684","14","Male","false","true","false","false","""event"",""trial"",""time""
""fullscreenenter"",""5"",""15407""
","
","
","""event"",""trial"",""time""
""fullscreenenter"",""5"",""15407""
","
","804","","49","","","3000","1","","","images/purpleplanet.jpg","images/alien4","images/alien3","images/rocket2","images/alien3","images/nothing.png","2","real","true","1","common","0","2022-02-09 05:07:40.412"
"two-step-fixation","137","649515","0.0-76.0-2.0","136","684","14","Male","false","true","false","false","""event"",""trial"",""time""
""fullscreenenter"",""5"",""15407""
","
","
","""event"",""trial"",""time""
""fullscreenenter"",""5"",""15407""
","
","","images/earth.jpg","","","","","","","","","","","","","","fixation","","","","","",""
"d3-animate-choice","138","651824","0.0-76.0-0.1","136","684","14","Male","false","true","false","false","""event"",""trial"",""time""
""fullscreenenter"",""5"",""15407""
","
","
","""event"",""trial"",""time""
""fullscreenenter"",""5"",""15407""
","
","305.80000001192093","","49","","","3000","1","","","images/earth.jpg","images/rocket1","images/rocket2","null","images/rocket2","","1","real","null","1","","",""
"d3-animate-choice","139","654672","0.0-76.0-1.1","136","684","14","Male","false","true","false","false","""event"",""trial"",""time""
""fullscreenenter"",""5"",""15407""
","
","
","""event"",""trial"",""time""
""fullscreenenter"",""5"",""15407""
","
","846","","48","","","3000","1","","","images/purpleplanet.jpg","images/alien4","images/alien3","images/rocket2","images/alien4","images/t.png","2","real","true","2","common","1","2022-02-09 05:07:46.585"
"two-step-fixation","140","655674","0.0-76.0-2.1","136","684","14","Male","false","true","false","false","""event"",""trial"",""time""
""fullscreenenter"",""5"",""15407""
","
","
","""event"",""trial"",""time""
""fullscreenenter"",""5"",""15407""
","
","","images/earth.jpg","","","","","","","","","","","","","","fixation","","","","","",""
"d3-animate-choice","141","657869","0.0-76.0-0.2","136","684","14","Male","false","true","false","false","""event"",""trial"",""time""
""fullscreenenter"",""5"",""15407""
","
","
","""event"",""trial"",""time""
""fullscreenenter"",""5"",""15407""
","
","191.89999997615814","","49","","","3000","1","","","images/earth.jpg","images/rocket1","images/rocket2","null","images/rocket2","","1","real","null","1","","",""
"d3-animate-choice","142","660348","0.0-76.0-1.2","136","684","14","Male","false","true","false","false","""event"",""trial"",""time""
""fullscreenenter"",""5"",""15407""
","
","
","""event"",""trial"",""time""
""fullscreenenter"",""5"",""15407""
","
","475.10000002384186","","48","","","3000","1","","","images/purpleplanet.jpg","images/alien4","images/alien3","images/rocket2","images/alien4","images/t.png","2","real","true","2","common","1","2022-02-09 05:07:52.261"
"two-step-fixation","143","661350","0.0-76.0-2.2","136","684","14","Male","false","true","false","false","""event"",""trial"",""time""
""fullscreenenter"",""5"",""15407""
","
","
","""event"",""trial"",""time""
""fullscreenenter"",""5"",""15407""
","
","","images/earth.jpg","","","","","","","","","","","","","","fixation","","","","","",""
"d3-animate-choice","144","663643","0.0-76.0-0.3","136","684","14","Male","false","true","false","false","""event"",""trial"",""time""
""fullscreenenter"",""5"",""15407""
","
","
","""event"",""trial"",""time""
""fullscreenenter"",""5"",""15407""
","
","281.80000001192093","","49","","","3000","1","","","images/earth.jpg","images/rocket1","images/rocket2","null","images/rocket2","","1","real","null","1","","",""
"d3-animate-choice","145","666077","0.0-76.0-1.3","136","684","14","Male","false","true","false","false","""event"",""trial"",""time""
""fullscreenenter"",""5"",""15407""
","
","
","""event"",""trial"",""time""
""fullscreenenter"",""5"",""15407""
","
","431.0999999642372","","48","","","3000","1","","","images/purpleplanet.jpg","images/alien4","images/alien3","images/rocket2","images/alien4","images/t.png","2","real","true","2","common","1","2022-02-09 05:07:57.990"
"two-step-fixation","146","667079","0.0-76.0-2.3","136","684","14","Male","false","true","false","false","""event"",""trial"",""time""
""fullscreenenter"",""5"",""15407""
","
","
","""event"",""trial"",""time""
""fullscreenenter"",""5"",""15407""
","
","","images/earth.jpg","","","","","","","","","","","","","","fixation","","","","","",""
"d3-animate-choice","147","669281","0.0-76.0-0.4","136","684","14","Male","false","true","false","false","""event"",""trial"",""time""
""fullscreenenter"",""5"",""15407""
","
","
","""event"",""trial"",""time""
""fullscreenenter"",""5"",""15407""
","
","196.5999999642372","","49","","","3000","1","","","images/earth.jpg","images/rocket1","images/rocket2","null","images/rocket2","","1","real","null","1","","",""
"d3-animate-choice","148","671691","0.0-76.0-1.4","136","684","14","Male","false","true","false","false","""event"",""trial"",""time""
""fullscreenenter"",""5"",""15407""
","
","
","""event"",""trial"",""time""
""fullscreenenter"",""5"",""15407""
","
","407.5999999642372","","48","","","3000","1","","","images/purpleplanet.jpg","images/alien4","images/alien3","images/rocket2","images/alien4","images/nothing.png","2","real","true","2","common","0","2022-02-09 05:08:03.604"
"two-step-fixation","149","672694","0.0-76.0-2.4","136","684","14","Male","false","true","false","false","""event"",""trial"",""time""
""fullscreenenter"",""5"",""15407""
","
","
","""event"",""trial"",""time""
""fullscreenenter"",""5"",""15407""
","
","","images/earth.jpg","","","","","","","","","","","","","","fixation","","","","","",""
"d3-animate-choice","150","675018","0.0-76.0-0.5","136","684","14","Male","false","true","false","false","""event"",""trial"",""time""
""fullscreenenter"",""5"",""15407""
","
","
","""event"",""trial"",""time""
""fullscreenenter"",""5"",""15407""
","
","321.89999997615814","","49","","","3000","1","","","images/earth.jpg","images/rocket1","images/rocket2","null","images/rocket2","","1","real","null","1","","",""
"d3-animate-choice","151","677356","0.0-76.0-1.5","136","684","14","Male","false","true","false","false","""event"",""trial"",""time""
""fullscreenenter"",""5"",""15407""
","
","
","""event"",""trial"",""time""
""fullscreenenter"",""5"",""15407""
","
","335","","48","","","3000","1","","","images/purpleplanet.jpg","images/alien4","images/alien3","images/rocket2","images/alien4","images/t.png","2","real","true","2","common","1","2022-02-09 05:08:09.269"
"two-step-fixation","152","678358","0.0-76.0-2.5","136","684","14","Male","false","true","false","false","""event"",""trial"",""time""
""fullscreenenter"",""5"",""15407""
","
","
","""event"",""trial"",""time""
""fullscreenenter"",""5"",""15407""
","
","","images/earth.jpg","","","","","","","","","","","","","","fixation","","","","","",""
"d3-animate-choice","153","680718","0.0-76.0-0.6","136","684","14","Male","false","true","false","false","""event"",""trial"",""time""
""fullscreenenter"",""5"",""15407""
","
","
","""event"",""trial"",""time""
""fullscreenenter"",""5"",""15407""
","
","357.5999999642372","","49","","","3000","1","","","images/earth.jpg","images/rocket1","images/rocket2","null","images/rocket2","","1","real","null","1","","",""
"d3-animate-choice","154","683812","0.0-76.0-1.6","136","684","14","Male","false","true","false","false","""event"",""trial"",""time""
""fullscreenenter"",""5"",""15407""
","
","
","""event"",""trial"",""time""
""fullscreenenter"",""5"",""15407""
","
","1091.9000000357628","","48","","","3000","1","","","images/redplanet1.jpg","images/alien2","images/alien1","images/rocket2","images/alien2","images/t.png","2","real","false","2","rare","1","2022-02-09 05:08:15.725"
"two-step-fixation","155","684815","0.0-76.0-2.6","136","684","14","Male","false","true","false","false","""event"",""trial"",""time""
""fullscreenenter"",""5"",""15407""
","
","
","""event"",""trial"",""time""
""fullscreenenter"",""5"",""15407""
","
","","images/earth.jpg","","","","","","","","","","","","","","fixation","","","","","",""
"d3-animate-choice","156","687381","0.0-76.0-0.7","136","684","14","Male","false","true","false","false","""event"",""trial"",""time""
""fullscreenenter"",""5"",""15407""
","
","
","""event"",""trial"",""time""
""fullscreenenter"",""5"",""15407""
","
","563.1999999880791","","49","","","3000","1","","","images/earth.jpg","images/rocket1","images/rocket2","null","images/rocket2","","1","real","null","1","","",""
"d3-animate-choice","157","689992","0.0-76.0-1.7","136","684","14","Male","false","true","false","false","""event"",""trial"",""time""
""fullscreenenter"",""5"",""15407""
","
","
","""event"",""trial"",""time""
""fullscreenenter"",""5"",""15407""
","
","607.9000000357628","","48","","","3000","1","","","images/purpleplanet.jpg","images/alien4","images/alien3","images/rocket2","images/alien4","images/t.png","2","real","true","2","common","1","2022-02-09 05:08:21.905"
"two-step-fixation","158","690994","0.0-76.0-2.7","136","684","14","Male","false","true","false","false","""event"",""trial"",""time""
""fullscreenenter"",""5"",""15407""
","
","
","""event"",""trial"",""time""
""fullscreenenter"",""5"",""15407""
","
","","images/earth.jpg","","","","","","","","","","","","","","fixation","","","","","",""
"d3-animate-choice","159","693282","0.0-76.0-0.8","136","684","14","Male","false","true","false","false","""event"",""trial"",""time""
""fullscreenenter"",""5"",""15407""
","
","
","""event"",""trial"",""time""
""fullscreenenter"",""5"",""15407""
","
","285.5","","49","","","3000","1","","","images/earth.jpg","images/rocket1","images/rocket2","null","images/rocket2","","1","real","null","1","","",""
"d3-animate-choice","160","695715","0.0-76.0-1.8","136","684","14","Male","false","true","false","false","""event"",""trial"",""time""
""fullscreenenter"",""5"",""15407""
","
","
","""event"",""trial"",""time""
""fullscreenenter"",""5"",""15407""
","
","430.4000000357628","","48","","","3000","1","","","images/purpleplanet.jpg","images/alien4","images/alien3","images/rocket2","images/alien4","images/t.png","2","real","true","2","common","1","2022-02-09 05:08:27.628"
"two-step-fixation","161","696716","0.0-76.0-2.8","136","684","14","Male","false","true","false","false","""event"",""trial"",""time""
""fullscreenenter"",""5"",""15407""
","
","
","""event"",""trial"",""time""
""fullscreenenter"",""5"",""15407""
","
","","images/earth.jpg","","","","","","","","","","","","","","fixation","","","","","",""
"d3-animate-choice","162","699274","0.0-76.0-0.9","136","684","14","Male","false","true","false","false","""event"",""trial"",""time""
""fullscreenenter"",""5"",""15407""
","
","
","""event"",""trial"",""time""
""fullscreenenter"",""5"",""15407""
","
","555.6000000238419","","49","","","3000","1","","","images/earth.jpg","images/rocket1","images/rocket2","null","images/rocket2","","1","real","null","1","","",""
"d3-animate-choice","163","702051","0.0-76.0-1.9","136","684","14","Male","false","true","false","false","""event"",""trial"",""time""
""fullscreenenter"",""5"",""15407""
","
","
","""event"",""trial"",""time""
""fullscreenenter"",""5"",""15407""
","
","775.5","","48","","","3000","1","","","images/purpleplanet.jpg","images/alien4","images/alien3","images/rocket2","images/alien4","images/t.png","2","real","true","2","common","1","2022-02-09 05:08:33.964"
"two-step-fixation","164","703053","0.0-76.0-2.9","136","684","14","Male","false","true","false","false","""event"",""trial"",""time""
""fullscreenenter"",""5"",""15407""
","
","
","""event"",""trial"",""time""
""fullscreenenter"",""5"",""15407""
","
","","images/earth.jpg","","","","","","","","","","","","","","fixation","","","","","",""
"d3-animate-choice","165","705297","0.0-76.0-0.10","136","684","14","Male","false","true","false","false","""event"",""trial"",""time""
""fullscreenenter"",""5"",""15407""
","
","
","""event"",""trial"",""time""
""fullscreenenter"",""5"",""15407""
","
","242.5","","49","","","3000","1","","","images/earth.jpg","images/rocket1","images/rocket2","null","images/rocket2","","1","real","null","1","","",""
"d3-animate-choice","166","707652","0.0-76.0-1.10","136","684","14","Male","false","true","false","false","""event"",""trial"",""time""
""fullscreenenter"",""5"",""15407""
","
","
","""event"",""trial"",""time""
""fullscreenenter"",""5"",""15407""
","
","352.69999998807907","","48","","","3000","1","","","images/redplanet1.jpg","images/alien2","images/alien1","images/rocket2","images/alien2","images/nothing.png","2","real","false","2","rare","0","2022-02-09 05:08:39.565"
"two-step-fixation","167","708655","0.0-76.0-2.10","136","684","14","Male","false","true","false","false","""event"",""trial"",""time""
""fullscreenenter"",""5"",""15407""
","
","
","""event"",""trial"",""time""
""fullscreenenter"",""5"",""15407""
","
","","images/earth.jpg","","","","","","","","","","","","","","fixation","","","","","",""
"d3-animate-choice","168","710939","0.0-76.0-0.11","136","684","14","Male","false","true","false","false","""event"",""trial"",""time""
""fullscreenenter"",""5"",""15407""
","
","
","""event"",""trial"",""time""
""fullscreenenter"",""5"",""15407""
","
","281","","49","","","3000","1","","","images/earth.jpg","images/rocket1","images/rocket2","null","images/rocket2","","1","real","null","1","","",""
"d3-animate-choice","169","713341","0.0-76.0-1.11","136","684","14","Male","false","true","false","false","""event"",""trial"",""time""
""fullscreenenter"",""5"",""15407""
","
","
","""event"",""trial"",""time""
""fullscreenenter"",""5"",""15407""
","
","399.80000001192093","","48","","","3000","1","","","images/purpleplanet.jpg","images/alien4","images/alien3","images/rocket2","images/alien4","images/t.png","2","real","true","2","common","1","2022-02-09 05:08:45.254"
"two-step-fixation","170","714343","0.0-76.0-2.11","136","684","14","Male","false","true","false","false","""event"",""trial"",""time""
""fullscreenenter"",""5"",""15407""
","
","
","""event"",""trial"",""time""
""fullscreenenter"",""5"",""15407""
","
","","images/earth.jpg","","","","","","","","","","","","","","fixation","","","","","",""
"d3-animate-choice","171","716860","0.0-76.0-0.12","136","684","14","Male","false","true","false","false","""event"",""trial"",""time""
""fullscreenenter"",""5"",""15407""
","
","
","""event"",""trial"",""time""
""fullscreenenter"",""5"",""15407""
","
","515.5","","49","","","3000","1","","","images/earth.jpg","images/rocket1","images/rocket2","null","images/rocket2","","1","real","null","1","","",""
"d3-animate-choice","172","719376","0.0-76.0-1.12","136","684","14","Male","false","true","false","false","""event"",""trial"",""time""
""fullscreenenter"",""5"",""15407""
","
","
","""event"",""trial"",""time""
""fullscreenenter"",""5"",""15407""
","
","513.4000000357628","","48","","","3000","1","","","images/purpleplanet.jpg","images/alien4","images/alien3","images/rocket2","images/alien4","images/t.png","2","real","true","2","common","1","2022-02-09 05:08:51.289"
"two-step-fixation","173","720377","0.0-76.0-2.12","136","684","14","Male","false","true","false","false","""event"",""trial"",""time""
""fullscreenenter"",""5"",""15407""
","
","
","""event"",""trial"",""time""
""fullscreenenter"",""5"",""15407""
","
","","images/earth.jpg","","","","","","","","","","","","","","fixation","","","","","",""
"d3-animate-choice","174","722896","0.0-76.0-0.13","136","684","14","Male","false","true","false","false","""event"",""trial"",""time""
""fullscreenenter"",""5"",""15407""
","
","
","""event"",""trial"",""time""
""fullscreenenter"",""5"",""15407""
","
","516.6000000238419","","49","","","3000","1","","","images/earth.jpg","images/rocket1","images/rocket2","null","images/rocket2","","1","real","null","1","","",""
"d3-animate-choice","175","725639","0.0-76.0-1.13","136","684","14","Male","false","true","false","false","""event"",""trial"",""time""
""fullscreenenter"",""5"",""15407""
","
","
","""event"",""trial"",""time""
""fullscreenenter"",""5"",""15407""
","
","741.1000000238419","","49","","","3000","1","","","images/redplanet1.jpg","images/alien2","images/alien1","images/rocket2","images/alien1","images/t.png","2","real","false","1","rare","1","2022-02-09 05:08:57.552"
"two-step-fixation","176","726641","0.0-76.0-2.13","136","684","14","Male","false","true","false","false","""event"",""trial"",""time""
""fullscreenenter"",""5"",""15407""
","
","
","""event"",""trial"",""time""
""fullscreenenter"",""5"",""15407""
","
","","images/earth.jpg","","","","","","","","","","","","","","fixation","","","","","",""
"d3-animate-choice","177","729103","0.0-76.0-0.14","136","684","14","Male","false","true","false","false","""event"",""trial"",""time""
""fullscreenenter"",""5"",""15407""
","
","
","""event"",""trial"",""time""
""fullscreenenter"",""5"",""15407""
","
","459.30000001192093","","49","","","3000","1","","","images/earth.jpg","images/rocket1","images/rocket2","null","images/rocket2","","1","real","null","1","","",""
"d3-animate-choice","178","731846","0.0-76.0-1.14","136","684","14","Male","false","true","false","false","""event"",""trial"",""time""
""fullscreenenter"",""5"",""15407""
","
","
","""event"",""trial"",""time""
""fullscreenenter"",""5"",""15407""
","
","741","","49","","","3000","1","","","images/redplanet1.jpg","images/alien2","images/alien1","images/rocket2","images/alien1","images/nothing.png","2","real","false","1","rare","0","2022-02-09 05:09:03.759"
"two-step-fixation","179","732848","0.0-76.0-2.14","136","684","14","Male","false","true","false","false","""event"",""trial"",""time""
""fullscreenenter"",""5"",""15407""
","
","
","""event"",""trial"",""time""
""fullscreenenter"",""5"",""15407""
","
","","images/earth.jpg","","","","","","","","","","","","","","fixation","","","","","",""
"d3-animate-choice","180","735228","0.0-76.0-0.15","136","684","14","Male","false","true","false","false","""event"",""trial"",""time""
""fullscreenenter"",""5"",""15407""
","
","
","""event"",""trial"",""time""
""fullscreenenter"",""5"",""15407""
","
","378.7000000476837","","49","","","3000","1","","","images/earth.jpg","images/rocket1","images/rocket2","null","images/rocket2","","1","real","null","1","","",""
"d3-animate-choice","181","737907","0.0-76.0-1.15","136","684","14","Male","false","true","false","false","""event"",""trial"",""time""
""fullscreenenter"",""5"",""15407""
","
","
","""event"",""trial"",""time""
""fullscreenenter"",""5"",""15407""
","
","677.0999999642372","","49","","","3000","1","","","images/redplanet1.jpg","images/alien2","images/alien1","images/rocket2","images/alien1","images/t.png","2","real","false","1","rare","1","2022-02-09 05:09:09.820"
"two-step-fixation","182","738909","0.0-76.0-2.15","136","684","14","Male","false","true","false","false","""event"",""trial"",""time""
""fullscreenenter"",""5"",""15407""
","
","
","""event"",""trial"",""time""
""fullscreenenter"",""5"",""15407""
","
","","images/earth.jpg","","","","","","","","","","","","","","fixation","","","","","",""
"d3-animate-choice","183","741204","0.0-76.0-0.16","136","684","14","Male","false","true","false","false","""event"",""trial"",""time""
""fullscreenenter"",""5"",""15407""
","
","
","""event"",""trial"",""time""
""fullscreenenter"",""5"",""15407""
","
","293.19999998807907","","49","","","3000","1","","","images/earth.jpg","images/rocket1","images/rocket2","null","images/rocket2","","1","real","null","1","","",""
"d3-animate-choice","184","743804","0.0-76.0-1.16","136","684","14","Male","false","true","false","false","""event"",""trial"",""time""
""fullscreenenter"",""5"",""15407""
","
","
","""event"",""trial"",""time""
""fullscreenenter"",""5"",""15407""
","
","594.3999999761581","","48","","","3000","1","","","images/purpleplanet.jpg","images/alien4","images/alien3","images/rocket2","images/alien4","images/t.png","2","real","true","2","common","1","2022-02-09 05:09:15.717"
"two-step-fixation","185","744806","0.0-76.0-2.16","136","684","14","Male","false","true","false","false","""event"",""trial"",""time""
""fullscreenenter"",""5"",""15407""
","
","
","""event"",""trial"",""time""
""fullscreenenter"",""5"",""15407""
","
","","images/earth.jpg","","","","","","","","","","","","","","fixation","","","","","",""
"d3-animate-choice","186","747078","0.0-76.0-0.17","136","684","14","Male","false","true","false","false","""event"",""trial"",""time""
""fullscreenenter"",""5"",""15407""
","
","
","""event"",""trial"",""time""
""fullscreenenter"",""5"",""15407""
","
","269","","49","","","3000","1","","","images/earth.jpg","images/rocket1","images/rocket2","null","images/rocket2","","1","real","null","1","","",""
"d3-animate-choice","187","749654","0.0-76.0-1.17","136","684","14","Male","false","true","false","false","""event"",""trial"",""time""
""fullscreenenter"",""5"",""15407""
","
","
","""event"",""trial"",""time""
""fullscreenenter"",""5"",""15407""
","
","574.6999999880791","","48","","","3000","1","","","images/purpleplanet.jpg","images/alien4","images/alien3","images/rocket2","images/alien4","images/t.png","2","real","true","2","common","1","2022-02-09 05:09:21.567"
"two-step-fixation","188","750656","0.0-76.0-2.17","136","684","14","Male","false","true","false","false","""event"",""trial"",""time""
""fullscreenenter"",""5"",""15407""
","
","
","""event"",""trial"",""time""
""fullscreenenter"",""5"",""15407""
","
","","images/earth.jpg","","","","","","","","","","","","","","fixation","","","","","",""
"d3-animate-choice","189","752908","0.0-76.0-0.18","136","684","14","Male","false","true","false","false","""event"",""trial"",""time""
""fullscreenenter"",""5"",""15407""
","
","
","""event"",""trial"",""time""
""fullscreenenter"",""5"",""15407""
","
","249.30000001192093","","49","","","3000","1","","","images/earth.jpg","images/rocket1","images/rocket2","null","images/rocket2","","1","real","null","1","","",""
"d3-animate-choice","190","755420","0.0-76.0-1.18","136","684","14","Male","false","true","false","false","""event"",""trial"",""time""
""fullscreenenter"",""5"",""15407""
","
","
","""event"",""trial"",""time""
""fullscreenenter"",""5"",""15407""
","
","510.19999998807907","","48","","","3000","1","","","images/purpleplanet.jpg","images/alien4","images/alien3","images/rocket2","images/alien4","images/t.png","2","real","true","2","common","1","2022-02-09 05:09:27.333"
"two-step-fixation","191","756423","0.0-76.0-2.18","136","684","14","Male","false","true","false","false","""event"",""trial"",""time""
""fullscreenenter"",""5"",""15407""
","
","
","""event"",""trial"",""time""
""fullscreenenter"",""5"",""15407""
","
","","images/earth.jpg","","","","","","","","","","","","","","fixation","","","","","",""
"d3-animate-choice","192","758823","0.0-76.0-0.19","136","684","14","Male","false","true","false","false","""event"",""trial"",""time""
""fullscreenenter"",""5"",""15407""
","
","
","""event"",""trial"",""time""
""fullscreenenter"",""5"",""15407""
","
","398.2999999523163","","49","","","3000","1","","","images/earth.jpg","images/rocket1","images/rocket2","null","images/rocket2","","1","real","null","1","","",""
"d3-animate-choice","193","761426","0.0-76.0-1.19","136","684","14","Male","false","true","false","false","""event"",""trial"",""time""
""fullscreenenter"",""5"",""15407""
","
","
","""event"",""trial"",""time""
""fullscreenenter"",""5"",""15407""
","
","600.3999999761581","","48","","","3000","1","","","images/purpleplanet.jpg","images/alien4","images/alien3","images/rocket2","images/alien4","images/t.png","2","real","true","2","common","1","2022-02-09 05:09:33.339"
"two-step-fixation","194","762427","0.0-76.0-2.19","136","684","14","Male","false","true","false","false","""event"",""trial"",""time""
""fullscreenenter"",""5"",""15407""
","
","
","""event"",""trial"",""time""
""fullscreenenter"",""5"",""15407""
","
","","images/earth.jpg","","","","","","","","","","","","","","fixation","","","","","",""
"d3-animate-choice","195","764480","0.0-76.0-0.20","136","684","14","Male","false","true","false","false","""event"",""trial"",""time""
""fullscreenenter"",""5"",""15407""
","
","
","""event"",""trial"",""time""
""fullscreenenter"",""5"",""15407""
","
","50.69999998807907","","49","","","3000","1","","","images/earth.jpg","images/rocket1","images/rocket2","null","images/rocket2","","1","real","null","1","","",""
"d3-animate-choice","196","766848","0.0-76.0-1.20","136","684","14","Male","false","true","false","false","""event"",""trial"",""time""
""fullscreenenter"",""5"",""15407""
","
","
","""event"",""trial"",""time""
""fullscreenenter"",""5"",""15407""
","
","365.9000000357628","","48","","","3000","1","","","images/purpleplanet.jpg","images/alien4","images/alien3","images/rocket2","images/alien4","images/t.png","2","real","true","2","common","1","2022-02-09 05:09:38.761"
"two-step-fixation","197","767849","0.0-76.0-2.20","136","684","14","Male","false","true","false","false","""event"",""trial"",""time""
""fullscreenenter"",""5"",""15407""
","
","
","""event"",""trial"",""time""
""fullscreenenter"",""5"",""15407""
","
","","images/earth.jpg","","","","","","","","","","","","","","fixation","","","","","",""
"d3-animate-choice","198","770130","0.0-76.0-0.21","136","684","14","Male","false","true","false","false","""event"",""trial"",""time""
""fullscreenenter"",""5"",""15407""
","
","
","""event"",""trial"",""time""
""fullscreenenter"",""5"",""15407""
","
","278.2000000476837","","49","","","3000","1","","","images/earth.jpg","images/rocket1","images/rocket2","null","images/rocket2","","1","real","null","1","","",""
"d3-animate-choice","199","772598","0.0-76.0-1.21","136","684","14","Male","false","true","false","false","""event"",""trial"",""time""
""fullscreenenter"",""5"",""15407""
","
","
","""event"",""trial"",""time""
""fullscreenenter"",""5"",""15407""
","
","466.60000002384186","","48","","","3000","1","","","images/purpleplanet.jpg","images/alien4","images/alien3","images/rocket2","images/alien4","images/t.png","2","real","true","2","common","1","2022-02-09 05:09:44.511"
"two-step-fixation","200","773600","0.0-76.0-2.21","136","684","14","Male","false","true","false","false","""event"",""trial"",""time""
""fullscreenenter"",""5"",""15407""
","
","
","""event"",""trial"",""time""
""fullscreenenter"",""5"",""15407""
","
","","images/earth.jpg","","","","","","","","","","","","","","fixation","","","","","",""
"d3-animate-choice","201","775688","0.0-76.0-0.22","136","684","14","Male","false","true","false","false","""event"",""trial"",""time""
""fullscreenenter"",""5"",""15407""
","
","
","""event"",""trial"",""time""
""fullscreenenter"",""5"",""15407""
","
","86.20000004768372","","49","","","3000","1","","","images/earth.jpg","images/rocket1","images/rocket2","null","images/rocket2","","1","real","null","1","","",""
"d3-animate-choice","202","778374","0.0-76.0-1.22","136","684","14","Male","false","true","false","false","""event"",""trial"",""time""
""fullscreenenter"",""5"",""15407""
","
","
","""event"",""trial"",""time""
""fullscreenenter"",""5"",""15407""
","
","683.9000000357628","","48","","","3000","1","","","images/purpleplanet.jpg","images/alien4","images/alien3","images/rocket2","images/alien4","images/nothing.png","2","real","true","2","common","0","2022-02-09 05:09:50.287"
"two-step-fixation","203","779376","0.0-76.0-2.22","136","684","14","Male","false","true","false","false","""event"",""trial"",""time""
""fullscreenenter"",""5"",""15407""
","
","
","""event"",""trial"",""time""
""fullscreenenter"",""5"",""15407""
","
","","images/earth.jpg","","","","","","","","","","","","","","fixation","","","","","",""
"d3-animate-choice","204","781691","0.0-76.0-0.23","136","684","14","Male","false","true","false","false","""event"",""trial"",""time""
""fullscreenenter"",""5"",""15407""
","
","
","""event"",""trial"",""time""
""fullscreenenter"",""5"",""15407""
","
","313.19999998807907","","49","","","3000","1","","","images/earth.jpg","images/rocket1","images/rocket2","null","images/rocket2","","1","real","null","1","","",""
"d3-animate-choice","205","784290","0.0-76.0-1.23","136","684","14","Male","false","true","false","false","""event"",""trial"",""time""
""fullscreenenter"",""5"",""15407""
","
","
","""event"",""trial"",""time""
""fullscreenenter"",""5"",""15407""
","
","596.5","","49","","","3000","1","","","images/redplanet1.jpg","images/alien2","images/alien1","images/rocket2","images/alien1","images/t.png","2","real","false","1","rare","1","2022-02-09 05:09:56.203"
"two-step-fixation","206","785292","0.0-76.0-2.23","136","684","14","Male","false","true","false","false","""event"",""trial"",""time""
""fullscreenenter"",""5"",""15407""
","
","
","""event"",""trial"",""time""
""fullscreenenter"",""5"",""15407""
","
","","images/earth.jpg","","","","","","","","","","","","","","fixation","","","","","",""
"d3-animate-choice","207","787576","0.0-76.0-0.24","136","684","14","Male","false","true","false","false","""event"",""trial"",""time""
""fullscreenenter"",""5"",""15407""
","
","
","""event"",""trial"",""time""
""fullscreenenter"",""5"",""15407""
","
","281.89999997615814","","49","","","3000","1","","","images/earth.jpg","images/rocket1","images/rocket2","null","images/rocket2","","1","real","null","1","","",""
"d3-animate-choice","208","789953","0.0-76.0-1.24","136","684","14","Male","false","true","false","false","""event"",""trial"",""time""
""fullscreenenter"",""5"",""15407""
","
","
","""event"",""trial"",""time""
""fullscreenenter"",""5"",""15407""
","
","375.19999998807907","","48","","","3000","1","","","images/purpleplanet.jpg","images/alien4","images/alien3","images/rocket2","images/alien4","images/nothing.png","2","real","true","2","common","0","2022-02-09 05:10:01.866"
"two-step-fixation","209","790955","0.0-76.0-2.24","136","684","14","Male","false","true","false","false","""event"",""trial"",""time""
""fullscreenenter"",""5"",""15407""
","
","
","""event"",""trial"",""time""
""fullscreenenter"",""5"",""15407""
","
","","images/earth.jpg","","","","","","","","","","","","","","fixation","","","","","",""
"d3-animate-choice","210","793373","0.0-76.0-0.25","136","684","14","Male","false","true","false","false","""event"",""trial"",""time""
""fullscreenenter"",""5"",""15407""
","
","
","""event"",""trial"",""time""
""fullscreenenter"",""5"",""15407""
","
","416.5","","49","","","3000","1","","","images/earth.jpg","images/rocket1","images/rocket2","null","images/rocket2","","1","real","null","1","","",""
"d3-animate-choice","211","796026","0.0-76.0-1.25","136","684","14","Male","false","true","false","false","""event"",""trial"",""time""
""fullscreenenter"",""5"",""15407""
","
","
","""event"",""trial"",""time""
""fullscreenenter"",""5"",""15407""
","
","650.6000000238419","","49","","","3000","1","","","images/purpleplanet.jpg","images/alien4","images/alien3","images/rocket2","images/alien3","images/t.png","2","real","true","1","common","1","2022-02-09 05:10:07.939"
"two-step-fixation","212","797028","0.0-76.0-2.25","136","684","14","Male","false","true","false","false","""event"",""trial"",""time""
""fullscreenenter"",""5"",""15407""
","
","
","""event"",""trial"",""time""
""fullscreenenter"",""5"",""15407""
","
","","images/earth.jpg","","","","","","","","","","","","","","fixation","","","","","",""
"d3-animate-choice","213","799372","0.0-76.0-0.26","136","684","14","Male","false","true","false","false","""event"",""trial"",""time""
""fullscreenenter"",""5"",""15407""
","
","
","""event"",""trial"",""time""
""fullscreenenter"",""5"",""15407""
","
","341.80000001192093","","49","","","3000","1","","","images/earth.jpg","images/rocket1","images/rocket2","null","images/rocket2","","1","real","null","1","","",""
"d3-animate-choice","214","801959","0.0-76.0-1.26","136","684","14","Male","false","true","false","false","""event"",""trial"",""time""
""fullscreenenter"",""5"",""15407""
","
","
","""event"",""trial"",""time""
""fullscreenenter"",""5"",""15407""
","
","584","","49","","","3000","1","","","images/purpleplanet.jpg","images/alien4","images/alien3","images/rocket2","images/alien3","images/nothing.png","2","real","true","1","common","0","2022-02-09 05:10:13.872"
"two-step-fixation","215","802962","0.0-76.0-2.26","136","684","14","Male","false","true","false","false","""event"",""trial"",""time""
""fullscreenenter"",""5"",""15407""
","
","
","""event"",""trial"",""time""
""fullscreenenter"",""5"",""15407""
","
","","images/earth.jpg","","","","","","","","","","","","","","fixation","","","","","",""
"d3-animate-choice","216","805268","0.0-76.0-0.27","136","684","14","Male","false","true","false","false","""event"",""trial"",""time""
""fullscreenenter"",""5"",""15407""
","
","
","""event"",""trial"",""time""
""fullscreenenter"",""5"",""15407""
","
","303.4000000357628","","49","","","3000","1","","","images/earth.jpg","images/rocket1","images/rocket2","null","images/rocket2","","1","real","null","1","","",""
"d3-animate-choice","217","807776","0.0-76.0-1.27","136","684","14","Male","false","true","false","false","""event"",""trial"",""time""
""fullscreenenter"",""5"",""15407""
","
","
","""event"",""trial"",""time""
""fullscreenenter"",""5"",""15407""
","
","506.80000001192093","","48","","","3000","1","","","images/purpleplanet.jpg","images/alien4","images/alien3","images/rocket2","images/alien4","images/t.png","2","real","true","2","common","1","2022-02-09 05:10:19.689"
"two-step-fixation","218","808779","0.0-76.0-2.27","136","684","14","Male","false","true","false","false","""event"",""trial"",""time""
""fullscreenenter"",""5"",""15407""
","
","
","""event"",""trial"",""time""
""fullscreenenter"",""5"",""15407""
","
","","images/earth.jpg","","","","","","","","","","","","","","fixation","","","","","",""
"d3-animate-choice","219","811270","0.0-76.0-0.28","136","684","14","Male","false","true","false","false","""event"",""trial"",""time""
""fullscreenenter"",""5"",""15407""
","
","
","""event"",""trial"",""time""
""fullscreenenter"",""5"",""15407""
","
","489.19999998807907","","49","","","3000","1","","","images/earth.jpg","images/rocket1","images/rocket2","null","images/rocket2","","1","real","null","1","","",""
"d3-animate-choice","220","813658","0.0-76.0-1.28","136","684","14","Male","false","true","false","false","""event"",""trial"",""time""
""fullscreenenter"",""5"",""15407""
","
","
","""event"",""trial"",""time""
""fullscreenenter"",""5"",""15407""
","
","385.89999997615814","","48","","","3000","1","","","images/purpleplanet.jpg","images/alien4","images/alien3","images/rocket2","images/alien4","images/nothing.png","2","real","true","2","common","0","2022-02-09 05:10:25.571"
"two-step-fixation","221","814660","0.0-76.0-2.28","136","684","14","Male","false","true","false","false","""event"",""trial"",""time""
""fullscreenenter"",""5"",""15407""
","
","
","""event"",""trial"",""time""
""fullscreenenter"",""5"",""15407""
","
","","images/earth.jpg","","","","","","","","","","","","","","fixation","","","","","",""
"d3-animate-choice","222","816944","0.0-76.0-0.29","136","684","14","Male","false","true","false","false","""event"",""trial"",""time""
""fullscreenenter"",""5"",""15407""
","
","
","""event"",""trial"",""time""
""fullscreenenter"",""5"",""15407""
","
","281.89999997615814","","49","","","3000","1","","","images/earth.jpg","images/rocket1","images/rocket2","null","images/rocket2","","1","real","null","1","","",""
"d3-animate-choice","223","819585","0.0-76.0-1.29","136","684","14","Male","false","true","false","false","""event"",""trial"",""time""
""fullscreenenter"",""5"",""15407""
","
","
","""event"",""trial"",""time""
""fullscreenenter"",""5"",""15407""
","
","637.7999999523163","","49","","","3000","1","","","images/redplanet1.jpg","images/alien2","images/alien1","images/rocket2","images/alien1","images/nothing.png","2","real","false","1","rare","0","2022-02-09 05:10:31.498"
"two-step-fixation","224","820587","0.0-76.0-2.29","136","684","14","Male","false","true","false","false","""event"",""trial"",""time""
""fullscreenenter"",""5"",""15407""
","
","
","""event"",""trial"",""time""
""fullscreenenter"",""5"",""15407""
","
","","images/earth.jpg","","","","","","","","","","","","","","fixation","","","","","",""
"d3-animate-choice","225","822947","0.0-76.0-0.30","136","684","14","Male","false","true","false","false","""event"",""trial"",""time""
""fullscreenenter"",""5"",""15407""
","
","
","""event"",""trial"",""time""
""fullscreenenter"",""5"",""15407""
","
","356.5999999642372","","49","","","3000","1","","","images/earth.jpg","images/rocket1","images/rocket2","null","images/rocket2","","1","real","null","1","","",""
"d3-animate-choice","226","825771","0.0-76.0-1.30","136","684","14","Male","false","true","false","false","""event"",""trial"",""time""
""fullscreenenter"",""5"",""15407""
","
","
","""event"",""trial"",""time""
""fullscreenenter"",""5"",""15407""
","
","820.8999999761581","","48","","","3000","1","","","images/purpleplanet.jpg","images/alien4","images/alien3","images/rocket2","images/alien4","images/nothing.png","2","real","true","2","common","0","2022-02-09 05:10:37.684"
"two-step-fixation","227","826773","0.0-76.0-2.30","136","684","14","Male","false","true","false","false","""event"",""trial"",""time""
""fullscreenenter"",""5"",""15407""
","
","
","""event"",""trial"",""time""
""fullscreenenter"",""5"",""15407""
","
","","images/earth.jpg","","","","","","","","","","","","","","fixation","","","","","",""
"d3-animate-choice","228","829048","0.0-76.0-0.31","136","684","14","Male","false","true","false","false","""event"",""trial"",""time""
""fullscreenenter"",""5"",""15407""
","
","
","""event"",""trial"",""time""
""fullscreenenter"",""5"",""15407""
","
","272.7000000476837","","49","","","3000","1","","","images/earth.jpg","images/rocket1","images/rocket2","null","images/rocket2","","1","real","null","1","","",""
"d3-animate-choice","229","831431","0.0-76.0-1.31","136","684","14","Male","false","true","false","false","""event"",""trial"",""time""
""fullscreenenter"",""5"",""15407""
","
","
","""event"",""trial"",""time""
""fullscreenenter"",""5"",""15407""
","
","380.69999998807907","","49","","","3000","1","","","images/purpleplanet.jpg","images/alien4","images/alien3","images/rocket2","images/alien3","images/nothing.png","2","real","true","1","common","0","2022-02-09 05:10:43.344"
"two-step-fixation","230","832433","0.0-76.0-2.31","136","684","14","Male","false","true","false","false","""event"",""trial"",""time""
""fullscreenenter"",""5"",""15407""
","
","
","""event"",""trial"",""time""
""fullscreenenter"",""5"",""15407""
","
","","images/earth.jpg","","","","","","","","","","","","","","fixation","","","","","",""
"d3-animate-choice","231","834688","0.0-76.0-0.32","136","684","14","Male","false","true","false","false","""event"",""trial"",""time""
""fullscreenenter"",""5"",""15407""
","
","
","""event"",""trial"",""time""
""fullscreenenter"",""5"",""15407""
","
","254.4000000357628","","48","","","3000","1","","","images/earth.jpg","images/rocket1","images/rocket2","null","images/rocket1","","1","real","null","2","","",""
"d3-animate-choice","232","837064","0.0-76.0-1.32","136","684","14","Male","false","true","false","false","""event"",""trial"",""time""
""fullscreenenter"",""5"",""15407""
","
","
","""event"",""trial"",""time""
""fullscreenenter"",""5"",""15407""
","
","373.89999997615814","","48","","","3000","1","","","images/redplanet1.jpg","images/alien2","images/alien1","images/rocket1","images/alien2","images/t.png","2","real","true","2","common","1","2022-02-09 05:10:48.978"
"two-step-fixation","233","838068","0.0-76.0-2.32","136","684","14","Male","false","true","false","false","""event"",""trial"",""time""
""fullscreenenter"",""5"",""15407""
","
","
","""event"",""trial"",""time""
""fullscreenenter"",""5"",""15407""
","
","","images/earth.jpg","","","","","","","","","","","","","","fixation","","","","","",""
"d3-animate-choice","234","840342","0.0-76.0-0.33","136","684","14","Male","false","true","false","false","""event"",""trial"",""time""
""fullscreenenter"",""5"",""15407""
","
","
","""event"",""trial"",""time""
""fullscreenenter"",""5"",""15407""
","
","271.69999998807907","","48","","","3000","1","","","images/earth.jpg","images/rocket1","images/rocket2","null","images/rocket1","","1","real","null","2","","",""
"d3-animate-choice","235","842846","0.0-76.0-1.33","136","684","14","Male","false","true","false","false","""event"",""trial"",""time""
""fullscreenenter"",""5"",""15407""
","
","
","""event"",""trial"",""time""
""fullscreenenter"",""5"",""15407""
","
","502.19999998807907","","48","","","3000","1","","","images/purpleplanet.jpg","images/alien4","images/alien3","images/rocket1","images/alien4","images/nothing.png","2","real","false","2","rare","0","2022-02-09 05:10:54.760"
"two-step-fixation","236","843848","0.0-76.0-2.33","136","684","14","Male","false","true","false","false","""event"",""trial"",""time""
""fullscreenenter"",""5"",""15407""
","
","
","""event"",""trial"",""time""
""fullscreenenter"",""5"",""15407""
","
","","images/earth.jpg","","","","","","","","","","","","","","fixation","","","","","",""
"d3-animate-choice","237","846069","0.0-76.0-0.34","136","684","14","Male","false","true","false","false","""event"",""trial"",""time""
""fullscreenenter"",""5"",""15407""
","
","
","""event"",""trial"",""time""
""fullscreenenter"",""5"",""15407""
","
","217.5","","48","","","3000","1","","","images/earth.jpg","images/rocket1","images/rocket2","null","images/rocket1","","1","real","null","2","","",""
"d3-animate-choice","238","848731","0.0-76.0-1.34","136","684","14","Male","false","true","false","false","""event"",""trial"",""time""
""fullscreenenter"",""5"",""15407""
","
","
","""event"",""trial"",""time""
""fullscreenenter"",""5"",""15407""
","
","660.3999999761581","","49","","","3000","1","","","images/purpleplanet.jpg","images/alien4","images/alien3","images/rocket1","images/alien3","images/t.png","2","real","false","1","rare","1","2022-02-09 05:11:00.644"
"two-step-fixation","239","849735","0.0-76.0-2.34","136","684","14","Male","false","true","false","false","""event"",""trial"",""time""
""fullscreenenter"",""5"",""15407""
","
","
","""event"",""trial"",""time""
""fullscreenenter"",""5"",""15407""
","
","","images/earth.jpg","","","","","","","","","","","","","","fixation","","","","","",""
"d3-animate-choice","240","852064","0.0-76.0-0.35","136","684","14","Male","false","true","false","false","""event"",""trial"",""time""
""fullscreenenter"",""5"",""15407""
","
","
","""event"",""trial"",""time""
""fullscreenenter"",""5"",""15407""
","
","327.19999998807907","","48","","","3000","1","","","images/earth.jpg","images/rocket1","images/rocket2","null","images/rocket1","","1","real","null","2","","",""
"d3-animate-choice","241","854597","0.0-76.0-1.35","136","684","14","Male","false","true","false","false","""event"",""trial"",""time""
""fullscreenenter"",""5"",""15407""
","
","
","""event"",""trial"",""time""
""fullscreenenter"",""5"",""15407""
","
","530.5","","49","","","3000","1","","","images/purpleplanet.jpg","images/alien4","images/alien3","images/rocket1","images/alien3","images/nothing.png","2","real","false","1","rare","0","2022-02-09 05:11:06.510"
"two-step-fixation","242","855599","0.0-76.0-2.35","136","684","14","Male","false","true","false","false","""event"",""trial"",""time""
""fullscreenenter"",""5"",""15407""
","
","
","""event"",""trial"",""time""
""fullscreenenter"",""5"",""15407""
","
","","images/earth.jpg","","","","","","","","","","","","","","fixation","","","","","",""
"d3-animate-choice","243","857639","0.0-76.0-0.36","136","684","14","Male","false","true","false","false","""event"",""trial"",""time""
""fullscreenenter"",""5"",""15407""
","
","
","""event"",""trial"",""time""
""fullscreenenter"",""5"",""15407""
","
","37.5","","48","","","3000","1","","","images/earth.jpg","images/rocket1","images/rocket2","null","images/rocket1","","1","real","null","2","","",""
"d3-animate-choice","244","860447","0.0-76.0-1.36","136","684","14","Male","false","true","false","false","""event"",""trial"",""time""
""fullscreenenter"",""5"",""15407""
","
","
","""event"",""trial"",""time""
""fullscreenenter"",""5"",""15407""
","
","806.4000000357628","","48","","","3000","1","","","images/redplanet1.jpg","images/alien2","images/alien1","images/rocket1","images/alien2","images/t.png","2","real","true","2","common","1","2022-02-09 05:11:12.361"
"two-step-fixation","245","861449","0.0-76.0-2.36","136","684","14","Male","false","true","false","false","""event"",""trial"",""time""
""fullscreenenter"",""5"",""15407""
","
","
","""event"",""trial"",""time""
""fullscreenenter"",""5"",""15407""
","
","","images/earth.jpg","","","","","","","","","","","","","","fixation","","","","","",""
"d3-animate-choice","246","863719","0.0-76.0-0.37","136","684","14","Male","false","true","false","false","""event"",""trial"",""time""
""fullscreenenter"",""5"",""15407""
","
","
","""event"",""trial"",""time""
""fullscreenenter"",""5"",""15407""
","
