"trial_type","trial_index","time_elapsed","internal_node_id","participant_id","subject_id","age","gender","rocket_sides","red_planet_first_rocket","red_display_order","purple_display_order","interactions","blur_events","focus_events","fullscreenenter_events","fullscreenexit_events","rt","stimulus","key_press","button_pressed","success","duration","valid_pressed","rts","keys","planet_text","right_text","left_text","center_text","chosen_text","reward_text","trial_stage","practice_trial","transition_type","reward","timestamp","choice","transition"
"pavlovia","0","3","0.0-0.0","202","2130","9","Male","false","false","false","true","
","
","
","
","
","","","","","","","","","","","","","","","","","","","","","",""
"html-keyboard-response","1","30061","0.0-1.0","202","2130","9","Male","false","false","false","true","
","
","
","
","
","30057.399999976158","Welcome! Press the space bar to begin.","32","","","","","","","","","","","","","","","","","","",""
"audio-keyboard-response","2","32371","0.0-2.0","202","2130","9","Male","false","false","false","true","
","
","
","
","
","1941","audio/beep_loop.wav","32","","","","","","","","","","","","","","","","","","",""
"audio-button-response","3","35687","0.0-3.0","202","2130","9","Male","false","false","false","true","
","
","
","
","
","NaN","audio/fish.mp3","","1","","","","","","","","","","","","","","","","","",""
"audio-button-response","4","41253","0.0-4.0","202","2130","9","Male","false","false","false","true","""event"",""trial"",""time""
""blur"",""5"",""44564""
""focus"",""5"",""48790""
""fullscreenenter"",""5"",""49763""
","""event"",""trial"",""time""
""blur"",""5"",""44564""
","""event"",""trial"",""time""
""focus"",""5"",""48790""
","""event"",""trial"",""time""
""fullscreenenter"",""5"",""49763""
","
","NaN","audio/tiger.mp3","","4","","","","","","","","","","","","","","","","","",""
"fullscreen","5","50693","0.0-5.0","202","2130","9","Male","false","false","false","true","""event"",""trial"",""time""
""blur"",""5"",""44564""
""focus"",""5"",""48790""
""fullscreenenter"",""5"",""49763""
","""event"",""trial"",""time""
""blur"",""5"",""44564""
","""event"",""trial"",""time""
""focus"",""5"",""48790""
","""event"",""trial"",""time""
""fullscreenenter"",""5"",""49763""
","
","","","","","true","","","","","","","","","","","","","","","","",""
"d3-instructions","6","59418","0.0-6.0","202","2130","9","Male","false","false","false","true","""event"",""trial"",""time""
""blur"",""5"",""44564""
""focus"",""5"",""48790""
""fullscreenenter"",""5"",""49763""
","""event"",""trial"",""time""
""blur"",""5"",""44564""
","""event"",""trial"",""time""
""focus"",""5"",""48790""
","""event"",""trial"",""time""
""fullscreenenter"",""5"",""49763""
","
","","","","","","","","","","","","","","","","","","","","","",""
"d3-instructions","7","63022","0.0-7.0","202","2130","9","Male","false","false","false","true","""event"",""trial"",""time""
""blur"",""5"",""44564""
""focus"",""5"",""48790""
""fullscreenenter"",""5"",""49763""
","""event"",""trial"",""time""
""blur"",""5"",""44564""
","""event"",""trial"",""time""
""focus"",""5"",""48790""
","""event"",""trial"",""time""
""fullscreenenter"",""5"",""49763""
","
","","","","","","","","","","","","","","","","","","","","","",""
"d3-instructions","8","66251","0.0-8.0","202","2130","9","Male","false","false","false","true","""event"",""trial"",""time""
""blur"",""5"",""44564""
""focus"",""5"",""48790""
""fullscreenenter"",""5"",""49763""
","""event"",""trial"",""time""
""blur"",""5"",""44564""
","""event"",""trial"",""time""
""focus"",""5"",""48790""
","""event"",""trial"",""time""
""fullscreenenter"",""5"",""49763""
","
","","","","","","","","","","","","","","","","","","","","","",""
"d3-instructions","9","75622","0.0-9.0","202","2130","9","Male","false","false","false","true","""event"",""trial"",""time""
""blur"",""5"",""44564""
""focus"",""5"",""48790""
""fullscreenenter"",""5"",""49763""
","""event"",""trial"",""time""
""blur"",""5"",""44564""
","""event"",""trial"",""time""
""focus"",""5"",""48790""
","""event"",""trial"",""time""
""fullscreenenter"",""5"",""49763""
","
","","","","","","","","","","","","","","","","","","","","","",""
"d3-instructions","10","87328","0.0-10.0","202","2130","9","Male","false","false","false","true","""event"",""trial"",""time""
""blur"",""5"",""44564""
""focus"",""5"",""48790""
""fullscreenenter"",""5"",""49763""
","""event"",""trial"",""time""
""blur"",""5"",""44564""
","""event"",""trial"",""time""
""focus"",""5"",""48790""
","""event"",""trial"",""time""
""fullscreenenter"",""5"",""49763""
","
","","","","","","","","","","","","","","","","","","","","","",""
"d3-animate-choice","11","91790","0.0-11.0","202","2130","9","Male","false","false","false","true","""event"",""trial"",""time""
""blur"",""5"",""44564""
""focus"",""5"",""48790""
""fullscreenenter"",""5"",""49763""
","""event"",""trial"",""time""
""blur"",""5"",""44564""
","""event"",""trial"",""time""
""focus"",""5"",""48790""
","""event"",""trial"",""time""
""fullscreenenter"",""5"",""49763""
","
","2448.600000023842","","49","","","3000","1","","","images/tutgreenplanet.jpg","images/tutalien1","images/tutalien2","null","images/tutalien2","","NA","practice","null","","","",""
"d3-animate-choice","12","95804","0.0-12.0","202","2130","9","Male","false","false","false","true","""event"",""trial"",""time""
""blur"",""5"",""44564""
""focus"",""5"",""48790""
""fullscreenenter"",""5"",""49763""
","""event"",""trial"",""time""
""blur"",""5"",""44564""
","""event"",""trial"",""time""
""focus"",""5"",""48790""
","""event"",""trial"",""time""
""fullscreenenter"",""5"",""49763""
","
","2004.5","","48","","","3000","1","","","images/tutgreenplanet.jpg","images/tutalien1","images/tutalien2","null","images/tutalien1","","NA","practice","null","","","",""
"d3-animate-choice","13","98213","0.0-13.0","202","2130","9","Male","false","false","false","true","""event"",""trial"",""time""
""blur"",""5"",""44564""
""focus"",""5"",""48790""
""fullscreenenter"",""5"",""49763""
","""event"",""trial"",""time""
""blur"",""5"",""44564""
","""event"",""trial"",""time""
""focus"",""5"",""48790""
","""event"",""trial"",""time""
""fullscreenenter"",""5"",""49763""
","
","388","","49","","","3000","1","2016.3999999761581","48","images/tutgreenplanet.jpg","images/tutalien1","images/tutalien2","null","images/tutalien2","","NA","practice","null","","","",""
"d3-animate-choice","14","100723","0.0-14.0","202","2130","9","Male","false","false","false","true","""event"",""trial"",""time""
""blur"",""5"",""44564""
""focus"",""5"",""48790""
""fullscreenenter"",""5"",""49763""
","""event"",""trial"",""time""
""blur"",""5"",""44564""
","""event"",""trial"",""time""
""focus"",""5"",""48790""
","""event"",""trial"",""time""
""fullscreenenter"",""5"",""49763""
","
","486.5","","48","","","3000","1","","","images/tutgreenplanet.jpg","images/tutalien1","images/tutalien2","null","images/tutalien1","","NA","practice","null","","","",""
"d3-instructions","15","107301","0.0-15.0","202","2130","9","Male","false","false","false","true","""event"",""trial"",""time""
""blur"",""5"",""44564""
""focus"",""5"",""48790""
""fullscreenenter"",""5"",""49763""
","""event"",""trial"",""time""
""blur"",""5"",""44564""
","""event"",""trial"",""time""
""focus"",""5"",""48790""
","""event"",""trial"",""time""
""fullscreenenter"",""5"",""49763""
","
","","","","","","","","","","","","","","","","","","","","","",""
"d3-instructions","16","111621","0.0-16.0","202","2130","9","Male","false","false","false","true","""event"",""trial"",""time""
""blur"",""5"",""44564""
""focus"",""5"",""48790""
""fullscreenenter"",""5"",""49763""
","""event"",""trial"",""time""
""blur"",""5"",""44564""
","""event"",""trial"",""time""
""focus"",""5"",""48790""
","""event"",""trial"",""time""
""fullscreenenter"",""5"",""49763""
","
","","","","","","","","","","","","","","","","","","","","","",""
"d3-instructions","17","115907","0.0-17.0","202","2130","9","Male","false","false","false","true","""event"",""trial"",""time""
""blur"",""5"",""44564""
""focus"",""5"",""48790""
""fullscreenenter"",""5"",""49763""
","""event"",""trial"",""time""
""blur"",""5"",""44564""
","""event"",""trial"",""time""
""focus"",""5"",""48790""
","""event"",""trial"",""time""
""fullscreenenter"",""5"",""49763""
","
","","","","","","","","","","","","","","","","","","","","","",""
"d3-instructions","18","131734","0.0-18.0","202","2130","9","Male","false","false","false","true","""event"",""trial"",""time""
""blur"",""5"",""44564""
""focus"",""5"",""48790""
""fullscreenenter"",""5"",""49763""
","""event"",""trial"",""time""
""blur"",""5"",""44564""
","""event"",""trial"",""time""
""focus"",""5"",""48790""
","""event"",""trial"",""time""
""fullscreenenter"",""5"",""49763""
","
","","","","","","","","","","","","","","","","","","","","","",""
"d3-instructions","19","139411","0.0-19.0","202","2130","9","Male","false","false","false","true","""event"",""trial"",""time""
""blur"",""5"",""44564""
""focus"",""5"",""48790""
""fullscreenenter"",""5"",""49763""
","""event"",""trial"",""time""
""blur"",""5"",""44564""
","""event"",""trial"",""time""
""focus"",""5"",""48790""
","""event"",""trial"",""time""
""fullscreenenter"",""5"",""49763""
","
","","","","","","","","","","","","","","","","","","","","","",""
"d3-animate-choice","20","142695","0.0-20.0","202","2130","9","Male","false","false","false","true","""event"",""trial"",""time""
""blur"",""5"",""44564""
""focus"",""5"",""48790""
""fullscreenenter"",""5"",""49763""
","""event"",""trial"",""time""
""blur"",""5"",""44564""
","""event"",""trial"",""time""
""focus"",""5"",""48790""
","""event"",""trial"",""time""
""fullscreenenter"",""5"",""49763""
","
","1262.2999999523163","","49","","","3000","1","1649.2999999523163,1978.8999999761581,2468.600000023842,2931.600000023842","49,49,49,49","images/tutyellowplanet.jpg","null","images/tutalien3","null","images/tutalien3","images/t.png","NA","practice","null","","","",""
"d3-animate-choice","21","145102","0.0-21.0","202","2130","9","Male","false","false","false","true","""event"",""trial"",""time""
""blur"",""5"",""44564""
""focus"",""5"",""48790""
""fullscreenenter"",""5"",""49763""
","""event"",""trial"",""time""
""blur"",""5"",""44564""
","""event"",""trial"",""time""
""focus"",""5"",""48790""
","""event"",""trial"",""time""
""fullscreenenter"",""5"",""49763""
","
","386","","49","","","3000","1","","","images/tutyellowplanet.jpg","null","images/tutalien3","null","images/tutalien3","images/t.png","NA","practice","null","","","",""
"d3-animate-choice","22","147848","0.0-22.0","202","2130","9","Male","false","false","false","true","""event"",""trial"",""time""
""blur"",""5"",""44564""
""focus"",""5"",""48790""
""fullscreenenter"",""5"",""49763""
","""event"",""trial"",""time""
""blur"",""5"",""44564""
","""event"",""trial"",""time""
""focus"",""5"",""48790""
","""event"",""trial"",""time""
""fullscreenenter"",""5"",""49763""
","
","739.2000000476837","","49","","","3000","1","","","images/tutyellowplanet.jpg","null","images/tutalien3","null","images/tutalien3","images/t.png","NA","practice","null","","","",""
"d3-animate-choice","23","150562","0.0-23.0","202","2130","9","Male","false","false","false","true","""event"",""trial"",""time""
""blur"",""5"",""44564""
""focus"",""5"",""48790""
""fullscreenenter"",""5"",""49763""
","""event"",""trial"",""time""
""blur"",""5"",""44564""
","""event"",""trial"",""time""
""focus"",""5"",""48790""
","""event"",""trial"",""time""
""fullscreenenter"",""5"",""49763""
","
","697.7999999523163","","49","","","3000","1","","","images/tutyellowplanet.jpg","null","images/tutalien3","null","images/tutalien3","images/nothing.png","NA","practice","null","","","",""
"d3-animate-choice","24","153093","0.0-24.0","202","2130","9","Male","false","false","false","true","""event"",""trial"",""time""
""blur"",""5"",""44564""
""focus"",""5"",""48790""
""fullscreenenter"",""5"",""49763""
","""event"",""trial"",""time""
""blur"",""5"",""44564""
","""event"",""trial"",""time""
""focus"",""5"",""48790""
","""event"",""trial"",""time""
""fullscreenenter"",""5"",""49763""
","
","515.7000000476837","","49","","","3000","1","","","images/tutyellowplanet.jpg","null","images/tutalien3","null","images/tutalien3","images/t.png","NA","practice","null","","","",""
"d3-animate-choice","25","155687","0.0-25.0","202","2130","9","Male","false","false","false","true","""event"",""trial"",""time""
""blur"",""5"",""44564""
""focus"",""5"",""48790""
""fullscreenenter"",""5"",""49763""
","""event"",""trial"",""time""
""blur"",""5"",""44564""
","""event"",""trial"",""time""
""focus"",""5"",""48790""
","""event"",""trial"",""time""
""fullscreenenter"",""5"",""49763""
","
","583.7999999523163","","49","","","3000","1","","","images/tutyellowplanet.jpg","null","images/tutalien3","null","images/tutalien3","images/t.png","NA","practice","null","","","",""
"d3-animate-choice","26","158323","0.0-26.0","202","2130","9","Male","false","false","false","true","""event"",""trial"",""time""
""blur"",""5"",""44564""
""focus"",""5"",""48790""
""fullscreenenter"",""5"",""49763""
","""event"",""trial"",""time""
""blur"",""5"",""44564""
","""event"",""trial"",""time""
""focus"",""5"",""48790""
","""event"",""trial"",""time""
""fullscreenenter"",""5"",""49763""
","
","622.2000000476837","","49","","","3000","1","","","images/tutyellowplanet.jpg","null","images/tutalien3","null","images/tutalien3","images/nothing.png","NA","practice","null","","","",""
"d3-animate-choice","27","161037","0.0-27.0","202","2130","9","Male","false","false","false","true","""event"",""trial"",""time""
""blur"",""5"",""44564""
""focus"",""5"",""48790""
""fullscreenenter"",""5"",""49763""
","""event"",""trial"",""time""
""blur"",""5"",""44564""
","""event"",""trial"",""time""
""focus"",""5"",""48790""
","""event"",""trial"",""time""
""fullscreenenter"",""5"",""49763""
","
","705.6999999284744","","49","","","3000","1","","","images/tutyellowplanet.jpg","null","images/tutalien3","null","images/tutalien3","images/t.png","NA","practice","null","","","",""
"d3-animate-choice","28","163613","0.0-28.0","202","2130","9","Male","false","false","false","true","""event"",""trial"",""time""
""blur"",""5"",""44564""
""focus"",""5"",""48790""
""fullscreenenter"",""5"",""49763""
","""event"",""trial"",""time""
""blur"",""5"",""44564""
","""event"",""trial"",""time""
""focus"",""5"",""48790""
","""event"",""trial"",""time""
""fullscreenenter"",""5"",""49763""
","
","565.8999999761581","","49","","","3000","1","","","images/tutyellowplanet.jpg","null","images/tutalien3","null","images/tutalien3","images/t.png","NA","practice","null","","","",""
"d3-animate-choice","29","165993","0.0-29.0","202","2130","9","Male","false","false","false","true","""event"",""trial"",""time""
""blur"",""5"",""44564""
""focus"",""5"",""48790""
""fullscreenenter"",""5"",""49763""
","""event"",""trial"",""time""
""blur"",""5"",""44564""
","""event"",""trial"",""time""
""focus"",""5"",""48790""
","""event"",""trial"",""time""
""fullscreenenter"",""5"",""49763""
","
","375.1999999284744","","49","","","3000","1","","","images/tutyellowplanet.jpg","null","images/tutalien3","null","images/tutalien3","images/t.png","NA","practice","null","","","",""
"d3-instructions","30","170127","0.0-30.0","202","2130","9","Male","false","false","false","true","""event"",""trial"",""time""
""blur"",""5"",""44564""
""focus"",""5"",""48790""
""fullscreenenter"",""5"",""49763""
","""event"",""trial"",""time""
""blur"",""5"",""44564""
","""event"",""trial"",""time""
""focus"",""5"",""48790""
","""event"",""trial"",""time""
""fullscreenenter"",""5"",""49763""
","
","","","","","","","","","","","","","","","","","","","","","",""
"d3-instructions","31","180139","0.0-31.0","202","2130","9","Male","false","false","false","true","""event"",""trial"",""time""
""blur"",""5"",""44564""
""focus"",""5"",""48790""
""fullscreenenter"",""5"",""49763""
","""event"",""trial"",""time""
""blur"",""5"",""44564""
","""event"",""trial"",""time""
""focus"",""5"",""48790""
","""event"",""trial"",""time""
""fullscreenenter"",""5"",""49763""
","
","","","","","","","","","","","","","","","","","","","","","",""
"d3-instructions","32","188448","0.0-32.0","202","2130","9","Male","false","false","false","true","""event"",""trial"",""time""
""blur"",""5"",""44564""
""focus"",""5"",""48790""
""fullscreenenter"",""5"",""49763""
","""event"",""trial"",""time""
""blur"",""5"",""44564""
","""event"",""trial"",""time""
""focus"",""5"",""48790""
","""event"",""trial"",""time""
""fullscreenenter"",""5"",""49763""
","
","","","","","","","","","","","","","","","","","","","","","",""
"d3-instructions","33","193347","0.0-33.0","202","2130","9","Male","false","false","false","true","""event"",""trial"",""time""
""blur"",""5"",""44564""
""focus"",""5"",""48790""
""fullscreenenter"",""5"",""49763""
","""event"",""trial"",""time""
""blur"",""5"",""44564""
","""event"",""trial"",""time""
""focus"",""5"",""48790""
","""event"",""trial"",""time""
""fullscreenenter"",""5"",""49763""
","
","","","","","","","","","","","","","","","","","","","","","",""
"d3-animate-choice","34","196561","0.0-34.0","202","2130","9","Male","false","false","false","true","""event"",""trial"",""time""
""blur"",""5"",""44564""
""focus"",""5"",""48790""
""fullscreenenter"",""5"",""49763""
","""event"",""trial"",""time""
""blur"",""5"",""44564""
","""event"",""trial"",""time""
""focus"",""5"",""48790""
","""event"",""trial"",""time""
""fullscreenenter"",""5"",""49763""
","
","1195.8000000715256","","49","","","3000","1","","","images/tutgreenplanet.jpg","images/tutalien1","images/tutalien2","null","images/tutalien2","images/t.png","NA","practice","null","","","",""
"d3-animate-choice","35","198982","0.0-35.0","202","2130","9","Male","false","false","false","true","""event"",""trial"",""time""
""blur"",""5"",""44564""
""focus"",""5"",""48790""
""fullscreenenter"",""5"",""49763""
","""event"",""trial"",""time""
""blur"",""5"",""44564""
","""event"",""trial"",""time""
""focus"",""5"",""48790""
","""event"",""trial"",""time""
""fullscreenenter"",""5"",""49763""
","
","397.39999997615814","","49","","","3000","1","","","images/tutgreenplanet.jpg","images/tutalien1","images/tutalien2","null","images/tutalien2","images/t.png","NA","practice","null","","","",""
"d3-animate-choice","36","201283","0.0-36.0","202","2130","9","Male","false","false","false","true","""event"",""trial"",""time""
""blur"",""5"",""44564""
""focus"",""5"",""48790""
""fullscreenenter"",""5"",""49763""
","""event"",""trial"",""time""
""blur"",""5"",""44564""
","""event"",""trial"",""time""
""focus"",""5"",""48790""
","""event"",""trial"",""time""
""fullscreenenter"",""5"",""49763""
","
","293","","48","","","3000","1","","","images/tutgreenplanet.jpg","images/tutalien1","images/tutalien2","null","images/tutalien1","images/nothing.png","NA","practice","null","","","",""
"d3-animate-choice","37","203533","0.0-37.0","202","2130","9","Male","false","false","false","true","""event"",""trial"",""time""
""blur"",""5"",""44564""
""focus"",""5"",""48790""
""fullscreenenter"",""5"",""49763""
","""event"",""trial"",""time""
""blur"",""5"",""44564""
","""event"",""trial"",""time""
""focus"",""5"",""48790""
","""event"",""trial"",""time""
""fullscreenenter"",""5"",""49763""
","
","231.69999992847443","","48","","","3000","1","","","images/tutgreenplanet.jpg","images/tutalien1","images/tutalien2","null","images/tutalien1","images/nothing.png","NA","practice","null","","","",""
"d3-animate-choice","38","205590","0.0-38.0","202","2130","9","Male","false","false","false","true","""event"",""trial"",""time""
""blur"",""5"",""44564""
""focus"",""5"",""48790""
""fullscreenenter"",""5"",""49763""
","""event"",""trial"",""time""
""blur"",""5"",""44564""
","""event"",""trial"",""time""
""focus"",""5"",""48790""
","""event"",""trial"",""time""
""fullscreenenter"",""5"",""49763""
","
","49.300000071525574","","48","","","3000","1","2053.5","49","images/tutgreenplanet.jpg","images/tutalien1","images/tutalien2","null","images/tutalien1","images/nothing.png","NA","practice","null","","","",""
"d3-animate-choice","39","208202","0.0-39.0","202","2130","9","Male","false","false","false","true","""event"",""trial"",""time""
""blur"",""5"",""44564""
""focus"",""5"",""48790""
""fullscreenenter"",""5"",""49763""
","""event"",""trial"",""time""
""blur"",""5"",""44564""
","""event"",""trial"",""time""
""focus"",""5"",""48790""
","""event"",""trial"",""time""
""fullscreenenter"",""5"",""49763""
","
","601","","49","","","3000","1","","","images/tutgreenplanet.jpg","images/tutalien1","images/tutalien2","null","images/tutalien2","images/t.png","NA","practice","null","","","",""
"d3-animate-choice","40","210493","0.0-40.0","202","2130","9","Male","false","false","false","true","""event"",""trial"",""time""
""blur"",""5"",""44564""
""focus"",""5"",""48790""
""fullscreenenter"",""5"",""49763""
","""event"",""trial"",""time""
""blur"",""5"",""44564""
","""event"",""trial"",""time""
""focus"",""5"",""48790""
","""event"",""trial"",""time""
""fullscreenenter"",""5"",""49763""
","
","285","","49","","","3000","1","","","images/tutgreenplanet.jpg","images/tutalien1","images/tutalien2","null","images/tutalien2","images/t.png","NA","practice","null","","","",""
"d3-animate-choice","41","212743","0.0-41.0","202","2130","9","Male","false","false","false","true","""event"",""trial"",""time""
""blur"",""5"",""44564""
""focus"",""5"",""48790""
""fullscreenenter"",""5"",""49763""
","""event"",""trial"",""time""
""blur"",""5"",""44564""
","""event"",""trial"",""time""
""focus"",""5"",""48790""
","""event"",""trial"",""time""
""fullscreenenter"",""5"",""49763""
","
","239.5","","49","","","3000","1","","","images/tutgreenplanet.jpg","images/tutalien1","images/tutalien2","null","images/tutalien2","images/nothing.png","NA","practice","null","","","",""
"d3-animate-choice","42","214972","0.0-42.0","202","2130","9","Male","false","false","false","true","""event"",""trial"",""time""
""blur"",""5"",""44564""
""focus"",""5"",""48790""
""fullscreenenter"",""5"",""49763""
","""event"",""trial"",""time""
""blur"",""5"",""44564""
","""event"",""trial"",""time""
""focus"",""5"",""48790""
","""event"",""trial"",""time""
""fullscreenenter"",""5"",""49763""
","
","207.10000002384186","","48","","","3000","1","","","images/tutgreenplanet.jpg","images/tutalien1","images/tutalien2","null","images/tutalien1","images/nothing.png","NA","practice","null","","","",""
"d3-animate-choice","43","217000","0.0-43.0","202","2130","9","Male","false","false","false","true","""event"",""trial"",""time""
""blur"",""5"",""44564""
""focus"",""5"",""48790""
""fullscreenenter"",""5"",""49763""
","""event"",""trial"",""time""
""blur"",""5"",""44564""
","""event"",""trial"",""time""
""focus"",""5"",""48790""
","""event"",""trial"",""time""
""fullscreenenter"",""5"",""49763""
","
","8.600000023841858","","49","","","3000","1","","","images/tutgreenplanet.jpg","images/tutalien1","images/tutalien2","null","images/tutalien2","images/t.png","NA","practice","null","","","",""
"d3-instructions","44","222908","0.0-44.0","202","2130","9","Male","false","false","false","true","""event"",""trial"",""time""
""blur"",""5"",""44564""
""focus"",""5"",""48790""
""fullscreenenter"",""5"",""49763""
","""event"",""trial"",""time""
""blur"",""5"",""44564""
","""event"",""trial"",""time""
""focus"",""5"",""48790""
","""event"",""trial"",""time""
""fullscreenenter"",""5"",""49763""
","
","","","","","","","","","","","","","","","","","","","","","",""
"d3-instructions","45","225963","0.0-45.0","202","2130","9","Male","false","false","false","true","""event"",""trial"",""time""
""blur"",""5"",""44564""
""focus"",""5"",""48790""
""fullscreenenter"",""5"",""49763""
","""event"",""trial"",""time""
""blur"",""5"",""44564""
","""event"",""trial"",""time""
""focus"",""5"",""48790""
","""event"",""trial"",""time""
""fullscreenenter"",""5"",""49763""
","
","","","","","","","","","","","","","","","","","","","","","",""
"d3-instructions","46","228459","0.0-46.0","202","2130","9","Male","false","false","false","true","""event"",""trial"",""time""
""blur"",""5"",""44564""
""focus"",""5"",""48790""
""fullscreenenter"",""5"",""49763""
","""event"",""trial"",""time""
""blur"",""5"",""44564""
","""event"",""trial"",""time""
""focus"",""5"",""48790""
","""event"",""trial"",""time""
""fullscreenenter"",""5"",""49763""
","
","","","","","","","","","","","","","","","","","","","","","",""
"d3-instructions","47","236380","0.0-47.0","202","2130","9","Male","false","false","false","true","""event"",""trial"",""time""
""blur"",""5"",""44564""
""focus"",""5"",""48790""
""fullscreenenter"",""5"",""49763""
","""event"",""trial"",""time""
""blur"",""5"",""44564""
","""event"",""trial"",""time""
""focus"",""5"",""48790""
","""event"",""trial"",""time""
""fullscreenenter"",""5"",""49763""
","
","","","","","","","","","","","","","","","","","","","","","",""
"d3-instructions","48","238748","0.0-48.0","202","2130","9","Male","false","false","false","true","""event"",""trial"",""time""
""blur"",""5"",""44564""
""focus"",""5"",""48790""
""fullscreenenter"",""5"",""49763""
","""event"",""trial"",""time""
""blur"",""5"",""44564""
","""event"",""trial"",""time""
""focus"",""5"",""48790""
","""event"",""trial"",""time""
""fullscreenenter"",""5"",""49763""
","
","","","","","","","","","","","","","","","","","","","","","",""
"d3-instructions","49","245318","0.0-49.0","202","2130","9","Male","false","false","false","true","""event"",""trial"",""time""
""blur"",""5"",""44564""
""focus"",""5"",""48790""
""fullscreenenter"",""5"",""49763""
","""event"",""trial"",""time""
""blur"",""5"",""44564""
","""event"",""trial"",""time""
""focus"",""5"",""48790""
","""event"",""trial"",""time""
""fullscreenenter"",""5"",""49763""
","
","","","","","","","","","","","","","","","","","","","","","",""
"d3-instructions","50","247365","0.0-50.0","202","2130","9","Male","false","false","false","true","""event"",""trial"",""time""
""blur"",""5"",""44564""
""focus"",""5"",""48790""
""fullscreenenter"",""5"",""49763""
","""event"",""trial"",""time""
""blur"",""5"",""44564""
","""event"",""trial"",""time""
""focus"",""5"",""48790""
","""event"",""trial"",""time""
""fullscreenenter"",""5"",""49763""
","
","","","","","","","","","","","","","","","","","","","","","",""
"d3-instructions","51","250056","0.0-51.0","202","2130","9","Male","false","false","false","true","""event"",""trial"",""time""
""blur"",""5"",""44564""
""focus"",""5"",""48790""
""fullscreenenter"",""5"",""49763""
","""event"",""trial"",""time""
""blur"",""5"",""44564""
","""event"",""trial"",""time""
""focus"",""5"",""48790""
","""event"",""trial"",""time""
""fullscreenenter"",""5"",""49763""
","
","","","","","","","","","","","","","","","","","","","","","",""
"d3-instructions","52","251738","0.0-52.0","202","2130","9","Male","false","false","false","true","""event"",""trial"",""time""
""blur"",""5"",""44564""
""focus"",""5"",""48790""
""fullscreenenter"",""5"",""49763""
","""event"",""trial"",""time""
""blur"",""5"",""44564""
","""event"",""trial"",""time""
""focus"",""5"",""48790""
","""event"",""trial"",""time""
""fullscreenenter"",""5"",""49763""
","
","","","","","","","","","","","","","","","","","","","","","",""
"d3-instructions","53","256626","0.0-53.0","202","2130","9","Male","false","false","false","true","""event"",""trial"",""time""
""blur"",""5"",""44564""
""focus"",""5"",""48790""
""fullscreenenter"",""5"",""49763""
","""event"",""trial"",""time""
""blur"",""5"",""44564""
","""event"",""trial"",""time""
""focus"",""5"",""48790""
","""event"",""trial"",""time""
""fullscreenenter"",""5"",""49763""
","
","","","","","","","","","","","","","","","","","","","","","",""
"d3-instructions","54","257735","0.0-54.0","202","2130","9","Male","false","false","false","true","""event"",""trial"",""time""
""blur"",""5"",""44564""
""focus"",""5"",""48790""
""fullscreenenter"",""5"",""49763""
","""event"",""trial"",""time""
""blur"",""5"",""44564""
","""event"",""trial"",""time""
""focus"",""5"",""48790""
","""event"",""trial"",""time""
""fullscreenenter"",""5"",""49763""
","
","","","","","","","","","","","","","","","","","","","","","",""
"d3-instructions","55","258480","0.0-55.0","202","2130","9","Male","false","false","false","true","""event"",""trial"",""time""
""blur"",""5"",""44564""
""focus"",""5"",""48790""
""fullscreenenter"",""5"",""49763""
","""event"",""trial"",""time""
""blur"",""5"",""44564""
","""event"",""trial"",""time""
""focus"",""5"",""48790""
","""event"",""trial"",""time""
""fullscreenenter"",""5"",""49763""
","
","","","","","","","","","","","","","","","","","","","","","",""
"d3-instructions","56","259344","0.0-56.0","202","2130","9","Male","false","false","false","true","""event"",""trial"",""time""
""blur"",""5"",""44564""
""focus"",""5"",""48790""
""fullscreenenter"",""5"",""49763""
","""event"",""trial"",""time""
""blur"",""5"",""44564""
","""event"",""trial"",""time""
""focus"",""5"",""48790""
","""event"",""trial"",""time""
""fullscreenenter"",""5"",""49763""
","
","","","","","","","","","","","","","","","","","","","","","",""
"d3-instructions","57","263967","0.0-57.0","202","2130","9","Male","false","false","false","true","""event"",""trial"",""time""
""blur"",""5"",""44564""
""focus"",""5"",""48790""
""fullscreenenter"",""5"",""49763""
","""event"",""trial"",""time""
""blur"",""5"",""44564""
","""event"",""trial"",""time""
""focus"",""5"",""48790""
","""event"",""trial"",""time""
""fullscreenenter"",""5"",""49763""
","
","","","","","","","","","","","","","","","","","","","","","",""
"d3-instructions","58","276763","0.0-58.0","202","2130","9","Male","false","false","false","true","""event"",""trial"",""time""
""blur"",""5"",""44564""
""focus"",""5"",""48790""
""fullscreenenter"",""5"",""49763""
","""event"",""trial"",""time""
""blur"",""5"",""44564""
","""event"",""trial"",""time""
""focus"",""5"",""48790""
","""event"",""trial"",""time""
""fullscreenenter"",""5"",""49763""
","
","","","","","","","","","","","","","","","","","","","","","",""
"d3-instructions","59","279441","0.0-59.0","202","2130","9","Male","false","false","false","true","""event"",""trial"",""time""
""blur"",""5"",""44564""
""focus"",""5"",""48790""
""fullscreenenter"",""5"",""49763""
","""event"",""trial"",""time""
""blur"",""5"",""44564""
","""event"",""trial"",""time""
""focus"",""5"",""48790""
","""event"",""trial"",""time""
""fullscreenenter"",""5"",""49763""
","
","","","","","","","","","","","","","","","","","","","","","",""
"d3-instructions","60","281940","0.0-60.0","202","2130","9","Male","false","false","false","true","""event"",""trial"",""time""
""blur"",""5"",""44564""
""focus"",""5"",""48790""
""fullscreenenter"",""5"",""49763""
","""event"",""trial"",""time""
""blur"",""5"",""44564""
","""event"",""trial"",""time""
""focus"",""5"",""48790""
","""event"",""trial"",""time""
""fullscreenenter"",""5"",""49763""
","
","","","","","","","","","","","","","","","","","","","","","",""
"d3-animate-choice","61","285959","0.0-61.0-0.0","202","2130","9","Male","false","false","false","true","""event"",""trial"",""time""
""blur"",""5"",""44564""
""focus"",""5"",""48790""
""fullscreenenter"",""5"",""49763""
","""event"",""trial"",""time""
""blur"",""5"",""44564""
","""event"",""trial"",""time""
""focus"",""5"",""48790""
","""event"",""trial"",""time""
""fullscreenenter"",""5"",""49763""
","
","null","","null","","","3000","0","","","images/earth.jpg","images/tutrocket1","images/tutrocket2","null","","","1","practice","null","","","",""
"d3-animate-choice","62","286969","0.0-61.0-1.0","202","2130","9","Male","false","false","false","true","""event"",""trial"",""time""
""blur"",""5"",""44564""
""focus"",""5"",""48790""
""fullscreenenter"",""5"",""49763""
","""event"",""trial"",""time""
""blur"",""5"",""44564""
","""event"",""trial"",""time""
""focus"",""5"",""48790""
","""event"",""trial"",""time""
""fullscreenenter"",""5"",""49763""
","
","null","","null","","","0","0","","","images/earth.jpg","images/tutrocket1","images/tutrocket2","null","","","2","practice","null","0","2022-06-28 17:49:39.985","",""
"two-step-fixation","63","287976","0.0-61.0-2.0","202","2130","9","Male","false","false","false","true","""event"",""trial"",""time""
""blur"",""5"",""44564""
""focus"",""5"",""48790""
""fullscreenenter"",""5"",""49763""
","""event"",""trial"",""time""
""blur"",""5"",""44564""
","""event"",""trial"",""time""
""focus"",""5"",""48790""
","""event"",""trial"",""time""
""fullscreenenter"",""5"",""49763""
","
","","images/earth.jpg","","","","","","","","","","","","","","fixation","","","","","",""
"d3-animate-choice","64","290577","0.0-61.0-0.1","202","2130","9","Male","false","false","false","true","""event"",""trial"",""time""
""blur"",""5"",""44564""
""focus"",""5"",""48790""
""fullscreenenter"",""5"",""49763""
","""event"",""trial"",""time""
""blur"",""5"",""44564""
","""event"",""trial"",""time""
""focus"",""5"",""48790""
","""event"",""trial"",""time""
""fullscreenenter"",""5"",""49763""
","
","583.7999999523163","","49","","","3000","1","","","images/earth.jpg","images/tutrocket1","images/tutrocket2","null","images/tutrocket2","","1","practice","null","","","1",""
"d3-animate-choice","65","293313","0.0-61.0-1.1","202","2130","9","Male","false","false","false","true","""event"",""trial"",""time""
""blur"",""5"",""44564""
""focus"",""5"",""48790""
""fullscreenenter"",""5"",""49763""
","""event"",""trial"",""time""
""blur"",""5"",""44564""
","""event"",""trial"",""time""
""focus"",""5"",""48790""
","""event"",""trial"",""time""
""fullscreenenter"",""5"",""49763""
","
","719.5","","49","","","3000","1","2090.600000023842","57","images/tutgreenplanet.jpg","images/tutalien2","images/tutalien1","images/tutrocket2","images/tutalien1","images/nothing.png","2","practice","true","0","2022-06-28 17:49:46.329","1","common"
"two-step-fixation","66","294333","0.0-61.0-2.1","202","2130","9","Male","false","false","false","true","""event"",""trial"",""time""
""blur"",""5"",""44564""
""focus"",""5"",""48790""
""fullscreenenter"",""5"",""49763""
","""event"",""trial"",""time""
""blur"",""5"",""44564""
","""event"",""trial"",""time""
""focus"",""5"",""48790""
","""event"",""trial"",""time""
""fullscreenenter"",""5"",""49763""
","
","","images/earth.jpg","","","","","","","","","","","","","","fixation","","","","","",""
"d3-animate-choice","67","297793","0.0-61.0-0.2","202","2130","9","Male","false","false","false","true","""event"",""trial"",""time""
""blur"",""5"",""44564""
""focus"",""5"",""48790""
""fullscreenenter"",""5"",""49763""
","""event"",""trial"",""time""
""blur"",""5"",""44564""
","""event"",""trial"",""time""
""focus"",""5"",""48790""
","""event"",""trial"",""time""
""fullscreenenter"",""5"",""49763""
","
","609.1999999284744","","57","","","3000","1","1451.1999999284744","49","images/earth.jpg","images/tutrocket1","images/tutrocket2","null","images/tutrocket2","","1","practice","null","","","",""
"d3-animate-choice","68","300323","0.0-61.0-1.2","202","2130","9","Male","false","false","false","true","""event"",""trial"",""time""
""blur"",""5"",""44564""
""focus"",""5"",""48790""
""fullscreenenter"",""5"",""49763""
","""event"",""trial"",""time""
""blur"",""5"",""44564""
","""event"",""trial"",""time""
""focus"",""5"",""48790""
","""event"",""trial"",""time""
""fullscreenenter"",""5"",""49763""
","
","515.7999999523163","","48","","","3000","1","","","images/tutyellowplanet.jpg","images/tutalien4","images/tutalien3","images/tutrocket2","images/tutalien4","images/nothing.png","2","practice","false","0","2022-06-28 17:49:53.339","2","rare"
"two-step-fixation","69","301333","0.0-61.0-2.2","202","2130","9","Male","false","false","false","true","""event"",""trial"",""time""
""blur"",""5"",""44564""
""focus"",""5"",""48790""
""fullscreenenter"",""5"",""49763""
","""event"",""trial"",""time""
""blur"",""5"",""44564""
","""event"",""trial"",""time""
""focus"",""5"",""48790""
","""event"",""trial"",""time""
""fullscreenenter"",""5"",""49763""
","
","","images/earth.jpg","","","","","","","","","","","","","","fixation","","","","","",""
"d3-animate-choice","70","303923","0.0-61.0-0.3","202","2130","9","Male","false","false","false","true","""event"",""trial"",""time""
""blur"",""5"",""44564""
""focus"",""5"",""48790""
""fullscreenenter"",""5"",""49763""
","""event"",""trial"",""time""
""blur"",""5"",""44564""
","""event"",""trial"",""time""
""focus"",""5"",""48790""
","""event"",""trial"",""time""
""fullscreenenter"",""5"",""49763""
","
","576.7999999523163","","49","","","3000","1","","","images/earth.jpg","images/tutrocket1","images/tutrocket2","null","images/tutrocket2","","1","practice","null","","","1",""
"d3-animate-choice","71","306993","0.0-61.0-1.3","202","2130","9","Male","false","false","false","true","""event"",""trial"",""time""
""blur"",""5"",""44564""
""focus"",""5"",""48790""
""fullscreenenter"",""5"",""49763""
","""event"",""trial"",""time""
""blur"",""5"",""44564""
","""event"",""trial"",""time""
""focus"",""5"",""48790""
","""event"",""trial"",""time""
""fullscreenenter"",""5"",""49763""
","
","1049.5","","48","","","3000","1","","","images/tutgreenplanet.jpg","images/tutalien2","images/tutalien1","images/tutrocket2","images/tutalien2","images/nothing.png","2","practice","true","0","2022-06-28 17:50:00.010","2","common"
"two-step-fixation","72","308003","0.0-61.0-2.3","202","2130","9","Male","false","false","false","true","""event"",""trial"",""time""
""blur"",""5"",""44564""
""focus"",""5"",""48790""
""fullscreenenter"",""5"",""49763""
","""event"",""trial"",""time""
""blur"",""5"",""44564""
","""event"",""trial"",""time""
""focus"",""5"",""48790""
","""event"",""trial"",""time""
""fullscreenenter"",""5"",""49763""
","
","","images/earth.jpg","","","","","","","","","","","","","","fixation","","","","","",""
"d3-animate-choice","73","310503","0.0-61.0-0.4","202","2130","9","Male","false","false","false","true","""event"",""trial"",""time""
""blur"",""5"",""44564""
""focus"",""5"",""48790""
""fullscreenenter"",""5"",""49763""
","""event"",""trial"",""time""
""blur"",""5"",""44564""
","""event"",""trial"",""time""
""focus"",""5"",""48790""
","""event"",""trial"",""time""
""fullscreenenter"",""5"",""49763""
","
","480.8000000715256","","49","","","3000","1","","","images/earth.jpg","images/tutrocket1","images/tutrocket2","null","images/tutrocket2","","1","practice","null","","","1",""
"d3-animate-choice","74","313435","0.0-61.0-1.4","202","2130","9","Male","false","false","false","true","""event"",""trial"",""time""
""blur"",""5"",""44564""
""focus"",""5"",""48790""
""fullscreenenter"",""5"",""49763""
","""event"",""trial"",""time""
""blur"",""5"",""44564""
","""event"",""trial"",""time""
""focus"",""5"",""48790""
","""event"",""trial"",""time""
""fullscreenenter"",""5"",""49763""
","
","926.6999999284744","","49","","","3000","1","","","images/tutgreenplanet.jpg","images/tutalien2","images/tutalien1","images/tutrocket2","images/tutalien1","images/t.png","2","practice","true","1","2022-06-28 17:50:06.451","1","common"
"two-step-fixation","75","314447","0.0-61.0-2.4","202","2130","9","Male","false","false","false","true","""event"",""trial"",""time""
""blur"",""5"",""44564""
""focus"",""5"",""48790""
""fullscreenenter"",""5"",""49763""
","""event"",""trial"",""time""
""blur"",""5"",""44564""
","""event"",""trial"",""time""
""focus"",""5"",""48790""
","""event"",""trial"",""time""
""fullscreenenter"",""5"",""49763""
","
","","images/earth.jpg","","","","","","","","","","","","","","fixation","","","","","",""
"d3-animate-choice","76","316940","0.0-61.0-0.5","202","2130","9","Male","false","false","false","true","""event"",""trial"",""time""
""blur"",""5"",""44564""
""focus"",""5"",""48790""
""fullscreenenter"",""5"",""49763""
","""event"",""trial"",""time""
""blur"",""5"",""44564""
","""event"",""trial"",""time""
""focus"",""5"",""48790""
","""event"",""trial"",""time""
""fullscreenenter"",""5"",""49763""
","
","486.40000009536743","","48","","","3000","1","","","images/earth.jpg","images/tutrocket1","images/tutrocket2","null","images/tutrocket1","","1","practice","null","","","2",""
"d3-animate-choice","77","319958","0.0-61.0-1.5","202","2130","9","Male","false","false","false","true","""event"",""trial"",""time""
""blur"",""5"",""44564""
""focus"",""5"",""48790""
""fullscreenenter"",""5"",""49763""
","""event"",""trial"",""time""
""blur"",""5"",""44564""
","""event"",""trial"",""time""
""focus"",""5"",""48790""
","""event"",""trial"",""time""
""fullscreenenter"",""5"",""49763""
","
","1010.8999999761581","","49","","","3000","1","","","images/tutyellowplanet.jpg","images/tutalien4","images/tutalien3","images/tutrocket1","images/tutalien3","images/nothing.png","2","practice","true","0","2022-06-28 17:50:12.974","1","common"
"two-step-fixation","78","320964","0.0-61.0-2.5","202","2130","9","Male","false","false","false","true","""event"",""trial"",""time""
""blur"",""5"",""44564""
""focus"",""5"",""48790""
""fullscreenenter"",""5"",""49763""
","""event"",""trial"",""time""
""blur"",""5"",""44564""
","""event"",""trial"",""time""
""focus"",""5"",""48790""
","""event"",""trial"",""time""
""fullscreenenter"",""5"",""49763""
","
","","images/earth.jpg","","","","","","","","","","","","","","fixation","","","","","",""
"d3-animate-choice","79","323640","0.0-61.0-0.6","202","2130","9","Male","false","false","false","true","""event"",""trial"",""time""
""blur"",""5"",""44564""
""focus"",""5"",""48790""
""fullscreenenter"",""5"",""49763""
","""event"",""trial"",""time""
""blur"",""5"",""44564""
","""event"",""trial"",""time""
""focus"",""5"",""48790""
","""event"",""trial"",""time""
""fullscreenenter"",""5"",""49763""
","
","667.1000000238419","","49","","","3000","1","","","images/earth.jpg","images/tutrocket1","images/tutrocket2","null","images/tutrocket2","","1","practice","null","","","1",""
"d3-animate-choice","80","325740","0.0-61.0-1.6","202","2130","9","Male","false","false","false","true","""event"",""trial"",""time""
""blur"",""5"",""44564""
""focus"",""5"",""48790""
""fullscreenenter"",""5"",""49763""
","""event"",""trial"",""time""
""blur"",""5"",""44564""
","""event"",""trial"",""time""
""focus"",""5"",""48790""
","""event"",""trial"",""time""
""fullscreenenter"",""5"",""49763""
","
","88","","49","","","3000","1","","","images/tutgreenplanet.jpg","images/tutalien2","images/tutalien1","images/tutrocket2","images/tutalien1","images/nothing.png","2","practice","true","0","2022-06-28 17:50:18.756","1","common"
"two-step-fixation","81","326751","0.0-61.0-2.6","202","2130","9","Male","false","false","false","true","""event"",""trial"",""time""
""blur"",""5"",""44564""
""focus"",""5"",""48790""
""fullscreenenter"",""5"",""49763""
","""event"",""trial"",""time""
""blur"",""5"",""44564""
","""event"",""trial"",""time""
""focus"",""5"",""48790""
","""event"",""trial"",""time""
""fullscreenenter"",""5"",""49763""
","
","","images/earth.jpg","","","","","","","","","","","","","","fixation","","","","","",""
"d3-animate-choice","82","328858","0.0-61.0-0.7","202","2130","9","Male","false","false","false","true","""event"",""trial"",""time""
""blur"",""5"",""44564""
""focus"",""5"",""48790""
""fullscreenenter"",""5"",""49763""
","""event"",""trial"",""time""
""blur"",""5"",""44564""
","""event"",""trial"",""time""
""focus"",""5"",""48790""
","""event"",""trial"",""time""
""fullscreenenter"",""5"",""49763""
","
","96.60000002384186","","48","","","3000","1","","","images/earth.jpg","images/tutrocket1","images/tutrocket2","null","images/tutrocket1","","1","practice","null","","","2",""
"d3-animate-choice","83","332873","0.0-61.0-1.7","202","2130","9","Male","false","false","false","true","""event"",""trial"",""time""
""blur"",""5"",""44564""
""focus"",""5"",""48790""
""fullscreenenter"",""5"",""49763""
","""event"",""trial"",""time""
""blur"",""5"",""44564""
","""event"",""trial"",""time""
""focus"",""5"",""48790""
","""event"",""trial"",""time""
""fullscreenenter"",""5"",""49763""
","
","2121.899999976158","","48","","","3000","1","","","images/tutgreenplanet.jpg","images/tutalien2","images/tutalien1","images/tutrocket1","images/tutalien2","images/t.png","2","practice","false","1","2022-06-28 17:50:25.889","2","rare"
"two-step-fixation","84","333890","0.0-61.0-2.7","202","2130","9","Male","false","false","false","true","""event"",""trial"",""time""
""blur"",""5"",""44564""
""focus"",""5"",""48790""
""fullscreenenter"",""5"",""49763""
","""event"",""trial"",""time""
""blur"",""5"",""44564""
","""event"",""trial"",""time""
""focus"",""5"",""48790""
","""event"",""trial"",""time""
""fullscreenenter"",""5"",""49763""
","
","","images/earth.jpg","","","","","","","","","","","","","","fixation","","","","","",""
"d3-animate-choice","85","336155","0.0-61.0-0.8","202","2130","9","Male","false","false","false","true","""event"",""trial"",""time""
""blur"",""5"",""44564""
""focus"",""5"",""48790""
""fullscreenenter"",""5"",""49763""
","""event"",""trial"",""time""
""blur"",""5"",""44564""
","""event"",""trial"",""time""
""focus"",""5"",""48790""
","""event"",""trial"",""time""
""fullscreenenter"",""5"",""49763""
","
","255","","49","","","3000","1","","","images/earth.jpg","images/tutrocket1","images/tutrocket2","null","images/tutrocket2","","1","practice","null","","","1",""
"d3-animate-choice","86","338891","0.0-61.0-1.8","202","2130","9","Male","false","false","false","true","""event"",""trial"",""time""
""blur"",""5"",""44564""
""focus"",""5"",""48790""
""fullscreenenter"",""5"",""49763""
","""event"",""trial"",""time""
""blur"",""5"",""44564""
","""event"",""trial"",""time""
""focus"",""5"",""48790""
","""event"",""trial"",""time""
""fullscreenenter"",""5"",""49763""
","
","724.1000000238419","","48","","","3000","1","","","images/tutgreenplanet.jpg","images/tutalien2","images/tutalien1","images/tutrocket2","images/tutalien2","images/nothing.png","2","practice","true","0","2022-06-28 17:50:31.907","2","common"
"two-step-fixation","87","339904","0.0-61.0-2.8","202","2130","9","Male","false","false","false","true","""event"",""trial"",""time""
""blur"",""5"",""44564""
""focus"",""5"",""48790""
""fullscreenenter"",""5"",""49763""
","""event"",""trial"",""time""
""blur"",""5"",""44564""
","""event"",""trial"",""time""
""focus"",""5"",""48790""
","""event"",""trial"",""time""
""fullscreenenter"",""5"",""49763""
","
","","images/earth.jpg","","","","","","","","","","","","","","fixation","","","","","",""
"d3-animate-choice","88","341994","0.0-61.0-0.9","202","2130","9","Male","false","false","false","true","""event"",""trial"",""time""
""blur"",""5"",""44564""
""focus"",""5"",""48790""
""fullscreenenter"",""5"",""49763""
","""event"",""trial"",""time""
""blur"",""5"",""44564""
","""event"",""trial"",""time""
""focus"",""5"",""48790""
","""event"",""trial"",""time""
""fullscreenenter"",""5"",""49763""
","
","77.29999995231628","","48","","","3000","1","","","images/earth.jpg","images/tutrocket1","images/tutrocket2","null","images/tutrocket1","","1","practice","null","","","2",""
"d3-animate-choice","89","344458","0.0-61.0-1.9","202","2130","9","Male","false","false","false","true","""event"",""trial"",""time""
""blur"",""5"",""44564""
""focus"",""5"",""48790""
""fullscreenenter"",""5"",""49763""
","""event"",""trial"",""time""
""blur"",""5"",""44564""
","""event"",""trial"",""time""
""focus"",""5"",""48790""
","""event"",""trial"",""time""
""fullscreenenter"",""5"",""49763""
","
","453.60000002384186","","49","","","3000","1","","","images/tutyellowplanet.jpg","images/tutalien4","images/tutalien3","images/tutrocket1","images/tutalien3","images/t.png","2","practice","true","1","2022-06-28 17:50:37.474","1","common"
"two-step-fixation","90","345471","0.0-61.0-2.9","202","2130","9","Male","false","false","false","true","""event"",""trial"",""time""
""blur"",""5"",""44564""
""focus"",""5"",""48790""
""fullscreenenter"",""5"",""49763""
","""event"",""trial"",""time""
""blur"",""5"",""44564""
","""event"",""trial"",""time""
""focus"",""5"",""48790""
","""event"",""trial"",""time""
""fullscreenenter"",""5"",""49763""
","
","","images/earth.jpg","","","","","","","","","","","","","","fixation","","","","","",""
"d3-animate-choice","91","347905","0.0-61.0-0.10","202","2130","9","Male","false","false","false","true","""event"",""trial"",""time""
""blur"",""5"",""44564""
""focus"",""5"",""48790""
""fullscreenenter"",""5"",""49763""
","""event"",""trial"",""time""
""blur"",""5"",""44564""
","""event"",""trial"",""time""
""focus"",""5"",""48790""
","""event"",""trial"",""time""
""fullscreenenter"",""5"",""49763""
","
","428.10000002384186","","48","","","3000","1","2300.100000023842","48","images/earth.jpg","images/tutrocket1","images/tutrocket2","null","images/tutrocket1","","1","practice","null","","","2",""
"d3-animate-choice","92","350191","0.0-61.0-1.10","202","2130","9","Male","false","false","false","true","""event"",""trial"",""time""
""blur"",""5"",""44564""
""focus"",""5"",""48790""
""fullscreenenter"",""5"",""49763""
","""event"",""trial"",""time""
""blur"",""5"",""44564""
","""event"",""trial"",""time""
""focus"",""5"",""48790""
","""event"",""trial"",""time""
""fullscreenenter"",""5"",""49763""
","
","277.2000000476837","","48","","","3000","1","568,1070.4000000953674","48,48","images/tutyellowplanet.jpg","images/tutalien4","images/tutalien3","images/tutrocket1","images/tutalien4","images/nothing.png","2","practice","true","0","2022-06-28 17:50:43.207","2","common"
"two-step-fixation","93","351200","0.0-61.0-2.10","202","2130","9","Male","false","false","false","true","""event"",""trial"",""time""
""blur"",""5"",""44564""
""focus"",""5"",""48790""
""fullscreenenter"",""5"",""49763""
","""event"",""trial"",""time""
""blur"",""5"",""44564""
","""event"",""trial"",""time""
""focus"",""5"",""48790""
","""event"",""trial"",""time""
""fullscreenenter"",""5"",""49763""
","
","","images/earth.jpg","","","","","","","","","","","","","","fixation","","","","","",""
"d3-animate-choice","94","353592","0.0-61.0-0.11","202","2130","9","Male","false","false","false","true","""event"",""trial"",""time""
""blur"",""5"",""44564""
""focus"",""5"",""48790""
""fullscreenenter"",""5"",""49763""
","""event"",""trial"",""time""
""blur"",""5"",""44564""
","""event"",""trial"",""time""
""focus"",""5"",""48790""
","""event"",""trial"",""time""
""fullscreenenter"",""5"",""49763""
","
","379.2000000476837","","49","","","3000","1","735.8000000715256","49","images/earth.jpg","images/tutrocket1","images/tutrocket2","null","images/tutrocket2","","1","practice","null","","","1",""
"d3-animate-choice","95","356374","0.0-61.0-1.11","202","2130","9","Male","false","false","false","true","""event"",""trial"",""time""
""blur"",""5"",""44564""
""focus"",""5"",""48790""
""fullscreenenter"",""5"",""49763""
","""event"",""trial"",""time""
""blur"",""5"",""44564""
","""event"",""trial"",""time""
""focus"",""5"",""48790""
","""event"",""trial"",""time""
""fullscreenenter"",""5"",""49763""
","
","775.3999999761581","","48","","","3000","1","","","images/tutyellowplanet.jpg","images/tutalien4","images/tutalien3","images/tutrocket2","images/tutalien4","images/t.png","2","practice","false","1","2022-06-28 17:50:49.390","2","rare"
"two-step-fixation","96","357386","0.0-61.0-2.11","202","2130","9","Male","false","false","false","true","""event"",""trial"",""time""
""blur"",""5"",""44564""
""focus"",""5"",""48790""
""fullscreenenter"",""5"",""49763""
","""event"",""trial"",""time""
""blur"",""5"",""44564""
","""event"",""trial"",""time""
""focus"",""5"",""48790""
","""event"",""trial"",""time""
""fullscreenenter"",""5"",""49763""
","
","","images/earth.jpg","","","","","","","","","","","","","","fixation","","","","","",""
"d3-animate-choice","97","359681","0.0-61.0-0.12","202","2130","9","Male","false","false","false","true","""event"",""trial"",""time""
""blur"",""5"",""44564""
""focus"",""5"",""48790""
""fullscreenenter"",""5"",""49763""
","""event"",""trial"",""time""
""blur"",""5"",""44564""
","""event"",""trial"",""time""
""focus"",""5"",""48790""
","""event"",""trial"",""time""
""fullscreenenter"",""5"",""49763""
","
","289.5","","48","","","3000","1","","","images/earth.jpg","images/tutrocket1","images/tutrocket2","null","images/tutrocket1","","1","practice","null","","","2",""
"d3-animate-choice","98","362287","0.0-61.0-1.12","202","2130","9","Male","false","false","false","true","""event"",""trial"",""time""
""blur"",""5"",""44564""
""focus"",""5"",""48790""
""fullscreenenter"",""5"",""49763""
","""event"",""trial"",""time""
""blur"",""5"",""44564""
","""event"",""trial"",""time""
""focus"",""5"",""48790""
","""event"",""trial"",""time""
""fullscreenenter"",""5"",""49763""
","
","601.2000000476837","","49","","","3000","1","","","images/tutyellowplanet.jpg","images/tutalien4","images/tutalien3","images/tutrocket1","images/tutalien3","images/nothing.png","2","practice","true","0","2022-06-28 17:50:55.304","1","common"
"two-step-fixation","99","363299","0.0-61.0-2.12","202","2130","9","Male","false","false","false","true","""event"",""trial"",""time""
""blur"",""5"",""44564""
""focus"",""5"",""48790""
""fullscreenenter"",""5"",""49763""
","""event"",""trial"",""time""
""blur"",""5"",""44564""
","""event"",""trial"",""time""
""focus"",""5"",""48790""
","""event"",""trial"",""time""
""fullscreenenter"",""5"",""49763""
","
","","images/earth.jpg","","","","","","","","","","","","","","fixation","","","","","",""
"d3-animate-choice","100","365733","0.0-61.0-0.13","202","2130","9","Male","false","false","false","true","""event"",""trial"",""time""
""blur"",""5"",""44564""
""focus"",""5"",""48790""
""fullscreenenter"",""5"",""49763""
","""event"",""trial"",""time""
""blur"",""5"",""44564""
","""event"",""trial"",""time""
""focus"",""5"",""48790""
","""event"",""trial"",""time""
""fullscreenenter"",""5"",""49763""
","
","428.89999997615814","","48","","","3000","1","","","images/earth.jpg","images/tutrocket1","images/tutrocket2","null","images/tutrocket1","","1","practice","null","","","2",""
"d3-animate-choice","101","368988","0.0-61.0-1.13","202","2130","9","Male","false","false","false","true","""event"",""trial"",""time""
""blur"",""5"",""44564""
""focus"",""5"",""48790""
""fullscreenenter"",""5"",""49763""
","""event"",""trial"",""time""
""blur"",""5"",""44564""
","""event"",""trial"",""time""
""focus"",""5"",""48790""
","""event"",""trial"",""time""
""fullscreenenter"",""5"",""49763""
","
","1249.8000000715256","","48","","","3000","1","","","images/tutgreenplanet.jpg","images/tutalien2","images/tutalien1","images/tutrocket1","images/tutalien2","images/nothing.png","2","practice","false","0","2022-06-28 17:51:02.004","2","rare"
"two-step-fixation","102","369999","0.0-61.0-2.13","202","2130","9","Male","false","false","false","true","""event"",""trial"",""time""
""blur"",""5"",""44564""
""focus"",""5"",""48790""
""fullscreenenter"",""5"",""49763""
","""event"",""trial"",""time""
""blur"",""5"",""44564""
","""event"",""trial"",""time""
""focus"",""5"",""48790""
","""event"",""trial"",""time""
""fullscreenenter"",""5"",""49763""
","
","","images/earth.jpg","","","","","","","","","","","","","","fixation","","","","","",""
"d3-animate-choice","103","372158","0.0-61.0-0.14","202","2130","9","Male","false","false","false","true","""event"",""trial"",""time""
""blur"",""5"",""44564""
""focus"",""5"",""48790""
""fullscreenenter"",""5"",""49763""
","""event"",""trial"",""time""
""blur"",""5"",""44564""
","""event"",""trial"",""time""
""focus"",""5"",""48790""
","""event"",""trial"",""time""
""fullscreenenter"",""5"",""49763""
","
","151.30000007152557","","49","","","3000","1","","","images/earth.jpg","images/tutrocket1","images/tutrocket2","null","images/tutrocket2","","1","practice","null","","","1",""
"d3-animate-choice","104","374965","0.0-61.0-1.14","202","2130","9","Male","false","false","false","true","""event"",""trial"",""time""
""blur"",""5"",""44564""
""focus"",""5"",""48790""
""fullscreenenter"",""5"",""49763""
","""event"",""trial"",""time""
""blur"",""5"",""44564""
","""event"",""trial"",""time""
""focus"",""5"",""48790""
","""event"",""trial"",""time""
""fullscreenenter"",""5"",""49763""
","
","795","","48","","","3000","1","","","images/tutgreenplanet.jpg","images/tutalien2","images/tutalien1","images/tutrocket2","images/tutalien2","images/t.png","2","practice","true","1","2022-06-28 17:51:07.981","2","common"
"two-step-fixation","105","375971","0.0-61.0-2.14","202","2130","9","Male","false","false","false","true","""event"",""trial"",""time""
""blur"",""5"",""44564""
""focus"",""5"",""48790""
""fullscreenenter"",""5"",""49763""
","""event"",""trial"",""time""
""blur"",""5"",""44564""
","""event"",""trial"",""time""
""focus"",""5"",""48790""
","""event"",""trial"",""time""
""fullscreenenter"",""5"",""49763""
","
","","images/earth.jpg","","","","","","","","","","","","","","fixation","","","","","",""
"d3-animate-choice","106","378474","0.0-61.0-0.15","202","2130","9","Male","false","false","false","true","""event"",""trial"",""time""
""blur"",""5"",""44564""
""focus"",""5"",""48790""
""fullscreenenter"",""5"",""49763""
","""event"",""trial"",""time""
""blur"",""5"",""44564""
","""event"",""trial"",""time""
""focus"",""5"",""48790""
","""event"",""trial"",""time""
""fullscreenenter"",""5"",""49763""
","
","492.09999990463257","","49","","","3000","1","","","images/earth.jpg","images/tutrocket1","images/tutrocket2","null","images/tutrocket2","","1","practice","null","","","1",""
"d3-animate-choice","107","381085","0.0-61.0-1.15","202","2130","9","Male","false","false","false","true","""event"",""trial"",""time""
""blur"",""5"",""44564""
""focus"",""5"",""48790""
""fullscreenenter"",""5"",""49763""
","""event"",""trial"",""time""
""blur"",""5"",""44564""
","""event"",""trial"",""time""
""focus"",""5"",""48790""
","""event"",""trial"",""time""
""fullscreenenter"",""5"",""49763""
","
","601.1000000238419","","49","","","3000","1","","","images/tutgreenplanet.jpg","images/tutalien2","images/tutalien1","images/tutrocket2","images/tutalien1","images/t.png","2","practice","true","1","2022-06-28 17:51:14.101","1","common"
"two-step-fixation","108","382099","0.0-61.0-2.15","202","2130","9","Male","false","false","false","true","""event"",""trial"",""time""
""blur"",""5"",""44564""
""focus"",""5"",""48790""
""fullscreenenter"",""5"",""49763""
","""event"",""trial"",""time""
""blur"",""5"",""44564""
","""event"",""trial"",""time""
""focus"",""5"",""48790""
","""event"",""trial"",""time""
""fullscreenenter"",""5"",""49763""
","
","","images/earth.jpg","","","","","","","","","","","","","","fixation","","","","","",""
"d3-animate-choice","109","384253","0.0-61.0-0.16","202","2130","9","Male","false","false","false","true","""event"",""trial"",""time""
""blur"",""5"",""44564""
""focus"",""5"",""48790""
""fullscreenenter"",""5"",""49763""
","""event"",""trial"",""time""
""blur"",""5"",""44564""
","""event"",""trial"",""time""
""focus"",""5"",""48790""
","""event"",""trial"",""time""
""fullscreenenter"",""5"",""49763""
","
","146.60000002384186","","49","","","3000","1","","","images/earth.jpg","images/tutrocket1","images/tutrocket2","null","images/tutrocket2","","1","practice","null","","","1",""
"d3-animate-choice","110","387176","0.0-61.0-1.16","202","2130","9","Male","false","false","false","true","""event"",""trial"",""time""
""blur"",""5"",""44564""
""focus"",""5"",""48790""
""fullscreenenter"",""5"",""49763""
","""event"",""trial"",""time""
""blur"",""5"",""44564""
","""event"",""trial"",""time""
""focus"",""5"",""48790""
","""event"",""trial"",""time""
""fullscreenenter"",""5"",""49763""
","
","916.7999999523163","","49","","","3000","1","","","images/tutgreenplanet.jpg","images/tutalien2","images/tutalien1","images/tutrocket2","images/tutalien1","images/nothing.png","2","practice","true","0","2022-06-28 17:51:20.192","1","common"
"two-step-fixation","111","388189","0.0-61.0-2.16","202","2130","9","Male","false","false","false","true","""event"",""trial"",""time""
""blur"",""5"",""44564""
""focus"",""5"",""48790""
""fullscreenenter"",""5"",""49763""
","""event"",""trial"",""time""
""blur"",""5"",""44564""
","""event"",""trial"",""time""
""focus"",""5"",""48790""
","""event"",""trial"",""time""
""fullscreenenter"",""5"",""49763""
","
","","images/earth.jpg","","","","","","","","","","","","","","fixation","","","","","",""
"d3-animate-choice","112","391612","0.0-61.0-0.17","202","2130","9","Male","false","false","false","true","""event"",""trial"",""time""
""blur"",""5"",""44564""
""focus"",""5"",""48790""
""fullscreenenter"",""5"",""49763""
","""event"",""trial"",""time""
""blur"",""5"",""44564""
","""event"",""trial"",""time""
""focus"",""5"",""48790""
","""event"",""trial"",""time""
""fullscreenenter"",""5"",""49763""
","
","1412.2999999523163","","49","","","3000","1","","","images/earth.jpg","images/tutrocket1","images/tutrocket2","null","images/tutrocket2","","1","practice","null","","","1",""
"d3-animate-choice","113","394430","0.0-61.0-1.17","202","2130","9","Male","false","false","false","true","""event"",""trial"",""time""
""blur"",""5"",""44564""
""focus"",""5"",""48790""
""fullscreenenter"",""5"",""49763""
","""event"",""trial"",""time""
""blur"",""5"",""44564""
","""event"",""trial"",""time""
""focus"",""5"",""48790""
","""event"",""trial"",""time""
""fullscreenenter"",""5"",""49763""
","
","806.9000000953674","","48","","","3000","1","","","images/tutyellowplanet.jpg","images/tutalien4","images/tutalien3","images/tutrocket2","images/tutalien4","images/nothing.png","2","practice","false","0","2022-06-28 17:51:27.446","2","rare"
"two-step-fixation","114","395438","0.0-61.0-2.17","202","2130","9","Male","false","false","false","true","""event"",""trial"",""time""
""blur"",""5"",""44564""
""focus"",""5"",""48790""
""fullscreenenter"",""5"",""49763""
","""event"",""trial"",""time""
""blur"",""5"",""44564""
","""event"",""trial"",""time""
""focus"",""5"",""48790""
","""event"",""trial"",""time""
""fullscreenenter"",""5"",""49763""
","
","","images/earth.jpg","","","","","","","","","","","","","","fixation","","","","","",""
"d3-animate-choice","115","398049","0.0-61.0-0.18","202","2130","9","Male","false","false","false","true","""event"",""trial"",""time""
""blur"",""5"",""44564""
""focus"",""5"",""48790""
""fullscreenenter"",""5"",""49763""
","""event"",""trial"",""time""
""blur"",""5"",""44564""
","""event"",""trial"",""time""
""focus"",""5"",""48790""
","""event"",""trial"",""time""
""fullscreenenter"",""5"",""49763""
","
","592.3999999761581","","49","","","3000","1","","","images/earth.jpg","images/tutrocket1","images/tutrocket2","null","images/tutrocket2","","1","practice","null","","","1",""
"d3-animate-choice","116","400816","0.0-61.0-1.18","202","2130","9","Male","false","false","false","true","""event"",""trial"",""time""
""blur"",""5"",""44564""
""focus"",""5"",""48790""
""fullscreenenter"",""5"",""49763""
","""event"",""trial"",""time""
""blur"",""5"",""44564""
","""event"",""trial"",""time""
""focus"",""5"",""48790""
","""event"",""trial"",""time""
""fullscreenenter"",""5"",""49763""
","
","753.1000000238419","","49","","","3000","1","","","images/tutgreenplanet.jpg","images/tutalien2","images/tutalien1","images/tutrocket2","images/tutalien1","images/nothing.png","2","practice","true","0","2022-06-28 17:51:33.832","1","common"
"two-step-fixation","117","401822","0.0-61.0-2.18","202","2130","9","Male","false","false","false","true","""event"",""trial"",""time""
""blur"",""5"",""44564""
""focus"",""5"",""48790""
""fullscreenenter"",""5"",""49763""
","""event"",""trial"",""time""
""blur"",""5"",""44564""
","""event"",""trial"",""time""
""focus"",""5"",""48790""
","""event"",""trial"",""time""
""fullscreenenter"",""5"",""49763""
","
","","images/earth.jpg","","","","","","","","","","","","","","fixation","","","","","",""
"d3-animate-choice","118","405477","0.0-61.0-0.19","202","2130","9","Male","false","false","false","true","""event"",""trial"",""time""
""blur"",""5"",""44564""
""focus"",""5"",""48790""
""fullscreenenter"",""5"",""49763""
","""event"",""trial"",""time""
""blur"",""5"",""44564""
","""event"",""trial"",""time""
""focus"",""5"",""48790""
","""event"",""trial"",""time""
""fullscreenenter"",""5"",""49763""
","
","1644.5","","48","","","3000","1","","","images/earth.jpg","images/tutrocket1","images/tutrocket2","null","images/tutrocket1","","1","practice","null","","","2",""
"d3-animate-choice","119","409494","0.0-61.0-1.19","202","2130","9","Male","false","false","false","true","""event"",""trial"",""time""
""blur"",""5"",""44564""
""focus"",""5"",""48790""
""fullscreenenter"",""5"",""49763""
","""event"",""trial"",""time""
""blur"",""5"",""44564""
","""event"",""trial"",""time""
""focus"",""5"",""48790""
","""event"",""trial"",""time""
""fullscreenenter"",""5"",""49763""
","
","2505.8000000715256","","49","","","3000","1","","","images/tutyellowplanet.jpg","images/tutalien4","images/tutalien3","images/tutrocket1","images/tutalien3","images/nothing.png","2","practice","true","0","2022-06-28 17:51:42.510","1","common"
"two-step-fixation","120","410500","0.0-61.0-2.19","202","2130","9","Male","false","false","false","true","""event"",""trial"",""time""
""blur"",""5"",""44564""
""focus"",""5"",""48790""
""fullscreenenter"",""5"",""49763""
","""event"",""trial"",""time""
""blur"",""5"",""44564""
","""event"",""trial"",""time""
""focus"",""5"",""48790""
","""event"",""trial"",""time""
""fullscreenenter"",""5"",""49763""
","
","","images/earth.jpg","","","","","","","","","","","","","","fixation","","","","","",""
"d3-instructions","121","415530","0.0-62.0","202","2130","9","Male","false","false","false","true","""event"",""trial"",""time""
""blur"",""5"",""44564""
""focus"",""5"",""48790""
""fullscreenenter"",""5"",""49763""
","""event"",""trial"",""time""
""blur"",""5"",""44564""
","""event"",""trial"",""time""
""focus"",""5"",""48790""
","""event"",""trial"",""time""
""fullscreenenter"",""5"",""49763""
","
","","","","","","","","","","","","","","","","","","","","","",""
"audio-keyboard-response","122","418433","0.0-63.0","202","2130","9","Male","false","false","false","true","""event"",""trial"",""time""
""blur"",""5"",""44564""
""focus"",""5"",""48790""
""fullscreenenter"",""5"",""49763""
","""event"",""trial"",""time""
""blur"",""5"",""44564""
","""event"",""trial"",""time""
""focus"",""5"",""48790""
","""event"",""trial"",""time""
""fullscreenenter"",""5"",""49763""
","
","2901","audio/instructions/treasure_feedback.wav","32","","","","","","","","","","","","","","","","","","",""
"d3-instructions","123","421886","0.0-64.0","202","2130","9","Male","false","false","false","true","""event"",""trial"",""time""
""blur"",""5"",""44564""
""focus"",""5"",""48790""
""fullscreenenter"",""5"",""49763""
","""event"",""trial"",""time""
""blur"",""5"",""44564""
","""event"",""trial"",""time""
""focus"",""5"",""48790""
","""event"",""trial"",""time""
""fullscreenenter"",""5"",""49763""
","
","","","","","","","","","","","","","","","","","","","","","",""
"d3-instructions","124","422524","0.0-65.0","202","2130","9","Male","false","false","false","true","""event"",""trial"",""time""
""blur"",""5"",""44564""
""focus"",""5"",""48790""
""fullscreenenter"",""5"",""49763""
","""event"",""trial"",""time""
""blur"",""5"",""44564""
","""event"",""trial"",""time""
""focus"",""5"",""48790""
","""event"",""trial"",""time""
""fullscreenenter"",""5"",""49763""
","
","","","","","","","","","","","","","","","","","","","","","",""
"d3-instructions","125","422828","0.0-66.0","202","2130","9","Male","false","false","false","true","""event"",""trial"",""time""
""blur"",""5"",""44564""
""focus"",""5"",""48790""
""fullscreenenter"",""5"",""49763""
","""event"",""trial"",""time""
""blur"",""5"",""44564""
","""event"",""trial"",""time""
""focus"",""5"",""48790""
","""event"",""trial"",""time""
""fullscreenenter"",""5"",""49763""
","
","","","","","","","","","","","","","","","","","","","","","",""
"d3-instructions","126","423251","0.0-67.0","202","2130","9","Male","false","false","false","true","""event"",""trial"",""time""
""blur"",""5"",""44564""
""focus"",""5"",""48790""
""fullscreenenter"",""5"",""49763""
","""event"",""trial"",""time""
""blur"",""5"",""44564""
","""event"",""trial"",""time""
""focus"",""5"",""48790""
","""event"",""trial"",""time""
""fullscreenenter"",""5"",""49763""
","
","","","","","","","","","","","","","","","","","","","","","",""
"d3-instructions","127","424436","0.0-68.0","202","2130","9","Male","false","false","false","true","""event"",""trial"",""time""
""blur"",""5"",""44564""
""focus"",""5"",""48790""
""fullscreenenter"",""5"",""49763""
","""event"",""trial"",""time""
""blur"",""5"",""44564""
","""event"",""trial"",""time""
""focus"",""5"",""48790""
","""event"",""trial"",""time""
""fullscreenenter"",""5"",""49763""
","
","","","","","","","","","","","","","","","","","","","","","",""
"instructions-quiz","128","429848","0.0-69.0","202","2130","9","Male","false","false","false","true","""event"",""trial"",""time""
""blur"",""5"",""44564""
""focus"",""5"",""48790""
""fullscreenenter"",""5"",""49763""
","""event"",""trial"",""time""
""blur"",""5"",""44564""
","""event"",""trial"",""time""
""focus"",""5"",""48790""
","""event"",""trial"",""time""
""fullscreenenter"",""5"",""49763""
","
","5410.5","audio/quiz/Q1_Prompt.wav","","1","","","","","","","","","","","","","","","","","",""
"audio-keyboard-response","129","432853","0.0-70.0","202","2130","9","Male","false","false","false","true","""event"",""trial"",""time""
""blur"",""5"",""44564""
""focus"",""5"",""48790""
""fullscreenenter"",""5"",""49763""
","""event"",""trial"",""time""
""blur"",""5"",""44564""
","""event"",""trial"",""time""
""focus"",""5"",""48790""
","""event"",""trial"",""time""
""fullscreenenter"",""5"",""49763""
","
","3000","audio/quiz/Q1_Correct.wav","32","","","","","","","","","","","","","","","","","","",""
"instructions-quiz","130","442438","0.0-71.0","202","2130","9","Male","false","false","false","true","""event"",""trial"",""time""
""blur"",""5"",""44564""
""focus"",""5"",""48790""
""fullscreenenter"",""5"",""49763""
","""event"",""trial"",""time""
""blur"",""5"",""44564""
","""event"",""trial"",""time""
""focus"",""5"",""48790""
","""event"",""trial"",""time""
""fullscreenenter"",""5"",""49763""
","
","9582.5","audio/quiz/Q2_Prompt.wav","","1","","","","","","","","","","","","","","","","","",""
"audio-keyboard-response","131","445692","0.0-72.0","202","2130","9","Male","false","false","false","true","""event"",""trial"",""time""
""blur"",""5"",""44564""
""focus"",""5"",""48790""
""fullscreenenter"",""5"",""49763""
","""event"",""trial"",""time""
""blur"",""5"",""44564""
","""event"",""trial"",""time""
""focus"",""5"",""48790""
","""event"",""trial"",""time""
""fullscreenenter"",""5"",""49763""
","
","3251","audio/quiz/Q2_Incorrect.wav","32","","","","","","","","","","","","","","","","","","",""
"instructions-quiz","132","449422","0.0-73.0","202","2130","9","Male","false","false","false","true","""event"",""trial"",""time""
""blur"",""5"",""44564""
""focus"",""5"",""48790""
""fullscreenenter"",""5"",""49763""
","""event"",""trial"",""time""
""blur"",""5"",""44564""
","""event"",""trial"",""time""
""focus"",""5"",""48790""
","""event"",""trial"",""time""
""fullscreenenter"",""5"",""49763""
","
","3729.100000023842","audio/quiz/Q3_Prompt.wav","","1","","","","","","","","","","","","","","","","","",""
"audio-keyboard-response","133","451938","0.0-74.0","202","2130","9","Male","false","false","false","true","""event"",""trial"",""time""
""blur"",""5"",""44564""
""focus"",""5"",""48790""
""fullscreenenter"",""5"",""49763""
","""event"",""trial"",""time""
""blur"",""5"",""44564""
","""event"",""trial"",""time""
""focus"",""5"",""48790""
","""event"",""trial"",""time""
""fullscreenenter"",""5"",""49763""
","
","2509","audio/quiz/Q3_Correct.wav","32","","","","","","","","","","","","","","","","","","",""
"d3-instructions","134","454277","0.0-75.0","202","2130","9","Male","false","false","false","true","""event"",""trial"",""time""
""blur"",""5"",""44564""
""focus"",""5"",""48790""
""fullscreenenter"",""5"",""49763""
","""event"",""trial"",""time""
""blur"",""5"",""44564""
","""event"",""trial"",""time""
""focus"",""5"",""48790""
","""event"",""trial"",""time""
""fullscreenenter"",""5"",""49763""
","
","","","","","","","","","","","","","","","","","","","","","",""
"d3-animate-choice","135","457748","0.0-76.0-0.0","202","2130","9","Male","false","false","false","true","""event"",""trial"",""time""
""blur"",""5"",""44564""
""focus"",""5"",""48790""
""fullscreenenter"",""5"",""49763""
","""event"",""trial"",""time""
""blur"",""5"",""44564""
","""event"",""trial"",""time""
""focus"",""5"",""48790""
","""event"",""trial"",""time""
""fullscreenenter"",""5"",""49763""
","
","1463.5","","48","","","3000","1","","","images/earth.jpg","images/rocket1","images/rocket2","null","images/rocket1","","1","real","null","","","2",""
"d3-animate-choice","136","460538","0.0-76.0-1.0","202","2130","9","Male","false","false","false","true","""event"",""trial"",""time""
""blur"",""5"",""44564""
""focus"",""5"",""48790""
""fullscreenenter"",""5"",""49763""
","""event"",""trial"",""time""
""blur"",""5"",""44564""
","""event"",""trial"",""time""
""focus"",""5"",""48790""
","""event"",""trial"",""time""
""fullscreenenter"",""5"",""49763""
","
","768","","49","","","3000","1","","","images/purpleplanet.jpg","images/alien4","images/alien3","images/rocket1","images/alien3","images/nothing.png","2","real","true","0","2022-06-28 17:52:33.554","1","common"
"two-step-fixation","137","461548","0.0-76.0-2.0","202","2130","9","Male","false","false","false","true","""event"",""trial"",""time""
""blur"",""5"",""44564""
""focus"",""5"",""48790""
""fullscreenenter"",""5"",""49763""
","""event"",""trial"",""time""
""blur"",""5"",""44564""
","""event"",""trial"",""time""
""focus"",""5"",""48790""
","""event"",""trial"",""time""
""fullscreenenter"",""5"",""49763""
","
","","images/earth.jpg","","","","","","","","","","","","","","fixation","","","","","",""
"d3-animate-choice","138","463704","0.0-76.0-0.1","202","2130","9","Male","false","false","false","true","""event"",""trial"",""time""
""blur"",""5"",""44564""
""focus"",""5"",""48790""
""fullscreenenter"",""5"",""49763""
","""event"",""trial"",""time""
""blur"",""5"",""44564""
","""event"",""trial"",""time""
""focus"",""5"",""48790""
","""event"",""trial"",""time""
""fullscreenenter"",""5"",""49763""
","
","150.89999997615814","","48","","","3000","1","","","images/earth.jpg","images/rocket1","images/rocket2","null","images/rocket1","","1","real","null","","","2",""
"d3-animate-choice","139","466668","0.0-76.0-1.1","202","2130","9","Male","false","false","false","true","""event"",""trial"",""time""
""blur"",""5"",""44564""
""focus"",""5"",""48790""
""fullscreenenter"",""5"",""49763""
","""event"",""trial"",""time""
""blur"",""5"",""44564""
","""event"",""trial"",""time""
""focus"",""5"",""48790""
","""event"",""trial"",""time""
""fullscreenenter"",""5"",""49763""
","
","953.1999999284744","","49","","","3000","1","","","images/purpleplanet.jpg","images/alien4","images/alien3","images/rocket1","images/alien3","images/t.png","2","real","true","1","2022-06-28 17:52:39.684","1","common"
"two-step-fixation","140","467677","0.0-76.0-2.1","202","2130","9","Male","false","false","false","true","""event"",""trial"",""time""
""blur"",""5"",""44564""
""focus"",""5"",""48790""
""fullscreenenter"",""5"",""49763""
","""event"",""trial"",""time""
""blur"",""5"",""44564""
","""event"",""trial"",""time""
""focus"",""5"",""48790""
","""event"",""trial"",""time""
""fullscreenenter"",""5"",""49763""
","
","","images/earth.jpg","","","","","","","","","","","","","","fixation","","","","","",""
"d3-animate-choice","141","470368","0.0-76.0-0.2","202","2130","9","Male","false","false","false","true","""event"",""trial"",""time""
""blur"",""5"",""44564""
""focus"",""5"",""48790""
""fullscreenenter"",""5"",""49763""
","""event"",""trial"",""time""
""blur"",""5"",""44564""
","""event"",""trial"",""time""
""focus"",""5"",""48790""
","""event"",""trial"",""time""
""fullscreenenter"",""5"",""49763""
","
","679.8999999761581","","49","","","3000","1","","","images/earth.jpg","images/rocket1","images/rocket2","null","images/rocket2","","1","real","null","","","1",""
"d3-animate-choice","142","473407","0.0-76.0-1.2","202","2130","9","Male","false","false","false","true","""event"",""trial"",""time""
""blur"",""5"",""44564""
""focus"",""5"",""48790""
""fullscreenenter"",""5"",""49763""
","""event"",""trial"",""time""
""blur"",""5"",""44564""
","""event"",""trial"",""time""
""focus"",""5"",""48790""
","""event"",""trial"",""time""
""fullscreenenter"",""5"",""49763""
","
","1031.1999999284744","","49","","","3000","1","","","images/redplanet1.jpg","images/alien2","images/alien1","images/rocket2","images/alien1","images/t.png","2","real","true","1","2022-06-28 17:52:46.423","1","common"
"two-step-fixation","143","474415","0.0-76.0-2.2","202","2130","9","Male","false","false","false","true","""event"",""trial"",""time""
""blur"",""5"",""44564""
""focus"",""5"",""48790""
""fullscreenenter"",""5"",""49763""
","""event"",""trial"",""time""
""blur"",""5"",""44564""
","""event"",""trial"",""time""
""focus"",""5"",""48790""
","""event"",""trial"",""time""
""fullscreenenter"",""5"",""49763""
","
","","images/earth.jpg","","","","","","","","","","","","","","fixation","","","","","",""
"d3-animate-choice","144","477027","0.0-76.0-0.3","202","2130","9","Male","false","false","false","true","""event"",""trial"",""time""
""blur"",""5"",""44564""
""focus"",""5"",""48790""
""fullscreenenter"",""5"",""49763""
","""event"",""trial"",""time""
""blur"",""5"",""44564""
","""event"",""trial"",""time""
""focus"",""5"",""48790""
","""event"",""trial"",""time""
""fullscreenenter"",""5"",""49763""
","
","601.5","","48","","","3000","1","","","images/earth.jpg","images/rocket1","images/rocket2","null","images/rocket1","","1","real","null","","","2",""
"d3-animate-choice","145","479538","0.0-76.0-1.3","202","2130","9","Male","false","false","false","true","""event"",""trial"",""time""
""blur"",""5"",""44564""
""focus"",""5"",""48790""
""fullscreenenter"",""5"",""49763""
","""event"",""trial"",""time""
""blur"",""5"",""44564""
","""event"",""trial"",""time""
""focus"",""5"",""48790""
","""event"",""trial"",""time""
""fullscreenenter"",""5"",""49763""
","
","500","","49","","","3000","1","","","images/purpleplanet.jpg","images/alien4","images/alien3","images/rocket1","images/alien3","images/nothing.png","2","real","true","0","2022-06-28 17:52:52.554","1","common"
"two-step-fixation","146","480547","0.0-76.0-2.3","202","2130","9","Male","false","false","false","true","""event"",""trial"",""time""
""blur"",""5"",""44564""
""focus"",""5"",""48790""
""fullscreenenter"",""5"",""49763""
","""event"",""trial"",""time""
""blur"",""5"",""44564""
","""event"",""trial"",""time""
""focus"",""5"",""48790""
","""event"",""trial"",""time""
""fullscreenenter"",""5"",""49763""
","
","","images/earth.jpg","","","","","","","","","","","","","","fixation","","","","","",""
"d3-animate-choice","147","482717","0.0-76.0-0.4","202","2130","9","Male","false","false","false","true","""event"",""trial"",""time""
""blur"",""5"",""44564""
""focus"",""5"",""48790""
""fullscreenenter"",""5"",""49763""
","""event"",""trial"",""time""
""blur"",""5"",""44564""
","""event"",""trial"",""time""
""focus"",""5"",""48790""
","""event"",""trial"",""time""
""fullscreenenter"",""5"",""49763""
","
","165.30000007152557","","48","","","3000","1","1614.3000000715256","48","images/earth.jpg","images/rocket1","images/rocket2","null","images/rocket1","","1","real","null","","","2",""
"d3-animate-choice","148","484997","0.0-76.0-1.4","202","2130","9","Male","false","false","false","true","""event"",""trial"",""time""
""blur"",""5"",""44564""
""focus"",""5"",""48790""
""fullscreenenter"",""5"",""49763""
","""event"",""trial"",""time""
""blur"",""5"",""44564""
","""event"",""trial"",""time""
""focus"",""5"",""48790""
","""event"",""trial"",""time""
""fullscreenenter"",""5"",""49763""
","
","273.10000002384186","","48","","","3000","1","","","images/purpleplanet.jpg","images/alien4","images/alien3","images/rocket1","images/alien4","images/nothing.png","2","real","true","0","2022-06-28 17:52:58.013","2","common"
"two-step-fixation","149","486011","0.0-76.0-2.4","202","2130","9","Male","false","false","false","true","""event"",""trial"",""time""
""blur"",""5"",""44564""
""focus"",""5"",""48790""
""fullscreenenter"",""5"",""49763""
","""event"",""trial"",""time""
""blur"",""5"",""44564""
","""event"",""trial"",""time""
""focus"",""5"",""48790""
","""event"",""trial"",""time""
""fullscreenenter"",""5"",""49763""
","
","","images/earth.jpg","","","","","","","","","","","","","","fixation","","","","","",""
"d3-animate-choice","150","488403","0.0-76.0-0.5","202","2130","9","Male","false","false","false","true","""event"",""trial"",""time""
""blur"",""5"",""44564""
""focus"",""5"",""48790""
""fullscreenenter"",""5"",""49763""
","""event"",""trial"",""time""
""blur"",""5"",""44564""
","""event"",""trial"",""time""
""focus"",""5"",""48790""
","""event"",""trial"",""time""
""fullscreenenter"",""5"",""49763""
","
","383.5","","49","","","3000","1","1981.3999999761581","48","images/earth.jpg","images/rocket1","images/rocket2","null","images/rocket2","","1","real","null","","","1",""
"d3-animate-choice","151","490754","0.0-76.0-1.5","202","2130","9","Male","false","false","false","true","""event"",""trial"",""time""
""blur"",""5"",""44564""
""focus"",""5"",""48790""
""fullscreenenter"",""5"",""49763""
","""event"",""trial"",""time""
""blur"",""5"",""44564""
","""event"",""trial"",""time""
""focus"",""5"",""48790""
","""event"",""trial"",""time""
""fullscreenenter"",""5"",""49763""
","
","342.60000002384186","","48","","","3000","1","1389.8000000715256","32","images/purpleplanet.jpg","images/alien4","images/alien3","images/rocket2","images/alien4","images/t.png","2","real","false","1","2022-06-28 17:53:03.770","2","rare"
"two-step-fixation","152","491767","0.0-76.0-2.5","202","2130","9","Male","false","false","false","true","""event"",""trial"",""time""
""blur"",""5"",""44564""
""focus"",""5"",""48790""
""fullscreenenter"",""5"",""49763""
","""event"",""trial"",""time""
""blur"",""5"",""44564""
","""event"",""trial"",""time""
""focus"",""5"",""48790""
","""event"",""trial"",""time""
""fullscreenenter"",""5"",""49763""
","
","","images/earth.jpg","","","","","","","","","","","","","","fixation","","","","","",""
"d3-animate-choice","153","494479","0.0-76.0-0.6","202","2130","9","Male","false","false","false","true","""event"",""trial"",""time""
""blur"",""5"",""44564""
""focus"",""5"",""48790""
""fullscreenenter"",""5"",""49763""
","""event"",""trial"",""time""
""blur"",""5"",""44564""
","""event"",""trial"",""time""
""focus"",""5"",""48790""
","""event"",""trial"",""time""
""fullscreenenter"",""5"",""49763""
","
","696.9000000953674","","48","","","3000","1","","","images/earth.jpg","images/rocket1","images/rocket2","null","images/rocket1","","1","real","null","","","2",""
"d3-animate-choice","154","496987","0.0-76.0-1.6","202","2130","9","Male","false","false","false","true","""event"",""trial"",""time""
""blur"",""5"",""44564""
""focus"",""5"",""48790""
""fullscreenenter"",""5"",""49763""
","""event"",""trial"",""time""
""blur"",""5"",""44564""
","""event"",""trial"",""time""
""focus"",""5"",""48790""
","""event"",""trial"",""time""
""fullscreenenter"",""5"",""49763""
","
","490.2999999523163","","49","","","3000","1","","","images/purpleplanet.jpg","images/alien4","images/alien3","images/rocket1","images/alien3","images/nothing.png","2","real","true","0","2022-06-28 17:53:10.004","1","common"
"two-step-fixation","155","497999","0.0-76.0-2.6","202","2130","9","Male","false","false","false","true","""event"",""trial"",""time""
""blur"",""5"",""44564""
""focus"",""5"",""48790""
""fullscreenenter"",""5"",""49763""
","""event"",""trial"",""time""
""blur"",""5"",""44564""
","""event"",""trial"",""time""
""focus"",""5"",""48790""
","""event"",""trial"",""time""
""fullscreenenter"",""5"",""49763""
","
","","images/earth.jpg","","","","","","","","","","","","","","fixation","","","","","",""
"d3-animate-choice","156","501513","0.0-76.0-0.7","202","2130","9","Male","false","false","false","true","""event"",""trial"",""time""
""blur"",""5"",""44564""
""focus"",""5"",""48790""
""fullscreenenter"",""5"",""49763""
","""event"",""trial"",""time""
""blur"",""5"",""44564""
","""event"",""trial"",""time""
""focus"",""5"",""48790""
","""event"",""trial"",""time""
""fullscreenenter"",""5"",""49763""
","
","1505.6000000238419","","49","","","3000","1","1506.6999999284744","48","images/earth.jpg","images/rocket1","images/rocket2","null","images/rocket2","","1","real","null","","","1",""
"d3-animate-choice","157","504233","0.0-76.0-1.7","202","2130","9","Male","false","false","false","true","""event"",""trial"",""time""
""blur"",""5"",""44564""
""focus"",""5"",""48790""
""fullscreenenter"",""5"",""49763""
","""event"",""trial"",""time""
""blur"",""5"",""44564""
","""event"",""trial"",""time""
""focus"",""5"",""48790""
","""event"",""trial"",""time""
""fullscreenenter"",""5"",""49763""
","
","708.3999999761581","","49","","","3000","1","","","images/redplanet1.jpg","images/alien2","images/alien1","images/rocket2","images/alien1","images/t.png","2","real","true","1","2022-06-28 17:53:17.249","1","common"
"two-step-fixation","158","505243","0.0-76.0-2.7","202","2130","9","Male","false","false","false","true","""event"",""trial"",""time""
""blur"",""5"",""44564""
""focus"",""5"",""48790""
""fullscreenenter"",""5"",""49763""
","""event"",""trial"",""time""
""blur"",""5"",""44564""
","""event"",""trial"",""time""
""focus"",""5"",""48790""
","""event"",""trial"",""time""
""fullscreenenter"",""5"",""49763""
","
","","images/earth.jpg","","","","","","","","","","","","","","fixation","","","","","",""
"d3-animate-choice","159","507358","0.0-76.0-0.8","202","2130","9","Male","false","false","false","true","""event"",""trial"",""time""
""blur"",""5"",""44564""
""focus"",""5"",""48790""
""fullscreenenter"",""5"",""49763""
","""event"",""trial"",""time""
""blur"",""5"",""44564""
","""event"",""trial"",""time""
""focus"",""5"",""48790""
","""event"",""trial"",""time""
""fullscreenenter"",""5"",""49763""
","
","107","","49","","","3000","1","","","images/earth.jpg","images/rocket1","images/rocket2","null","images/rocket2","","1","real","null","","","1",""
"d3-animate-choice","160","510029","0.0-76.0-1.8","202","2130","9","Male","false","false","false","true","""event"",""trial"",""time""
""blur"",""5"",""44564""
""focus"",""5"",""48790""
""fullscreenenter"",""5"",""49763""
","""event"",""trial"",""time""
""blur"",""5"",""44564""
","""event"",""trial"",""time""
""focus"",""5"",""48790""
","""event"",""trial"",""time""
""fullscreenenter"",""5"",""49763""
","
","658.6999999284744","","49","","","3000","1","","","images/purpleplanet.jpg","images/alien4","images/alien3","images/rocket2","images/alien3","images/t.png","2","real","false","1","2022-06-28 17:53:23.045","1","rare"
"two-step-fixation","161","511039","0.0-76.0-2.8","202","2130","9","Male","false","false","false","true","""event"",""trial"",""time""
""blur"",""5"",""44564""
""focus"",""5"",""48790""
""fullscreenenter"",""5"",""49763""
","""event"",""trial"",""time""
""blur"",""5"",""44564""
","""event"",""trial"",""time""
""focus"",""5"",""48790""
","""event"",""trial"",""time""
""fullscreenenter"",""5"",""49763""
","
","","images/earth.jpg","","","","","","","","","","","","","","fixation","","","","","",""
"d3-animate-choice","162","513787","0.0-76.0-0.9","202","2130","9","Male","false","false","false","true","""event"",""trial"",""time""
""blur"",""5"",""44564""
""focus"",""5"",""48790""
""fullscreenenter"",""5"",""49763""
","""event"",""trial"",""time""
""blur"",""5"",""44564""
","""event"",""trial"",""time""
""focus"",""5"",""48790""
","""event"",""trial"",""time""
""fullscreenenter"",""5"",""49763""
","
","741.5","","48","","","3000","1","","","images/earth.jpg","images/rocket1","images/rocket2","null","images/rocket1","","1","real","null","","","2",""
"d3-animate-choice","163","516438","0.0-76.0-1.9","202","2130","9","Male","false","false","false","true","""event"",""trial"",""time""
""blur"",""5"",""44564""
""focus"",""5"",""48790""
""fullscreenenter"",""5"",""49763""
","""event"",""trial"",""time""
""blur"",""5"",""44564""
","""event"",""trial"",""time""
""focus"",""5"",""48790""
","""event"",""trial"",""time""
""fullscreenenter"",""5"",""49763""
","
","640.1000000238419","","48","","","3000","1","","","images/purpleplanet.jpg","images/alien4","images/alien3","images/rocket1","images/alien4","images/t.png","2","real","true","1","2022-06-28 17:53:29.454","2","common"
"two-step-fixation","164","517449","0.0-76.0-2.9","202","2130","9","Male","false","false","false","true","""event"",""trial"",""time""
""blur"",""5"",""44564""
""focus"",""5"",""48790""
""fullscreenenter"",""5"",""49763""
","""event"",""trial"",""time""
""blur"",""5"",""44564""
","""event"",""trial"",""time""
""focus"",""5"",""48790""
","""event"",""trial"",""time""
""fullscreenenter"",""5"",""49763""
","
","","images/earth.jpg","","","","","","","","","","","","","","fixation","","","","","",""
"d3-animate-choice","165","519905","0.0-76.0-0.10","202","2130","9","Male","false","false","false","true","""event"",""trial"",""time""
""blur"",""5"",""44564""
""focus"",""5"",""48790""
""fullscreenenter"",""5"",""49763""
","""event"",""trial"",""time""
""blur"",""5"",""44564""
","""event"",""trial"",""time""
""focus"",""5"",""48790""
","""event"",""trial"",""time""
""fullscreenenter"",""5"",""49763""
","
","447.6999999284744","","49","","","3000","1","","","images/earth.jpg","images/rocket1","images/rocket2","null","images/rocket2","","1","real","null","","","1",""
"d3-animate-choice","166","523055","0.0-76.0-1.10","202","2130","9","Male","false","false","false","true","""event"",""trial"",""time""
""blur"",""5"",""44564""
""focus"",""5"",""48790""
""fullscreenenter"",""5"",""49763""
","""event"",""trial"",""time""
""blur"",""5"",""44564""
","""event"",""trial"",""time""
""focus"",""5"",""48790""
","""event"",""trial"",""time""
""fullscreenenter"",""5"",""49763""
","
","1140.6000000238419","","49","","","3000","1","","","images/redplanet1.jpg","images/alien2","images/alien1","images/rocket2","images/alien1","images/t.png","2","real","true","1","2022-06-28 17:53:36.071","1","common"
"two-step-fixation","167","524069","0.0-76.0-2.10","202","2130","9","Male","false","false","false","true","""event"",""trial"",""time""
""blur"",""5"",""44564""
""focus"",""5"",""48790""
""fullscreenenter"",""5"",""49763""
","""event"",""trial"",""time""
""blur"",""5"",""44564""
","""event"",""trial"",""time""
""focus"",""5"",""48790""
","""event"",""trial"",""time""
""fullscreenenter"",""5"",""49763""
","
","","images/earth.jpg","","","","","","","","","","","","","","fixation","","","","","",""
"d3-animate-choice","168","526281","0.0-76.0-0.11","202","2130","9","Male","false","false","false","true","""event"",""trial"",""time""
""blur"",""5"",""44564""
""focus"",""5"",""48790""
""fullscreenenter"",""5"",""49763""
","""event"",""trial"",""time""
""blur"",""5"",""44564""
","""event"",""trial"",""time""
""focus"",""5"",""48790""
","""event"",""trial"",""time""
""fullscreenenter"",""5"",""49763""
","
","195.39999997615814","","49","","","3000","1","","","images/earth.jpg","images/rocket1","images/rocket2","null","images/rocket2","","1","real","null","","","1",""
"d3-animate-choice","169","528813","0.0-76.0-1.11","202","2130","9","Male","false","false","false","true","""event"",""trial"",""time""
""blur"",""5"",""44564""
""focus"",""5"",""48790""
""fullscreenenter"",""5"",""49763""
","""event"",""trial"",""time""
""blur"",""5"",""44564""
","""event"",""trial"",""time""
""focus"",""5"",""48790""
","""event"",""trial"",""time""
""fullscreenenter"",""5"",""49763""
","
","522.3999999761581","","49","","","3000","1","","","images/redplanet1.jpg","images/alien2","images/alien1","images/rocket2","images/alien1","images/nothing.png","2","real","true","0","2022-06-28 17:53:41.829","1","common"
"two-step-fixation","170","529821","0.0-76.0-2.11","202","2130","9","Male","false","false","false","true","""event"",""trial"",""time""
""blur"",""5"",""44564""
""focus"",""5"",""48790""
""fullscreenenter"",""5"",""49763""
","""event"",""trial"",""time""
""blur"",""5"",""44564""
","""event"",""trial"",""time""
""focus"",""5"",""48790""
","""event"",""trial"",""time""
""fullscreenenter"",""5"",""49763""
","
","","images/earth.jpg","","","","","","","","","","","","","","fixation","","","","","",""
"d3-animate-choice","171","531992","0.0-76.0-0.12","202","2130","9","Male","false","false","false","true","""event"",""trial"",""time""
""blur"",""5"",""44564""
""focus"",""5"",""48790""
""fullscreenenter"",""5"",""49763""
","""event"",""trial"",""time""
""blur"",""5"",""44564""
","""event"",""trial"",""time""
""focus"",""5"",""48790""
","""event"",""trial"",""time""
""fullscreenenter"",""5"",""49763""
","
","156","","48","","","3000","1","","","images/earth.jpg","images/rocket1","images/rocket2","null","images/rocket1","","1","real","null","","","2",""
"d3-animate-choice","172","534803","0.0-76.0-1.12","202","2130","9","Male","false","false","false","true","""event"",""trial"",""time""
""blur"",""5"",""44564""
""focus"",""5"",""48790""
""fullscreenenter"",""5"",""49763""
","""event"",""trial"",""time""
""blur"",""5"",""44564""
","""event"",""trial"",""time""
""focus"",""5"",""48790""
","""event"",""trial"",""time""
""fullscreenenter"",""5"",""49763""
","
","800.5","","48","","","3000","1","","","images/redplanet1.jpg","images/alien2","images/alien1","images/rocket1","images/alien2","images/nothing.png","2","real","false","0","2022-06-28 17:53:47.820","2","rare"
"two-step-fixation","173","535810","0.0-76.0-2.12","202","2130","9","Male","false","false","false","true","""event"",""trial"",""time""
""blur"",""5"",""44564""
""focus"",""5"",""48790""
""fullscreenenter"",""5"",""49763""
","""event"",""trial"",""time""
""blur"",""5"",""44564""
","""event"",""trial"",""time""
""focus"",""5"",""48790""
","""event"",""trial"",""time""
""fullscreenenter"",""5"",""49763""
","
","","images/earth.jpg","","","","","","","","","","","","","","fixation","","","","","",""
"d3-animate-choice","174","538459","0.0-76.0-0.13","202","2130","9","Male","false","false","false","true","""event"",""trial"",""time""
""blur"",""5"",""44564""
""focus"",""5"",""48790""
""fullscreenenter"",""5"",""49763""
","""event"",""trial"",""time""
""blur"",""5"",""44564""
","""event"",""trial"",""time""
""focus"",""5"",""48790""
","""event"",""trial"",""time""
""fullscreenenter"",""5"",""49763""
","
","636.5","","49","","","3000","1","","","images/earth.jpg","images/rocket1","images/rocket2","null","images/rocket2","","1","real","null","","","1",""
"d3-animate-choice","175","541954","0.0-76.0-1.13","202","2130","9","Male","false","false","false","true","""event"",""trial"",""time""
""blur"",""5"",""44564""
""focus"",""5"",""48790""
""fullscreenenter"",""5"",""49763""
","""event"",""trial"",""time""
""blur"",""5"",""44564""
","""event"",""trial"",""time""
""focus"",""5"",""48790""
","""event"",""trial"",""time""
""fullscreenenter"",""5"",""49763""
","
","1487.3999999761581","","49","","","3000","1","","","images/redplanet1.jpg","images/alien2","images/alien1","images/rocket2","images/alien1","images/t.png","2","real","true","1","2022-06-28 17:53:54.970","1","common"
"two-step-fixation","176","542964","0.0-76.0-2.13","202","2130","9","Male","false","false","false","true","""event"",""trial"",""time""
""blur"",""5"",""44564""
""focus"",""5"",""48790""
""fullscreenenter"",""5"",""49763""
","""event"",""trial"",""time""
""blur"",""5"",""44564""
","""event"",""trial"",""time""
""focus"",""5"",""48790""
","""event"",""trial"",""time""
""fullscreenenter"",""5"",""49763""
","
","","images/earth.jpg","","","","","","","","","","","","","","fixation","","","","","",""
"d3-animate-choice","177","545608","0.0-76.0-0.14","202","2130","9","Male","false","false","false","true","""event"",""trial"",""time""
""blur"",""5"",""44564""
""focus"",""5"",""48790""
""fullscreenenter"",""5"",""49763""
","""event"",""trial"",""time""
""blur"",""5"",""44564""
","""event"",""trial"",""time""
""focus"",""5"",""48790""
","""event"",""trial"",""time""
""fullscreenenter"",""5"",""49763""
","
","636.1000000238419","","48","","","3000","1","","","images/earth.jpg","images/rocket1","images/rocket2","null","images/rocket1","","1","real","null","","","2",""
"d3-animate-choice","178","548288","0.0-76.0-1.14","202","2130","9","Male","false","false","false","true","""event"",""trial"",""time""
""blur"",""5"",""44564""
""focus"",""5"",""48790""
""fullscreenenter"",""5"",""49763""
","""event"",""trial"",""time""
""blur"",""5"",""44564""
","""event"",""trial"",""time""
""focus"",""5"",""48790""
","""event"",""trial"",""time""
""fullscreenenter"",""5"",""49763""
","
","673.7000000476837","","49","","","3000","1","","","images/purpleplanet.jpg","images/alien4","images/alien3","images/rocket1","images/alien3","images/t.png","2","real","true","1","2022-06-28 17:54:01.304","1","common"
