"trial_type","trial_index","time_elapsed","internal_node_id","participant_id","subject_id","age","gender","rocket_sides","red_planet_first_rocket","red_display_order","purple_display_order","interactions","blur_events","focus_events","fullscreenenter_events","fullscreenexit_events","rt","stimulus","key_press","button_pressed","success","duration","valid_pressed","rts","keys","planet_text","right_text","left_text","center_text","chosen_text","reward_text","trial_stage","practice_trial","transition_type","choice","transition","reward","timestamp"
"pavlovia","0","3","0.0-0.0","606","3801","12","Female","false","false","true","false","
","
","
","
","
","","","","","","","","","","","","","","","","","","","","","",""
"html-keyboard-response","1","913","0.0-1.0","606","3801","12","Female","false","false","true","false","
","
","
","
","
","909.2999999523163","Welcome! Press the space bar to begin.","32","","","","","","","","","","","","","","","","","","",""
"audio-keyboard-response","2","3398","0.0-2.0","606","3801","12","Female","false","false","true","false","
","
","
","
","
","2473","audio/beep_loop.wav","32","","","","","","","","","","","","","","","","","","",""
"audio-button-response","3","5123","0.0-3.0","606","3801","12","Female","false","false","true","false","
","
","
","
","
","NaN","audio/fish.mp3","","1","","","","","","","","","","","","","","","","","",""
"audio-button-response","4","7805","0.0-4.0","606","3801","12","Female","false","false","true","false","""event"",""trial"",""time""
""fullscreenenter"",""5"",""11618""
","
","
","""event"",""trial"",""time""
""fullscreenenter"",""5"",""11618""
","
","NaN","audio/tiger.mp3","","4","","","","","","","","","","","","","","","","","",""
"fullscreen","5","12615","0.0-5.0","606","3801","12","Female","false","false","true","false","""event"",""trial"",""time""
""fullscreenenter"",""5"",""11618""
","
","
","""event"",""trial"",""time""
""fullscreenenter"",""5"",""11618""
","
","","","","","true","","","","","","","","","","","","","","","","",""
"d3-instructions","6","16376","0.0-6.0","606","3801","12","Female","false","false","true","false","""event"",""trial"",""time""
""fullscreenenter"",""5"",""11618""
","
","
","""event"",""trial"",""time""
""fullscreenenter"",""5"",""11618""
","
","","","","","","","","","","","","","","","","","","","","","",""
"d3-instructions","7","19739","0.0-7.0","606","3801","12","Female","false","false","true","false","""event"",""trial"",""time""
""fullscreenenter"",""5"",""11618""
","
","
","""event"",""trial"",""time""
""fullscreenenter"",""5"",""11618""
","
","","","","","","","","","","","","","","","","","","","","","",""
"d3-instructions","8","21365","0.0-8.0","606","3801","12","Female","false","false","true","false","""event"",""trial"",""time""
""fullscreenenter"",""5"",""11618""
","
","
","""event"",""trial"",""time""
""fullscreenenter"",""5"",""11618""
","
","","","","","","","","","","","","","","","","","","","","","",""
"d3-instructions","9","23410","0.0-9.0","606","3801","12","Female","false","false","true","false","""event"",""trial"",""time""
""fullscreenenter"",""5"",""11618""
","
","
","""event"",""trial"",""time""
""fullscreenenter"",""5"",""11618""
","
","","","","","","","","","","","","","","","","","","","","","",""
"d3-instructions","10","26642","0.0-10.0","606","3801","12","Female","false","false","true","false","""event"",""trial"",""time""
""fullscreenenter"",""5"",""11618""
","
","
","""event"",""trial"",""time""
""fullscreenenter"",""5"",""11618""
","
","","","","","","","","","","","","","","","","","","","","","",""
"d3-animate-choice","11","31351","0.0-11.0","606","3801","12","Female","false","false","true","false","""event"",""trial"",""time""
""fullscreenenter"",""5"",""11618""
","
","
","""event"",""trial"",""time""
""fullscreenenter"",""5"",""11618""
","
","2695.5999999046326","","49","","","3000","1","","","images/tutgreenplanet.jpg","images/tutalien1","images/tutalien2","null","images/tutalien2","","NA","practice","null","","","",""
"d3-animate-choice","12","34544","0.0-12.0","606","3801","12","Female","false","false","true","false","""event"",""trial"",""time""
""fullscreenenter"",""5"",""11618""
","
","
","""event"",""trial"",""time""
""fullscreenenter"",""5"",""11618""
","
","1179.8999999761581","","49","","","3000","1","","","images/tutgreenplanet.jpg","images/tutalien1","images/tutalien2","null","images/tutalien2","","NA","practice","null","","","",""
"d3-animate-choice","13","38063","0.0-13.0","606","3801","12","Female","false","false","true","false","""event"",""trial"",""time""
""fullscreenenter"",""5"",""11618""
","
","
","""event"",""trial"",""time""
""fullscreenenter"",""5"",""11618""
","
","1513.7999999523163","","48","","","3000","1","","","images/tutgreenplanet.jpg","images/tutalien1","images/tutalien2","null","images/tutalien1","","NA","practice","null","","","",""
"d3-animate-choice","14","41551","0.0-14.0","606","3801","12","Female","false","false","true","false","""event"",""trial"",""time""
""fullscreenenter"",""5"",""11618""
","
","
","""event"",""trial"",""time""
""fullscreenenter"",""5"",""11618""
","
","1478.8000000715256","","49","","","3000","1","","","images/tutgreenplanet.jpg","images/tutalien1","images/tutalien2","null","images/tutalien2","","NA","practice","null","","","",""
"d3-instructions","15","44010","0.0-15.0","606","3801","12","Female","false","false","true","false","""event"",""trial"",""time""
""fullscreenenter"",""5"",""11618""
","
","
","""event"",""trial"",""time""
""fullscreenenter"",""5"",""11618""
","
","","","","","","","","","","","","","","","","","","","","","",""
"d3-instructions","16","45186","0.0-16.0","606","3801","12","Female","false","false","true","false","""event"",""trial"",""time""
""fullscreenenter"",""5"",""11618""
","
","
","""event"",""trial"",""time""
""fullscreenenter"",""5"",""11618""
","
","","","","","","","","","","","","","","","","","","","","","",""
"d3-instructions","17","46847","0.0-17.0","606","3801","12","Female","false","false","true","false","""event"",""trial"",""time""
""fullscreenenter"",""5"",""11618""
","
","
","""event"",""trial"",""time""
""fullscreenenter"",""5"",""11618""
","
","","","","","","","","","","","","","","","","","","","","","",""
"d3-instructions","18","48499","0.0-18.0","606","3801","12","Female","false","false","true","false","""event"",""trial"",""time""
""fullscreenenter"",""5"",""11618""
","
","
","""event"",""trial"",""time""
""fullscreenenter"",""5"",""11618""
","
","","","","","","","","","","","","","","","","","","","","","",""
"d3-instructions","19","57737","0.0-19.0","606","3801","12","Female","false","false","true","false","""event"",""trial"",""time""
""fullscreenenter"",""5"",""11618""
","
","
","""event"",""trial"",""time""
""fullscreenenter"",""5"",""11618""
","
","","","","","","","","","","","","","","","","","","","","","",""
"d3-animate-choice","20","61611","0.0-20.0","606","3801","12","Female","false","false","true","false","""event"",""trial"",""time""
""fullscreenenter"",""5"",""11618""
","
","
","""event"",""trial"",""time""
""fullscreenenter"",""5"",""11618""
","
","1862","","49","","","3000","1","","","images/tutyellowplanet.jpg","null","images/tutalien3","null","images/tutalien3","images/nothing.png","NA","practice","null","","","",""
"d3-animate-choice","21","64014","0.0-21.0","606","3801","12","Female","false","false","true","false","""event"",""trial"",""time""
""fullscreenenter"",""5"",""11618""
","
","
","""event"",""trial"",""time""
""fullscreenenter"",""5"",""11618""
","
","400.09999990463257","","49","","","3000","1","","","images/tutyellowplanet.jpg","null","images/tutalien3","null","images/tutalien3","images/t.png","NA","practice","null","","","",""
"d3-animate-choice","22","66391","0.0-22.0","606","3801","12","Female","false","false","true","false","""event"",""trial"",""time""
""fullscreenenter"",""5"",""11618""
","
","
","""event"",""trial"",""time""
""fullscreenenter"",""5"",""11618""
","
","368","","49","","","3000","1","2236.899999976158","49","images/tutyellowplanet.jpg","null","images/tutalien3","null","images/tutalien3","images/t.png","NA","practice","null","","","",""
"d3-animate-choice","23","69671","0.0-23.0","606","3801","12","Female","false","false","true","false","""event"",""trial"",""time""
""fullscreenenter"",""5"",""11618""
","
","
","""event"",""trial"",""time""
""fullscreenenter"",""5"",""11618""
","
","1271.1999999284744","","49","","","3000","1","","","images/tutyellowplanet.jpg","null","images/tutalien3","null","images/tutalien3","images/t.png","NA","practice","null","","","",""
"d3-animate-choice","24","71811","0.0-24.0","606","3801","12","Female","false","false","true","false","""event"",""trial"",""time""
""fullscreenenter"",""5"",""11618""
","
","
","""event"",""trial"",""time""
""fullscreenenter"",""5"",""11618""
","
","127.5","","49","","","3000","1","","","images/tutyellowplanet.jpg","null","images/tutalien3","null","images/tutalien3","images/nothing.png","NA","practice","null","","","",""
"d3-animate-choice","25","73950","0.0-25.0","606","3801","12","Female","false","false","true","false","""event"",""trial"",""time""
""fullscreenenter"",""5"",""11618""
","
","
","""event"",""trial"",""time""
""fullscreenenter"",""5"",""11618""
","
","132.5","","49","","","3000","1","","","images/tutyellowplanet.jpg","null","images/tutalien3","null","images/tutalien3","images/t.png","NA","practice","null","","","",""
"d3-animate-choice","26","76239","0.0-26.0","606","3801","12","Female","false","false","true","false","""event"",""trial"",""time""
""fullscreenenter"",""5"",""11618""
","
","
","""event"",""trial"",""time""
""fullscreenenter"",""5"",""11618""
","
","284.7000000476837","","49","","","3000","1","","","images/tutyellowplanet.jpg","null","images/tutalien3","null","images/tutalien3","images/nothing.png","NA","practice","null","","","",""
"d3-animate-choice","27","78550","0.0-27.0","606","3801","12","Female","false","false","true","false","""event"",""trial"",""time""
""fullscreenenter"",""5"",""11618""
","
","
","""event"",""trial"",""time""
""fullscreenenter"",""5"",""11618""
","
","307.7000000476837","","49","","","3000","1","2305.8000000715256","49","images/tutyellowplanet.jpg","null","images/tutalien3","null","images/tutalien3","images/t.png","NA","practice","null","","","",""
"d3-animate-choice","28","81055","0.0-28.0","606","3801","12","Female","false","false","true","false","""event"",""trial"",""time""
""fullscreenenter"",""5"",""11618""
","
","
","""event"",""trial"",""time""
""fullscreenenter"",""5"",""11618""
","
","497","","49","","","3000","1","","","images/tutyellowplanet.jpg","null","images/tutalien3","null","images/tutalien3","images/t.png","NA","practice","null","","","",""
"d3-animate-choice","29","83399","0.0-29.0","606","3801","12","Female","false","false","true","false","""event"",""trial"",""time""
""fullscreenenter"",""5"",""11618""
","
","
","""event"",""trial"",""time""
""fullscreenenter"",""5"",""11618""
","
","336.60000002384186","","49","","","3000","1","1961.7999999523163","49","images/tutyellowplanet.jpg","null","images/tutalien3","null","images/tutalien3","images/t.png","NA","practice","null","","","",""
"d3-instructions","30","86488","0.0-30.0","606","3801","12","Female","false","false","true","false","""event"",""trial"",""time""
""fullscreenenter"",""5"",""11618""
","
","
","""event"",""trial"",""time""
""fullscreenenter"",""5"",""11618""
","
","","","","","","","","","","","","","","","","","","","","","",""
"d3-instructions","31","90906","0.0-31.0","606","3801","12","Female","false","false","true","false","""event"",""trial"",""time""
""fullscreenenter"",""5"",""11618""
","
","
","""event"",""trial"",""time""
""fullscreenenter"",""5"",""11618""
","
","","","","","","","","","","","","","","","","","","","","","",""
"d3-instructions","32","95088","0.0-32.0","606","3801","12","Female","false","false","true","false","""event"",""trial"",""time""
""fullscreenenter"",""5"",""11618""
","
","
","""event"",""trial"",""time""
""fullscreenenter"",""5"",""11618""
","
","","","","","","","","","","","","","","","","","","","","","",""
"d3-instructions","33","97313","0.0-33.0","606","3801","12","Female","false","false","true","false","""event"",""trial"",""time""
""fullscreenenter"",""5"",""11618""
","
","
","""event"",""trial"",""time""
""fullscreenenter"",""5"",""11618""
","
","","","","","","","","","","","","","","","","","","","","","",""
"d3-animate-choice","34","100659","0.0-34.0","606","3801","12","Female","false","false","true","false","""event"",""trial"",""time""
""fullscreenenter"",""5"",""11618""
","
","
","""event"",""trial"",""time""
""fullscreenenter"",""5"",""11618""
","
","1336.7000000476837","","48","","","3000","1","","","images/tutgreenplanet.jpg","images/tutalien1","images/tutalien2","null","images/tutalien1","images/nothing.png","NA","practice","null","","","",""
"d3-animate-choice","35","103049","0.0-35.0","606","3801","12","Female","false","false","true","false","""event"",""trial"",""time""
""fullscreenenter"",""5"",""11618""
","
","
","""event"",""trial"",""time""
""fullscreenenter"",""5"",""11618""
","
","380.7000000476837","","49","","","3000","1","","","images/tutgreenplanet.jpg","images/tutalien1","images/tutalien2","null","images/tutalien2","images/t.png","NA","practice","null","","","",""
"d3-animate-choice","36","105264","0.0-36.0","606","3801","12","Female","false","false","true","false","""event"",""trial"",""time""
""fullscreenenter"",""5"",""11618""
","
","
","""event"",""trial"",""time""
""fullscreenenter"",""5"",""11618""
","
","211.10000002384186","","49","","","3000","1","1860.2000000476837","49","images/tutgreenplanet.jpg","images/tutalien1","images/tutalien2","null","images/tutalien2","images/t.png","NA","practice","null","","","",""
"d3-animate-choice","37","107311","0.0-37.0","606","3801","12","Female","false","false","true","false","""event"",""trial"",""time""
""fullscreenenter"",""5"",""11618""
","
","
","""event"",""trial"",""time""
""fullscreenenter"",""5"",""11618""
","
","42.39999997615814","","49","","","3000","1","","","images/tutgreenplanet.jpg","images/tutalien1","images/tutalien2","null","images/tutalien2","images/t.png","NA","practice","null","","","",""
"d3-animate-choice","38","110039","0.0-38.0","606","3801","12","Female","false","false","true","false","""event"",""trial"",""time""
""fullscreenenter"",""5"",""11618""
","
","
","""event"",""trial"",""time""
""fullscreenenter"",""5"",""11618""
","
","723.7999999523163","","49","","","3000","1","","","images/tutgreenplanet.jpg","images/tutalien1","images/tutalien2","null","images/tutalien2","images/t.png","NA","practice","null","","","",""
"d3-animate-choice","39","112340","0.0-39.0","606","3801","12","Female","false","false","true","false","""event"",""trial"",""time""
""fullscreenenter"",""5"",""11618""
","
","
","""event"",""trial"",""time""
""fullscreenenter"",""5"",""11618""
","
","296.60000002384186","","49","","","3000","1","","","images/tutgreenplanet.jpg","images/tutalien1","images/tutalien2","null","images/tutalien2","images/t.png","NA","practice","null","","","",""
"d3-animate-choice","40","114444","0.0-40.0","606","3801","12","Female","false","false","true","false","""event"",""trial"",""time""
""fullscreenenter"",""5"",""11618""
","
","
","""event"",""trial"",""time""
""fullscreenenter"",""5"",""11618""
","
","100.69999992847443","","49","","","3000","1","","","images/tutgreenplanet.jpg","images/tutalien1","images/tutalien2","null","images/tutalien2","images/t.png","NA","practice","null","","","",""
"d3-animate-choice","41","117019","0.0-41.0","606","3801","12","Female","false","false","true","false","""event"",""trial"",""time""
""fullscreenenter"",""5"",""11618""
","
","
","""event"",""trial"",""time""
""fullscreenenter"",""5"",""11618""
","
","564.7999999523163","","49","","","3000","1","","","images/tutgreenplanet.jpg","images/tutalien1","images/tutalien2","null","images/tutalien2","images/t.png","NA","practice","null","","","",""
"d3-animate-choice","42","119394","0.0-42.0","606","3801","12","Female","false","false","true","false","""event"",""trial"",""time""
""fullscreenenter"",""5"",""11618""
","
","
","""event"",""trial"",""time""
""fullscreenenter"",""5"",""11618""
","
","367.39999997615814","","49","","","3000","1","","","images/tutgreenplanet.jpg","images/tutalien1","images/tutalien2","null","images/tutalien2","images/t.png","NA","practice","null","","","",""
"d3-animate-choice","43","121650","0.0-43.0","606","3801","12","Female","false","false","true","false","""event"",""trial"",""time""
""fullscreenenter"",""5"",""11618""
","
","
","""event"",""trial"",""time""
""fullscreenenter"",""5"",""11618""
","
","252","","49","","","3000","1","","","images/tutgreenplanet.jpg","images/tutalien1","images/tutalien2","null","images/tutalien2","images/t.png","NA","practice","null","","","",""
"d3-instructions","44","124596","0.0-44.0","606","3801","12","Female","false","false","true","false","""event"",""trial"",""time""
""fullscreenenter"",""5"",""11618""
","
","
","""event"",""trial"",""time""
""fullscreenenter"",""5"",""11618""
","
","","","","","","","","","","","","","","","","","","","","","",""
"d3-instructions","45","133153","0.0-45.0","606","3801","12","Female","false","false","true","false","""event"",""trial"",""time""
""fullscreenenter"",""5"",""11618""
","
","
","""event"",""trial"",""time""
""fullscreenenter"",""5"",""11618""
","
","","","","","","","","","","","","","","","","","","","","","",""
"d3-instructions","46","135219","0.0-46.0","606","3801","12","Female","false","false","true","false","""event"",""trial"",""time""
""fullscreenenter"",""5"",""11618""
","
","
","""event"",""trial"",""time""
""fullscreenenter"",""5"",""11618""
","
","","","","","","","","","","","","","","","","","","","","","",""
"d3-instructions","47","137318","0.0-47.0","606","3801","12","Female","false","false","true","false","""event"",""trial"",""time""
""fullscreenenter"",""5"",""11618""
","
","
","""event"",""trial"",""time""
""fullscreenenter"",""5"",""11618""
","
","","","","","","","","","","","","","","","","","","","","","",""
"d3-instructions","48","138529","0.0-48.0","606","3801","12","Female","false","false","true","false","""event"",""trial"",""time""
""fullscreenenter"",""5"",""11618""
","
","
","""event"",""trial"",""time""
""fullscreenenter"",""5"",""11618""
","
","","","","","","","","","","","","","","","","","","","","","",""
"d3-instructions","49","139712","0.0-49.0","606","3801","12","Female","false","false","true","false","""event"",""trial"",""time""
""fullscreenenter"",""5"",""11618""
","
","
","""event"",""trial"",""time""
""fullscreenenter"",""5"",""11618""
","
","","","","","","","","","","","","","","","","","","","","","",""
"d3-instructions","50","151139","0.0-50.0","606","3801","12","Female","false","false","true","false","""event"",""trial"",""time""
""fullscreenenter"",""5"",""11618""
","
","
","""event"",""trial"",""time""
""fullscreenenter"",""5"",""11618""
","
","","","","","","","","","","","","","","","","","","","","","",""
"d3-instructions","51","154320","0.0-51.0","606","3801","12","Female","false","false","true","false","""event"",""trial"",""time""
""fullscreenenter"",""5"",""11618""
","
","
","""event"",""trial"",""time""
""fullscreenenter"",""5"",""11618""
","
","","","","","","","","","","","","","","","","","","","","","",""
"d3-instructions","52","156292","0.0-52.0","606","3801","12","Female","false","false","true","false","""event"",""trial"",""time""
""fullscreenenter"",""5"",""11618""
","
","
","""event"",""trial"",""time""
""fullscreenenter"",""5"",""11618""
","
","","","","","","","","","","","","","","","","","","","","","",""
"d3-instructions","53","157860","0.0-53.0","606","3801","12","Female","false","false","true","false","""event"",""trial"",""time""
""fullscreenenter"",""5"",""11618""
","
","
","""event"",""trial"",""time""
""fullscreenenter"",""5"",""11618""
","
","","","","","","","","","","","","","","","","","","","","","",""
"d3-instructions","54","159814","0.0-54.0","606","3801","12","Female","false","false","true","false","""event"",""trial"",""time""
""fullscreenenter"",""5"",""11618""
","
","
","""event"",""trial"",""time""
""fullscreenenter"",""5"",""11618""
","
","","","","","","","","","","","","","","","","","","","","","",""
"d3-instructions","55","162946","0.0-55.0","606","3801","12","Female","false","false","true","false","""event"",""trial"",""time""
""fullscreenenter"",""5"",""11618""
","
","
","""event"",""trial"",""time""
""fullscreenenter"",""5"",""11618""
","
","","","","","","","","","","","","","","","","","","","","","",""
"d3-instructions","56","164377","0.0-56.0","606","3801","12","Female","false","false","true","false","""event"",""trial"",""time""
""fullscreenenter"",""5"",""11618""
","
","
","""event"",""trial"",""time""
""fullscreenenter"",""5"",""11618""
","
","","","","","","","","","","","","","","","","","","","","","",""
"d3-instructions","57","171370","0.0-57.0","606","3801","12","Female","false","false","true","false","""event"",""trial"",""time""
""fullscreenenter"",""5"",""11618""
","
","
","""event"",""trial"",""time""
""fullscreenenter"",""5"",""11618""
","
","","","","","","","","","","","","","","","","","","","","","",""
"d3-instructions","58","173251","0.0-58.0","606","3801","12","Female","false","false","true","false","""event"",""trial"",""time""
""fullscreenenter"",""5"",""11618""
","
","
","""event"",""trial"",""time""
""fullscreenenter"",""5"",""11618""
","
","","","","","","","","","","","","","","","","","","","","","",""
"d3-instructions","59","175413","0.0-59.0","606","3801","12","Female","false","false","true","false","""event"",""trial"",""time""
""fullscreenenter"",""5"",""11618""
","
","
","""event"",""trial"",""time""
""fullscreenenter"",""5"",""11618""
","
","","","","","","","","","","","","","","","","","","","","","",""
"d3-instructions","60","177763","0.0-60.0","606","3801","12","Female","false","false","true","false","""event"",""trial"",""time""
""fullscreenenter"",""5"",""11618""
","
","
","""event"",""trial"",""time""
""fullscreenenter"",""5"",""11618""
","
","","","","","","","","","","","","","","","","","","","","","",""
"d3-animate-choice","61","180494","0.0-61.0-0.0","606","3801","12","Female","false","false","true","false","""event"",""trial"",""time""
""fullscreenenter"",""5"",""11618""
","
","
","""event"",""trial"",""time""
""fullscreenenter"",""5"",""11618""
","
","722.2000000476837","","49","","","3000","1","","","images/earth.jpg","images/tutrocket2","images/tutrocket1","null","images/tutrocket1","","1","practice","null","1","","",""
"d3-animate-choice","62","184022","0.0-61.0-1.0","606","3801","12","Female","false","false","true","false","""event"",""trial"",""time""
""fullscreenenter"",""5"",""11618""
","
","
","""event"",""trial"",""time""
""fullscreenenter"",""5"",""11618""
","
","1520.6000000238419","","49","","","3000","1","","","images/tutyellowplanet.jpg","images/tutalien4","images/tutalien3","images/tutrocket1","images/tutalien3","images/nothing.png","2","practice","true","1","common","0","2022-11-20 17:16:47.423"
"two-step-fixation","63","185030","0.0-61.0-2.0","606","3801","12","Female","false","false","true","false","""event"",""trial"",""time""
""fullscreenenter"",""5"",""11618""
","
","
","""event"",""trial"",""time""
""fullscreenenter"",""5"",""11618""
","
","","images/earth.jpg","","","","","","","","","","","","","","fixation","","","","","",""
"d3-animate-choice","64","187378","0.0-61.0-0.1","606","3801","12","Female","false","false","true","false","""event"",""trial"",""time""
""fullscreenenter"",""5"",""11618""
","
","
","""event"",""trial"",""time""
""fullscreenenter"",""5"",""11618""
","
","341.10000002384186","","49","","","3000","1","1986.3999999761581","48","images/earth.jpg","images/tutrocket2","images/tutrocket1","null","images/tutrocket1","","1","practice","null","1","","",""
"d3-animate-choice","65","189758","0.0-61.0-1.1","606","3801","12","Female","false","false","true","false","""event"",""trial"",""time""
""fullscreenenter"",""5"",""11618""
","
","
","""event"",""trial"",""time""
""fullscreenenter"",""5"",""11618""
","
","370.39999997615814","","48","","","3000","1","","","images/tutyellowplanet.jpg","images/tutalien4","images/tutalien3","images/tutrocket1","images/tutalien4","images/t.png","2","practice","true","2","common","1","2022-11-20 17:16:53.159"
"two-step-fixation","66","190767","0.0-61.0-2.1","606","3801","12","Female","false","false","true","false","""event"",""trial"",""time""
""fullscreenenter"",""5"",""11618""
","
","
","""event"",""trial"",""time""
""fullscreenenter"",""5"",""11618""
","
","","images/earth.jpg","","","","","","","","","","","","","","fixation","","","","","",""
"d3-animate-choice","67","193750","0.0-61.0-0.2","606","3801","12","Female","false","false","true","false","""event"",""trial"",""time""
""fullscreenenter"",""5"",""11618""
","
","
","""event"",""trial"",""time""
""fullscreenenter"",""5"",""11618""
","
","976.3999999761581","","48","","","3000","1","","","images/earth.jpg","images/tutrocket2","images/tutrocket1","null","images/tutrocket2","","1","practice","null","2","","",""
"d3-animate-choice","68","196129","0.0-61.0-1.2","606","3801","12","Female","false","false","true","false","""event"",""trial"",""time""
""fullscreenenter"",""5"",""11618""
","
","
","""event"",""trial"",""time""
""fullscreenenter"",""5"",""11618""
","
","373.5","","48","","","3000","1","","","images/tutgreenplanet.jpg","images/tutalien2","images/tutalien1","images/tutrocket2","images/tutalien2","images/t.png","2","practice","true","2","common","1","2022-11-20 17:16:59.530"
"two-step-fixation","69","197134","0.0-61.0-2.2","606","3801","12","Female","false","false","true","false","""event"",""trial"",""time""
""fullscreenenter"",""5"",""11618""
","
","
","""event"",""trial"",""time""
""fullscreenenter"",""5"",""11618""
","
","","images/earth.jpg","","","","","","","","","","","","","","fixation","","","","","",""
"d3-animate-choice","70","199486","0.0-61.0-0.3","606","3801","12","Female","false","false","true","false","""event"",""trial"",""time""
""fullscreenenter"",""5"",""11618""
","
","
","""event"",""trial"",""time""
""fullscreenenter"",""5"",""11618""
","
","341.2999999523163","","48","","","3000","1","","","images/earth.jpg","images/tutrocket2","images/tutrocket1","null","images/tutrocket2","","1","practice","null","2","","",""
"d3-animate-choice","71","202038","0.0-61.0-1.3","606","3801","12","Female","false","false","true","false","""event"",""trial"",""time""
""fullscreenenter"",""5"",""11618""
","
","
","""event"",""trial"",""time""
""fullscreenenter"",""5"",""11618""
","
","541","","48","","","3000","1","","","images/tutyellowplanet.jpg","images/tutalien4","images/tutalien3","images/tutrocket2","images/tutalien4","images/nothing.png","2","practice","false","2","rare","0","2022-11-20 17:17:05.439"
"two-step-fixation","72","203046","0.0-61.0-2.3","606","3801","12","Female","false","false","true","false","""event"",""trial"",""time""
""fullscreenenter"",""5"",""11618""
","
","
","""event"",""trial"",""time""
""fullscreenenter"",""5"",""11618""
","
","","images/earth.jpg","","","","","","","","","","","","","","fixation","","","","","",""
"d3-animate-choice","73","205182","0.0-61.0-0.4","606","3801","12","Female","false","false","true","false","""event"",""trial"",""time""
""fullscreenenter"",""5"",""11618""
","
","
","""event"",""trial"",""time""
""fullscreenenter"",""5"",""11618""
","
","130.29999995231628","","48","","","3000","1","","","images/earth.jpg","images/tutrocket2","images/tutrocket1","null","images/tutrocket2","","1","practice","null","2","","",""
"d3-animate-choice","74","208862","0.0-61.0-1.4","606","3801","12","Female","false","false","true","false","""event"",""trial"",""time""
""fullscreenenter"",""5"",""11618""
","
","
","""event"",""trial"",""time""
""fullscreenenter"",""5"",""11618""
","
","1670.6000000238419","","49","","","3000","1","","","images/tutyellowplanet.jpg","images/tutalien4","images/tutalien3","images/tutrocket2","images/tutalien3","images/nothing.png","2","practice","false","1","rare","0","2022-11-20 17:17:12.264"
"two-step-fixation","75","209870","0.0-61.0-2.4","606","3801","12","Female","false","false","true","false","""event"",""trial"",""time""
""fullscreenenter"",""5"",""11618""
","
","
","""event"",""trial"",""time""
""fullscreenenter"",""5"",""11618""
","
","","images/earth.jpg","","","","","","","","","","","","","","fixation","","","","","",""
"d3-animate-choice","76","212209","0.0-61.0-0.5","606","3801","12","Female","false","false","true","false","""event"",""trial"",""time""
""fullscreenenter"",""5"",""11618""
","
","
","""event"",""trial"",""time""
""fullscreenenter"",""5"",""11618""
","
","326.1999999284744","","49","","","3000","1","","","images/earth.jpg","images/tutrocket2","images/tutrocket1","null","images/tutrocket1","","1","practice","null","1","","",""
"d3-animate-choice","77","215077","0.0-61.0-1.5","606","3801","12","Female","false","false","true","false","""event"",""trial"",""time""
""fullscreenenter"",""5"",""11618""
","
","
","""event"",""trial"",""time""
""fullscreenenter"",""5"",""11618""
","
","861.3000000715256","","49","","","3000","1","","","images/tutyellowplanet.jpg","images/tutalien4","images/tutalien3","images/tutrocket1","images/tutalien3","images/nothing.png","2","practice","true","1","common","0","2022-11-20 17:17:18.479"
"two-step-fixation","78","216086","0.0-61.0-2.5","606","3801","12","Female","false","false","true","false","""event"",""trial"",""time""
""fullscreenenter"",""5"",""11618""
","
","
","""event"",""trial"",""time""
""fullscreenenter"",""5"",""11618""
","
","","images/earth.jpg","","","","","","","","","","","","","","fixation","","","","","",""
"d3-animate-choice","79","218609","0.0-61.0-0.6","606","3801","12","Female","false","false","true","false","""event"",""trial"",""time""
""fullscreenenter"",""5"",""11618""
","
","
","""event"",""trial"",""time""
""fullscreenenter"",""5"",""11618""
","
","512.3999999761581","","49","","","3000","1","","","images/earth.jpg","images/tutrocket2","images/tutrocket1","null","images/tutrocket1","","1","practice","null","1","","",""
"d3-animate-choice","80","221544","0.0-61.0-1.6","606","3801","12","Female","false","false","true","false","""event"",""trial"",""time""
""fullscreenenter"",""5"",""11618""
","
","
","""event"",""trial"",""time""
""fullscreenenter"",""5"",""11618""
","
","927.3999999761581","","48","","","3000","1","","","images/tutyellowplanet.jpg","images/tutalien4","images/tutalien3","images/tutrocket1","images/tutalien4","images/nothing.png","2","practice","true","2","common","0","2022-11-20 17:17:24.945"
"two-step-fixation","81","222550","0.0-61.0-2.6","606","3801","12","Female","false","false","true","false","""event"",""trial"",""time""
""fullscreenenter"",""5"",""11618""
","
","
","""event"",""trial"",""time""
""fullscreenenter"",""5"",""11618""
","
","","images/earth.jpg","","","","","","","","","","","","","","fixation","","","","","",""
"d3-animate-choice","82","224822","0.0-61.0-0.7","606","3801","12","Female","false","false","true","false","""event"",""trial"",""time""
""fullscreenenter"",""5"",""11618""
","
","
","""event"",""trial"",""time""
""fullscreenenter"",""5"",""11618""
","
","266.7000000476837","","48","","","3000","1","","","images/earth.jpg","images/tutrocket2","images/tutrocket1","null","images/tutrocket2","","1","practice","null","2","","",""
"d3-animate-choice","83","227198","0.0-61.0-1.7","606","3801","12","Female","false","false","true","false","""event"",""trial"",""time""
""fullscreenenter"",""5"",""11618""
","
","
","""event"",""trial"",""time""
""fullscreenenter"",""5"",""11618""
","
","371.1999999284744","","48","","","3000","1","","","images/tutgreenplanet.jpg","images/tutalien2","images/tutalien1","images/tutrocket2","images/tutalien2","images/nothing.png","2","practice","true","2","common","0","2022-11-20 17:17:30.599"
"two-step-fixation","84","228209","0.0-61.0-2.7","606","3801","12","Female","false","false","true","false","""event"",""trial"",""time""
""fullscreenenter"",""5"",""11618""
","
","
","""event"",""trial"",""time""
""fullscreenenter"",""5"",""11618""
","
","","images/earth.jpg","","","","","","","","","","","","","","fixation","","","","","",""
"d3-animate-choice","85","230285","0.0-61.0-0.8","606","3801","12","Female","false","false","true","false","""event"",""trial"",""time""
""fullscreenenter"",""5"",""11618""
","
","
","""event"",""trial"",""time""
""fullscreenenter"",""5"",""11618""
","
","71.10000002384186","","48","","","3000","1","","","images/earth.jpg","images/tutrocket2","images/tutrocket1","null","images/tutrocket2","","1","practice","null","2","","",""
"d3-animate-choice","86","233422","0.0-61.0-1.8","606","3801","12","Female","false","false","true","false","""event"",""trial"",""time""
""fullscreenenter"",""5"",""11618""
","
","
","""event"",""trial"",""time""
""fullscreenenter"",""5"",""11618""
","
","1131.2999999523163","","48","","","3000","1","","","images/tutyellowplanet.jpg","images/tutalien4","images/tutalien3","images/tutrocket2","images/tutalien4","images/t.png","2","practice","false","2","rare","1","2022-11-20 17:17:36.823"
"two-step-fixation","87","234430","0.0-61.0-2.8","606","3801","12","Female","false","false","true","false","""event"",""trial"",""time""
""fullscreenenter"",""5"",""11618""
","
","
","""event"",""trial"",""time""
""fullscreenenter"",""5"",""11618""
","
","","images/earth.jpg","","","","","","","","","","","","","","fixation","","","","","",""
"d3-animate-choice","88","238438","0.0-61.0-0.9","606","3801","12","Female","false","false","true","false","""event"",""trial"",""time""
""fullscreenenter"",""5"",""11618""
","
","
","""event"",""trial"",""time""
""fullscreenenter"",""5"",""11618""
","
","null","","null","","","3000","0","","","images/earth.jpg","images/tutrocket2","images/tutrocket1","null","","","1","practice","null","","","",""
"d3-animate-choice","89","239453","0.0-61.0-1.9","606","3801","12","Female","false","false","true","false","""event"",""trial"",""time""
""fullscreenenter"",""5"",""11618""
","
","
","""event"",""trial"",""time""
""fullscreenenter"",""5"",""11618""
","
","null","","null","","","0","0","","","images/earth.jpg","images/tutrocket2","images/tutrocket1","null","","","2","practice","null","","","0","2022-11-20 17:17:42.854"
"two-step-fixation","90","240455","0.0-61.0-2.9","606","3801","12","Female","false","false","true","false","""event"",""trial"",""time""
""fullscreenenter"",""5"",""11618""
","
","
","""event"",""trial"",""time""
""fullscreenenter"",""5"",""11618""
","
","","images/earth.jpg","","","","","","","","","","","","","","fixation","","","","","",""
"d3-animate-choice","91","242910","0.0-61.0-0.10","606","3801","12","Female","false","false","true","false","""event"",""trial"",""time""
""fullscreenenter"",""5"",""11618""
","
","
","""event"",""trial"",""time""
""fullscreenenter"",""5"",""11618""
","
","446.2999999523163","","48","","","3000","1","","","images/earth.jpg","images/tutrocket2","images/tutrocket1","null","images/tutrocket2","","1","practice","null","2","","",""
"d3-animate-choice","92","245121","0.0-61.0-1.10","606","3801","12","Female","false","false","true","false","""event"",""trial"",""time""
""fullscreenenter"",""5"",""11618""
","
","
","""event"",""trial"",""time""
""fullscreenenter"",""5"",""11618""
","
","204.90000009536743","","48","","","3000","1","","","images/tutgreenplanet.jpg","images/tutalien2","images/tutalien1","images/tutrocket2","images/tutalien2","images/nothing.png","2","practice","true","2","common","0","2022-11-20 17:17:48.522"
"two-step-fixation","93","246125","0.0-61.0-2.10","606","3801","12","Female","false","false","true","false","""event"",""trial"",""time""
""fullscreenenter"",""5"",""11618""
","
","
","""event"",""trial"",""time""
""fullscreenenter"",""5"",""11618""
","
","","images/earth.jpg","","","","","","","","","","","","","","fixation","","","","","",""
"d3-animate-choice","94","248678","0.0-61.0-0.11","606","3801","12","Female","false","false","true","false","""event"",""trial"",""time""
""fullscreenenter"",""5"",""11618""
","
","
","""event"",""trial"",""time""
""fullscreenenter"",""5"",""11618""
","
","546.8000000715256","","49","","","3000","1","695.7000000476837,2317.5,2461.8000000715256","48,49,48","images/earth.jpg","images/tutrocket2","images/tutrocket1","null","images/tutrocket1","","1","practice","null","1","","",""
"d3-animate-choice","95","251262","0.0-61.0-1.11","606","3801","12","Female","false","false","true","false","""event"",""trial"",""time""
""fullscreenenter"",""5"",""11618""
","
","
","""event"",""trial"",""time""
""fullscreenenter"",""5"",""11618""
","
","580.1000000238419","","49","","","3000","1","614.6999999284744,976.1999999284744,1139.8999999761581,1298.1000000238419,1468.7999999523163,1617.7999999523163,1779.6000000238419,1892,2065,2202.1999999284744,2369.7999999523163,2515.5","48,49,48,49,48,49,48,49,48,49,48,49","images/tutgreenplanet.jpg","images/tutalien2","images/tutalien1","images/tutrocket1","images/tutalien1","images/nothing.png","2","practice","false","1","rare","0","2022-11-20 17:17:54.663"
"two-step-fixation","96","252270","0.0-61.0-2.11","606","3801","12","Female","false","false","true","false","""event"",""trial"",""time""
""fullscreenenter"",""5"",""11618""
","
","
","""event"",""trial"",""time""
""fullscreenenter"",""5"",""11618""
","
","","images/earth.jpg","","","","","","","","","","","","","","fixation","","","","","",""
"d3-animate-choice","97","254670","0.0-61.0-0.12","606","3801","12","Female","false","false","true","false","""event"",""trial"",""time""
""fullscreenenter"",""5"",""11618""
","
","
","""event"",""trial"",""time""
""fullscreenenter"",""5"",""11618""
","
","388.59999990463257","","49","","","3000","1","401","48","images/earth.jpg","images/tutrocket2","images/tutrocket1","null","images/tutrocket1","","1","practice","null","1","","",""
"d3-animate-choice","98","257360","0.0-61.0-1.12","606","3801","12","Female","false","false","true","false","""event"",""trial"",""time""
""fullscreenenter"",""5"",""11618""
","
","
","""event"",""trial"",""time""
""fullscreenenter"",""5"",""11618""
","
","676.7999999523163","","48","","","3000","1","","","images/tutyellowplanet.jpg","images/tutalien4","images/tutalien3","images/tutrocket1","images/tutalien4","images/t.png","2","practice","true","2","common","1","2022-11-20 17:18:00.761"
"two-step-fixation","99","258366","0.0-61.0-2.12","606","3801","12","Female","false","false","true","false","""event"",""trial"",""time""
""fullscreenenter"",""5"",""11618""
","
","
","""event"",""trial"",""time""
""fullscreenenter"",""5"",""11618""
","
","","images/earth.jpg","","","","","","","","","","","","","","fixation","","","","","",""
"d3-animate-choice","100","261597","0.0-61.0-0.13","606","3801","12","Female","false","false","true","false","""event"",""trial"",""time""
""fullscreenenter"",""5"",""11618""
","
","
","""event"",""trial"",""time""
""fullscreenenter"",""5"",""11618""
","
","1227.4000000953674","","48","","","3000","1","1227.9000000953674","49","images/earth.jpg","images/tutrocket2","images/tutrocket1","null","images/tutrocket2","","1","practice","null","2","","",""
"d3-animate-choice","101","265301","0.0-61.0-1.13","606","3801","12","Female","false","false","true","false","""event"",""trial"",""time""
""fullscreenenter"",""5"",""11618""
","
","
","""event"",""trial"",""time""
""fullscreenenter"",""5"",""11618""
","
","1700.2000000476837","","48","","","3000","1","1701.4000000953674","49","images/tutyellowplanet.jpg","images/tutalien4","images/tutalien3","images/tutrocket2","images/tutalien4","images/nothing.png","2","practice","false","2","rare","0","2022-11-20 17:18:08.702"
"two-step-fixation","102","266310","0.0-61.0-2.13","606","3801","12","Female","false","false","true","false","""event"",""trial"",""time""
""fullscreenenter"",""5"",""11618""
","
","
","""event"",""trial"",""time""
""fullscreenenter"",""5"",""11618""
","
","","images/earth.jpg","","","","","","","","","","","","","","fixation","","","","","",""
"d3-animate-choice","103","268838","0.0-61.0-0.14","606","3801","12","Female","false","false","true","false","""event"",""trial"",""time""
""fullscreenenter"",""5"",""11618""
","
","
","""event"",""trial"",""time""
""fullscreenenter"",""5"",""11618""
","
","519.6000000238419","","48","","","3000","1","549.3999999761581","49","images/earth.jpg","images/tutrocket2","images/tutrocket1","null","images/tutrocket2","","1","practice","null","2","","",""
"d3-animate-choice","104","271438","0.0-61.0-1.14","606","3801","12","Female","false","false","true","false","""event"",""trial"",""time""
""fullscreenenter"",""5"",""11618""
","
","
","""event"",""trial"",""time""
""fullscreenenter"",""5"",""11618""
","
","590.2999999523163","","48","","","3000","1","599.7000000476837","49","images/tutgreenplanet.jpg","images/tutalien2","images/tutalien1","images/tutrocket2","images/tutalien2","images/nothing.png","2","practice","true","2","common","0","2022-11-20 17:18:14.839"
"two-step-fixation","105","272446","0.0-61.0-2.14","606","3801","12","Female","false","false","true","false","""event"",""trial"",""time""
""fullscreenenter"",""5"",""11618""
","
","
","""event"",""trial"",""time""
""fullscreenenter"",""5"",""11618""
","
","","images/earth.jpg","","","","","","","","","","","","","","fixation","","","","","",""
"d3-animate-choice","106","274670","0.0-61.0-0.15","606","3801","12","Female","false","false","true","false","""event"",""trial"",""time""
""fullscreenenter"",""5"",""11618""
","
","
","""event"",""trial"",""time""
""fullscreenenter"",""5"",""11618""
","
","219.30000007152557","","49","","","3000","1","255.80000007152557","48","images/earth.jpg","images/tutrocket2","images/tutrocket1","null","images/tutrocket1","","1","practice","null","1","","",""
"d3-animate-choice","107","277599","0.0-61.0-1.15","606","3801","12","Female","false","false","true","false","""event"",""trial"",""time""
""fullscreenenter"",""5"",""11618""
","
","
","""event"",""trial"",""time""
""fullscreenenter"",""5"",""11618""
","
","919.1999999284744","","49","","","3000","1","920.7999999523163","48","images/tutgreenplanet.jpg","images/tutalien2","images/tutalien1","images/tutrocket1","images/tutalien1","images/nothing.png","2","practice","false","1","rare","0","2022-11-20 17:18:21.000"
"two-step-fixation","108","278609","0.0-61.0-2.15","606","3801","12","Female","false","false","true","false","""event"",""trial"",""time""
""fullscreenenter"",""5"",""11618""
","
","
","""event"",""trial"",""time""
""fullscreenenter"",""5"",""11618""
","
","","images/earth.jpg","","","","","","","","","","","","","","fixation","","","","","",""
"d3-animate-choice","109","281229","0.0-61.0-0.16","606","3801","12","Female","false","false","true","false","""event"",""trial"",""time""
""fullscreenenter"",""5"",""11618""
","
","
","""event"",""trial"",""time""
""fullscreenenter"",""5"",""11618""
","
","614.3999999761581","","49","","","3000","1","616.3999999761581","48","images/earth.jpg","images/tutrocket2","images/tutrocket1","null","images/tutrocket1","","1","practice","null","1","","",""
"d3-animate-choice","110","283960","0.0-61.0-1.16","606","3801","12","Female","false","false","true","false","""event"",""trial"",""time""
""fullscreenenter"",""5"",""11618""
","
","
","""event"",""trial"",""time""
""fullscreenenter"",""5"",""11618""
","
","723.3999999761581","","48","","","3000","1","729.5999999046326","49","images/tutgreenplanet.jpg","images/tutalien2","images/tutalien1","images/tutrocket1","images/tutalien2","images/nothing.png","2","practice","false","2","rare","0","2022-11-20 17:18:27.361"
"two-step-fixation","111","284966","0.0-61.0-2.16","606","3801","12","Female","false","false","true","false","""event"",""trial"",""time""
""fullscreenenter"",""5"",""11618""
","
","
","""event"",""trial"",""time""
""fullscreenenter"",""5"",""11618""
","
","","images/earth.jpg","","","","","","","","","","","","","","fixation","","","","","",""
"d3-animate-choice","112","287317","0.0-61.0-0.17","606","3801","12","Female","false","false","true","false","""event"",""trial"",""time""
""fullscreenenter"",""5"",""11618""
","
","
","""event"",""trial"",""time""
""fullscreenenter"",""5"",""11618""
","
","341.3000000715256","","49","","","3000","1","355.10000002384186","48","images/earth.jpg","images/tutrocket2","images/tutrocket1","null","images/tutrocket1","","1","practice","null","1","","",""
"d3-animate-choice","113","289902","0.0-61.0-1.17","606","3801","12","Female","false","false","true","false","""event"",""trial"",""time""
""fullscreenenter"",""5"",""11618""
","
","
","""event"",""trial"",""time""
""fullscreenenter"",""5"",""11618""
","
","581.2000000476837","","49","","","3000","1","596.6000000238419","48","images/tutyellowplanet.jpg","images/tutalien4","images/tutalien3","images/tutrocket1","images/tutalien3","images/t.png","2","practice","true","1","common","1","2022-11-20 17:18:33.303"
"two-step-fixation","114","290910","0.0-61.0-2.17","606","3801","12","Female","false","false","true","false","""event"",""trial"",""time""
""fullscreenenter"",""5"",""11618""
","
","
","""event"",""trial"",""time""
""fullscreenenter"",""5"",""11618""
","
","","images/earth.jpg","","","","","","","","","","","","","","fixation","","","","","",""
"d3-animate-choice","115","294429","0.0-61.0-0.18","606","3801","12","Female","false","false","true","false","""event"",""trial"",""time""
""fullscreenenter"",""5"",""11618""
","
","
","""event"",""trial"",""time""
""fullscreenenter"",""5"",""11618""
","
","1512.1999999284744","","48","","","3000","1","1513.3999999761581","49","images/earth.jpg","images/tutrocket2","images/tutrocket1","null","images/tutrocket2","","1","practice","null","2","","",""
"d3-animate-choice","116","297238","0.0-61.0-1.18","606","3801","12","Female","false","false","true","false","""event"",""trial"",""time""
""fullscreenenter"",""5"",""11618""
","
","
","""event"",""trial"",""time""
""fullscreenenter"",""5"",""11618""
","
","800.7000000476837","","48","","","3000","1","836.5","49","images/tutgreenplanet.jpg","images/tutalien2","images/tutalien1","images/tutrocket2","images/tutalien2","images/nothing.png","2","practice","true","2","common","0","2022-11-20 17:18:40.639"
"two-step-fixation","117","298246","0.0-61.0-2.18","606","3801","12","Female","false","false","true","false","""event"",""trial"",""time""
""fullscreenenter"",""5"",""11618""
","
","
","""event"",""trial"",""time""
""fullscreenenter"",""5"",""11618""
","
","","images/earth.jpg","","","","","","","","","","","","","","fixation","","","","","",""
"d3-animate-choice","118","300573","0.0-61.0-0.19","606","3801","12","Female","false","false","true","false","""event"",""trial"",""time""
""fullscreenenter"",""5"",""11618""
","
","
","""event"",""trial"",""time""
""fullscreenenter"",""5"",""11618""
","
","319.10000002384186","","49","","","3000","1","340.6999999284744","48","images/earth.jpg","images/tutrocket2","images/tutrocket1","null","images/tutrocket1","","1","practice","null","1","","",""
"d3-animate-choice","119","303238","0.0-61.0-1.19","606","3801","12","Female","false","false","true","false","""event"",""trial"",""time""
""fullscreenenter"",""5"",""11618""
","
","
","""event"",""trial"",""time""
""fullscreenenter"",""5"",""11618""
","
","656.6000000238419","","48","","","3000","1","666.1000000238419","49","images/tutyellowplanet.jpg","images/tutalien4","images/tutalien3","images/tutrocket1","images/tutalien4","images/t.png","2","practice","true","2","common","1","2022-11-20 17:18:46.639"
"two-step-fixation","120","304246","0.0-61.0-2.19","606","3801","12","Female","false","false","true","false","""event"",""trial"",""time""
""fullscreenenter"",""5"",""11618""
","
","
","""event"",""trial"",""time""
""fullscreenenter"",""5"",""11618""
","
","","images/earth.jpg","","","","","","","","","","","","","","fixation","","","","","",""
"d3-instructions","121","318505","0.0-62.0","606","3801","12","Female","false","false","true","false","""event"",""trial"",""time""
""fullscreenenter"",""5"",""11618""
","
","
","""event"",""trial"",""time""
""fullscreenenter"",""5"",""11618""
","
","","","","","","","","","","","","","","","","","","","","","",""
"audio-keyboard-response","122","387489","0.0-63.0","606","3801","12","Female","false","false","true","false","""event"",""trial"",""time""
""fullscreenenter"",""5"",""11618""
","
","
","""event"",""trial"",""time""
""fullscreenenter"",""5"",""11618""
","
","59925","audio/instructions/treasure_feedback.wav","32","","","","","","","","","","","","","","","","","","",""
"d3-instructions","123","390210","0.0-64.0","606","3801","12","Female","false","false","true","false","""event"",""trial"",""time""
""fullscreenenter"",""5"",""11618""
","
","
","""event"",""trial"",""time""
""fullscreenenter"",""5"",""11618""
","
","","","","","","","","","","","","","","","","","","","","","",""
"d3-instructions","124","391747","0.0-65.0","606","3801","12","Female","false","false","true","false","""event"",""trial"",""time""
""fullscreenenter"",""5"",""11618""
","
","
","""event"",""trial"",""time""
""fullscreenenter"",""5"",""11618""
","
","","","","","","","","","","","","","","","","","","","","","",""
"d3-instructions","125","393969","0.0-66.0","606","3801","12","Female","false","false","true","false","""event"",""trial"",""time""
""fullscreenenter"",""5"",""11618""
","
","
","""event"",""trial"",""time""
""fullscreenenter"",""5"",""11618""
","
","","","","","","","","","","","","","","","","","","","","","",""
"d3-instructions","126","395459","0.0-67.0","606","3801","12","Female","false","false","true","false","""event"",""trial"",""time""
""fullscreenenter"",""5"",""11618""
","
","
","""event"",""trial"",""time""
""fullscreenenter"",""5"",""11618""
","
","","","","","","","","","","","","","","","","","","","","","",""
"d3-instructions","127","396976","0.0-68.0","606","3801","12","Female","false","false","true","false","""event"",""trial"",""time""
""fullscreenenter"",""5"",""11618""
","
","
","""event"",""trial"",""time""
""fullscreenenter"",""5"",""11618""
","
","","","","","","","","","","","","","","","","","","","","","",""
"instructions-quiz","128","413850","0.0-69.0","606","3801","12","Female","false","false","true","false","""event"",""trial"",""time""
""fullscreenenter"",""5"",""11618""
","
","
","""event"",""trial"",""time""
""fullscreenenter"",""5"",""11618""
","
","16871.700000047684","audio/quiz/Q1_Prompt.wav","","1","","","","","","","","","","","","","","","","","",""
"audio-keyboard-response","129","416332","0.0-70.0","606","3801","12","Female","false","false","true","false","""event"",""trial"",""time""
""fullscreenenter"",""5"",""11618""
","
","
","""event"",""trial"",""time""
""fullscreenenter"",""5"",""11618""
","
","2479","audio/quiz/Q1_Correct.wav","32","","","","","","","","","","","","","","","","","","",""
"instructions-quiz","130","423896","0.0-71.0","606","3801","12","Female","false","false","true","false","""event"",""trial"",""time""
""fullscreenenter"",""5"",""11618""
","
","
","""event"",""trial"",""time""
""fullscreenenter"",""5"",""11618""
","
","7562.099999904633","audio/quiz/Q2_Prompt.wav","","0","","","","","","","","","","","","","","","","","",""
"audio-keyboard-response","131","425279","0.0-72.0","606","3801","12","Female","false","false","true","false","""event"",""trial"",""time""
""fullscreenenter"",""5"",""11618""
","
","
","""event"",""trial"",""time""
""fullscreenenter"",""5"",""11618""
","
","1382","audio/quiz/Q2_Correct.wav","32","","","","","","","","","","","","","","","","","","",""
"instructions-quiz","132","428833","0.0-73.0","606","3801","12","Female","false","false","true","false","""event"",""trial"",""time""
""fullscreenenter"",""5"",""11618""
","
","
","""event"",""trial"",""time""
""fullscreenenter"",""5"",""11618""
","
","3550.899999976158","audio/quiz/Q3_Prompt.wav","","1","","","","","","","","","","","","","","","","","",""
"audio-keyboard-response","133","430562","0.0-74.0","606","3801","12","Female","false","false","true","false","""event"",""trial"",""time""
""fullscreenenter"",""5"",""11618""
","
","
","""event"",""trial"",""time""
""fullscreenenter"",""5"",""11618""
","
","1724","audio/quiz/Q3_Correct.wav","32","","","","","","","","","","","","","","","","","","",""
"d3-instructions","134","433880","0.0-75.0","606","3801","12","Female","false","false","true","false","""event"",""trial"",""time""
""fullscreenenter"",""5"",""11618""
","
","
","""event"",""trial"",""time""
""fullscreenenter"",""5"",""11618""
","
","","","","","","","","","","","","","","","","","","","","","",""
"d3-animate-choice","135","437893","0.0-76.0-0.0","606","3801","12","Female","false","false","true","false","""event"",""trial"",""time""
""fullscreenenter"",""5"",""11618""
","
","
","""event"",""trial"",""time""
""fullscreenenter"",""5"",""11618""
","
","2841","","49","","","3000","1","","","images/earth.jpg","images/rocket1","images/rocket2","null","images/rocket2","","1","real","null","1","","",""
"d3-animate-choice","136","441475","0.0-76.0-1.0","606","3801","12","Female","false","false","true","false","""event"",""trial"",""time""
""fullscreenenter"",""5"",""11618""
","
","
","""event"",""trial"",""time""
""fullscreenenter"",""5"",""11618""
","
","1578.7000000476837","","48","","","3000","1","","","images/redplanet1.jpg","images/alien2","images/alien1","images/rocket2","images/alien2","images/nothing.png","2","real","true","2","common","0","2022-11-20 17:21:04.876"
"two-step-fixation","137","442485","0.0-76.0-2.0","606","3801","12","Female","false","false","true","false","""event"",""trial"",""time""
""fullscreenenter"",""5"",""11618""
","
","
","""event"",""trial"",""time""
""fullscreenenter"",""5"",""11618""
","
","","images/earth.jpg","","","","","","","","","","","","","","fixation","","","","","",""
"d3-animate-choice","138","444981","0.0-76.0-0.1","606","3801","12","Female","false","false","true","false","""event"",""trial"",""time""
""fullscreenenter"",""5"",""11618""
","
","
","""event"",""trial"",""time""
""fullscreenenter"",""5"",""11618""
","
","489.2000000476837","","49","","","3000","1","","","images/earth.jpg","images/rocket1","images/rocket2","null","images/rocket2","","1","real","null","1","","",""
"d3-animate-choice","139","447377","0.0-76.0-1.1","606","3801","12","Female","false","false","true","false","""event"",""trial"",""time""
""fullscreenenter"",""5"",""11618""
","
","
","""event"",""trial"",""time""
""fullscreenenter"",""5"",""11618""
","
","389.8000000715256","","49","","","3000","1","","","images/redplanet1.jpg","images/alien2","images/alien1","images/rocket2","images/alien1","images/nothing.png","2","real","true","1","common","0","2022-11-20 17:21:10.778"
"two-step-fixation","140","448390","0.0-76.0-2.1","606","3801","12","Female","false","false","true","false","""event"",""trial"",""time""
""fullscreenenter"",""5"",""11618""
","
","
","""event"",""trial"",""time""
""fullscreenenter"",""5"",""11618""
","
","","images/earth.jpg","","","","","","","","","","","","","","fixation","","","","","",""
"d3-animate-choice","141","450749","0.0-76.0-0.2","606","3801","12","Female","false","false","true","false","""event"",""trial"",""time""
""fullscreenenter"",""5"",""11618""
","
","
","""event"",""trial"",""time""
""fullscreenenter"",""5"",""11618""
","
","351.3000000715256","","48","","","3000","1","","","images/earth.jpg","images/rocket1","images/rocket2","null","images/rocket1","","1","real","null","2","","",""
"d3-animate-choice","142","453685","0.0-76.0-1.2","606","3801","12","Female","false","false","true","false","""event"",""trial"",""time""
""fullscreenenter"",""5"",""11618""
","
","
","""event"",""trial"",""time""
""fullscreenenter"",""5"",""11618""
","
","924.7999999523163","","48","","","3000","1","","","images/redplanet1.jpg","images/alien2","images/alien1","images/rocket1","images/alien2","images/nothing.png","2","real","false","2","rare","0","2022-11-20 17:21:17.086"
"two-step-fixation","143","454691","0.0-76.0-2.2","606","3801","12","Female","false","false","true","false","""event"",""trial"",""time""
""fullscreenenter"",""5"",""11618""
","
","
","""event"",""trial"",""time""
""fullscreenenter"",""5"",""11618""
","
","","images/earth.jpg","","","","","","","","","","","","","","fixation","","","","","",""
"d3-animate-choice","144","457117","0.0-76.0-0.3","606","3801","12","Female","false","false","true","false","""event"",""trial"",""time""
""fullscreenenter"",""5"",""11618""
","
","
","""event"",""trial"",""time""
""fullscreenenter"",""5"",""11618""
","
","415.8000000715256","","48","","","3000","1","","","images/earth.jpg","images/rocket1","images/rocket2","null","images/rocket1","","1","real","null","2","","",""
"d3-animate-choice","145","460317","0.0-76.0-1.3","606","3801","12","Female","false","false","true","false","""event"",""trial"",""time""
""fullscreenenter"",""5"",""11618""
","
","
","""event"",""trial"",""time""
""fullscreenenter"",""5"",""11618""
","
","1194.5","","49","","","3000","1","","","images/purpleplanet.jpg","images/alien4","images/alien3","images/rocket1","images/alien3","images/t.png","2","real","true","1","common","1","2022-11-20 17:21:23.719"
"two-step-fixation","146","461326","0.0-76.0-2.3","606","3801","12","Female","false","false","true","false","""event"",""trial"",""time""
""fullscreenenter"",""5"",""11618""
","
","
","""event"",""trial"",""time""
""fullscreenenter"",""5"",""11618""
","
","","images/earth.jpg","","","","","","","","","","","","","","fixation","","","","","",""
"d3-animate-choice","147","463725","0.0-76.0-0.4","606","3801","12","Female","false","false","true","false","""event"",""trial"",""time""
""fullscreenenter"",""5"",""11618""
","
","
","""event"",""trial"",""time""
""fullscreenenter"",""5"",""11618""
","
","393.2000000476837","","48","","","3000","1","","","images/earth.jpg","images/rocket1","images/rocket2","null","images/rocket1","","1","real","null","2","","",""
"d3-animate-choice","148","466933","0.0-76.0-1.4","606","3801","12","Female","false","false","true","false","""event"",""trial"",""time""
""fullscreenenter"",""5"",""11618""
","
","
","""event"",""trial"",""time""
""fullscreenenter"",""5"",""11618""
","
","1197.1000000238419","","49","","","3000","1","","","images/redplanet1.jpg","images/alien2","images/alien1","images/rocket1","images/alien1","images/t.png","2","real","false","1","rare","1","2022-11-20 17:21:30.335"
"two-step-fixation","149","467943","0.0-76.0-2.4","606","3801","12","Female","false","false","true","false","""event"",""trial"",""time""
""fullscreenenter"",""5"",""11618""
","
","
","""event"",""trial"",""time""
""fullscreenenter"",""5"",""11618""
","
","","images/earth.jpg","","","","","","","","","","","","","","fixation","","","","","",""
"d3-animate-choice","150","470365","0.0-76.0-0.5","606","3801","12","Female","false","false","true","false","""event"",""trial"",""time""
""fullscreenenter"",""5"",""11618""
","
","
","""event"",""trial"",""time""
""fullscreenenter"",""5"",""11618""
","
","410.8000000715256","","48","","","3000","1","","","images/earth.jpg","images/rocket1","images/rocket2","null","images/rocket1","","1","real","null","2","","",""
"d3-animate-choice","151","473693","0.0-76.0-1.5","606","3801","12","Female","false","false","true","false","""event"",""trial"",""time""
""fullscreenenter"",""5"",""11618""
","
","
","""event"",""trial"",""time""
""fullscreenenter"",""5"",""11618""
","
","1319.5","","49","","","3000","1","","","images/purpleplanet.jpg","images/alien4","images/alien3","images/rocket1","images/alien3","images/nothing.png","2","real","true","1","common","0","2022-11-20 17:21:37.094"
"two-step-fixation","152","474696","0.0-76.0-2.5","606","3801","12","Female","false","false","true","false","""event"",""trial"",""time""
""fullscreenenter"",""5"",""11618""
","
","
","""event"",""trial"",""time""
""fullscreenenter"",""5"",""11618""
","
","","images/earth.jpg","","","","","","","","","","","","","","fixation","","","","","",""
"d3-animate-choice","153","477485","0.0-76.0-0.6","606","3801","12","Female","false","false","true","false","""event"",""trial"",""time""
""fullscreenenter"",""5"",""11618""
","
","
","""event"",""trial"",""time""
""fullscreenenter"",""5"",""11618""
","
","781.5","","48","","","3000","1","","","images/earth.jpg","images/rocket1","images/rocket2","null","images/rocket1","","1","real","null","2","","",""
"d3-animate-choice","154","480437","0.0-76.0-1.6","606","3801","12","Female","false","false","true","false","""event"",""trial"",""time""
""fullscreenenter"",""5"",""11618""
","
","
","""event"",""trial"",""time""
""fullscreenenter"",""5"",""11618""
","
","948.6000000238419","","48","","","3000","1","","","images/purpleplanet.jpg","images/alien4","images/alien3","images/rocket1","images/alien4","images/t.png","2","real","true","2","common","1","2022-11-20 17:21:43.838"
"two-step-fixation","155","481444","0.0-76.0-2.6","606","3801","12","Female","false","false","true","false","""event"",""trial"",""time""
""fullscreenenter"",""5"",""11618""
","
","
","""event"",""trial"",""time""
""fullscreenenter"",""5"",""11618""
","
","","images/earth.jpg","","","","","","","","","","","","","","fixation","","","","","",""
"d3-animate-choice","156","483695","0.0-76.0-0.7","606","3801","12","Female","false","false","true","false","""event"",""trial"",""time""
""fullscreenenter"",""5"",""11618""
","
","
","""event"",""trial"",""time""
""fullscreenenter"",""5"",""11618""
","
","246.10000002384186","","48","","","3000","1","","","images/earth.jpg","images/rocket1","images/rocket2","null","images/rocket1","","1","real","null","2","","",""
"d3-animate-choice","157","486141","0.0-76.0-1.7","606","3801","12","Female","false","false","true","false","""event"",""trial"",""time""
""fullscreenenter"",""5"",""11618""
","
","
","""event"",""trial"",""time""
""fullscreenenter"",""5"",""11618""
","
","436","","48","","","3000","1","","","images/redplanet1.jpg","images/alien2","images/alien1","images/rocket1","images/alien2","images/t.png","2","real","false","2","rare","1","2022-11-20 17:21:49.542"
"two-step-fixation","158","487146","0.0-76.0-2.7","606","3801","12","Female","false","false","true","false","""event"",""trial"",""time""
""fullscreenenter"",""5"",""11618""
","
","
","""event"",""trial"",""time""
""fullscreenenter"",""5"",""11618""
","
","","images/earth.jpg","","","","","","","","","","","","","","fixation","","","","","",""
"d3-animate-choice","159","489509","0.0-76.0-0.8","606","3801","12","Female","false","false","true","false","""event"",""trial"",""time""
""fullscreenenter"",""5"",""11618""
","
","
","""event"",""trial"",""time""
""fullscreenenter"",""5"",""11618""
","
","358.10000002384186","","48","","","3000","1","","","images/earth.jpg","images/rocket1","images/rocket2","null","images/rocket1","","1","real","null","2","","",""
"d3-animate-choice","160","492293","0.0-76.0-1.8","606","3801","12","Female","false","false","true","false","""event"",""trial"",""time""
""fullscreenenter"",""5"",""11618""
","
","
","""event"",""trial"",""time""
""fullscreenenter"",""5"",""11618""
","
","773.3000000715256","","48","","","3000","1","","","images/purpleplanet.jpg","images/alien4","images/alien3","images/rocket1","images/alien4","images/t.png","2","real","true","2","common","1","2022-11-20 17:21:55.694"
"two-step-fixation","161","493296","0.0-76.0-2.8","606","3801","12","Female","false","false","true","false","""event"",""trial"",""time""
""fullscreenenter"",""5"",""11618""
","
","
","""event"",""trial"",""time""
""fullscreenenter"",""5"",""11618""
","
","","images/earth.jpg","","","","","","","","","","","","","","fixation","","","","","",""
"d3-animate-choice","162","495696","0.0-76.0-0.9","606","3801","12","Female","false","false","true","false","""event"",""trial"",""time""
""fullscreenenter"",""5"",""11618""
","
","
","""event"",""trial"",""time""
""fullscreenenter"",""5"",""11618""
","
","395.1999999284744","","48","","","3000","1","","","images/earth.jpg","images/rocket1","images/rocket2","null","images/rocket1","","1","real","null","2","","",""
"d3-animate-choice","163","498124","0.0-76.0-1.9","606","3801","12","Female","false","false","true","false","""event"",""trial"",""time""
""fullscreenenter"",""5"",""11618""
","
","
","""event"",""trial"",""time""
""fullscreenenter"",""5"",""11618""
","
","422.2000000476837","","48","","","3000","1","","","images/purpleplanet.jpg","images/alien4","images/alien3","images/rocket1","images/alien4","images/nothing.png","2","real","true","2","common","0","2022-11-20 17:22:01.525"
"two-step-fixation","164","499133","0.0-76.0-2.9","606","3801","12","Female","false","false","true","false","""event"",""trial"",""time""
""fullscreenenter"",""5"",""11618""
","
","
","""event"",""trial"",""time""
""fullscreenenter"",""5"",""11618""
","
","","images/earth.jpg","","","","","","","","","","","","","","fixation","","","","","",""
"d3-animate-choice","165","501333","0.0-76.0-0.10","606","3801","12","Female","false","false","true","false","""event"",""trial"",""time""
""fullscreenenter"",""5"",""11618""
","
","
","""event"",""trial"",""time""
""fullscreenenter"",""5"",""11618""
","
","192.29999995231628","","48","","","3000","1","","","images/earth.jpg","images/rocket1","images/rocket2","null","images/rocket1","","1","real","null","2","","",""
"d3-animate-choice","166","503717","0.0-76.0-1.10","606","3801","12","Female","false","false","true","false","""event"",""trial"",""time""
""fullscreenenter"",""5"",""11618""
","
","
","""event"",""trial"",""time""
""fullscreenenter"",""5"",""11618""
","
","377.90000009536743","","49","","","3000","1","","","images/purpleplanet.jpg","images/alien4","images/alien3","images/rocket1","images/alien3","images/nothing.png","2","real","true","1","common","0","2022-11-20 17:22:07.118"
"two-step-fixation","167","504724","0.0-76.0-2.10","606","3801","12","Female","false","false","true","false","""event"",""trial"",""time""
""fullscreenenter"",""5"",""11618""
","
","
","""event"",""trial"",""time""
""fullscreenenter"",""5"",""11618""
","
","","images/earth.jpg","","","","","","","","","","","","","","fixation","","","","","",""
"d3-animate-choice","168","507141","0.0-76.0-0.11","606","3801","12","Female","false","false","true","false","""event"",""trial"",""time""
""fullscreenenter"",""5"",""11618""
","
","
","""event"",""trial"",""time""
""fullscreenenter"",""5"",""11618""
","
","407.6999999284744","","48","","","3000","1","","","images/earth.jpg","images/rocket1","images/rocket2","null","images/rocket1","","1","real","null","2","","",""
"d3-animate-choice","169","509669","0.0-76.0-1.11","606","3801","12","Female","false","false","true","false","""event"",""trial"",""time""
""fullscreenenter"",""5"",""11618""
","
","
","""event"",""trial"",""time""
""fullscreenenter"",""5"",""11618""
","
","519.7999999523163","","48","","","3000","1","","","images/purpleplanet.jpg","images/alien4","images/alien3","images/rocket1","images/alien4","images/t.png","2","real","true","2","common","1","2022-11-20 17:22:13.070"
"two-step-fixation","170","510676","0.0-76.0-2.11","606","3801","12","Female","false","false","true","false","""event"",""trial"",""time""
""fullscreenenter"",""5"",""11618""
","
","
","""event"",""trial"",""time""
""fullscreenenter"",""5"",""11618""
","
","","images/earth.jpg","","","","","","","","","","","","","","fixation","","","","","",""
"d3-animate-choice","171","514157","0.0-76.0-0.12","606","3801","12","Female","false","false","true","false","""event"",""trial"",""time""
""fullscreenenter"",""5"",""11618""
","
","
","""event"",""trial"",""time""
""fullscreenenter"",""5"",""11618""
","
","1472.2999999523163","","48","","","3000","1","","","images/earth.jpg","images/rocket1","images/rocket2","null","images/rocket1","","1","real","null","2","","",""
"d3-animate-choice","172","517181","0.0-76.0-1.12","606","3801","12","Female","false","false","true","false","""event"",""trial"",""time""
""fullscreenenter"",""5"",""11618""
","
","
","""event"",""trial"",""time""
""fullscreenenter"",""5"",""11618""
","
","1016.7999999523163","","49","","","3000","1","","","images/purpleplanet.jpg","images/alien4","images/alien3","images/rocket1","images/alien3","images/nothing.png","2","real","true","1","common","0","2022-11-20 17:22:20.582"
"two-step-fixation","173","518192","0.0-76.0-2.12","606","3801","12","Female","false","false","true","false","""event"",""trial"",""time""
""fullscreenenter"",""5"",""11618""
","
","
","""event"",""trial"",""time""
""fullscreenenter"",""5"",""11618""
","
","","images/earth.jpg","","","","","","","","","","","","","","fixation","","","","","",""
"d3-animate-choice","174","520549","0.0-76.0-0.13","606","3801","12","Female","false","false","true","false","""event"",""trial"",""time""
""fullscreenenter"",""5"",""11618""
","
","
","""event"",""trial"",""time""
""fullscreenenter"",""5"",""11618""
","
","349.39999997615814","","48","","","3000","1","","","images/earth.jpg","images/rocket1","images/rocket2","null","images/rocket1","","1","real","null","2","","",""
"d3-animate-choice","175","523021","0.0-76.0-1.13","606","3801","12","Female","false","false","true","false","""event"",""trial"",""time""
""fullscreenenter"",""5"",""11618""
","
","
","""event"",""trial"",""time""
""fullscreenenter"",""5"",""11618""
","
","462.10000002384186","","48","","","3000","1","","","images/purpleplanet.jpg","images/alien4","images/alien3","images/rocket1","images/alien4","images/nothing.png","2","real","true","2","common","0","2022-11-20 17:22:26.422"
"two-step-fixation","176","524028","0.0-76.0-2.13","606","3801","12","Female","false","false","true","false","""event"",""trial"",""time""
""fullscreenenter"",""5"",""11618""
","
","
","""event"",""trial"",""time""
""fullscreenenter"",""5"",""11618""
","
","","images/earth.jpg","","","","","","","","","","","","","","fixation","","","","","",""
"d3-animate-choice","177","527661","0.0-76.0-0.14","606","3801","12","Female","false","false","true","false","""event"",""trial"",""time""
""fullscreenenter"",""5"",""11618""
","
","
","""event"",""trial"",""time""
""fullscreenenter"",""5"",""11618""
","
","1627.8999999761581","","48","","","3000","1","","","images/earth.jpg","images/rocket1","images/rocket2","null","images/rocket1","","1","real","null","2","","",""
"d3-animate-choice","178","531670","0.0-76.0-1.14","606","3801","12","Female","false","false","true","false","""event"",""trial"",""time""
""fullscreenenter"",""5"",""11618""
","
","
","""event"",""trial"",""time""
""fullscreenenter"",""5"",""11618""
","
","3129.7999999523163","","48","","","3000","0","","","images/purpleplanet.jpg","images/alien4","images/alien3","images/rocket1","","","2","real","true","2","common","0","2022-11-20 17:22:35.071"
"two-step-fixation","179","532676","0.0-76.0-2.14","606","3801","12","Female","false","false","true","false","""event"",""trial"",""time""
""fullscreenenter"",""5"",""11618""
","
","
","""event"",""trial"",""time""
""fullscreenenter"",""5"",""11618""
","
","","images/earth.jpg","","","","","","","","","","","","","","fixation","","","","","",""
"d3-animate-choice","180","535619","0.0-76.0-0.15","606","3801","12","Female","false","false","true","false","""event"",""trial"",""time""
""fullscreenenter"",""5"",""11618""
","
","
","""event"",""trial"",""time""
""fullscreenenter"",""5"",""11618""
","
","709.1999999284744","","57","","","3000","1","935.2999999523163","48","images/earth.jpg","images/rocket1","images/rocket2","null","images/rocket1","","1","real","null","","","",""
"d3-animate-choice","181","539208","0.0-76.0-1.15","606","3801","12","Female","false","false","true","false","""event"",""trial"",""time""
""fullscreenenter"",""5"",""11618""
","
","
","""event"",""trial"",""time""
""fullscreenenter"",""5"",""11618""
","
","1578.0999999046326","","49","","","3000","1","","","images/purpleplanet.jpg","images/alien4","images/alien3","images/rocket1","images/alien3","images/nothing.png","2","real","true","1","common","0","2022-11-20 17:22:42.609"
"two-step-fixation","182","540212","0.0-76.0-2.15","606","3801","12","Female","false","false","true","false","""event"",""trial"",""time""
""fullscreenenter"",""5"",""11618""
","
","
","""event"",""trial"",""time""
""fullscreenenter"",""5"",""11618""
","
","","images/earth.jpg","","","","","","","","","","","","","","fixation","","","","","",""
"d3-animate-choice","183","543141","0.0-76.0-0.16","606","3801","12","Female","false","false","true","false","""event"",""trial"",""time""
""fullscreenenter"",""5"",""11618""
","
","
","""event"",""trial"",""time""
""fullscreenenter"",""5"",""11618""
","
","921.1000000238419","","49","","","3000","1","","","images/earth.jpg","images/rocket1","images/rocket2","null","images/rocket2","","1","real","null","1","","",""
"d3-animate-choice","184","545964","0.0-76.0-1.16","606","3801","12","Female","false","false","true","false","""event"",""trial"",""time""
""fullscreenenter"",""5"",""11618""
","
","
","""event"",""trial"",""time""
""fullscreenenter"",""5"",""11618""
","
","819.6000000238419","","49","","","3000","1","","","images/redplanet1.jpg","images/alien2","images/alien1","images/rocket2","images/alien1","images/t.png","2","real","true","1","common","1","2022-11-20 17:22:49.366"
"two-step-fixation","185","546972","0.0-76.0-2.16","606","3801","12","Female","false","false","true","false","""event"",""trial"",""time""
""fullscreenenter"",""5"",""11618""
","
","
","""event"",""trial"",""time""
""fullscreenenter"",""5"",""11618""
","
","","images/earth.jpg","","","","","","","","","","","","","","fixation","","","","","",""
"d3-animate-choice","186","549395","0.0-76.0-0.17","606","3801","12","Female","false","false","true","false","""event"",""trial"",""time""
""fullscreenenter"",""5"",""11618""
","
","
","""event"",""trial"",""time""
""fullscreenenter"",""5"",""11618""
","
","414.89999997615814","","49","","","3000","1","","","images/earth.jpg","images/rocket1","images/rocket2","null","images/rocket2","","1","real","null","1","","",""
"d3-animate-choice","187","552340","0.0-76.0-1.17","606","3801","12","Female","false","false","true","false","""event"",""trial"",""time""
""fullscreenenter"",""5"",""11618""
","
","
","""event"",""trial"",""time""
""fullscreenenter"",""5"",""11618""
","
","938.6000000238419","","49","","","3000","1","","","images/purpleplanet.jpg","images/alien4","images/alien3","images/rocket2","images/alien3","images/nothing.png","2","real","false","1","rare","0","2022-11-20 17:22:55.741"
"two-step-fixation","188","553348","0.0-76.0-2.17","606","3801","12","Female","false","false","true","false","""event"",""trial"",""time""
""fullscreenenter"",""5"",""11618""
","
","
","""event"",""trial"",""time""
""fullscreenenter"",""5"",""11618""
","
","","images/earth.jpg","","","","","","","","","","","","","","fixation","","","","","",""
"d3-animate-choice","189","555948","0.0-76.0-0.18","606","3801","12","Female","false","false","true","false","""event"",""trial"",""time""
""fullscreenenter"",""5"",""11618""
","
","
","""event"",""trial"",""time""
""fullscreenenter"",""5"",""11618""
","
","591.5","","49","","","3000","1","1204.2999999523163,1626.0999999046326","50,49","images/earth.jpg","images/rocket1","images/rocket2","null","images/rocket2","","1","real","null","1","","",""
"d3-animate-choice","190","558542","0.0-76.0-1.18","606","3801","12","Female","false","false","true","false","""event"",""trial"",""time""
""fullscreenenter"",""5"",""11618""
","
","
","""event"",""trial"",""time""
""fullscreenenter"",""5"",""11618""
","
","585.7999999523163","","49","","","3000","1","","","images/redplanet1.jpg","images/alien2","images/alien1","images/rocket2","images/alien1","images/nothing.png","2","real","true","1","common","0","2022-11-20 17:23:01.943"
"two-step-fixation","191","559545","0.0-76.0-2.18","606","3801","12","Female","false","false","true","false","""event"",""trial"",""time""
""fullscreenenter"",""5"",""11618""
","
","
","""event"",""trial"",""time""
""fullscreenenter"",""5"",""11618""
","
","","images/earth.jpg","","","","","","","","","","","","","","fixation","","","","","",""
"d3-animate-choice","192","562604","0.0-76.0-0.19","606","3801","12","Female","false","false","true","false","""event"",""trial"",""time""
""fullscreenenter"",""5"",""11618""
","
","
","""event"",""trial"",""time""
""fullscreenenter"",""5"",""11618""
","
","1047.6999999284744","","49","","","3000","1","","","images/earth.jpg","images/rocket1","images/rocket2","null","images/rocket2","","1","real","null","1","","",""
"d3-animate-choice","193","565394","0.0-76.0-1.19","606","3801","12","Female","false","false","true","false","""event"",""trial"",""time""
""fullscreenenter"",""5"",""11618""
","
","
","""event"",""trial"",""time""
""fullscreenenter"",""5"",""11618""
","
","782","","49","","","3000","1","","","images/redplanet1.jpg","images/alien2","images/alien1","images/rocket2","images/alien1","images/t.png","2","real","true","1","common","1","2022-11-20 17:23:08.796"
"two-step-fixation","194","566404","0.0-76.0-2.19","606","3801","12","Female","false","false","true","false","""event"",""trial"",""time""
""fullscreenenter"",""5"",""11618""
","
","
","""event"",""trial"",""time""
""fullscreenenter"",""5"",""11618""
","
","","images/earth.jpg","","","","","","","","","","","","","","fixation","","","","","",""
"d3-animate-choice","195","569959","0.0-76.0-0.20","606","3801","12","Female","false","false","true","false","""event"",""trial"",""time""
""fullscreenenter"",""5"",""11618""
","
","
","""event"",""trial"",""time""
""fullscreenenter"",""5"",""11618""
","
","1550.8999999761581","","49","","","3000","1","","","images/earth.jpg","images/rocket1","images/rocket2","null","images/rocket2","","1","real","null","1","","",""
"d3-animate-choice","196","572632","0.0-76.0-1.20","606","3801","12","Female","false","false","true","false","""event"",""trial"",""time""
""fullscreenenter"",""5"",""11618""
","
","
","""event"",""trial"",""time""
""fullscreenenter"",""5"",""11618""
","
","665.1000000238419","","49","","","3000","1","","","images/redplanet1.jpg","images/alien2","images/alien1","images/rocket2","images/alien1","images/nothing.png","2","real","true","1","common","0","2022-11-20 17:23:16.034"
"two-step-fixation","197","573644","0.0-76.0-2.20","606","3801","12","Female","false","false","true","false","""event"",""trial"",""time""
""fullscreenenter"",""5"",""11618""
","
","
","""event"",""trial"",""time""
""fullscreenenter"",""5"",""11618""
","
","","images/earth.jpg","","","","","","","","","","","","","","fixation","","","","","",""
"d3-animate-choice","198","577124","0.0-76.0-0.21","606","3801","12","Female","false","false","true","false","""event"",""trial"",""time""
""fullscreenenter"",""5"",""11618""
","
","
","""event"",""trial"",""time""
""fullscreenenter"",""5"",""11618""
","
","1474.1999999284744","","49","","","3000","1","","","images/earth.jpg","images/rocket1","images/rocket2","null","images/rocket2","","1","real","null","1","","",""
"d3-animate-choice","199","579748","0.0-76.0-1.21","606","3801","12","Female","false","false","true","false","""event"",""trial"",""time""
""fullscreenenter"",""5"",""11618""
","
","
","""event"",""trial"",""time""
""fullscreenenter"",""5"",""11618""
","
","617.1999999284744","","49","","","3000","1","","","images/redplanet1.jpg","images/alien2","images/alien1","images/rocket2","images/alien1","images/t.png","2","real","true","1","common","1","2022-11-20 17:23:23.150"
"two-step-fixation","200","580756","0.0-76.0-2.21","606","3801","12","Female","false","false","true","false","""event"",""trial"",""time""
""fullscreenenter"",""5"",""11618""
""blur"",""201"",""581530""
""focus"",""201"",""581534""
""blur"",""201"",""581613""
""focus"",""201"",""581614""
""blur"",""201"",""581695""
""focus"",""201"",""581696""
","""event"",""trial"",""time""
""blur"",""201"",""581530""
""blur"",""201"",""581613""
""blur"",""201"",""581695""
","""event"",""trial"",""time""
""focus"",""201"",""581534""
""focus"",""201"",""581614""
""focus"",""201"",""581696""
","""event"",""trial"",""time""
""fullscreenenter"",""5"",""11618""
","
","","images/earth.jpg","","","","","","","","","","","","","","fixation","","","","","",""
"d3-animate-choice","201","584228","0.0-76.0-0.22","606","3801","12","Female","false","false","true","false","""event"",""trial"",""time""
""fullscreenenter"",""5"",""11618""
""blur"",""201"",""581530""
""focus"",""201"",""581534""
""blur"",""201"",""581613""
""focus"",""201"",""581614""
""blur"",""201"",""581695""
""focus"",""201"",""581696""
","""event"",""trial"",""time""
""blur"",""201"",""581530""
""blur"",""201"",""581613""
""blur"",""201"",""581695""
","""event"",""trial"",""time""
""focus"",""201"",""581534""
""focus"",""201"",""581614""
""focus"",""201"",""581696""
","""event"",""trial"",""time""
""fullscreenenter"",""5"",""11618""
","
","270.5","","9","","","3000","1","1136.8000000715256,1465.8999999761581","9,49","images/earth.jpg","images/rocket1","images/rocket2","null","images/rocket2","","1","real","null","","","",""
"d3-animate-choice","202","587325","0.0-76.0-1.22","606","3801","12","Female","false","false","true","false","""event"",""trial"",""time""
""fullscreenenter"",""5"",""11618""
""blur"",""201"",""581530""
""focus"",""201"",""581534""
""blur"",""201"",""581613""
""focus"",""201"",""581614""
""blur"",""201"",""581695""
""focus"",""201"",""581696""
","""event"",""trial"",""time""
""blur"",""201"",""581530""
""blur"",""201"",""581613""
""blur"",""201"",""581695""
","""event"",""trial"",""time""
""focus"",""201"",""581534""
""focus"",""201"",""581614""
""focus"",""201"",""581696""
","""event"",""trial"",""time""
""fullscreenenter"",""5"",""11618""
","
","1090.6000000238419","","48","","","3000","1","","","images/redplanet1.jpg","images/alien2","images/alien1","images/rocket2","images/alien2","images/t.png","2","real","true","2","common","1","2022-11-20 17:23:30.726"
"two-step-fixation","203","588332","0.0-76.0-2.22","606","3801","12","Female","false","false","true","false","""event"",""trial"",""time""
""fullscreenenter"",""5"",""11618""
""blur"",""201"",""581530""
""focus"",""201"",""581534""
""blur"",""201"",""581613""
""focus"",""201"",""581614""
""blur"",""201"",""581695""
""focus"",""201"",""581696""
","""event"",""trial"",""time""
""blur"",""201"",""581530""
""blur"",""201"",""581613""
""blur"",""201"",""581695""
","""event"",""trial"",""time""
""focus"",""201"",""581534""
""focus"",""201"",""581614""
""focus"",""201"",""581696""
","""event"",""trial"",""time""
""fullscreenenter"",""5"",""11618""
","
","","images/earth.jpg","","","","","","","","","","","","","","fixation","","","","","",""
"d3-animate-choice","204","590947","0.0-76.0-0.23","606","3801","12","Female","false","false","true","false","""event"",""trial"",""time""
""fullscreenenter"",""5"",""11618""
""blur"",""201"",""581530""
""focus"",""201"",""581534""
""blur"",""201"",""581613""
""focus"",""201"",""581614""
""blur"",""201"",""581695""
""focus"",""201"",""581696""
","""event"",""trial"",""time""
""blur"",""201"",""581530""
""blur"",""201"",""581613""
""blur"",""201"",""581695""
","""event"",""trial"",""time""
""focus"",""201"",""581534""
""focus"",""201"",""581614""
""focus"",""201"",""581696""
","""event"",""trial"",""time""
""fullscreenenter"",""5"",""11618""
","
","603.8999999761581","","49","","","3000","1","","","images/earth.jpg","images/rocket1","images/rocket2","null","images/rocket2","","1","real","null","1","","",""
"d3-animate-choice","205","593475","0.0-76.0-1.23","606","3801","12","Female","false","false","true","false","""event"",""trial"",""time""
""fullscreenenter"",""5"",""11618""
""blur"",""201"",""581530""
""focus"",""201"",""581534""
""blur"",""201"",""581613""
""focus"",""201"",""581614""
""blur"",""201"",""581695""
""focus"",""201"",""581696""
","""event"",""trial"",""time""
""blur"",""201"",""581530""
""blur"",""201"",""581613""
""blur"",""201"",""581695""
","""event"",""trial"",""time""
""focus"",""201"",""581534""
""focus"",""201"",""581614""
""focus"",""201"",""581696""
","""event"",""trial"",""time""
""fullscreenenter"",""5"",""11618""
","
","522.1000000238419","","49","","","3000","1","","","images/redplanet1.jpg","images/alien2","images/alien1","images/rocket2","images/alien1","images/t.png","2","real","true","1","common","1","2022-11-20 17:23:36.877"
"two-step-fixation","206","594481","0.0-76.0-2.23","606","3801","12","Female","false","false","true","false","""event"",""trial"",""time""
""fullscreenenter"",""5"",""11618""
""blur"",""201"",""581530""
""focus"",""201"",""581534""
""blur"",""201"",""581613""
""focus"",""201"",""581614""
""blur"",""201"",""581695""
""focus"",""201"",""581696""
","""event"",""trial"",""time""
""blur"",""201"",""581530""
""blur"",""201"",""581613""
""blur"",""201"",""581695""
","""event"",""trial"",""time""
""focus"",""201"",""581534""
""focus"",""201"",""581614""
""focus"",""201"",""581696""
","""event"",""trial"",""time""
""fullscreenenter"",""5"",""11618""
","
","","images/earth.jpg","","","","","","","","","","","","","","fixation","","","","","",""
"d3-animate-choice","207","596820","0.0-76.0-0.24","606","3801","12","Female","false","false","true","false","""event"",""trial"",""time""
""fullscreenenter"",""5"",""11618""
""blur"",""201"",""581530""
""focus"",""201"",""581534""
""blur"",""201"",""581613""
""focus"",""201"",""581614""
""blur"",""201"",""581695""
""focus"",""201"",""581696""
","""event"",""trial"",""time""
""blur"",""201"",""581530""
""blur"",""201"",""581613""
""blur"",""201"",""581695""
","""event"",""trial"",""time""
""focus"",""201"",""581534""
""focus"",""201"",""581614""
""focus"",""201"",""581696""
","""event"",""trial"",""time""
""fullscreenenter"",""5"",""11618""
","
","330.2999999523163","","49","","","3000","1","","","images/earth.jpg","images/rocket1","images/rocket2","null","images/rocket2","","1","real","null","1","","",""
"d3-animate-choice","208","599748","0.0-76.0-1.24","606","3801","12","Female","false","false","true","false","""event"",""trial"",""time""
""fullscreenenter"",""5"",""11618""
""blur"",""201"",""581530""
""focus"",""201"",""581534""
""blur"",""201"",""581613""
""focus"",""201"",""581614""
""blur"",""201"",""581695""
""focus"",""201"",""581696""
","""event"",""trial"",""time""
""blur"",""201"",""581530""
""blur"",""201"",""581613""
""blur"",""201"",""581695""
","""event"",""trial"",""time""
""focus"",""201"",""581534""
""focus"",""201"",""581614""
""focus"",""201"",""581696""
","""event"",""trial"",""time""
""fullscreenenter"",""5"",""11618""
","
","922.8000000715256","","48","","","3000","1","","","images/redplanet1.jpg","images/alien2","images/alien1","images/rocket2","images/alien2","images/t.png","2","real","true","2","common","1","2022-11-20 17:23:43.149"
"two-step-fixation","209","600756","0.0-76.0-2.24","606","3801","12","Female","false","false","true","false","""event"",""trial"",""time""
""fullscreenenter"",""5"",""11618""
""blur"",""201"",""581530""
""focus"",""201"",""581534""
""blur"",""201"",""581613""
""focus"",""201"",""581614""
""blur"",""201"",""581695""
""focus"",""201"",""581696""
","""event"",""trial"",""time""
""blur"",""201"",""581530""
""blur"",""201"",""581613""
""blur"",""201"",""581695""
","""event"",""trial"",""time""
""focus"",""201"",""581534""
""focus"",""201"",""581614""
""focus"",""201"",""581696""
","""event"",""trial"",""time""
""fullscreenenter"",""5"",""11618""
","
","","images/earth.jpg","","","","","","","","","","","","","","fixation","","","","","",""
"d3-animate-choice","210","603244","0.0-76.0-0.25","606","3801","12","Female","false","false","true","false","""event"",""trial"",""time""
""fullscreenenter"",""5"",""11618""
""blur"",""201"",""581530""
""focus"",""201"",""581534""
""blur"",""201"",""581613""
""focus"",""201"",""581614""
""blur"",""201"",""581695""
""focus"",""201"",""581696""
","""event"",""trial"",""time""
""blur"",""201"",""581530""
""blur"",""201"",""581613""
""blur"",""201"",""581695""
","""event"",""trial"",""time""
""focus"",""201"",""581534""
""focus"",""201"",""581614""
""focus"",""201"",""581696""
","""event"",""trial"",""time""
""fullscreenenter"",""5"",""11618""
","
","479.59999990463257","","49","","","3000","1","","","images/earth.jpg","images/rocket1","images/rocket2","null","images/rocket2","","1","real","null","1","","",""
"d3-animate-choice","211","605709","0.0-76.0-1.25","606","3801","12","Female","false","false","true","false","""event"",""trial"",""time""
""fullscreenenter"",""5"",""11618""
""blur"",""201"",""581530""
""focus"",""201"",""581534""
""blur"",""201"",""581613""
""focus"",""201"",""581614""
""blur"",""201"",""581695""
""focus"",""201"",""581696""
","""event"",""trial"",""time""
""blur"",""201"",""581530""
""blur"",""201"",""581613""
""blur"",""201"",""581695""
","""event"",""trial"",""time""
""focus"",""201"",""581534""
""focus"",""201"",""581614""
""focus"",""201"",""581696""
","""event"",""trial"",""time""
""fullscreenenter"",""5"",""11618""
","
","459.59999990463257","","49","","","3000","1","","","images/redplanet1.jpg","images/alien2","images/alien1","images/rocket2","images/alien1","images/t.png","2","real","true","1","common","1","2022-11-20 17:23:49.110"
"two-step-fixation","212","606716","0.0-76.0-2.25","606","3801","12","Female","false","false","true","false","""event"",""trial"",""time""
""fullscreenenter"",""5"",""11618""
""blur"",""201"",""581530""
""focus"",""201"",""581534""
""blur"",""201"",""581613""
""focus"",""201"",""581614""
""blur"",""201"",""581695""
""focus"",""201"",""581696""
","""event"",""trial"",""time""
""blur"",""201"",""581530""
""blur"",""201"",""581613""
""blur"",""201"",""581695""
","""event"",""trial"",""time""
""focus"",""201"",""581534""
""focus"",""201"",""581614""
""focus"",""201"",""581696""
","""event"",""trial"",""time""
""fullscreenenter"",""5"",""11618""
","
","","images/earth.jpg","","","","","","","","","","","","","","fixation","","","","","",""
"d3-animate-choice","213","610375","0.0-76.0-0.26","606","3801","12","Female","false","false","true","false","""event"",""trial"",""time""
""fullscreenenter"",""5"",""11618""
""blur"",""201"",""581530""
""focus"",""201"",""581534""
""blur"",""201"",""581613""
""focus"",""201"",""581614""
""blur"",""201"",""581695""
""focus"",""201"",""581696""
","""event"",""trial"",""time""
""blur"",""201"",""581530""
""blur"",""201"",""581613""
""blur"",""201"",""581695""
","""event"",""trial"",""time""
""focus"",""201"",""581534""
""focus"",""201"",""581614""
""focus"",""201"",""581696""
","""event"",""trial"",""time""
""fullscreenenter"",""5"",""11618""
","
","1651.9000000953674","","49","","","3000","1","","","images/earth.jpg","images/rocket1","images/rocket2","null","images/rocket2","","1","real","null","1","","",""
"d3-animate-choice","214","613964","0.0-76.0-1.26","606","3801","12","Female","false","false","true","false","""event"",""trial"",""time""
""fullscreenenter"",""5"",""11618""
""blur"",""201"",""581530""
""focus"",""201"",""581534""
""blur"",""201"",""581613""
""focus"",""201"",""581614""
""blur"",""201"",""581695""
""focus"",""201"",""581696""
","""event"",""trial"",""time""
""blur"",""201"",""581530""
""blur"",""201"",""581613""
""blur"",""201"",""581695""
","""event"",""trial"",""time""
""focus"",""201"",""581534""
""focus"",""201"",""581614""
""focus"",""201"",""581696""
","""event"",""trial"",""time""
""fullscreenenter"",""5"",""11618""
","
","1581.7999999523163","","48","","","3000","1","","","images/purpleplanet.jpg","images/alien4","images/alien3","images/rocket2","images/alien4","images/t.png","2","real","false","2","rare","1","2022-11-20 17:23:57.365"
"two-step-fixation","215","614972","0.0-76.0-2.26","606","3801","12","Female","false","false","true","false","""event"",""trial"",""time""
""fullscreenenter"",""5"",""11618""
""blur"",""201"",""581530""
""focus"",""201"",""581534""
""blur"",""201"",""581613""
""focus"",""201"",""581614""
""blur"",""201"",""581695""
""focus"",""201"",""581696""
","""event"",""trial"",""time""
""blur"",""201"",""581530""
""blur"",""201"",""581613""
""blur"",""201"",""581695""
","""event"",""trial"",""time""
""focus"",""201"",""581534""
""focus"",""201"",""581614""
""focus"",""201"",""581696""
","""event"",""trial"",""time""
""fullscreenenter"",""5"",""11618""
","
","","images/earth.jpg","","","","","","","","","","","","","","fixation","","","","","",""
"d3-animate-choice","216","617916","0.0-76.0-0.27","606","3801","12","Female","false","false","true","false","""event"",""trial"",""time""
""fullscreenenter"",""5"",""11618""
""blur"",""201"",""581530""
""focus"",""201"",""581534""
""blur"",""201"",""581613""
""focus"",""201"",""581614""
""blur"",""201"",""581695""
""focus"",""201"",""581696""
","""event"",""trial"",""time""
""blur"",""201"",""581530""
""blur"",""201"",""581613""
""blur"",""201"",""581695""
","""event"",""trial"",""time""
""focus"",""201"",""581534""
""focus"",""201"",""581614""
""focus"",""201"",""581696""
","""event"",""trial"",""time""
""fullscreenenter"",""5"",""11618""
","
","936.6000000238419","","49","","","3000","1","","","images/earth.jpg","images/rocket1","images/rocket2","null","images/rocket2","","1","real","null","1","","",""
"d3-animate-choice","217","621428","0.0-76.0-1.27","606","3801","12","Female","false","false","true","false","""event"",""trial"",""time""
""fullscreenenter"",""5"",""11618""
""blur"",""201"",""581530""
""focus"",""201"",""581534""
""blur"",""201"",""581613""
""focus"",""201"",""581614""
""blur"",""201"",""581695""
""focus"",""201"",""581696""
","""event"",""trial"",""time""
""blur"",""201"",""581530""
""blur"",""201"",""581613""
""blur"",""201"",""581695""
","""event"",""trial"",""time""
""focus"",""201"",""581534""
""focus"",""201"",""581614""
""focus"",""201"",""581696""
","""event"",""trial"",""time""
""fullscreenenter"",""5"",""11618""
","
","1502.5","","49","","","3000","1","","","images/purpleplanet.jpg","images/alien4","images/alien3","images/rocket2","images/alien3","images/t.png","2","real","false","1","rare","1","2022-11-20 17:24:04.829"
"two-step-fixation","218","622434","0.0-76.0-2.27","606","3801","12","Female","false","false","true","false","""event"",""trial"",""time""
""fullscreenenter"",""5"",""11618""
""blur"",""201"",""581530""
""focus"",""201"",""581534""
""blur"",""201"",""581613""
""focus"",""201"",""581614""
""blur"",""201"",""581695""
""focus"",""201"",""581696""
","""event"",""trial"",""time""
""blur"",""201"",""581530""
""blur"",""201"",""581613""
""blur"",""201"",""581695""
","""event"",""trial"",""time""
""focus"",""201"",""581534""
""focus"",""201"",""581614""
""focus"",""201"",""581696""
","""event"",""trial"",""time""
""fullscreenenter"",""5"",""11618""
","
","","images/earth.jpg","","","","","","","","","","","","","","fixation","","","","","",""
"d3-animate-choice","219","625398","0.0-76.0-0.28","606","3801","12","Female","false","false","true","false","""event"",""trial"",""time""
""fullscreenenter"",""5"",""11618""
""blur"",""201"",""581530""
""focus"",""201"",""581534""
""blur"",""201"",""581613""
""focus"",""201"",""581614""
""blur"",""201"",""581695""
""focus"",""201"",""581696""
","""event"",""trial"",""time""
""blur"",""201"",""581530""
""blur"",""201"",""581613""
""blur"",""201"",""581695""
","""event"",""trial"",""time""
""focus"",""201"",""581534""
""focus"",""201"",""581614""
""focus"",""201"",""581696""
","""event"",""trial"",""time""
""fullscreenenter"",""5"",""11618""
","
","955.3000000715256","","49","","","3000","1","","","images/earth.jpg","images/rocket1","images/rocket2","null","images/rocket2","","1","real","null","1","","",""
"d3-animate-choice","220","628964","0.0-76.0-1.28","606","3801","12","Female","false","false","true","false","""event"",""trial"",""time""
""fullscreenenter"",""5"",""11618""
""blur"",""201"",""581530""
""focus"",""201"",""581534""
""blur"",""201"",""581613""
""focus"",""201"",""581614""
""blur"",""201"",""581695""
""focus"",""201"",""581696""
","""event"",""trial"",""time""
""blur"",""201"",""581530""
""blur"",""201"",""581613""
""blur"",""201"",""581695""
","""event"",""trial"",""time""
""focus"",""201"",""581534""
""focus"",""201"",""581614""
""focus"",""201"",""581696""
","""event"",""trial"",""time""
""fullscreenenter"",""5"",""11618""
","
","1559.8999999761581","","49","","","3000","1","","","images/redplanet1.jpg","images/alien2","images/alien1","images/rocket2","images/alien1","images/t.png","2","real","true","1","common","1","2022-11-20 17:24:12.365"
"two-step-fixation","221","629975","0.0-76.0-2.28","606","3801","12","Female","false","false","true","false","""event"",""trial"",""time""
""fullscreenenter"",""5"",""11618""
""blur"",""201"",""581530""
""focus"",""201"",""581534""
""blur"",""201"",""581613""
""focus"",""201"",""581614""
""blur"",""201"",""581695""
""focus"",""201"",""581696""
","""event"",""trial"",""time""
""blur"",""201"",""581530""
""blur"",""201"",""581613""
""blur"",""201"",""581695""
","""event"",""trial"",""time""
""focus"",""201"",""581534""
""focus"",""201"",""581614""
""focus"",""201"",""581696""
","""event"",""trial"",""time""
""fullscreenenter"",""5"",""11618""
","
","","images/earth.jpg","","","","","","","","","","","","","","fixation","","","","","",""
"d3-animate-choice","222","633125","0.0-76.0-0.29","606","3801","12","Female","false","false","true","false","""event"",""trial"",""time""
""fullscreenenter"",""5"",""11618""
""blur"",""201"",""581530""
""focus"",""201"",""581534""
""blur"",""201"",""581613""
""focus"",""201"",""581614""
