"trial_type","trial_index","time_elapsed","internal_node_id","participant_id","subject_id","age","gender","rocket_sides","red_planet_first_rocket","red_display_order","purple_display_order","interactions","blur_events","focus_events","fullscreenenter_events","fullscreenexit_events","rt","stimulus","key_press","button_pressed","success","duration","valid_pressed","rts","keys","planet_text","right_text","left_text","center_text","chosen_text","reward_text","trial_stage","practice_trial","transition_type","choice","transition","reward","timestamp"
"pavlovia","0","7","0.0-0.0","3046","4989","25","Female","false","false","true","false","
","
","
","
","
","","","","","","","","","","","","","","","","","","","","","",""
"html-keyboard-response","1","3446","0.0-1.0","3046","4989","25","Female","false","false","true","false","
","
","
","
","
","3436.800000011921","Welcome! Press the space bar to begin.","32","","","","","","","","","","","","","","","","","","",""
"audio-keyboard-response","2","7337","0.0-2.0","3046","4989","25","Female","false","false","true","false","
","
","
","
","
","3888","audio/beep_loop.wav","32","","","","","","","","","","","","","","","","","","",""
"audio-button-response","3","13375","0.0-3.0","3046","4989","25","Female","false","false","true","false","
","
","
","
","
","NaN","audio/fish.mp3","","1","","","","","","","","","","","","","","","","","",""
"audio-button-response","4","17057","0.0-4.0","3046","4989","25","Female","false","false","true","false","""event"",""trial"",""time""
""fullscreenenter"",""5"",""21756""
","
","
","""event"",""trial"",""time""
""fullscreenenter"",""5"",""21756""
","
","NaN","audio/tiger.mp3","","4","","","","","","","","","","","","","","","","","",""
"fullscreen","5","22743","0.0-5.0","3046","4989","25","Female","false","false","true","false","""event"",""trial"",""time""
""fullscreenenter"",""5"",""21756""
","
","
","""event"",""trial"",""time""
""fullscreenenter"",""5"",""21756""
","
","","","","","true","","","","","","","","","","","","","","","","",""
"d3-instructions","6","36938","0.0-6.0","3046","4989","25","Female","false","false","true","false","""event"",""trial"",""time""
""fullscreenenter"",""5"",""21756""
","
","
","""event"",""trial"",""time""
""fullscreenenter"",""5"",""21756""
","
","","","","","","","","","","","","","","","","","","","","","",""
"d3-instructions","7","45211","0.0-7.0","3046","4989","25","Female","false","false","true","false","""event"",""trial"",""time""
""fullscreenenter"",""5"",""21756""
","
","
","""event"",""trial"",""time""
""fullscreenenter"",""5"",""21756""
","
","","","","","","","","","","","","","","","","","","","","","",""
"d3-instructions","8","52323","0.0-8.0","3046","4989","25","Female","false","false","true","false","""event"",""trial"",""time""
""fullscreenenter"",""5"",""21756""
","
","
","""event"",""trial"",""time""
""fullscreenenter"",""5"",""21756""
","
","","","","","","","","","","","","","","","","","","","","","",""
"d3-instructions","9","63381","0.0-9.0","3046","4989","25","Female","false","false","true","false","""event"",""trial"",""time""
""fullscreenenter"",""5"",""21756""
","
","
","""event"",""trial"",""time""
""fullscreenenter"",""5"",""21756""
","
","","","","","","","","","","","","","","","","","","","","","",""
"d3-instructions","10","83233","0.0-10.0","3046","4989","25","Female","false","false","true","false","""event"",""trial"",""time""
""fullscreenenter"",""5"",""21756""
","
","
","""event"",""trial"",""time""
""fullscreenenter"",""5"",""21756""
","
","","","","","","","","","","","","","","","","","","","","","",""
"d3-animate-choice","11","89855","0.0-11.0","3046","4989","25","Female","false","false","true","false","""event"",""trial"",""time""
""fullscreenenter"",""5"",""21756""
","
","
","""event"",""trial"",""time""
""fullscreenenter"",""5"",""21756""
","
","1428.300000011921","","192","","","3000","1","4581.900000035763","48","images/tutgreenplanet.jpg","images/tutalien1","images/tutalien2","null","images/tutalien1","","NA","practice","null","","","",""
"d3-animate-choice","12","93133","0.0-12.0","3046","4989","25","Female","false","false","true","false","""event"",""trial"",""time""
""fullscreenenter"",""5"",""21756""
","
","
","""event"",""trial"",""time""
""fullscreenenter"",""5"",""21756""
","
","1261.199999988079","","49","","","3000","1","","","images/tutgreenplanet.jpg","images/tutalien1","images/tutalien2","null","images/tutalien2","","NA","practice","null","","","",""
"d3-animate-choice","13","96441","0.0-13.0","3046","4989","25","Female","false","false","true","false","""event"",""trial"",""time""
""fullscreenenter"",""5"",""21756""
","
","
","""event"",""trial"",""time""
""fullscreenenter"",""5"",""21756""
","
","1290.5","","48","","","3000","1","","","images/tutgreenplanet.jpg","images/tutalien1","images/tutalien2","null","images/tutalien1","","NA","practice","null","","","",""
"d3-animate-choice","14","99112","0.0-14.0","3046","4989","25","Female","false","false","true","false","""event"",""trial"",""time""
""fullscreenenter"",""5"",""21756""
","
","
","""event"",""trial"",""time""
""fullscreenenter"",""5"",""21756""
","
","650.0999999642372","","49","","","3000","1","","","images/tutgreenplanet.jpg","images/tutalien1","images/tutalien2","null","images/tutalien2","","NA","practice","null","","","",""
"d3-instructions","15","106262","0.0-15.0","3046","4989","25","Female","false","false","true","false","""event"",""trial"",""time""
""fullscreenenter"",""5"",""21756""
","
","
","""event"",""trial"",""time""
""fullscreenenter"",""5"",""21756""
","
","","","","","","","","","","","","","","","","","","","","","",""
"d3-instructions","16","112499","0.0-16.0","3046","4989","25","Female","false","false","true","false","""event"",""trial"",""time""
""fullscreenenter"",""5"",""21756""
","
","
","""event"",""trial"",""time""
""fullscreenenter"",""5"",""21756""
","
","","","","","","","","","","","","","","","","","","","","","",""
"d3-instructions","17","120837","0.0-17.0","3046","4989","25","Female","false","false","true","false","""event"",""trial"",""time""
""fullscreenenter"",""5"",""21756""
","
","
","""event"",""trial"",""time""
""fullscreenenter"",""5"",""21756""
","
","","","","","","","","","","","","","","","","","","","","","",""
"d3-instructions","18","134990","0.0-18.0","3046","4989","25","Female","false","false","true","false","""event"",""trial"",""time""
""fullscreenenter"",""5"",""21756""
","
","
","""event"",""trial"",""time""
""fullscreenenter"",""5"",""21756""
","
","","","","","","","","","","","","","","","","","","","","","",""
"d3-instructions","19","149421","0.0-19.0","3046","4989","25","Female","false","false","true","false","""event"",""trial"",""time""
""fullscreenenter"",""5"",""21756""
","
","
","""event"",""trial"",""time""
""fullscreenenter"",""5"",""21756""
","
","","","","","","","","","","","","","","","","","","","","","",""
"d3-animate-choice","20","152928","0.0-20.0","3046","4989","25","Female","false","false","true","false","""event"",""trial"",""time""
""fullscreenenter"",""5"",""21756""
","
","
","""event"",""trial"",""time""
""fullscreenenter"",""5"",""21756""
","
","1487.800000011921","","49","","","3000","1","","","images/tutyellowplanet.jpg","null","images/tutalien3","null","images/tutalien3","images/t.png","NA","practice","null","","","",""
"d3-animate-choice","21","155456","0.0-21.0","3046","4989","25","Female","false","false","true","false","""event"",""trial"",""time""
""fullscreenenter"",""5"",""21756""
","
","
","""event"",""trial"",""time""
""fullscreenenter"",""5"",""21756""
","
","514.5999999642372","","49","","","3000","1","","","images/tutyellowplanet.jpg","null","images/tutalien3","null","images/tutalien3","images/t.png","NA","practice","null","","","",""
"d3-animate-choice","22","158018","0.0-22.0","3046","4989","25","Female","false","false","true","false","""event"",""trial"",""time""
""fullscreenenter"",""5"",""21756""
","
","
","""event"",""trial"",""time""
""fullscreenenter"",""5"",""21756""
","
","542","","49","","","3000","1","","","images/tutyellowplanet.jpg","null","images/tutalien3","null","images/tutalien3","images/t.png","NA","practice","null","","","",""
"d3-animate-choice","23","160406","0.0-23.0","3046","4989","25","Female","false","false","true","false","""event"",""trial"",""time""
""fullscreenenter"",""5"",""21756""
","
","
","""event"",""trial"",""time""
""fullscreenenter"",""5"",""21756""
","
","371.80000001192093","","49","","","3000","1","","","images/tutyellowplanet.jpg","null","images/tutalien3","null","images/tutalien3","images/t.png","NA","practice","null","","","",""
"d3-animate-choice","24","162851","0.0-24.0","3046","4989","25","Female","false","false","true","false","""event"",""trial"",""time""
""fullscreenenter"",""5"",""21756""
","
","
","""event"",""trial"",""time""
""fullscreenenter"",""5"",""21756""
","
","423.69999998807907","","49","","","3000","1","","","images/tutyellowplanet.jpg","null","images/tutalien3","null","images/tutalien3","images/nothing.png","NA","practice","null","","","",""
"d3-animate-choice","25","165345","0.0-25.0","3046","4989","25","Female","false","false","true","false","""event"",""trial"",""time""
""fullscreenenter"",""5"",""21756""
","
","
","""event"",""trial"",""time""
""fullscreenenter"",""5"",""21756""
","
","458.0999999642372","","49","","","3000","1","","","images/tutyellowplanet.jpg","null","images/tutalien3","null","images/tutalien3","images/t.png","NA","practice","null","","","",""
"d3-animate-choice","26","167853","0.0-26.0","3046","4989","25","Female","false","false","true","false","""event"",""trial"",""time""
""fullscreenenter"",""5"",""21756""
","
","
","""event"",""trial"",""time""
""fullscreenenter"",""5"",""21756""
","
","498.89999997615814","","49","","","3000","1","","","images/tutyellowplanet.jpg","null","images/tutalien3","null","images/tutalien3","images/nothing.png","NA","practice","null","","","",""
"d3-animate-choice","27","170265","0.0-27.0","3046","4989","25","Female","false","false","true","false","""event"",""trial"",""time""
""fullscreenenter"",""5"",""21756""
","
","
","""event"",""trial"",""time""
""fullscreenenter"",""5"",""21756""
","
","393","","49","","","3000","1","","","images/tutyellowplanet.jpg","null","images/tutalien3","null","images/tutalien3","images/t.png","NA","practice","null","","","",""
"d3-animate-choice","28","172920","0.0-28.0","3046","4989","25","Female","false","false","true","false","""event"",""trial"",""time""
""fullscreenenter"",""5"",""21756""
","
","
","""event"",""trial"",""time""
""fullscreenenter"",""5"",""21756""
","
","639.5","","49","","","3000","1","","","images/tutyellowplanet.jpg","null","images/tutalien3","null","images/tutalien3","images/t.png","NA","practice","null","","","",""
"d3-animate-choice","29","175349","0.0-29.0","3046","4989","25","Female","false","false","true","false","""event"",""trial"",""time""
""fullscreenenter"",""5"",""21756""
","
","
","""event"",""trial"",""time""
""fullscreenenter"",""5"",""21756""
","
","404.5","","49","","","3000","1","","","images/tutyellowplanet.jpg","null","images/tutalien3","null","images/tutalien3","images/t.png","NA","practice","null","","","",""
"d3-instructions","30","182319","0.0-30.0","3046","4989","25","Female","false","false","true","false","""event"",""trial"",""time""
""fullscreenenter"",""5"",""21756""
","
","
","""event"",""trial"",""time""
""fullscreenenter"",""5"",""21756""
","
","","","","","","","","","","","","","","","","","","","","","",""
"d3-instructions","31","192030","0.0-31.0","3046","4989","25","Female","false","false","true","false","""event"",""trial"",""time""
""fullscreenenter"",""5"",""21756""
","
","
","""event"",""trial"",""time""
""fullscreenenter"",""5"",""21756""
","
","","","","","","","","","","","","","","","","","","","","","",""
"d3-instructions","32","198992","0.0-32.0","3046","4989","25","Female","false","false","true","false","""event"",""trial"",""time""
""fullscreenenter"",""5"",""21756""
","
","
","""event"",""trial"",""time""
""fullscreenenter"",""5"",""21756""
","
","","","","","","","","","","","","","","","","","","","","","",""
"d3-instructions","33","209749","0.0-33.0","3046","4989","25","Female","false","false","true","false","""event"",""trial"",""time""
""fullscreenenter"",""5"",""21756""
","
","
","""event"",""trial"",""time""
""fullscreenenter"",""5"",""21756""
","
","","","","","","","","","","","","","","","","","","","","","",""
"d3-animate-choice","34","213011","0.0-34.0","3046","4989","25","Female","false","false","true","false","""event"",""trial"",""time""
""fullscreenenter"",""5"",""21756""
","
","
","""event"",""trial"",""time""
""fullscreenenter"",""5"",""21756""
","
","1243.8999999761581","","49","","","3000","1","","","images/tutgreenplanet.jpg","images/tutalien1","images/tutalien2","null","images/tutalien2","images/t.png","NA","practice","null","","","",""
"d3-animate-choice","35","215379","0.0-35.0","3046","4989","25","Female","false","false","true","false","""event"",""trial"",""time""
""fullscreenenter"",""5"",""21756""
","
","
","""event"",""trial"",""time""
""fullscreenenter"",""5"",""21756""
","
","354.0999999642372","","48","","","3000","1","","","images/tutgreenplanet.jpg","images/tutalien1","images/tutalien2","null","images/tutalien1","images/nothing.png","NA","practice","null","","","",""
"d3-animate-choice","36","217589","0.0-36.0","3046","4989","25","Female","false","false","true","false","""event"",""trial"",""time""
""fullscreenenter"",""5"",""21756""
","
","
","""event"",""trial"",""time""
""fullscreenenter"",""5"",""21756""
","
","188.89999997615814","","49","","","3000","1","","","images/tutgreenplanet.jpg","images/tutalien1","images/tutalien2","null","images/tutalien2","images/t.png","NA","practice","null","","","",""
"d3-animate-choice","37","219884","0.0-37.0","3046","4989","25","Female","false","false","true","false","""event"",""trial"",""time""
""fullscreenenter"",""5"",""21756""
","
","
","""event"",""trial"",""time""
""fullscreenenter"",""5"",""21756""
","
","266.19999998807907","","49","","","3000","1","","","images/tutgreenplanet.jpg","images/tutalien1","images/tutalien2","null","images/tutalien2","images/nothing.png","NA","practice","null","","","",""
"d3-animate-choice","38","222213","0.0-38.0","3046","4989","25","Female","false","false","true","false","""event"",""trial"",""time""
""fullscreenenter"",""5"",""21756""
","
","
","""event"",""trial"",""time""
""fullscreenenter"",""5"",""21756""
","
","311","","48","","","3000","1","","","images/tutgreenplanet.jpg","images/tutalien1","images/tutalien2","null","images/tutalien1","images/nothing.png","NA","practice","null","","","",""
"d3-animate-choice","39","224473","0.0-39.0","3046","4989","25","Female","false","false","true","false","""event"",""trial"",""time""
""fullscreenenter"",""5"",""21756""
","
","
","""event"",""trial"",""time""
""fullscreenenter"",""5"",""21756""
","
","249.4000000357628","","49","","","3000","1","","","images/tutgreenplanet.jpg","images/tutalien1","images/tutalien2","null","images/tutalien2","images/t.png","NA","practice","null","","","",""
"d3-animate-choice","40","226835","0.0-40.0","3046","4989","25","Female","false","false","true","false","""event"",""trial"",""time""
""fullscreenenter"",""5"",""21756""
","
","
","""event"",""trial"",""time""
""fullscreenenter"",""5"",""21756""
","
","340.5","","48","","","3000","1","","","images/tutgreenplanet.jpg","images/tutalien1","images/tutalien2","null","images/tutalien1","images/t.png","NA","practice","null","","","",""
"d3-animate-choice","41","229126","0.0-41.0","3046","4989","25","Female","false","false","true","false","""event"",""trial"",""time""
""fullscreenenter"",""5"",""21756""
","
","
","""event"",""trial"",""time""
""fullscreenenter"",""5"",""21756""
","
","281","","49","","","3000","1","","","images/tutgreenplanet.jpg","images/tutalien1","images/tutalien2","null","images/tutalien2","images/t.png","NA","practice","null","","","",""
"d3-animate-choice","42","231446","0.0-42.0","3046","4989","25","Female","false","false","true","false","""event"",""trial"",""time""
""fullscreenenter"",""5"",""21756""
","
","
","""event"",""trial"",""time""
""fullscreenenter"",""5"",""21756""
","
","292.39999997615814","","48","","","3000","1","","","images/tutgreenplanet.jpg","images/tutalien1","images/tutalien2","null","images/tutalien1","images/nothing.png","NA","practice","null","","","",""
"d3-animate-choice","43","233710","0.0-43.0","3046","4989","25","Female","false","false","true","false","""event"",""trial"",""time""
""fullscreenenter"",""5"",""21756""
","
","
","""event"",""trial"",""time""
""fullscreenenter"",""5"",""21756""
","
","240.39999997615814","","49","","","3000","1","","","images/tutgreenplanet.jpg","images/tutalien1","images/tutalien2","null","images/tutalien2","images/t.png","NA","practice","null","","","",""
"d3-instructions","44","246255","0.0-44.0","3046","4989","25","Female","false","false","true","false","""event"",""trial"",""time""
""fullscreenenter"",""5"",""21756""
","
","
","""event"",""trial"",""time""
""fullscreenenter"",""5"",""21756""
","
","","","","","","","","","","","","","","","","","","","","","",""
"d3-instructions","45","252102","0.0-45.0","3046","4989","25","Female","false","false","true","false","""event"",""trial"",""time""
""fullscreenenter"",""5"",""21756""
","
","
","""event"",""trial"",""time""
""fullscreenenter"",""5"",""21756""
","
","","","","","","","","","","","","","","","","","","","","","",""
"d3-instructions","46","257377","0.0-46.0","3046","4989","25","Female","false","false","true","false","""event"",""trial"",""time""
""fullscreenenter"",""5"",""21756""
","
","
","""event"",""trial"",""time""
""fullscreenenter"",""5"",""21756""
","
","","","","","","","","","","","","","","","","","","","","","",""
"d3-instructions","47","274334","0.0-47.0","3046","4989","25","Female","false","false","true","false","""event"",""trial"",""time""
""fullscreenenter"",""5"",""21756""
","
","
","""event"",""trial"",""time""
""fullscreenenter"",""5"",""21756""
","
","","","","","","","","","","","","","","","","","","","","","",""
"d3-instructions","48","280868","0.0-48.0","3046","4989","25","Female","false","false","true","false","""event"",""trial"",""time""
""fullscreenenter"",""5"",""21756""
","
","
","""event"",""trial"",""time""
""fullscreenenter"",""5"",""21756""
","
","","","","","","","","","","","","","","","","","","","","","",""
"d3-instructions","49","292288","0.0-49.0","3046","4989","25","Female","false","false","true","false","""event"",""trial"",""time""
""fullscreenenter"",""5"",""21756""
","
","
","""event"",""trial"",""time""
""fullscreenenter"",""5"",""21756""
","
","","","","","","","","","","","","","","","","","","","","","",""
"d3-instructions","50","301326","0.0-50.0","3046","4989","25","Female","false","false","true","false","""event"",""trial"",""time""
""fullscreenenter"",""5"",""21756""
","
","
","""event"",""trial"",""time""
""fullscreenenter"",""5"",""21756""
","
","","","","","","","","","","","","","","","","","","","","","",""
"d3-instructions","51","304279","0.0-51.0","3046","4989","25","Female","false","false","true","false","""event"",""trial"",""time""
""fullscreenenter"",""5"",""21756""
","
","
","""event"",""trial"",""time""
""fullscreenenter"",""5"",""21756""
","
","","","","","","","","","","","","","","","","","","","","","",""
"d3-instructions","52","306871","0.0-52.0","3046","4989","25","Female","false","false","true","false","""event"",""trial"",""time""
""fullscreenenter"",""5"",""21756""
","
","
","""event"",""trial"",""time""
""fullscreenenter"",""5"",""21756""
","
","","","","","","","","","","","","","","","","","","","","","",""
"d3-instructions","53","318837","0.0-53.0","3046","4989","25","Female","false","false","true","false","""event"",""trial"",""time""
""fullscreenenter"",""5"",""21756""
","
","
","""event"",""trial"",""time""
""fullscreenenter"",""5"",""21756""
","
","","","","","","","","","","","","","","","","","","","","","",""
"d3-instructions","54","331816","0.0-54.0","3046","4989","25","Female","false","false","true","false","""event"",""trial"",""time""
""fullscreenenter"",""5"",""21756""
","
","
","""event"",""trial"",""time""
""fullscreenenter"",""5"",""21756""
","
","","","","","","","","","","","","","","","","","","","","","",""
"d3-instructions","55","342229","0.0-55.0","3046","4989","25","Female","false","false","true","false","""event"",""trial"",""time""
""fullscreenenter"",""5"",""21756""
","
","
","""event"",""trial"",""time""
""fullscreenenter"",""5"",""21756""
","
","","","","","","","","","","","","","","","","","","","","","",""
"d3-instructions","56","350552","0.0-56.0","3046","4989","25","Female","false","false","true","false","""event"",""trial"",""time""
""fullscreenenter"",""5"",""21756""
","
","
","""event"",""trial"",""time""
""fullscreenenter"",""5"",""21756""
","
","","","","","","","","","","","","","","","","","","","","","",""
"d3-instructions","57","360486","0.0-57.0","3046","4989","25","Female","false","false","true","false","""event"",""trial"",""time""
""fullscreenenter"",""5"",""21756""
","
","
","""event"",""trial"",""time""
""fullscreenenter"",""5"",""21756""
","
","","","","","","","","","","","","","","","","","","","","","",""
"d3-instructions","58","370847","0.0-58.0","3046","4989","25","Female","false","false","true","false","""event"",""trial"",""time""
""fullscreenenter"",""5"",""21756""
","
","
","""event"",""trial"",""time""
""fullscreenenter"",""5"",""21756""
","
","","","","","","","","","","","","","","","","","","","","","",""
"d3-instructions","59","376538","0.0-59.0","3046","4989","25","Female","false","false","true","false","""event"",""trial"",""time""
""fullscreenenter"",""5"",""21756""
","
","
","""event"",""trial"",""time""
""fullscreenenter"",""5"",""21756""
","
","","","","","","","","","","","","","","","","","","","","","",""
"d3-instructions","60","383396","0.0-60.0","3046","4989","25","Female","false","false","true","false","""event"",""trial"",""time""
""fullscreenenter"",""5"",""21756""
","
","
","""event"",""trial"",""time""
""fullscreenenter"",""5"",""21756""
","
","","","","","","","","","","","","","","","","","","","","","",""
"d3-animate-choice","61","385960","0.0-61.0-0.0","3046","4989","25","Female","false","false","true","false","""event"",""trial"",""time""
""fullscreenenter"",""5"",""21756""
","
","
","""event"",""trial"",""time""
""fullscreenenter"",""5"",""21756""
","
","551.8999999761581","","49","","","3000","1","","","images/earth.jpg","images/tutrocket2","images/tutrocket1","null","images/tutrocket1","","1","practice","null","1","","",""
"d3-animate-choice","62","388454","0.0-61.0-1.0","3046","4989","25","Female","false","false","true","false","""event"",""trial"",""time""
""fullscreenenter"",""5"",""21756""
","
","
","""event"",""trial"",""time""
""fullscreenenter"",""5"",""21756""
","
","467.5","","49","","","3000","1","","","images/tutgreenplanet.jpg","images/tutalien2","images/tutalien1","images/tutrocket1","images/tutalien1","images/nothing.png","2","practice","false","1","rare","0","2022-12-05 14:55:35.178"
"two-step-fixation","63","389473","0.0-61.0-2.0","3046","4989","25","Female","false","false","true","false","""event"",""trial"",""time""
""fullscreenenter"",""5"",""21756""
","
","
","""event"",""trial"",""time""
""fullscreenenter"",""5"",""21756""
","
","","images/earth.jpg","","","","","","","","","","","","","","fixation","","","","","",""
"d3-animate-choice","64","391963","0.0-61.0-0.1","3046","4989","25","Female","false","false","true","false","""event"",""trial"",""time""
""fullscreenenter"",""5"",""21756""
","
","
","""event"",""trial"",""time""
""fullscreenenter"",""5"",""21756""
","
","475.60000002384186","","48","","","3000","1","","","images/earth.jpg","images/tutrocket2","images/tutrocket1","null","images/tutrocket2","","1","practice","null","2","","",""
"d3-animate-choice","65","394357","0.0-61.0-1.1","3046","4989","25","Female","false","false","true","false","""event"",""trial"",""time""
""fullscreenenter"",""5"",""21756""
","
","
","""event"",""trial"",""time""
""fullscreenenter"",""5"",""21756""
","
","380.30000001192093","","48","","","3000","1","","","images/tutgreenplanet.jpg","images/tutalien2","images/tutalien1","images/tutrocket2","images/tutalien2","images/nothing.png","2","practice","true","2","common","0","2022-12-05 14:55:41.081"
"two-step-fixation","66","395385","0.0-61.0-2.1","3046","4989","25","Female","false","false","true","false","""event"",""trial"",""time""
""fullscreenenter"",""5"",""21756""
","
","
","""event"",""trial"",""time""
""fullscreenenter"",""5"",""21756""
","
","","images/earth.jpg","","","","","","","","","","","","","","fixation","","","","","",""
"d3-animate-choice","67","397793","0.0-61.0-0.2","3046","4989","25","Female","false","false","true","false","""event"",""trial"",""time""
""fullscreenenter"",""5"",""21756""
","
","
","""event"",""trial"",""time""
""fullscreenenter"",""5"",""21756""
","
","390.89999997615814","","49","","","3000","1","","","images/earth.jpg","images/tutrocket2","images/tutrocket1","null","images/tutrocket1","","1","practice","null","1","","",""
"d3-animate-choice","68","400022","0.0-61.0-1.2","3046","4989","25","Female","false","false","true","false","""event"",""trial"",""time""
""fullscreenenter"",""5"",""21756""
","
","
","""event"",""trial"",""time""
""fullscreenenter"",""5"",""21756""
","
","213.69999998807907","","49","","","3000","1","","","images/tutyellowplanet.jpg","images/tutalien4","images/tutalien3","images/tutrocket1","images/tutalien3","images/nothing.png","2","practice","true","1","common","0","2022-12-05 14:55:46.745"
"two-step-fixation","69","401046","0.0-61.0-2.2","3046","4989","25","Female","false","false","true","false","""event"",""trial"",""time""
""fullscreenenter"",""5"",""21756""
","
","
","""event"",""trial"",""time""
""fullscreenenter"",""5"",""21756""
","
","","images/earth.jpg","","","","","","","","","","","","","","fixation","","","","","",""
"d3-animate-choice","70","403627","0.0-61.0-0.3","3046","4989","25","Female","false","false","true","false","""event"",""trial"",""time""
""fullscreenenter"",""5"",""21756""
","
","
","""event"",""trial"",""time""
""fullscreenenter"",""5"",""21756""
","
","552.8000000119209","","48","","","3000","1","","","images/earth.jpg","images/tutrocket2","images/tutrocket1","null","images/tutrocket2","","1","practice","null","2","","",""
"d3-animate-choice","71","405898","0.0-61.0-1.3","3046","4989","25","Female","false","false","true","false","""event"",""trial"",""time""
""fullscreenenter"",""5"",""21756""
","
","
","""event"",""trial"",""time""
""fullscreenenter"",""5"",""21756""
","
","239.79999995231628","","49","","","3000","1","","","images/tutyellowplanet.jpg","images/tutalien4","images/tutalien3","images/tutrocket2","images/tutalien3","images/nothing.png","2","practice","false","1","rare","0","2022-12-05 14:55:52.621"
"two-step-fixation","72","406916","0.0-61.0-2.3","3046","4989","25","Female","false","false","true","false","""event"",""trial"",""time""
""fullscreenenter"",""5"",""21756""
","
","
","""event"",""trial"",""time""
""fullscreenenter"",""5"",""21756""
","
","","images/earth.jpg","","","","","","","","","","","","","","fixation","","","","","",""
"d3-animate-choice","73","409267","0.0-61.0-0.4","3046","4989","25","Female","false","false","true","false","""event"",""trial"",""time""
""fullscreenenter"",""5"",""21756""
","
","
","""event"",""trial"",""time""
""fullscreenenter"",""5"",""21756""
","
","335.69999998807907","","48","","","3000","1","","","images/earth.jpg","images/tutrocket2","images/tutrocket1","null","images/tutrocket2","","1","practice","null","2","","",""
"d3-animate-choice","74","411536","0.0-61.0-1.4","3046","4989","25","Female","false","false","true","false","""event"",""trial"",""time""
""fullscreenenter"",""5"",""21756""
","
","
","""event"",""trial"",""time""
""fullscreenenter"",""5"",""21756""
","
","253.5","","49","","","3000","1","","","images/tutgreenplanet.jpg","images/tutalien2","images/tutalien1","images/tutrocket2","images/tutalien1","images/nothing.png","2","practice","true","1","common","0","2022-12-05 14:55:58.259"
"two-step-fixation","75","412547","0.0-61.0-2.4","3046","4989","25","Female","false","false","true","false","""event"",""trial"",""time""
""fullscreenenter"",""5"",""21756""
","
","
","""event"",""trial"",""time""
""fullscreenenter"",""5"",""21756""
","
","","images/earth.jpg","","","","","","","","","","","","","","fixation","","","","","",""
"d3-animate-choice","76","414758","0.0-61.0-0.5","3046","4989","25","Female","false","false","true","false","""event"",""trial"",""time""
""fullscreenenter"",""5"",""21756""
","
","
","""event"",""trial"",""time""
""fullscreenenter"",""5"",""21756""
","
","193.80000001192093","","48","","","3000","1","","","images/earth.jpg","images/tutrocket2","images/tutrocket1","null","images/tutrocket2","","1","practice","null","2","","",""
"d3-animate-choice","77","417077","0.0-61.0-1.5","3046","4989","25","Female","false","false","true","false","""event"",""trial"",""time""
""fullscreenenter"",""5"",""21756""
","
","
","""event"",""trial"",""time""
""fullscreenenter"",""5"",""21756""
","
","305.60000002384186","","48","","","3000","1","","","images/tutgreenplanet.jpg","images/tutalien2","images/tutalien1","images/tutrocket2","images/tutalien2","images/nothing.png","2","practice","true","2","common","0","2022-12-05 14:56:03.800"
"two-step-fixation","78","418087","0.0-61.0-2.5","3046","4989","25","Female","false","false","true","false","""event"",""trial"",""time""
""fullscreenenter"",""5"",""21756""
","
","
","""event"",""trial"",""time""
""fullscreenenter"",""5"",""21756""
","
","","images/earth.jpg","","","","","","","","","","","","","","fixation","","","","","",""
"d3-animate-choice","79","420439","0.0-61.0-0.6","3046","4989","25","Female","false","false","true","false","""event"",""trial"",""time""
""fullscreenenter"",""5"",""21756""
","
","
","""event"",""trial"",""time""
""fullscreenenter"",""5"",""21756""
","
","336.89999997615814","","49","","","3000","1","","","images/earth.jpg","images/tutrocket2","images/tutrocket1","null","images/tutrocket1","","1","practice","null","1","","",""
"d3-animate-choice","80","422776","0.0-61.0-1.6","3046","4989","25","Female","false","false","true","false","""event"",""trial"",""time""
""fullscreenenter"",""5"",""21756""
","
","
","""event"",""trial"",""time""
""fullscreenenter"",""5"",""21756""
","
","321.30000001192093","","49","","","3000","1","","","images/tutyellowplanet.jpg","images/tutalien4","images/tutalien3","images/tutrocket1","images/tutalien3","images/t.png","2","practice","true","1","common","1","2022-12-05 14:56:09.499"
"two-step-fixation","81","423794","0.0-61.0-2.6","3046","4989","25","Female","false","false","true","false","""event"",""trial"",""time""
""fullscreenenter"",""5"",""21756""
","
","
","""event"",""trial"",""time""
""fullscreenenter"",""5"",""21756""
","
","","images/earth.jpg","","","","","","","","","","","","","","fixation","","","","","",""
"d3-animate-choice","82","425999","0.0-61.0-0.7","3046","4989","25","Female","false","false","true","false","""event"",""trial"",""time""
""fullscreenenter"",""5"",""21756""
","
","
","""event"",""trial"",""time""
""fullscreenenter"",""5"",""21756""
","
","188.5","","48","","","3000","1","","","images/earth.jpg","images/tutrocket2","images/tutrocket1","null","images/tutrocket2","","1","practice","null","2","","",""
"d3-animate-choice","83","428359","0.0-61.0-1.7","3046","4989","25","Female","false","false","true","false","""event"",""trial"",""time""
""fullscreenenter"",""5"",""21756""
","
","
","""event"",""trial"",""time""
""fullscreenenter"",""5"",""21756""
","
","343.2000000476837","","48","","","3000","1","","","images/tutyellowplanet.jpg","images/tutalien4","images/tutalien3","images/tutrocket2","images/tutalien4","images/nothing.png","2","practice","false","2","rare","0","2022-12-05 14:56:15.082"
"two-step-fixation","84","429385","0.0-61.0-2.7","3046","4989","25","Female","false","false","true","false","""event"",""trial"",""time""
""fullscreenenter"",""5"",""21756""
","
","
","""event"",""trial"",""time""
""fullscreenenter"",""5"",""21756""
","
","","images/earth.jpg","","","","","","","","","","","","","","fixation","","","","","",""
"d3-animate-choice","85","431690","0.0-61.0-0.8","3046","4989","25","Female","false","false","true","false","""event"",""trial"",""time""
""fullscreenenter"",""5"",""21756""
","
","
","""event"",""trial"",""time""
""fullscreenenter"",""5"",""21756""
","
","289.60000002384186","","49","","","3000","1","2272.600000023842","49","images/earth.jpg","images/tutrocket2","images/tutrocket1","null","images/tutrocket1","","1","practice","null","1","","",""
"d3-animate-choice","86","434368","0.0-61.0-1.8","3046","4989","25","Female","false","false","true","false","""event"",""trial"",""time""
""fullscreenenter"",""5"",""21756""
","
","
","""event"",""trial"",""time""
""fullscreenenter"",""5"",""21756""
","
","661.7000000476837","","49","","","3000","1","","","images/tutgreenplanet.jpg","images/tutalien2","images/tutalien1","images/tutrocket1","images/tutalien1","images/t.png","2","practice","false","1","rare","1","2022-12-05 14:56:21.091"
"two-step-fixation","87","435375","0.0-61.0-2.8","3046","4989","25","Female","false","false","true","false","""event"",""trial"",""time""
""fullscreenenter"",""5"",""21756""
","
","
","""event"",""trial"",""time""
""fullscreenenter"",""5"",""21756""
","
","","images/earth.jpg","","","","","","","","","","","","","","fixation","","","","","",""
"d3-animate-choice","88","437828","0.0-61.0-0.9","3046","4989","25","Female","false","false","true","false","""event"",""trial"",""time""
""fullscreenenter"",""5"",""21756""
","
","
","""event"",""trial"",""time""
""fullscreenenter"",""5"",""21756""
","
","444.89999997615814","","49","","","3000","1","","","images/earth.jpg","images/tutrocket2","images/tutrocket1","null","images/tutrocket1","","1","practice","null","1","","",""
"d3-animate-choice","89","440727","0.0-61.0-1.9","3046","4989","25","Female","false","false","true","false","""event"",""trial"",""time""
""fullscreenenter"",""5"",""21756""
","
","
","""event"",""trial"",""time""
""fullscreenenter"",""5"",""21756""
","
","890.2999999523163","","49","","","3000","1","","","images/tutyellowplanet.jpg","images/tutalien4","images/tutalien3","images/tutrocket1","images/tutalien3","images/nothing.png","2","practice","true","1","common","0","2022-12-05 14:56:27.450"
"two-step-fixation","90","441741","0.0-61.0-2.9","3046","4989","25","Female","false","false","true","false","""event"",""trial"",""time""
""fullscreenenter"",""5"",""21756""
","
","
","""event"",""trial"",""time""
""fullscreenenter"",""5"",""21756""
","
","","images/earth.jpg","","","","","","","","","","","","","","fixation","","","","","",""
"d3-animate-choice","91","444165","0.0-61.0-0.10","3046","4989","25","Female","false","false","true","false","""event"",""trial"",""time""
""fullscreenenter"",""5"",""21756""
","
","
","""event"",""trial"",""time""
""fullscreenenter"",""5"",""21756""
","
","410.5999999642372","","49","","","3000","1","","","images/earth.jpg","images/tutrocket2","images/tutrocket1","null","images/tutrocket1","","1","practice","null","1","","",""
"d3-animate-choice","92","446760","0.0-61.0-1.10","3046","4989","25","Female","false","false","true","false","""event"",""trial"",""time""
""fullscreenenter"",""5"",""21756""
","
","
","""event"",""trial"",""time""
""fullscreenenter"",""5"",""21756""
","
","582.6999999880791","","48","","","3000","1","","","images/tutyellowplanet.jpg","images/tutalien4","images/tutalien3","images/tutrocket1","images/tutalien4","images/nothing.png","2","practice","true","2","common","0","2022-12-05 14:56:33.484"
"two-step-fixation","93","447780","0.0-61.0-2.10","3046","4989","25","Female","false","false","true","false","""event"",""trial"",""time""
""fullscreenenter"",""5"",""21756""
","
","
","""event"",""trial"",""time""
""fullscreenenter"",""5"",""21756""
","
","","images/earth.jpg","","","","","","","","","","","","","","fixation","","","","","",""
"d3-animate-choice","94","450224","0.0-61.0-0.11","3046","4989","25","Female","false","false","true","false","""event"",""trial"",""time""
""fullscreenenter"",""5"",""21756""
","
","
","""event"",""trial"",""time""
""fullscreenenter"",""5"",""21756""
","
","426.30000001192093","","48","","","3000","1","","","images/earth.jpg","images/tutrocket2","images/tutrocket1","null","images/tutrocket2","","1","practice","null","2","","",""
"d3-animate-choice","95","452558","0.0-61.0-1.11","3046","4989","25","Female","false","false","true","false","""event"",""trial"",""time""
""fullscreenenter"",""5"",""21756""
","
","
","""event"",""trial"",""time""
""fullscreenenter"",""5"",""21756""
","
","318.80000001192093","","49","","","3000","1","","","images/tutgreenplanet.jpg","images/tutalien2","images/tutalien1","images/tutrocket2","images/tutalien1","images/t.png","2","practice","true","1","common","1","2022-12-05 14:56:39.281"
"two-step-fixation","96","453568","0.0-61.0-2.11","3046","4989","25","Female","false","false","true","false","""event"",""trial"",""time""
""fullscreenenter"",""5"",""21756""
","
","
","""event"",""trial"",""time""
""fullscreenenter"",""5"",""21756""
","
","","images/earth.jpg","","","","","","","","","","","","","","fixation","","","","","",""
"d3-animate-choice","97","456044","0.0-61.0-0.12","3046","4989","25","Female","false","false","true","false","""event"",""trial"",""time""
""fullscreenenter"",""5"",""21756""
","
","
","""event"",""trial"",""time""
""fullscreenenter"",""5"",""21756""
","
","456.7000000476837","","48","","","3000","1","","","images/earth.jpg","images/tutrocket2","images/tutrocket1","null","images/tutrocket2","","1","practice","null","2","","",""
"d3-animate-choice","98","458600","0.0-61.0-1.12","3046","4989","25","Female","false","false","true","false","""event"",""trial"",""time""
""fullscreenenter"",""5"",""21756""
","
","
","""event"",""trial"",""time""
""fullscreenenter"",""5"",""21756""
","
","543.3000000119209","","49","","","3000","1","","","images/tutyellowplanet.jpg","images/tutalien4","images/tutalien3","images/tutrocket2","images/tutalien3","images/t.png","2","practice","false","1","rare","1","2022-12-05 14:56:45.323"
"two-step-fixation","99","459616","0.0-61.0-2.12","3046","4989","25","Female","false","false","true","false","""event"",""trial"",""time""
""fullscreenenter"",""5"",""21756""
","
","
","""event"",""trial"",""time""
""fullscreenenter"",""5"",""21756""
","
","","images/earth.jpg","","","","","","","","","","","","","","fixation","","","","","",""
"d3-animate-choice","100","462053","0.0-61.0-0.13","3046","4989","25","Female","false","false","true","false","""event"",""trial"",""time""
""fullscreenenter"",""5"",""21756""
","
","
","""event"",""trial"",""time""
""fullscreenenter"",""5"",""21756""
","
","423.60000002384186","","48","","","3000","1","","","images/earth.jpg","images/tutrocket2","images/tutrocket1","null","images/tutrocket2","","1","practice","null","2","","",""
"d3-animate-choice","101","464655","0.0-61.0-1.13","3046","4989","25","Female","false","false","true","false","""event"",""trial"",""time""
""fullscreenenter"",""5"",""21756""
","
","
","""event"",""trial"",""time""
""fullscreenenter"",""5"",""21756""
","
","588.5999999642372","","49","","","3000","1","","","images/tutgreenplanet.jpg","images/tutalien2","images/tutalien1","images/tutrocket2","images/tutalien1","images/nothing.png","2","practice","true","1","common","0","2022-12-05 14:56:51.379"
"two-step-fixation","102","465672","0.0-61.0-2.13","3046","4989","25","Female","false","false","true","false","""event"",""trial"",""time""
""fullscreenenter"",""5"",""21756""
","
","
","""event"",""trial"",""time""
""fullscreenenter"",""5"",""21756""
","
","","images/earth.jpg","","","","","","","","","","","","","","fixation","","","","","",""
"d3-animate-choice","103","468192","0.0-61.0-0.14","3046","4989","25","Female","false","false","true","false","""event"",""trial"",""time""
""fullscreenenter"",""5"",""21756""
","
","
","""event"",""trial"",""time""
""fullscreenenter"",""5"",""21756""
","
","506.30000001192093","","48","","","3000","1","","","images/earth.jpg","images/tutrocket2","images/tutrocket1","null","images/tutrocket2","","1","practice","null","2","","",""
"d3-animate-choice","104","470829","0.0-61.0-1.14","3046","4989","25","Female","false","false","true","false","""event"",""trial"",""time""
""fullscreenenter"",""5"",""21756""
","
","
","""event"",""trial"",""time""
""fullscreenenter"",""5"",""21756""
","
","621.7000000476837","","49","","","3000","1","","","images/tutyellowplanet.jpg","images/tutalien4","images/tutalien3","images/tutrocket2","images/tutalien3","images/t.png","2","practice","false","1","rare","1","2022-12-05 14:56:57.552"
"two-step-fixation","105","471840","0.0-61.0-2.14","3046","4989","25","Female","false","false","true","false","""event"",""trial"",""time""
""fullscreenenter"",""5"",""21756""
","
","
","""event"",""trial"",""time""
""fullscreenenter"",""5"",""21756""
","
","","images/earth.jpg","","","","","","","","","","","","","","fixation","","","","","",""
"d3-animate-choice","106","474245","0.0-61.0-0.15","3046","4989","25","Female","false","false","true","false","""event"",""trial"",""time""
""fullscreenenter"",""5"",""21756""
","
","
","""event"",""trial"",""time""
""fullscreenenter"",""5"",""21756""
","
","380.30000001192093","","48","","","3000","1","","","images/earth.jpg","images/tutrocket2","images/tutrocket1","null","images/tutrocket2","","1","practice","null","2","","",""
"d3-animate-choice","107","476599","0.0-61.0-1.15","3046","4989","25","Female","false","false","true","false","""event"",""trial"",""time""
""fullscreenenter"",""5"",""21756""
","
","
","""event"",""trial"",""time""
""fullscreenenter"",""5"",""21756""
","
","340.5999999642372","","49","","","3000","1","","","images/tutgreenplanet.jpg","images/tutalien2","images/tutalien1","images/tutrocket2","images/tutalien1","images/nothing.png","2","practice","true","1","common","0","2022-12-05 14:57:03.322"
"two-step-fixation","108","477615","0.0-61.0-2.15","3046","4989","25","Female","false","false","true","false","""event"",""trial"",""time""
""fullscreenenter"",""5"",""21756""
","
","
","""event"",""trial"",""time""
""fullscreenenter"",""5"",""21756""
","
","","images/earth.jpg","","","","","","","","","","","","","","fixation","","","","","",""
"d3-animate-choice","109","480887","0.0-61.0-0.16","3046","4989","25","Female","false","false","true","false","""event"",""trial"",""time""
""fullscreenenter"",""5"",""21756""
","
","
","""event"",""trial"",""time""
""fullscreenenter"",""5"",""21756""
","
","1259.8999999761581","","48","","","3000","1","3023.2999999523163","48","images/earth.jpg","images/tutrocket2","images/tutrocket1","null","images/tutrocket2","","1","practice","null","2","","",""
"d3-animate-choice","110","483294","0.0-61.0-1.16","3046","4989","25","Female","false","false","true","false","""event"",""trial"",""time""
""fullscreenenter"",""5"",""21756""
","
","
","""event"",""trial"",""time""
""fullscreenenter"",""5"",""21756""
","
","392.30000001192093","","48","","","3000","1","","","images/tutgreenplanet.jpg","images/tutalien2","images/tutalien1","images/tutrocket2","images/tutalien2","images/nothing.png","2","practice","true","2","common","0","2022-12-05 14:57:10.017"
"two-step-fixation","111","484304","0.0-61.0-2.16","3046","4989","25","Female","false","false","true","false","""event"",""trial"",""time""
""fullscreenenter"",""5"",""21756""
","
","
","""event"",""trial"",""time""
""fullscreenenter"",""5"",""21756""
","
","","images/earth.jpg","","","","","","","","","","","","","","fixation","","","","","",""
"d3-animate-choice","112","486672","0.0-61.0-0.17","3046","4989","25","Female","false","false","true","false","""event"",""trial"",""time""
""fullscreenenter"",""5"",""21756""
","
","
","""event"",""trial"",""time""
""fullscreenenter"",""5"",""21756""
","
","355.19999998807907","","48","","","3000","1","","","images/earth.jpg","images/tutrocket2","images/tutrocket1","null","images/tutrocket2","","1","practice","null","2","","",""
"d3-animate-choice","113","489079","0.0-61.0-1.17","3046","4989","25","Female","false","false","true","false","""event"",""trial"",""time""
""fullscreenenter"",""5"",""21756""
","
","
","""event"",""trial"",""time""
""fullscreenenter"",""5"",""21756""
","
","393.89999997615814","","49","","","3000","1","","","images/tutgreenplanet.jpg","images/tutalien2","images/tutalien1","images/tutrocket2","images/tutalien1","images/nothing.png","2","practice","true","1","common","0","2022-12-05 14:57:15.803"
"two-step-fixation","114","490093","0.0-61.0-2.17","3046","4989","25","Female","false","false","true","false","""event"",""trial"",""time""
""fullscreenenter"",""5"",""21756""
","
","
","""event"",""trial"",""time""
""fullscreenenter"",""5"",""21756""
","
","","images/earth.jpg","","","","","","","","","","","","","","fixation","","","","","",""
"d3-animate-choice","115","492391","0.0-61.0-0.18","3046","4989","25","Female","false","false","true","false","""event"",""trial"",""time""
""fullscreenenter"",""5"",""21756""
","
","
","""event"",""trial"",""time""
""fullscreenenter"",""5"",""21756""
","
","290.5999999642372","","49","","","3000","1","","","images/earth.jpg","images/tutrocket2","images/tutrocket1","null","images/tutrocket1","","1","practice","null","1","","",""
"d3-animate-choice","116","494817","0.0-61.0-1.18","3046","4989","25","Female","false","false","true","false","""event"",""trial"",""time""
""fullscreenenter"",""5"",""21756""
","
","
","""event"",""trial"",""time""
""fullscreenenter"",""5"",""21756""
","
","406.0999999642372","","48","","","3000","1","","","images/tutgreenplanet.jpg","images/tutalien2","images/tutalien1","images/tutrocket1","images/tutalien2","images/nothing.png","2","practice","false","2","rare","0","2022-12-05 14:57:21.541"
"two-step-fixation","117","495832","0.0-61.0-2.18","3046","4989","25","Female","false","false","true","false","""event"",""trial"",""time""
""fullscreenenter"",""5"",""21756""
","
","
","""event"",""trial"",""time""
""fullscreenenter"",""5"",""21756""
","
","","images/earth.jpg","","","","","","","","","","","","","","fixation","","","","","",""
"d3-animate-choice","118","498782","0.0-61.0-0.19","3046","4989","25","Female","false","false","true","false","""event"",""trial"",""time""
""fullscreenenter"",""5"",""21756""
","
","
","""event"",""trial"",""time""
""fullscreenenter"",""5"",""21756""
","
","933.5","","49","","","3000","1","2439.399999976158","48","images/earth.jpg","images/tutrocket2","images/tutrocket1","null","images/tutrocket1","","1","practice","null","1","","",""
"d3-animate-choice","119","501057","0.0-61.0-1.19","3046","4989","25","Female","false","false","true","false","""event"",""trial"",""time""
""fullscreenenter"",""5"",""21756""
","
","
","""event"",""trial"",""time""
""fullscreenenter"",""5"",""21756""
","
","256.89999997615814","","48","","","3000","1","","","images/tutgreenplanet.jpg","images/tutalien2","images/tutalien1","images/tutrocket1","images/tutalien2","images/nothing.png","2","practice","false","2","rare","0","2022-12-05 14:57:27.780"
"two-step-fixation","120","502069","0.0-61.0-2.19","3046","4989","25","Female","false","false","true","false","""event"",""trial"",""time""
""fullscreenenter"",""5"",""21756""
","
","
","""event"",""trial"",""time""
""fullscreenenter"",""5"",""21756""
","
","","images/earth.jpg","","","","","","","","","","","","","","fixation","","","","","",""
"d3-instructions","121","509579","0.0-62.0","3046","4989","25","Female","false","false","true","false","""event"",""trial"",""time""
""fullscreenenter"",""5"",""21756""
","
","
","""event"",""trial"",""time""
""fullscreenenter"",""5"",""21756""
","
","","","","","","","","","","","","","","","","","","","","","",""
"audio-keyboard-response","122","515049","0.0-63.0","3046","4989","25","Female","false","false","true","false","""event"",""trial"",""time""
""fullscreenenter"",""5"",""21756""
","
","
","""event"",""trial"",""time""
""fullscreenenter"",""5"",""21756""
","
","5472","audio/instructions/treasure_feedback.wav","32","","","","","","","","","","","","","","","","","","",""
"d3-instructions","123","533833","0.0-64.0","3046","4989","25","Female","false","false","true","false","""event"",""trial"",""time""
""fullscreenenter"",""5"",""21756""
","
","
","""event"",""trial"",""time""
""fullscreenenter"",""5"",""21756""
","
","","","","","","","","","","","","","","","","","","","","","",""
"d3-instructions","124","546776","0.0-65.0","3046","4989","25","Female","false","false","true","false","""event"",""trial"",""time""
""fullscreenenter"",""5"",""21756""
","
","
","""event"",""trial"",""time""
""fullscreenenter"",""5"",""21756""
","
","","","","","","","","","","","","","","","","","","","","","",""
"d3-instructions","125","571624","0.0-66.0","3046","4989","25","Female","false","false","true","false","""event"",""trial"",""time""
""fullscreenenter"",""5"",""21756""
","
","
","""event"",""trial"",""time""
""fullscreenenter"",""5"",""21756""
","
","","","","","","","","","","","","","","","","","","","","","",""
"d3-instructions","126","587387","0.0-67.0","3046","4989","25","Female","false","false","true","false","""event"",""trial"",""time""
""fullscreenenter"",""5"",""21756""
","
","
","""event"",""trial"",""time""
""fullscreenenter"",""5"",""21756""
","
","","","","","","","","","","","","","","","","","","","","","",""
"d3-instructions","127","596462","0.0-68.0","3046","4989","25","Female","false","false","true","false","""event"",""trial"",""time""
""fullscreenenter"",""5"",""21756""
","
","
","""event"",""trial"",""time""
""fullscreenenter"",""5"",""21756""
","
","","","","","","","","","","","","","","","","","","","","","",""
"instructions-quiz","128","603419","0.0-69.0","3046","4989","25","Female","false","false","true","false","""event"",""trial"",""time""
""fullscreenenter"",""5"",""21756""
","
","
","""event"",""trial"",""time""
""fullscreenenter"",""5"",""21756""
","
","6947.200000047684","audio/quiz/Q1_Prompt.wav","","1","","","","","","","","","","","","","","","","","",""
"audio-keyboard-response","129","612598","0.0-70.0","3046","4989","25","Female","false","false","true","false","""event"",""trial"",""time""
""fullscreenenter"",""5"",""21756""
","
","
","""event"",""trial"",""time""
""fullscreenenter"",""5"",""21756""
","
","null","audio/quiz/Q1_Correct.wav","null","","","","","","","","","","","","","","","","","","",""
"instructions-quiz","130","622531","0.0-71.0","3046","4989","25","Female","false","false","true","false","""event"",""trial"",""time""
""fullscreenenter"",""5"",""21756""
","
","
","""event"",""trial"",""time""
""fullscreenenter"",""5"",""21756""
","
","9926.699999988079","audio/quiz/Q2_Prompt.wav","","1","","","","","","","","","","","","","","","","","",""
"audio-keyboard-response","131","636620","0.0-72.0","3046","4989","25","Female","false","false","true","false","""event"",""trial"",""time""
""fullscreenenter"",""5"",""21756""
","
","
","""event"",""trial"",""time""
""fullscreenenter"",""5"",""21756""
","
","null","audio/quiz/Q2_Incorrect.wav","null","","","","","","","","","","","","","","","","","","",""
"instructions-quiz","132","642288","0.0-73.0","3046","4989","25","Female","false","false","true","false","""event"",""trial"",""time""
""fullscreenenter"",""5"",""21756""
","
","
","""event"",""trial"",""time""
""fullscreenenter"",""5"",""21756""
","
","5662.399999976158","audio/quiz/Q3_Prompt.wav","","1","","","","","","","","","","","","","","","","","",""
"audio-keyboard-response","133","648088","0.0-74.0","3046","4989","25","Female","false","false","true","false","""event"",""trial"",""time""
""fullscreenenter"",""5"",""21756""
","
","
","""event"",""trial"",""time""
""fullscreenenter"",""5"",""21756""
","
","null","audio/quiz/Q3_Correct.wav","null","","","","","","","","","","","","","","","","","","",""
"d3-instructions","134","662027","0.0-75.0","3046","4989","25","Female","false","false","true","false","""event"",""trial"",""time""
""fullscreenenter"",""5"",""21756""
","
","
","""event"",""trial"",""time""
""fullscreenenter"",""5"",""21756""
","
","","","","","","","","","","","","","","","","","","","","","",""
"d3-animate-choice","135","665966","0.0-76.0-0.0","3046","4989","25","Female","false","false","true","false","""event"",""trial"",""time""
""fullscreenenter"",""5"",""21756""
","
","
","""event"",""trial"",""time""
""fullscreenenter"",""5"",""21756""
","
","1918.300000011921","","49","","","3000","1","","","images/earth.jpg","images/rocket1","images/rocket2","null","images/rocket2","","1","real","null","1","","",""
"d3-animate-choice","136","668329","0.0-76.0-1.0","3046","4989","25","Female","false","false","true","false","""event"",""trial"",""time""
""fullscreenenter"",""5"",""21756""
","
","
","""event"",""trial"",""time""
""fullscreenenter"",""5"",""21756""
","
","343.10000002384186","","49","","","3000","1","","","images/redplanet1.jpg","images/alien2","images/alien1","images/rocket2","images/alien1","images/nothing.png","2","real","true","1","common","0","2022-12-05 15:00:15.053"
"two-step-fixation","137","669345","0.0-76.0-2.0","3046","4989","25","Female","false","false","true","false","""event"",""trial"",""time""
""fullscreenenter"",""5"",""21756""
","
","
","""event"",""trial"",""time""
""fullscreenenter"",""5"",""21756""
","
","","images/earth.jpg","","","","","","","","","","","","","","fixation","","","","","",""
"d3-animate-choice","138","671940","0.0-76.0-0.1","3046","4989","25","Female","false","false","true","false","""event"",""trial"",""time""
""fullscreenenter"",""5"",""21756""
","
","
","""event"",""trial"",""time""
""fullscreenenter"",""5"",""21756""
","
","583.8999999761581","","48","","","3000","1","","","images/earth.jpg","images/rocket1","images/rocket2","null","images/rocket1","","1","real","null","2","","",""
"d3-animate-choice","139","674146","0.0-76.0-1.1","3046","4989","25","Female","false","false","true","false","""event"",""trial"",""time""
""fullscreenenter"",""5"",""21756""
","
","
","""event"",""trial"",""time""
""fullscreenenter"",""5"",""21756""
","
","184.30000001192093","","49","","","3000","1","","","images/purpleplanet.jpg","images/alien4","images/alien3","images/rocket1","images/alien3","images/nothing.png","2","real","true","1","common","0","2022-12-05 15:00:20.869"
"two-step-fixation","140","675158","0.0-76.0-2.1","3046","4989","25","Female","false","false","true","false","""event"",""trial"",""time""
""fullscreenenter"",""5"",""21756""
","
","
","""event"",""trial"",""time""
""fullscreenenter"",""5"",""21756""
","
","","images/earth.jpg","","","","","","","","","","","","","","fixation","","","","","",""
"d3-animate-choice","141","677591","0.0-76.0-0.2","3046","4989","25","Female","false","false","true","false","""event"",""trial"",""time""
""fullscreenenter"",""5"",""21756""
","
","
","""event"",""trial"",""time""
""fullscreenenter"",""5"",""21756""
","
","420.10000002384186","","48","","","3000","1","","","images/earth.jpg","images/rocket1","images/rocket2","null","images/rocket1","","1","real","null","2","","",""
"d3-animate-choice","142","679866","0.0-76.0-1.2","3046","4989","25","Female","false","false","true","false","""event"",""trial"",""time""
""fullscreenenter"",""5"",""21756""
","
","
","""event"",""trial"",""time""
""fullscreenenter"",""5"",""21756""
","
","249.80000001192093","","49","","","3000","1","","","images/purpleplanet.jpg","images/alien4","images/alien3","images/rocket1","images/alien3","images/t.png","2","real","true","1","common","1","2022-12-05 15:00:26.590"
"two-step-fixation","143","680886","0.0-76.0-2.2","3046","4989","25","Female","false","false","true","false","""event"",""trial"",""time""
""fullscreenenter"",""5"",""21756""
","
","
","""event"",""trial"",""time""
""fullscreenenter"",""5"",""21756""
","
","","images/earth.jpg","","","","","","","","","","","","","","fixation","","","","","",""
"d3-animate-choice","144","683278","0.0-76.0-0.3","3046","4989","25","Female","false","false","true","false","""event"",""trial"",""time""
""fullscreenenter"",""5"",""21756""
","
","
","""event"",""trial"",""time""
""fullscreenenter"",""5"",""21756""
","
","377.5","","48","","","3000","1","","","images/earth.jpg","images/rocket1","images/rocket2","null","images/rocket1","","1","real","null","2","","",""
"d3-animate-choice","145","685893","0.0-76.0-1.3","3046","4989","25","Female","false","false","true","false","""event"",""trial"",""time""
""fullscreenenter"",""5"",""21756""
","
","
","""event"",""trial"",""time""
""fullscreenenter"",""5"",""21756""
","
","601","","48","","","3000","1","","","images/purpleplanet.jpg","images/alien4","images/alien3","images/rocket1","images/alien4","images/t.png","2","real","true","2","common","1","2022-12-05 15:00:32.616"
"two-step-fixation","146","686919","0.0-76.0-2.3","3046","4989","25","Female","false","false","true","false","""event"",""trial"",""time""
""fullscreenenter"",""5"",""21756""
","
","
","""event"",""trial"",""time""
""fullscreenenter"",""5"",""21756""
","
","","images/earth.jpg","","","","","","","","","","","","","","fixation","","","","","",""
"d3-animate-choice","147","689269","0.0-76.0-0.4","3046","4989","25","Female","false","false","true","false","""event"",""trial"",""time""
""fullscreenenter"",""5"",""21756""
","
","
","""event"",""trial"",""time""
""fullscreenenter"",""5"",""21756""
","
","335.89999997615814","","49","","","3000","1","","","images/earth.jpg","images/rocket1","images/rocket2","null","images/rocket2","","1","real","null","1","","",""
"d3-animate-choice","148","691597","0.0-76.0-1.4","3046","4989","25","Female","false","false","true","false","""event"",""trial"",""time""
""fullscreenenter"",""5"",""21756""
","
","
","""event"",""trial"",""time""
""fullscreenenter"",""5"",""21756""
","
","313.5","","49","","","3000","1","","","images/redplanet1.jpg","images/alien2","images/alien1","images/rocket2","images/alien1","images/nothing.png","2","real","true","1","common","0","2022-12-05 15:00:38.320"
"two-step-fixation","149","692613","0.0-76.0-2.4","3046","4989","25","Female","false","false","true","false","""event"",""trial"",""time""
""fullscreenenter"",""5"",""21756""
","
","
","""event"",""trial"",""time""
""fullscreenenter"",""5"",""21756""
","
","","images/earth.jpg","","","","","","","","","","","","","","fixation","","","","","",""
"d3-animate-choice","150","695039","0.0-76.0-0.5","3046","4989","25","Female","false","false","true","false","""event"",""trial"",""time""
""fullscreenenter"",""5"",""21756""
","
","
","""event"",""trial"",""time""
""fullscreenenter"",""5"",""21756""
","
","410.10000002384186","","48","","","3000","1","2055.699999988079","48","images/earth.jpg","images/rocket1","images/rocket2","null","images/rocket1","","1","real","null","2","","",""
"d3-animate-choice","151","697520","0.0-76.0-1.5","3046","4989","25","Female","false","false","true","false","""event"",""trial"",""time""
""fullscreenenter"",""5"",""21756""
","
","
","""event"",""trial"",""time""
""fullscreenenter"",""5"",""21756""
","
","463.60000002384186","","48","","","3000","1","","","images/redplanet1.jpg","images/alien2","images/alien1","images/rocket1","images/alien2","images/t.png","2","real","false","2","rare","1","2022-12-05 15:00:44.243"
"two-step-fixation","152","698532","0.0-76.0-2.5","3046","4989","25","Female","false","false","true","false","""event"",""trial"",""time""
""fullscreenenter"",""5"",""21756""
","
","
","""event"",""trial"",""time""
""fullscreenenter"",""5"",""21756""
","
","","images/earth.jpg","","","","","","","","","","","","","","fixation","","","","","",""
"d3-animate-choice","153","701913","0.0-76.0-0.6","3046","4989","25","Female","false","false","true","false","""event"",""trial"",""time""
""fullscreenenter"",""5"",""21756""
","
","
","""event"",""trial"",""time""
""fullscreenenter"",""5"",""21756""
","
","1369.1000000238419","","49","","","3000","1","","","images/earth.jpg","images/rocket1","images/rocket2","null","images/rocket2","","1","real","null","1","","",""
"d3-animate-choice","154","704887","0.0-76.0-1.6","3046","4989","25","Female","false","false","true","false","""event"",""trial"",""time""
""fullscreenenter"",""5"",""21756""
","
","
","""event"",""trial"",""time""
""fullscreenenter"",""5"",""21756""
","
","952.9000000357628","","49","","","3000","1","","","images/redplanet1.jpg","images/alien2","images/alien1","images/rocket2","images/alien1","images/nothing.png","2","real","true","1","common","0","2022-12-05 15:00:51.610"
"two-step-fixation","155","705903","0.0-76.0-2.6","3046","4989","25","Female","false","false","true","false","""event"",""trial"",""time""
""fullscreenenter"",""5"",""21756""
","
","
","""event"",""trial"",""time""
""fullscreenenter"",""5"",""21756""
","
","","images/earth.jpg","","","","","","","","","","","","","","fixation","","","","","",""
"d3-animate-choice","156","708379","0.0-76.0-0.7","3046","4989","25","Female","false","false","true","false","""event"",""trial"",""time""
""fullscreenenter"",""5"",""21756""
","
","
","""event"",""trial"",""time""
""fullscreenenter"",""5"",""21756""
","
","461.19999998807907","","48","","","3000","1","","","images/earth.jpg","images/rocket1","images/rocket2","null","images/rocket1","","1","real","null","2","","",""
"d3-animate-choice","157","710718","0.0-76.0-1.7","3046","4989","25","Female","false","false","true","false","""event"",""trial"",""time""
""fullscreenenter"",""5"",""21756""
","
","
","""event"",""trial"",""time""
""fullscreenenter"",""5"",""21756""
","
","317.5999999642372","","48","","","3000","1","","","images/redplanet1.jpg","images/alien2","images/alien1","images/rocket1","images/alien2","images/nothing.png","2","real","false","2","rare","0","2022-12-05 15:00:57.441"
"two-step-fixation","158","711730","0.0-76.0-2.7","3046","4989","25","Female","false","false","true","false","""event"",""trial"",""time""
""fullscreenenter"",""5"",""21756""
","
","
","""event"",""trial"",""time""
""fullscreenenter"",""5"",""21756""
","
","","images/earth.jpg","","","","","","","","","","","","","","fixation","","","","","",""
"d3-animate-choice","159","714114","0.0-76.0-0.8","3046","4989","25","Female","false","false","true","false","""event"",""trial"",""time""
""fullscreenenter"",""5"",""21756""
","
","
","""event"",""trial"",""time""
""fullscreenenter"",""5"",""21756""
","
","370.19999998807907","","49","","","3000","1","","","images/earth.jpg","images/rocket1","images/rocket2","null","images/rocket2","","1","real","null","1","","",""
"d3-animate-choice","160","717031","0.0-76.0-1.8","3046","4989","25","Female","false","false","true","false","""event"",""trial"",""time""
""fullscreenenter"",""5"",""21756""
","
","
","""event"",""trial"",""time""
""fullscreenenter"",""5"",""21756""
","
","903","","49","","","3000","1","","","images/redplanet1.jpg","images/alien2","images/alien1","images/rocket2","images/alien1","images/nothing.png","2","real","true","1","common","0","2022-12-05 15:01:03.754"
"two-step-fixation","161","718040","0.0-76.0-2.8","3046","4989","25","Female","false","false","true","false","""event"",""trial"",""time""
""fullscreenenter"",""5"",""21756""
","
","
","""event"",""trial"",""time""
""fullscreenenter"",""5"",""21756""
","
","","images/earth.jpg","","","","","","","","","","","","","","fixation","","","","","",""
"d3-animate-choice","162","720537","0.0-76.0-0.9","3046","4989","25","Female","false","false","true","false","""event"",""trial"",""time""
""fullscreenenter"",""5"",""21756""
","
","
","""event"",""trial"",""time""
""fullscreenenter"",""5"",""21756""
","
","485.69999998807907","","48","","","3000","1","","","images/earth.jpg","images/rocket1","images/rocket2","null","images/rocket1","","1","real","null","2","","",""
"d3-animate-choice","163","723407","0.0-76.0-1.9","3046","4989","25","Female","false","false","true","false","""event"",""trial"",""time""
""fullscreenenter"",""5"",""21756""
","
","
","""event"",""trial"",""time""
""fullscreenenter"",""5"",""21756""
","
","848.8000000119209","","48","","","3000","1","","","images/redplanet1.jpg","images/alien2","images/alien1","images/rocket1","images/alien2","images/nothing.png","2","real","false","2","rare","0","2022-12-05 15:01:10.131"
"two-step-fixation","164","724417","0.0-76.0-2.9","3046","4989","25","Female","false","false","true","false","""event"",""trial"",""time""
""fullscreenenter"",""5"",""21756""
","
","
","""event"",""trial"",""time""
""fullscreenenter"",""5"",""21756""
","
","","images/earth.jpg","","","","","","","","","","","","","","fixation","","","","","",""
"d3-animate-choice","165","726801","0.0-76.0-0.10","3046","4989","25","Female","false","false","true","false","""event"",""trial"",""time""
""fullscreenenter"",""5"",""21756""
","
","
","""event"",""trial"",""time""
""fullscreenenter"",""5"",""21756""
","
","369.5999999642372","","49","","","3000","1","1744.8999999761581","49","images/earth.jpg","images/rocket1","images/rocket2","null","images/rocket2","","1","real","null","1","","",""
"d3-animate-choice","166","729262","0.0-76.0-1.10","3046","4989","25","Female","false","false","true","false","""event"",""trial"",""time""
""fullscreenenter"",""5"",""21756""
","
","
","""event"",""trial"",""time""
""fullscreenenter"",""5"",""21756""
","
","450","","49","","","3000","1","","","images/purpleplanet.jpg","images/alien4","images/alien3","images/rocket2","images/alien3","images/t.png","2","real","false","1","rare","1","2022-12-05 15:01:15.985"
"two-step-fixation","167","730278","0.0-76.0-2.10","3046","4989","25","Female","false","false","true","false","""event"",""trial"",""time""
""fullscreenenter"",""5"",""21756""
","
","
","""event"",""trial"",""time""
""fullscreenenter"",""5"",""21756""
","
","","images/earth.jpg","","","","","","","","","","","","","","fixation","","","","","",""
"d3-animate-choice","168","733057","0.0-76.0-0.11","3046","4989","25","Female","false","false","true","false","""event"",""trial"",""time""
""fullscreenenter"",""5"",""21756""
","
","
","""event"",""trial"",""time""
""fullscreenenter"",""5"",""21756""
","
","761.1999999880791","","48","","","3000","1","","","images/earth.jpg","images/rocket1","images/rocket2","null","images/rocket1","","1","real","null","2","","",""
"d3-animate-choice","169","735768","0.0-76.0-1.11","3046","4989","25","Female","false","false","true","false","""event"",""trial"",""time""
""fullscreenenter"",""5"",""21756""
","
","
","""event"",""trial"",""time""
""fullscreenenter"",""5"",""21756""
","
","695.8000000119209","","48","","","3000","1","","","images/purpleplanet.jpg","images/alien4","images/alien3","images/rocket1","images/alien4","images/t.png","2","real","true","2","common","1","2022-12-05 15:01:22.491"
"two-step-fixation","170","736782","0.0-76.0-2.11","3046","4989","25","Female","false","false","true","false","""event"",""trial"",""time""
""fullscreenenter"",""5"",""21756""
","
","
","""event"",""trial"",""time""
""fullscreenenter"",""5"",""21756""
","
","","images/earth.jpg","","","","","","","","","","","","","","fixation","","","","","",""
"d3-animate-choice","171","739492","0.0-76.0-0.12","3046","4989","25","Female","false","false","true","false","""event"",""trial"",""time""
""fullscreenenter"",""5"",""21756""
","
","
","""event"",""trial"",""time""
""fullscreenenter"",""5"",""21756""
","
","697.8999999761581","","49","","","3000","1","","","images/earth.jpg","images/rocket1","images/rocket2","null","images/rocket2","","1","real","null","1","","",""
"d3-animate-choice","172","741966","0.0-76.0-1.12","3046","4989","25","Female","false","false","true","false","""event"",""trial"",""time""
""fullscreenenter"",""5"",""21756""
","
","
","""event"",""trial"",""time""
""fullscreenenter"",""5"",""21756""
","
","461.10000002384186","","49","","","3000","1","","","images/redplanet1.jpg","images/alien2","images/alien1","images/rocket2","images/alien1","images/t.png","2","real","true","1","common","1","2022-12-05 15:01:28.689"
"two-step-fixation","173","742980","0.0-76.0-2.12","3046","4989","25","Female","false","false","true","false","""event"",""trial"",""time""
""fullscreenenter"",""5"",""21756""
","
","
","""event"",""trial"",""time""
""fullscreenenter"",""5"",""21756""
","
","","images/earth.jpg","","","","","","","","","","","","","","fixation","","","","","",""
"d3-animate-choice","174","745380","0.0-76.0-0.13","3046","4989","25","Female","false","false","true","false","""event"",""trial"",""time""
""fullscreenenter"",""5"",""21756""
","
","
","""event"",""trial"",""time""
""fullscreenenter"",""5"",""21756""
","
","383.60000002384186","","48","","","3000","1","","","images/earth.jpg","images/rocket1","images/rocket2","null","images/rocket1","","1","real","null","2","","",""
"d3-animate-choice","175","747712","0.0-76.0-1.13","3046","4989","25","Female","false","false","true","false","""event"",""trial"",""time""
""fullscreenenter"",""5"",""21756""
","
","
","""event"",""trial"",""time""
""fullscreenenter"",""5"",""21756""
","
","317.69999998807907","","48","","","3000","1","","","images/purpleplanet.jpg","images/alien4","images/alien3","images/rocket1","images/alien4","images/t.png","2","real","true","2","common","1","2022-12-05 15:01:34.435"
"two-step-fixation","176","748728","0.0-76.0-2.13","3046","4989","25","Female","false","false","true","false","""event"",""trial"",""time""
""fullscreenenter"",""5"",""21756""
","
","
","""event"",""trial"",""time""
""fullscreenenter"",""5"",""21756""
","
","","images/earth.jpg","","","","","","","","","","","","","","fixation","","","","","",""
"d3-animate-choice","177","751157","0.0-76.0-0.14","3046","4989","25","Female","false","false","true","false","""event"",""trial"",""time""
""fullscreenenter"",""5"",""21756""
","
","
","""event"",""trial"",""time""
""fullscreenenter"",""5"",""21756""
","
","415.5999999642372","","48","","","3000","1","","","images/earth.jpg","images/rocket1","images/rocket2","null","images/rocket1","","1","real","null","2","","",""
"d3-animate-choice","178","753464","0.0-76.0-1.14","3046","4989","25","Female","false","false","true","false","""event"",""trial"",""time""
""fullscreenenter"",""5"",""21756""
","
","
","""event"",""trial"",""time""
""fullscreenenter"",""5"",""21756""
","
","289.30000001192093","","48","","","3000","1","","","images/redplanet1.jpg","images/alien2","images/alien1","images/rocket1","images/alien2","images/t.png","2","real","false","2","rare","1","2022-12-05 15:01:40.187"
"two-step-fixation","179","754480","0.0-76.0-2.14","3046","4989","25","Female","false","false","true","false","""event"",""trial"",""time""
""fullscreenenter"",""5"",""21756""
","
","
","""event"",""trial"",""time""
""fullscreenenter"",""5"",""21756""
","
","","images/earth.jpg","","","","","","","","","","","","","","fixation","","","","","",""
"d3-animate-choice","180","756816","0.0-76.0-0.15","3046","4989","25","Female","false","false","true","false","""event"",""trial"",""time""
""fullscreenenter"",""5"",""21756""
","
","
","""event"",""trial"",""time""
""fullscreenenter"",""5"",""21756""
","
","321.60000002384186","","48","","","3000","1","","","images/earth.jpg","images/rocket1","images/rocket2","null","images/rocket1","","1","real","null","2","","",""
"d3-animate-choice","181","759161","0.0-76.0-1.15","3046","4989","25","Female","false","false","true","false","""event"",""trial"",""time""
""fullscreenenter"",""5"",""21756""
","
","
","""event"",""trial"",""time""
""fullscreenenter"",""5"",""21756""
","
","328.19999998807907","","48","","","3000","1","","","images/redplanet1.jpg","images/alien2","images/alien1","images/rocket1","images/alien2","images/nothing.png","2","real","false","2","rare","0","2022-12-05 15:01:45.885"
"two-step-fixation","182","760175","0.0-76.0-2.15","3046","4989","25","Female","false","false","true","false","""event"",""trial"",""time""
""fullscreenenter"",""5"",""21756""
","
","
","""event"",""trial"",""time""
""fullscreenenter"",""5"",""21756""
","
","","images/earth.jpg","","","","","","","","","","","","","","fixation","","","","","",""
"d3-animate-choice","183","762462","0.0-76.0-0.16","3046","4989","25","Female","false","false","true","false","""event"",""trial"",""time""
""fullscreenenter"",""5"",""21756""
","
","
","""event"",""trial"",""time""
""fullscreenenter"",""5"",""21756""
","
","270.5","","49","","","3000","1","","","images/earth.jpg","images/rocket1","images/rocket2","null","images/rocket2","","1","real","null","1","","",""
"d3-animate-choice","184","764742","0.0-76.0-1.16","3046","4989","25","Female","false","false","true","false","""event"",""trial"",""time""
""fullscreenenter"",""5"",""21756""
","
","
","""event"",""trial"",""time""
""fullscreenenter"",""5"",""21756""
","
","270.5","","49","","","3000","1","","","images/redplanet1.jpg","images/alien2","images/alien1","images/rocket2","images/alien1","images/nothing.png","2","real","true","1","common","0","2022-12-05 15:01:51.465"
"two-step-fixation","185","765753","0.0-76.0-2.16","3046","4989","25","Female","false","false","true","false","""event"",""trial"",""time""
""fullscreenenter"",""5"",""21756""
","
","
","""event"",""trial"",""time""
""fullscreenenter"",""5"",""21756""
","
","","images/earth.jpg","","","","","","","","","","","","","","fixation","","","","","",""
"d3-animate-choice","186","768064","0.0-76.0-0.17","3046","4989","25","Female","false","false","true","false","""event"",""trial"",""time""
""fullscreenenter"",""5"",""21756""
","
","
","""event"",""trial"",""time""
""fullscreenenter"",""5"",""21756""
","
","296.80000001192093","","49","","","3000","1","2029.300000011921","48","images/earth.jpg","images/rocket1","images/rocket2","null","images/rocket2","","1","real","null","1","","",""
"d3-animate-choice","187","770421","0.0-76.0-1.17","3046","4989","25","Female","false","false","true","false","""event"",""trial"",""time""
""fullscreenenter"",""5"",""21756""
","
","
","""event"",""trial"",""time""
""fullscreenenter"",""5"",""21756""
","
","344.19999998807907","","48","","","3000","1","","","images/purpleplanet.jpg","images/alien4","images/alien3","images/rocket2","images/alien4","images/t.png","2","real","false","2","rare","1","2022-12-05 15:01:57.144"
"two-step-fixation","188","771431","0.0-76.0-2.17","3046","4989","25","Female","false","false","true","false","""event"",""trial"",""time""
""fullscreenenter"",""5"",""21756""
","
","
","""event"",""trial"",""time""
""fullscreenenter"",""5"",""21756""
","
","","images/earth.jpg","","","","","","","","","","","","","","fixation","","","","","",""
"d3-animate-choice","189","773805","0.0-76.0-0.18","3046","4989","25","Female","false","false","true","false","""event"",""trial"",""time""
""fullscreenenter"",""5"",""21756""
","
","
","""event"",""trial"",""time""
""fullscreenenter"",""5"",""21756""
","
","359","","49","","","3000","1","","","images/earth.jpg","images/rocket1","images/rocket2","null","images/rocket2","","1","real","null","1","","",""
"d3-animate-choice","190","776110","0.0-76.0-1.18","3046","4989","25","Female","false","false","true","false","""event"",""trial"",""time""
""fullscreenenter"",""5"",""21756""
","
","
","""event"",""trial"",""time""
""fullscreenenter"",""5"",""21756""
","
","290","","48","","","3000","1","","","images/redplanet1.jpg","images/alien2","images/alien1","images/rocket2","images/alien2","images/t.png","2","real","true","2","common","1","2022-12-05 15:02:02.833"
"two-step-fixation","191","777125","0.0-76.0-2.18","3046","4989","25","Female","false","false","true","false","""event"",""trial"",""time""
""fullscreenenter"",""5"",""21756""
","
","
","""event"",""trial"",""time""
""fullscreenenter"",""5"",""21756""
","
","","images/earth.jpg","","","","","","","","","","","","","","fixation","","","","","",""
"d3-animate-choice","192","779492","0.0-76.0-0.19","3046","4989","25","Female","false","false","true","false","""event"",""trial"",""time""
""fullscreenenter"",""5"",""21756""
","
","
","""event"",""trial"",""time""
""fullscreenenter"",""5"",""21756""
","
","357","","49","","","3000","1","2155.100000023842","48","images/earth.jpg","images/rocket1","images/rocket2","null","images/rocket2","","1","real","null","1","","",""
"d3-animate-choice","193","781935","0.0-76.0-1.19","3046","4989","25","Female","false","false","true","false","""event"",""trial"",""time""
""fullscreenenter"",""5"",""21756""
","
","
","""event"",""trial"",""time""
""fullscreenenter"",""5"",""21756""
","
","427","","48","","","3000","1","","","images/redplanet1.jpg","images/alien2","images/alien1","images/rocket2","images/alien2","images/t.png","2","real","true","2","common","1","2022-12-05 15:02:08.658"
"two-step-fixation","194","782952","0.0-76.0-2.19","3046","4989","25","Female","false","false","true","false","""event"",""trial"",""time""
""fullscreenenter"",""5"",""21756""
","
","
","""event"",""trial"",""time""
""fullscreenenter"",""5"",""21756""
","
","","images/earth.jpg","","","","","","","","","","","","","","fixation","","","","","",""
"d3-animate-choice","195","785969","0.0-76.0-0.20","3046","4989","25","Female","false","false","true","false","""event"",""trial"",""time""
""fullscreenenter"",""5"",""21756""
","
","
","""event"",""trial"",""time""
""fullscreenenter"",""5"",""21756""
","
","1005.1999999880791","","49","","","3000","1","","","images/earth.jpg","images/rocket1","images/rocket2","null","images/rocket2","","1","real","null","1","","",""
"d3-animate-choice","196","788580","0.0-76.0-1.20","3046","4989","25","Female","false","false","true","false","""event"",""trial"",""time""
""fullscreenenter"",""5"",""21756""
","
","
","""event"",""trial"",""time""
""fullscreenenter"",""5"",""21756""
","
","594.2999999523163","","48","","","3000","1","","","images/purpleplanet.jpg","images/alien4","images/alien3","images/rocket2","images/alien4","images/t.png","2","real","false","2","rare","1","2022-12-05 15:02:15.303"
"two-step-fixation","197","789589","0.0-76.0-2.20","3046","4989","25","Female","false","false","true","false","""event"",""trial"",""time""
""fullscreenenter"",""5"",""21756""
","
","
","""event"",""trial"",""time""
""fullscreenenter"",""5"",""21756""
","
","","images/earth.jpg","","","","","","","","","","","","","","fixation","","","","","",""
"d3-animate-choice","198","791930","0.0-76.0-0.21","3046","4989","25","Female","false","false","true","false","""event"",""trial"",""time""
""fullscreenenter"",""5"",""21756""
","
","
","""event"",""trial"",""time""
""fullscreenenter"",""5"",""21756""
","
","320.5","","49","","","3000","1","","","images/earth.jpg","images/rocket1","images/rocket2","null","images/rocket2","","1","real","null","1","","",""
"d3-animate-choice","199","794295","0.0-76.0-1.21","3046","4989","25","Female","false","false","true","false","""event"",""trial"",""time""
""fullscreenenter"",""5"",""21756""
","
","
","""event"",""trial"",""time""
""fullscreenenter"",""5"",""21756""
","
","349.0999999642372","","48","","","3000","1","","","images/purpleplanet.jpg","images/alien4","images/alien3","images/rocket2","images/alien4","images/t.png","2","real","false","2","rare","1","2022-12-05 15:02:21.018"
"two-step-fixation","200","795308","0.0-76.0-2.21","3046","4989","25","Female","false","false","true","false","""event"",""trial"",""time""
""fullscreenenter"",""5"",""21756""
","
","
","""event"",""trial"",""time""
""fullscreenenter"",""5"",""21756""
","
","","images/earth.jpg","","","","","","","","","","","","","","fixation","","","","","",""
"d3-animate-choice","201","798357","0.0-76.0-0.22","3046","4989","25","Female","false","false","true","false","""event"",""trial"",""time""
""fullscreenenter"",""5"",""21756""
","
","
","""event"",""trial"",""time""
""fullscreenenter"",""5"",""21756""
","
","1036.3999999761581","","49","","","3000","1","","","images/earth.jpg","images/rocket1","images/rocket2","null","images/rocket2","","1","real","null","1","","",""
"d3-animate-choice","202","800764","0.0-76.0-1.22","3046","4989","25","Female","false","false","true","false","""event"",""trial"",""time""
""fullscreenenter"",""5"",""21756""
","
","
","""event"",""trial"",""time""
""fullscreenenter"",""5"",""21756""
","
","398.5","","48","","","3000","1","","","images/redplanet1.jpg","images/alien2","images/alien1","images/rocket2","images/alien2","images/t.png","2","real","true","2","common","1","2022-12-05 15:02:27.487"
"two-step-fixation","203","801777","0.0-76.0-2.22","3046","4989","25","Female","false","false","true","false","""event"",""trial"",""time""
""fullscreenenter"",""5"",""21756""
","
","
","""event"",""trial"",""time""
""fullscreenenter"",""5"",""21756""
","
","","images/earth.jpg","","","","","","","","","","","","","","fixation","","","","","",""
"d3-animate-choice","204","804069","0.0-76.0-0.23","3046","4989","25","Female","false","false","true","false","""event"",""trial"",""time""
""fullscreenenter"",""5"",""21756""
","
","
","""event"",""trial"",""time""
""fullscreenenter"",""5"",""21756""
","
","274.9000000357628","","49","","","3000","1","","","images/earth.jpg","images/rocket1","images/rocket2","null","images/rocket2","","1","real","null","1","","",""
"d3-animate-choice","205","806094","0.0-76.0-1.23","3046","4989","25","Female","false","false","true","false","""event"",""trial"",""time""
""fullscreenenter"",""5"",""21756""
","
","
","""event"",""trial"",""time""
""fullscreenenter"",""5"",""21756""
","
","7.100000023841858","","48","","","3000","1","","","images/purpleplanet.jpg","images/alien4","images/alien3","images/rocket2","images/alien4","images/t.png","2","real","false","2","rare","1","2022-12-05 15:02:32.817"
"two-step-fixation","206","807111","0.0-76.0-2.23","3046","4989","25","Female","false","false","true","false","""event"",""trial"",""time""
""fullscreenenter"",""5"",""21756""
","
","
","""event"",""trial"",""time""
""fullscreenenter"",""5"",""21756""
","
","","images/earth.jpg","","","","","","","","","","","","","","fixation","","","","","",""
"d3-animate-choice","207","809413","0.0-76.0-0.24","3046","4989","25","Female","false","false","true","false","""event"",""trial"",""time""
""fullscreenenter"",""5"",""21756""
","
","
","""event"",""trial"",""time""
""fullscreenenter"",""5"",""21756""
","
","288.69999998807907","","49","","","3000","1","","","images/earth.jpg","images/rocket1","images/rocket2","null","images/rocket2","","1","real","null","1","","",""
"d3-animate-choice","208","811757","0.0-76.0-1.24","3046","4989","25","Female","false","false","true","false","""event"",""trial"",""time""
""fullscreenenter"",""5"",""21756""
","
","
","""event"",""trial"",""time""
""fullscreenenter"",""5"",""21756""
","
","318.4000000357628","","48","","","3000","1","","","images/redplanet1.jpg","images/alien2","images/alien1","images/rocket2","images/alien2","images/t.png","2","real","true","2","common","1","2022-12-05 15:02:38.480"
"two-step-fixation","209","812777","0.0-76.0-2.24","3046","4989","25","Female","false","false","true","false","""event"",""trial"",""time""
""fullscreenenter"",""5"",""21756""
","
","
","""event"",""trial"",""time""
""fullscreenenter"",""5"",""21756""
","
","","images/earth.jpg","","","","","","","","","","","","","","fixation","","","","","",""
"d3-animate-choice","210","815106","0.0-76.0-0.25","3046","4989","25","Female","false","false","true","false","""event"",""trial"",""time""
""fullscreenenter"",""5"",""21756""
","
","
","""event"",""trial"",""time""
""fullscreenenter"",""5"",""21756""
","
","308","","49","","","3000","1","","","images/earth.jpg","images/rocket1","images/rocket2","null","images/rocket2","","1","real","null","1","","",""
"d3-animate-choice","211","817455","0.0-76.0-1.25","3046","4989","25","Female","false","false","true","false","""event"",""trial"",""time""
""fullscreenenter"",""5"",""21756""
","
","
","""event"",""trial"",""time""
""fullscreenenter"",""5"",""21756""
","
","335.39999997615814","","48","","","3000","1","","","images/redplanet1.jpg","images/alien2","images/alien1","images/rocket2","images/alien2","images/nothing.png","2","real","true","2","common","0","2022-12-05 15:02:44.179"
"two-step-fixation","212","818468","0.0-76.0-2.25","3046","4989","25","Female","false","false","true","false","""event"",""trial"",""time""
""fullscreenenter"",""5"",""21756""
","
","
","""event"",""trial"",""time""
""fullscreenenter"",""5"",""21756""
","
","","images/earth.jpg","","","","","","","","","","","","","","fixation","","","","","",""
"d3-animate-choice","213","820828","0.0-76.0-0.26","3046","4989","25","Female","false","false","true","false","""event"",""trial"",""time""
""fullscreenenter"",""5"",""21756""
","
","
","""event"",""trial"",""time""
""fullscreenenter"",""5"",""21756""
","
","349.60000002384186","","49","","","3000","1","","","images/earth.jpg","images/rocket1","images/rocket2","null","images/rocket2","","1","real","null","1","","",""
"d3-animate-choice","214","823199","0.0-76.0-1.26","3046","4989","25","Female","false","false","true","false","""event"",""trial"",""time""
""fullscreenenter"",""5"",""21756""
","
","
","""event"",""trial"",""time""
""fullscreenenter"",""5"",""21756""
","
","351.4000000357628","","49","","","3000","1","","","images/purpleplanet.jpg","images/alien4","images/alien3","images/rocket2","images/alien3","images/nothing.png","2","real","false","1","rare","0","2022-12-05 15:02:49.922"
"two-step-fixation","215","824215","0.0-76.0-2.26","3046","4989","25","Female","false","false","true","false","""event"",""trial"",""time""
""fullscreenenter"",""5"",""21756""
","
","
","""event"",""trial"",""time""
""fullscreenenter"",""5"",""21756""
","
","","images/earth.jpg","","","","","","","","","","","","","","fixation","","","","","",""
"d3-animate-choice","216","826522","0.0-76.0-0.27","3046","4989","25","Female","false","false","true","false","""event"",""trial"",""time""
""fullscreenenter"",""5"",""21756""
","
","
","""event"",""trial"",""time""
""fullscreenenter"",""5"",""21756""
","
","290.19999998807907","","48","","","3000","1","","","images/earth.jpg","images/rocket1","images/rocket2","null","images/rocket1","","1","real","null","2","","",""
"d3-animate-choice","217","829307","0.0-76.0-1.27","3046","4989","25","Female","false","false","true","false","""event"",""trial"",""time""
""fullscreenenter"",""5"",""21756""
","
","
","""event"",""trial"",""time""
""fullscreenenter"",""5"",""21756""
","
","763.0999999642372","","49","","","3000","1","","","images/purpleplanet.jpg","images/alien4","images/alien3","images/rocket1","images/alien3","images/t.png","2","real","true","1","common","1","2022-12-05 15:02:56.031"
"two-step-fixation","218","830316","0.0-76.0-2.27","3046","4989","25","Female","false","false","true","false","""event"",""trial"",""time""
""fullscreenenter"",""5"",""21756""
","
","
","""event"",""trial"",""time""
""fullscreenenter"",""5"",""21756""
","
","","images/earth.jpg","","","","","","","","","","","","","","fixation","","","","","",""
"d3-animate-choice","219","832701","0.0-76.0-0.28","3046","4989","25","Female","false","false","true","false","""event"",""trial"",""time""
""fullscreenenter"",""5"",""21756""
","
","
","""event"",""trial"",""time""
""fullscreenenter"",""5"",""21756""
","
","372.0999999642372","","48","","","3000","1","","","images/earth.jpg","images/rocket1","images/rocket2","null","images/rocket1","","1","real","null","2","","",""
"d3-animate-choice","220","834972","0.0-76.0-1.28","3046","4989","25","Female","false","false","true","false","""event"",""trial"",""time""
""fullscreenenter"",""5"",""21756""
","
","
","""event"",""trial"",""time""
""fullscreenenter"",""5"",""21756""
","
","257.39999997615814","","49","","","3000","1","","","images/purpleplanet.jpg","images/alien4","images/alien3","images/rocket1","images/alien3","images/t.png","2","real","true","1","common","1","2022-12-05 15:03:01.695"
"two-step-fixation","221","835981","0.0-76.0-2.28","3046","4989","25","Female","false","false","true","false","""event"",""trial"",""time""
""fullscreenenter"",""5"",""21756""
","
","
","""event"",""trial"",""time""
""fullscreenenter"",""5"",""21756""
","
","","images/earth.jpg","","","","","","","","","","","","","","fixation","","","","","",""
"d3-animate-choice","222","838245","0.0-76.0-0.29","3046","4989","25","Female","false","false","true","false","""event"",""trial"",""time""
""fullscreenenter"",""5"",""21756""
","
","
","""event"",""trial"",""time""
""fullscreenenter"",""5"",""21756""
","
","253.80000001192093","","48","","","3000","1","2138.099999964237","49","images/earth.jpg","images/rocket1","images/rocket2","null","images/rocket1","","1","real","null","2","","",""
"d3-animate-choice","223","840761","0.0-76.0-1.29","3046","4989","25","Female","false","false","true","false","""event"",""trial"",""time""
""fullscreenenter"",""5"",""21756""
","
","
","""event"",""trial"",""time""
""fullscreenenter"",""5"",""21756""
","
","494.39999997615814","","49","","","3000","1","","","images/purpleplanet.jpg","images/alien4","images/alien3","images/rocket1","images/alien3","images/t.png","2","real","true","1","common","1","2022-12-05 15:03:07.485"
"two-step-fixation","224","841773","0.0-76.0-2.29","3046","4989","25","Female","false","false","true","false","""event"",""trial"",""time""
""fullscreenenter"",""5"",""21756""
","
","
","""event"",""trial"",""time""
""fullscreenenter"",""5"",""21756""
","
","","images/earth.jpg","","","","","","","","","","","","","","fixation","","","","","",""
"d3-animate-choice","225","844167","0.0-76.0-0.30","3046","4989","25","Female","false","false","true","false","""event"",""trial"",""time""
""fullscreenenter"",""5"",""21756""
","
","
","""event"",""trial"",""time""
""fullscreenenter"",""5"",""21756""
","
","377.80000001192093","","48","","","3000","1","","","images/earth.jpg","images/rocket1","images/rocket2","null","images/rocket1","","1","real","null","2","","",""
"d3-animate-choice","226","846564","0.0-76.0-1.30","3046","4989","25","Female","false","false","true","false","""event"",""trial"",""time""
""fullscreenenter"",""5"",""21756""
","
","
","""event"",""trial"",""time""
""fullscreenenter"",""5"",""21756""
","
","386.60000002384186","","49","","","3000","1","","","images/purpleplanet.jpg","images/alien4","images/alien3","images/rocket1","images/alien3","images/nothing.png","2","real","true","1","common","0","2022-12-05 15:03:13.288"
"two-step-fixation","227","847576","0.0-76.0-2.30","3046","4989","25","Female","false","false","true","false","""event"",""trial"",""time""
""fullscreenenter"",""5"",""21756""
","
","
","""event"",""trial"",""time""
""fullscreenenter"",""5"",""21756""
","
","","images/earth.jpg","","","","","","","","","","","","","","fixation","","","","","",""
"d3-animate-choice","228","850390","0.0-76.0-0.31","3046","4989","25","Female","false","false","true","false","""event"",""trial"",""time""
""fullscreenenter"",""5"",""21756""
","
","
","""event"",""trial"",""time""
""fullscreenenter"",""5"",""21756""
","
","799.1000000238419","","48","","","3000","1","","","images/earth.jpg","images/rocket1","images/rocket2","null","images/rocket1","","1","real","null","2","","",""
"d3-animate-choice","229","852901","0.0-76.0-1.31","3046","4989","25","Female","false","false","true","false","""event"",""trial"",""time""
""fullscreenenter"",""5"",""21756""
","
","
","""event"",""trial"",""time""
""fullscreenenter"",""5"",""21756""
","
","493.19999998807907","","48","","","3000","1","","","images/purpleplanet.jpg","images/alien4","images/alien3","images/rocket1","images/alien4","images/t.png","2","real","true","2","common","1","2022-12-05 15:03:19.624"
"two-step-fixation","230","853910","0.0-76.0-2.31","3046","4989","25","Female","false","false","true","false","""event"",""trial"",""time""
""fullscreenenter"",""5"",""21756""
","
","
","""event"",""trial"",""time""
""fullscreenenter"",""5"",""21756""
","
","","images/earth.jpg","","","","","","","","","","","","","","fixation","","","","","",""
"d3-animate-choice","231","856693","0.0-76.0-0.32","3046","4989","25","Female","false","false","true","false","""event"",""trial"",""time""
""fullscreenenter"",""5"",""21756""
","
","
","""event"",""trial"",""time""
""fullscreenenter"",""5"",""21756""
","
","769.3999999761581","","48","","","3000","1","","","images/earth.jpg","images/rocket1","images/rocket2","null","images/rocket1","","1","real","null","2","","",""
"d3-animate-choice","232","859532","0.0-76.0-1.32","3046","4989","25","Female","false","false","true","false","""event"",""trial"",""time""
""fullscreenenter"",""5"",""21756""
","
","
","""event"",""trial"",""time""
""fullscreenenter"",""5"",""21756""
","
","828.1999999880791","","48","","","3000","1","","","images/purpleplanet.jpg","images/alien4","images/alien3","images/rocket1","images/alien4","images/nothing.png","2","real","true","2","common","0","2022-12-05 15:03:26.255"
"two-step-fixation","233","860547","0.0-76.0-2.32","3046","4989","25","Female","false","false","true","false","""event"",""trial"",""time""
""fullscreenenter"",""5"",""21756""
","
","
","""event"",""trial"",""time""
""fullscreenenter"",""5"",""21756""
","
","","images/earth.jpg","","","","","","","","","","","","","","fixation","","","","","",""
"d3-animate-choice","234","863110","0.0-76.0-0.33","3046","4989","25","Female","false","false","true","false","""event"",""trial"",""time""
""fullscreenenter"",""5"",""21756""
","
","
","""event"",""trial"",""time""
""fullscreenenter"",""5"",""21756""
","
","548.8999999761581","","48","","","3000","1","","","images/earth.jpg","images/rocket1","images/rocket2","null","images/rocket1","","1","real","null","2","","",""
"d3-animate-choice","235","866405","0.0-76.0-1.33","3046","4989","25","Female","false","false","true","false","""event"",""trial"",""time""
""fullscreenenter"",""5"",""21756""
","
","
","""event"",""trial"",""time""
""fullscreenenter"",""5"",""21756""
","
","1268.9000000357628","","48","","","3000","1","","","images/purpleplanet.jpg","images/alien4","images/alien3","images/rocket1","images/alien4","images/t.png","2","real","true","2","common","1","2022-12-05 15:03:33.129"
"two-step-fixation","236","867413","0.0-76.0-2.33","3046","4989","25","Female","false","false","true","false","""event"",""trial"",""time""
""fullscreenenter"",""5"",""21756""
","
","
","""event"",""trial"",""time""
""fullscreenenter"",""5"",""21756""
","
","","images/earth.jpg","","","","","","","","","","","","","","fixation","","","","","",""
"d3-animate-choice","237","870371","0.0-76.0-0.34","3046","4989","25","Female","false","false","true","false","""event"",""trial"",""time""
""fullscreenenter"",""5"",""21756""
","
","
","""event"",""trial"",""time""
""fullscreenenter"",""5"",""21756""
","
","941.3000000119209","","48","","","3000","1","","","images/earth.jpg","images/rocket1","images/rocket2","null","images/rocket1","","1","real","null","2","","",""
"d3-animate-choice","238","873301","0.0-76.0-1.34","3046","4989","25","Female","false","false","true","false","""event"",""trial"",""time""
""fullscreenenter"",""5"",""21756""
","
","
","""event"",""trial"",""time""
""fullscreenenter"",""5"",""21756""
","
","915","","48","","","3000","1","","","images/purpleplanet.jpg","images/alien4","images/alien3","images/rocket1","images/alien4","images/t.png","2","real","true","2","common","1","2022-12-05 15:03:40.025"
"two-step-fixation","239","874325","0.0-76.0-2.34","3046","4989","25","Female","false","false","true","false","""event"",""trial"",""time""
""fullscreenenter"",""5"",""21756""
","
","
","""event"",""trial"",""time""
""fullscreenenter"",""5"",""21756""
","
","","images/earth.jpg","","","","","","","","","","","","","","fixation","","","","","",""
"d3-animate-choice","240","877174","0.0-76.0-0.35","3046","4989","25","Female","false","false","true","false","""event"",""trial"",""time""
""fullscreenenter"",""5"",""21756""
","
","
","""event"",""trial"",""time""
""fullscreenenter"",""5"",""21756""
","
","834.1000000238419","","48","","","3000","1","","","images/earth.jpg","images/rocket1","images/rocket2","null","images/rocket1","","1","real","null","2","","",""
"d3-animate-choice","241","880694","0.0-76.0-1.35","3046","4989","25","Female","false","false","true","false","""event"",""trial"",""time""
""fullscreenenter"",""5"",""21756""
","
","
","""event"",""trial"",""time""
""fullscreenenter"",""5"",""21756""
","
","1506.5999999642372","","48","","","3000","1","","","images/purpleplanet.jpg","images/alien4","images/alien3","images/rocket1","images/alien4","images/t.png","2","real","true","2","common","1","2022-12-05 15:03:47.417"
"two-step-fixation","242","881709","0.0-76.0-2.35","3046","4989","25","Female","false","false","true","false","""event"",""trial"",""time""
""fullscreenenter"",""5"",""21756""
","
","
","""event"",""trial"",""time""
""fullscreenenter"",""5"",""21756""
","
","","images/earth.jpg","","","","","","","","","","","","","","fixation","","","","","",""
"d3-animate-choice","243","884524","0.0-76.0-0.36","3046","4989","25","Female","false","false","true","false","""event"",""trial"",""time""
""fullscreenenter"",""5"",""21756""
","
","
","""event"",""trial"",""time""
""fullscreenenter"",""5"",""21756""
","
","799.5","","48","","","3000","1","2560","48","images/earth.jpg","images/rocket1","images/rocket2","null","images/rocket1","","1","real","null","2","","",""
"d3-animate-choice","244","887588","0.0-76.0-1.36","3046","4989","25","Female","false","false","true","false","""event"",""trial"",""time""
""fullscreenenter"",""5"",""21756""
","
","
","""event"",""trial"",""time""
""fullscreenenter"",""5"",""21756""
","
