"trial_type","trial_index","time_elapsed","internal_node_id","participant_id","subject_id","age","gender","rocket_sides","red_planet_first_rocket","red_display_order","purple_display_order","interactions","blur_events","focus_events","fullscreenenter_events","fullscreenexit_events","rt","stimulus","key_press","button_pressed","success","duration","valid_pressed","rts","keys","planet_text","right_text","left_text","center_text","chosen_text","reward_text","trial_stage","practice_trial","transition_type","choice","transition","reward","timestamp"
"pavlovia","0","3","0.0-0.0","1981","5017","13","Male","true","true","false","false","
","
","
","
","
","","","","","","","","","","","","","","","","","","","","","",""
"html-keyboard-response","1","1870","0.0-1.0","1981","5017","13","Male","true","true","false","false","
","
","
","
","
","1865.399999999965","Welcome! Press the space bar to begin.","32","","","","","","","","","","","","","","","","","","",""
"audio-keyboard-response","2","3686","0.0-2.0","1981","5017","13","Male","true","true","false","false","
","
","
","
","
","1720","audio/beep_loop.wav","32","","","","","","","","","","","","","","","","","","",""
"audio-button-response","3","40002","0.0-3.0","1981","5017","13","Male","true","true","false","false","
","
","
","
","
","NaN","audio/fish.mp3","","1","","","","","","","","","","","","","","","","","",""
"audio-button-response","4","49513","0.0-4.0","1981","5017","13","Male","true","true","false","false","""event"",""trial"",""time""
""fullscreenenter"",""5"",""53849""
","
","
","""event"",""trial"",""time""
""fullscreenenter"",""5"",""53849""
","
","NaN","audio/tiger.mp3","","4","","","","","","","","","","","","","","","","","",""
"fullscreen","5","54853","0.0-5.0","1981","5017","13","Male","true","true","false","false","""event"",""trial"",""time""
""fullscreenenter"",""5"",""53849""
","
","
","""event"",""trial"",""time""
""fullscreenenter"",""5"",""53849""
","
","","","","","true","","","","","","","","","","","","","","","","",""
"d3-instructions","6","56841","0.0-6.0","1981","5017","13","Male","true","true","false","false","""event"",""trial"",""time""
""fullscreenenter"",""5"",""53849""
","
","
","""event"",""trial"",""time""
""fullscreenenter"",""5"",""53849""
","
","","","","","","","","","","","","","","","","","","","","","",""
"d3-instructions","7","57361","0.0-7.0","1981","5017","13","Male","true","true","false","false","""event"",""trial"",""time""
""fullscreenenter"",""5"",""53849""
","
","
","""event"",""trial"",""time""
""fullscreenenter"",""5"",""53849""
","
","","","","","","","","","","","","","","","","","","","","","",""
"d3-instructions","8","57769","0.0-8.0","1981","5017","13","Male","true","true","false","false","""event"",""trial"",""time""
""fullscreenenter"",""5"",""53849""
","
","
","""event"",""trial"",""time""
""fullscreenenter"",""5"",""53849""
","
","","","","","","","","","","","","","","","","","","","","","",""
"d3-instructions","9","58185","0.0-9.0","1981","5017","13","Male","true","true","false","false","""event"",""trial"",""time""
""fullscreenenter"",""5"",""53849""
","
","
","""event"",""trial"",""time""
""fullscreenenter"",""5"",""53849""
","
","","","","","","","","","","","","","","","","","","","","","",""
"d3-instructions","10","58561","0.0-10.0","1981","5017","13","Male","true","true","false","false","""event"",""trial"",""time""
""fullscreenenter"",""5"",""53849""
","
","
","""event"",""trial"",""time""
""fullscreenenter"",""5"",""53849""
","
","","","","","","","","","","","","","","","","","","","","","",""
"d3-animate-choice","11","62179","0.0-11.0","1981","5017","13","Male","true","true","false","false","""event"",""trial"",""time""
""fullscreenenter"",""5"",""53849""
","
","
","""event"",""trial"",""time""
""fullscreenenter"",""5"",""53849""
","
","1598.7999999999884","","49","","","3000","1","2974.600000000035,3262.7999999999884,3582.600000000035","48,48,49","images/tutgreenplanet.jpg","images/tutalien1","images/tutalien2","null","images/tutalien2","","NA","practice","null","","","",""
"d3-animate-choice","12","64409","0.0-12.0","1981","5017","13","Male","true","true","false","false","""event"",""trial"",""time""
""fullscreenenter"",""5"",""53849""
","
","
","""event"",""trial"",""time""
""fullscreenenter"",""5"",""53849""
","
","221.40000000002328","","49","","","3000","1","621.4000000000233,909.4000000000233,1533.5,1757.5,1949.5,2117.5","49,49,48,48,48,48","images/tutgreenplanet.jpg","images/tutalien1","images/tutalien2","null","images/tutalien2","","NA","practice","null","","","",""
"d3-animate-choice","13","66469","0.0-13.0","1981","5017","13","Male","true","true","false","false","""event"",""trial"",""time""
""fullscreenenter"",""5"",""53849""
","
","
","""event"",""trial"",""time""
""fullscreenenter"",""5"",""53849""
","
","38.40000000002328","","48","","","3000","1","302.4000000000233,398.0999999999767,478.20000000001164","48,48,48","images/tutgreenplanet.jpg","images/tutalien1","images/tutalien2","null","images/tutalien1","","NA","practice","null","","","",""
"d3-animate-choice","14","68993","0.0-14.0","1981","5017","13","Male","true","true","false","false","""event"",""trial"",""time""
""fullscreenenter"",""5"",""53849""
","
","
","""event"",""trial"",""time""
""fullscreenenter"",""5"",""53849""
","
","516.2000000000116","","49","","","3000","1","","","images/tutgreenplanet.jpg","images/tutalien1","images/tutalien2","null","images/tutalien2","","NA","practice","null","","","",""
"d3-instructions","15","70858","0.0-15.0","1981","5017","13","Male","true","true","false","false","""event"",""trial"",""time""
""fullscreenenter"",""5"",""53849""
","
","
","""event"",""trial"",""time""
""fullscreenenter"",""5"",""53849""
","
","","","","","","","","","","","","","","","","","","","","","",""
"d3-instructions","16","71234","0.0-16.0","1981","5017","13","Male","true","true","false","false","""event"",""trial"",""time""
""fullscreenenter"",""5"",""53849""
","
","
","""event"",""trial"",""time""
""fullscreenenter"",""5"",""53849""
","
","","","","","","","","","","","","","","","","","","","","","",""
"d3-instructions","17","71538","0.0-17.0","1981","5017","13","Male","true","true","false","false","""event"",""trial"",""time""
""fullscreenenter"",""5"",""53849""
","
","
","""event"",""trial"",""time""
""fullscreenenter"",""5"",""53849""
","
","","","","","","","","","","","","","","","","","","","","","",""
"d3-instructions","18","71842","0.0-18.0","1981","5017","13","Male","true","true","false","false","""event"",""trial"",""time""
""fullscreenenter"",""5"",""53849""
","
","
","""event"",""trial"",""time""
""fullscreenenter"",""5"",""53849""
","
","","","","","","","","","","","","","","","","","","","","","",""
"d3-instructions","19","72146","0.0-19.0","1981","5017","13","Male","true","true","false","false","""event"",""trial"",""time""
""fullscreenenter"",""5"",""53849""
","
","
","""event"",""trial"",""time""
""fullscreenenter"",""5"",""53849""
","
","","","","","","","","","","","","","","","","","","","","","",""
"d3-animate-choice","20","75359","0.0-20.0","1981","5017","13","Male","true","true","false","false","""event"",""trial"",""time""
""fullscreenenter"",""5"",""53849""
","
","
","""event"",""trial"",""time""
""fullscreenenter"",""5"",""53849""
","
","279.0999999999767","","32","","","3000","1","1199,1375.2000000000116,1567,1751,1943.2000000000116,2151,2367,2567,2759,2975.0999999999767","49,49,49,49,49,49,49,49,49,49","images/tutyellowplanet.jpg","null","images/tutalien3","null","images/tutalien3","images/nothing.png","NA","practice","null","","","",""
"d3-animate-choice","21","77387","0.0-21.0","1981","5017","13","Male","true","true","false","false","""event"",""trial"",""time""
""fullscreenenter"",""5"",""53849""
","
","
","""event"",""trial"",""time""
""fullscreenenter"",""5"",""53849""
","
","10","","49","","","3000","1","218,426,634.2999999999884,858,1082.100000000035,1290.100000000035,1530.2999999999884,1762.2999999999884,1962.100000000035","49,49,49,49,49,49,49,49,49","images/tutyellowplanet.jpg","null","images/tutalien3","null","images/tutalien3","images/t.png","NA","practice","null","","","",""
"d3-animate-choice","22","79618","0.0-22.0","1981","5017","13","Male","true","true","false","false","""event"",""trial"",""time""
""fullscreenenter"",""5"",""53849""
","
","
","""event"",""trial"",""time""
""fullscreenenter"",""5"",""53849""
","
","221.70000000001164","","49","","","3000","1","438,685.7999999999884,973.8999999999651,1349.7000000000116,1678,2093.7999999999884","49,49,49,49,49,49","images/tutyellowplanet.jpg","null","images/tutalien3","null","images/tutalien3","images/t.png","NA","practice","null","","","",""
"d3-animate-choice","23","81848","0.0-23.0","1981","5017","13","Male","true","true","false","false","""event"",""trial"",""time""
""fullscreenenter"",""5"",""53849""
","
","
","""event"",""trial"",""time""
""fullscreenenter"",""5"",""53849""
","
","215.59999999997672","","49","","","3000","1","487.5,799.5999999999767,1143.5999999999767,1487.7000000000116,1815.5999999999767,2151.6999999999534","49,49,49,49,49,49","images/tutyellowplanet.jpg","null","images/tutalien3","null","images/tutalien3","images/t.png","NA","practice","null","","","",""
"d3-animate-choice","24","84187","0.0-24.0","1981","5017","13","Male","true","true","false","false","""event"",""trial"",""time""
""fullscreenenter"",""5"",""53849""
","
","
","""event"",""trial"",""time""
""fullscreenenter"",""5"",""53849""
","
","321","","49","","","3000","1","569.3000000000466,809,1001.2000000000698,1265.3000000000466,1513.1000000000931,1777.1000000000931,2025.1000000000931,2305.100000000093","49,49,49,49,49,49,49,49","images/tutyellowplanet.jpg","null","images/tutalien3","null","images/tutalien3","images/t.png","NA","practice","null","","","",""
"d3-animate-choice","25","86470","0.0-25.0","1981","5017","13","Male","true","true","false","false","""event"",""trial"",""time""
""fullscreenenter"",""5"",""53849""
","
","
","""event"",""trial"",""time""
""fullscreenenter"",""5"",""53849""
","
","278.20000000006985","","49","","","3000","1","566.4000000000233,1230.5,1590.4000000000233,1950.4000000000233,2222.5","49,49,49,49,49","images/tutyellowplanet.jpg","null","images/tutalien3","null","images/tutalien3","images/t.png","NA","practice","null","","","",""
"d3-animate-choice","26","88941","0.0-26.0","1981","5017","13","Male","true","true","false","false","""event"",""trial"",""time""
""fullscreenenter"",""5"",""53849""
","
","
","""event"",""trial"",""time""
""fullscreenenter"",""5"",""53849""
","
","459.4000000000233","","49","","","3000","1","923.5999999999767,1259.5,1523.5,1739.5,1947.5999999999767,2187.70000000007","49,49,49,49,49,49","images/tutyellowplanet.jpg","null","images/tutalien3","null","images/tutalien3","images/t.png","NA","practice","null","","","",""
"d3-animate-choice","27","91907","0.0-27.0","1981","5017","13","Male","true","true","false","false","""event"",""trial"",""time""
""fullscreenenter"",""5"",""53849""
","
","
","""event"",""trial"",""time""
""fullscreenenter"",""5"",""53849""
","
","956.5","","49","","","3000","1","1404.5,1660.5,1956.6000000000931,2276.600000000093,2580.70000000007,2820.70000000007","49,49,49,49,49,49","images/tutyellowplanet.jpg","null","images/tutalien3","null","images/tutalien3","images/nothing.png","NA","practice","null","","","",""
"d3-animate-choice","28","94094","0.0-28.0","1981","5017","13","Male","true","true","false","false","""event"",""trial"",""time""
""fullscreenenter"",""5"",""53849""
","
","
","""event"",""trial"",""time""
""fullscreenenter"",""5"",""53849""
","
","183.69999999995343","","49","","","3000","1","511.30000000004657,807.4000000000233,1047.4000000000233","49,49,49","images/tutyellowplanet.jpg","null","images/tutalien3","null","images/tutalien3","images/t.png","NA","practice","null","","","",""
"d3-animate-choice","29","96118","0.0-29.0","1981","5017","13","Male","true","true","false","false","""event"",""trial"",""time""
""fullscreenenter"",""5"",""53849""
","
","
","""event"",""trial"",""time""
""fullscreenenter"",""5"",""53849""
","
","19.800000000046566","","49","","","3000","1","324.10000000009313,668,979.8000000000466,1251.9000000000233,1715.9000000000233","49,49,49,49,49","images/tutyellowplanet.jpg","null","images/tutalien3","null","images/tutalien3","images/t.png","NA","practice","null","","","",""
"d3-instructions","30","110308","0.0-30.0","1981","5017","13","Male","true","true","false","false","""event"",""trial"",""time""
""fullscreenenter"",""5"",""53849""
","
","
","""event"",""trial"",""time""
""fullscreenenter"",""5"",""53849""
","
","","","","","","","","","","","","","","","","","","","","","",""
"d3-instructions","31","110900","0.0-31.0","1981","5017","13","Male","true","true","false","false","""event"",""trial"",""time""
""fullscreenenter"",""5"",""53849""
","
","
","""event"",""trial"",""time""
""fullscreenenter"",""5"",""53849""
","
","","","","","","","","","","","","","","","","","","","","","",""
"d3-instructions","32","111260","0.0-32.0","1981","5017","13","Male","true","true","false","false","""event"",""trial"",""time""
""fullscreenenter"",""5"",""53849""
","
","
","""event"",""trial"",""time""
""fullscreenenter"",""5"",""53849""
","
","","","","","","","","","","","","","","","","","","","","","",""
"d3-instructions","33","111588","0.0-33.0","1981","5017","13","Male","true","true","false","false","""event"",""trial"",""time""
""fullscreenenter"",""5"",""53849""
","
","
","""event"",""trial"",""time""
""fullscreenenter"",""5"",""53849""
","
","","","","","","","","","","","","","","","","","","","","","",""
"d3-animate-choice","34","114652","0.0-34.0","1981","5017","13","Male","true","true","false","false","""event"",""trial"",""time""
""fullscreenenter"",""5"",""53849""
","
","
","""event"",""trial"",""time""
""fullscreenenter"",""5"",""53849""
","
","287.0999999999767","","32","","","3000","1","1047.2999999999302,2311.29999999993,2479.29999999993,2671.29999999993","49,48,48,48","images/tutgreenplanet.jpg","images/tutalien1","images/tutalien2","null","images/tutalien2","images/t.png","NA","practice","null","","","",""
"d3-animate-choice","35","116781","0.0-35.0","1981","5017","13","Male","true","true","false","false","""event"",""trial"",""time""
""fullscreenenter"",""5"",""53849""
","
","
","""event"",""trial"",""time""
""fullscreenenter"",""5"",""53849""
","
","127.59999999997672","","49","","","3000","1","351.5,551.5,815.5,1087.5,1367.6999999999534,1703.5999999999767,1951.5999999999767","49,49,49,49,49,49,49","images/tutgreenplanet.jpg","images/tutalien1","images/tutalien2","null","images/tutalien2","images/t.png","NA","practice","null","","","",""
"d3-animate-choice","36","118864","0.0-36.0","1981","5017","13","Male","true","true","false","false","""event"",""trial"",""time""
""fullscreenenter"",""5"",""53849""
","
","
","""event"",""trial"",""time""
""fullscreenenter"",""5"",""53849""
","
","78","","49","","","3000","1","302.19999999995343,510.0999999999767,734.0999999999767,934.0999999999767,1142.0999999999767,1382.1999999999534,1606.2999999999302,1838.2999999999302","49,49,49,49,49,49,49,49","images/tutgreenplanet.jpg","images/tutalien1","images/tutalien2","null","images/tutalien2","images/t.png","NA","practice","null","","","",""
"d3-animate-choice","37","121652","0.0-37.0","1981","5017","13","Male","true","true","false","false","""event"",""trial"",""time""
""fullscreenenter"",""5"",""53849""
","
","
","""event"",""trial"",""time""
""fullscreenenter"",""5"",""53849""
","
","771.4000000000233","","49","","","3000","1","931.3000000000466,1507.4000000000233,1715.5,2131.600000000093,2331.5,2524,2723.8000000000466","49,49,49,49,49,49,49","images/tutgreenplanet.jpg","images/tutalien1","images/tutalien2","null","images/tutalien2","images/t.png","NA","practice","null","","","",""
"d3-animate-choice","38","123782","0.0-38.0","1981","5017","13","Male","true","true","false","false","""event"",""trial"",""time""
""fullscreenenter"",""5"",""53849""
","
","
","""event"",""trial"",""time""
""fullscreenenter"",""5"",""53849""
","
","120","","49","","","3000","1","311.79999999993015,512,711.8999999999069,912.0999999999767,1104.0999999999767,1279.8999999999069,1447.8999999999069,1640.1999999999534,1856,2047.8999999999069","49,49,49,49,49,49,49,49,49,49","images/tutgreenplanet.jpg","images/tutalien1","images/tutalien2","null","images/tutalien2","images/t.png","NA","practice","null","","","",""
"d3-animate-choice","39","125896","0.0-39.0","1981","5017","13","Male","true","true","false","false","""event"",""trial"",""time""
""fullscreenenter"",""5"",""53849""
","
","
","""event"",""trial"",""time""
""fullscreenenter"",""5"",""53849""
","
","102.5","","49","","","3000","1","278.5,478.4000000000233,654.2000000000698,998.3000000000466,1198.4000000000233,1566.5,1790.3000000000466","49,49,49,49,49,49,49","images/tutgreenplanet.jpg","images/tutalien1","images/tutalien2","null","images/tutalien2","images/t.png","NA","practice","null","","","",""
"d3-animate-choice","40","127909","0.0-40.0","1981","5017","13","Male","true","true","false","false","""event"",""trial"",""time""
""fullscreenenter"",""5"",""53849""
","
","
","""event"",""trial"",""time""
""fullscreenenter"",""5"",""53849""
","
","3.700000000069849","","49","","","3000","1","235.80000000004657,403.80000000004657,691.8000000000466,883.8000000000466,995.9000000000233,1323.9000000000233,1555.9000000000233","49,49,49,49,49,49,49","images/tutgreenplanet.jpg","images/tutalien1","images/tutalien2","null","images/tutalien2","images/t.png","NA","practice","null","","","",""
"d3-animate-choice","41","130093","0.0-41.0","1981","5017","13","Male","true","true","false","false","""event"",""trial"",""time""
""fullscreenenter"",""5"",""53849""
","
","
","""event"",""trial"",""time""
""fullscreenenter"",""5"",""53849""
","
","174.40000000002328","","49","","","3000","1","742.5,1438.8000000000466,1742.6000000000931,2102.5","49,49,49,49","images/tutgreenplanet.jpg","images/tutalien1","images/tutalien2","null","images/tutalien2","images/t.png","NA","practice","null","","","",""
"d3-animate-choice","42","132292","0.0-42.0","1981","5017","13","Male","true","true","false","false","""event"",""trial"",""time""
""fullscreenenter"",""5"",""53849""
","
","
","""event"",""trial"",""time""
""fullscreenenter"",""5"",""53849""
","
","183.09999999997672","","49","","","3000","1","527.0999999999767,855.1999999999534,1183,1511.0999999999767,1799.0999999999767,2087.399999999907","49,49,49,49,49,49","images/tutgreenplanet.jpg","images/tutalien1","images/tutalien2","null","images/tutalien2","images/t.png","NA","practice","null","","","",""
"d3-animate-choice","43","134509","0.0-43.0","1981","5017","13","Male","true","true","false","false","""event"",""trial"",""time""
""fullscreenenter"",""5"",""53849""
","
","
","""event"",""trial"",""time""
""fullscreenenter"",""5"",""53849""
","
","208.20000000006985","","49","","","3000","1","512.4000000000233,824.3000000000466,1160.5,1488.2000000000698,1816.2000000000698,2176.3000000000466","49,49,49,49,49,49","images/tutgreenplanet.jpg","images/tutalien1","images/tutalien2","null","images/tutalien2","images/nothing.png","NA","practice","null","","","",""
"d3-instructions","44","136470","0.0-44.0","1981","5017","13","Male","true","true","false","false","""event"",""trial"",""time""
""fullscreenenter"",""5"",""53849""
","
","
","""event"",""trial"",""time""
""fullscreenenter"",""5"",""53849""
","
","","","","","","","","","","","","","","","","","","","","","",""
"d3-instructions","45","136742","0.0-45.0","1981","5017","13","Male","true","true","false","false","""event"",""trial"",""time""
""fullscreenenter"",""5"",""53849""
","
","
","""event"",""trial"",""time""
""fullscreenenter"",""5"",""53849""
","
","","","","","","","","","","","","","","","","","","","","","",""
"d3-instructions","46","136942","0.0-46.0","1981","5017","13","Male","true","true","false","false","""event"",""trial"",""time""
""fullscreenenter"",""5"",""53849""
","
","
","""event"",""trial"",""time""
""fullscreenenter"",""5"",""53849""
","
","","","","","","","","","","","","","","","","","","","","","",""
"d3-instructions","47","137910","0.0-47.0","1981","5017","13","Male","true","true","false","false","""event"",""trial"",""time""
""fullscreenenter"",""5"",""53849""
","
","
","""event"",""trial"",""time""
""fullscreenenter"",""5"",""53849""
","
","","","","","","","","","","","","","","","","","","","","","",""
"d3-instructions","48","138782","0.0-48.0","1981","5017","13","Male","true","true","false","false","""event"",""trial"",""time""
""fullscreenenter"",""5"",""53849""
","
","
","""event"",""trial"",""time""
""fullscreenenter"",""5"",""53849""
","
","","","","","","","","","","","","","","","","","","","","","",""
"d3-instructions","49","139190","0.0-49.0","1981","5017","13","Male","true","true","false","false","""event"",""trial"",""time""
""fullscreenenter"",""5"",""53849""
","
","
","""event"",""trial"",""time""
""fullscreenenter"",""5"",""53849""
","
","","","","","","","","","","","","","","","","","","","","","",""
"d3-instructions","50","139550","0.0-50.0","1981","5017","13","Male","true","true","false","false","""event"",""trial"",""time""
""fullscreenenter"",""5"",""53849""
","
","
","""event"",""trial"",""time""
""fullscreenenter"",""5"",""53849""
","
","","","","","","","","","","","","","","","","","","","","","",""
"d3-instructions","51","140646","0.0-51.0","1981","5017","13","Male","true","true","false","false","""event"",""trial"",""time""
""fullscreenenter"",""5"",""53849""
","
","
","""event"",""trial"",""time""
""fullscreenenter"",""5"",""53849""
","
","","","","","","","","","","","","","","","","","","","","","",""
"d3-instructions","52","141198","0.0-52.0","1981","5017","13","Male","true","true","false","false","""event"",""trial"",""time""
""fullscreenenter"",""5"",""53849""
","
","
","""event"",""trial"",""time""
""fullscreenenter"",""5"",""53849""
","
","","","","","","","","","","","","","","","","","","","","","",""
"d3-instructions","53","141542","0.0-53.0","1981","5017","13","Male","true","true","false","false","""event"",""trial"",""time""
""fullscreenenter"",""5"",""53849""
","
","
","""event"",""trial"",""time""
""fullscreenenter"",""5"",""53849""
","
","","","","","","","","","","","","","","","","","","","","","",""
"d3-instructions","54","141966","0.0-54.0","1981","5017","13","Male","true","true","false","false","""event"",""trial"",""time""
""fullscreenenter"",""5"",""53849""
","
","
","""event"",""trial"",""time""
""fullscreenenter"",""5"",""53849""
","
","","","","","","","","","","","","","","","","","","","","","",""
"d3-instructions","55","142294","0.0-55.0","1981","5017","13","Male","true","true","false","false","""event"",""trial"",""time""
""fullscreenenter"",""5"",""53849""
","
","
","""event"",""trial"",""time""
""fullscreenenter"",""5"",""53849""
","
","","","","","","","","","","","","","","","","","","","","","",""
"d3-instructions","56","142622","0.0-56.0","1981","5017","13","Male","true","true","false","false","""event"",""trial"",""time""
""fullscreenenter"",""5"",""53849""
","
","
","""event"",""trial"",""time""
""fullscreenenter"",""5"",""53849""
","
","","","","","","","","","","","","","","","","","","","","","",""
"d3-instructions","57","142918","0.0-57.0","1981","5017","13","Male","true","true","false","false","""event"",""trial"",""time""
""fullscreenenter"",""5"",""53849""
","
","
","""event"",""trial"",""time""
""fullscreenenter"",""5"",""53849""
","
","","","","","","","","","","","","","","","","","","","","","",""
"d3-instructions","58","143230","0.0-58.0","1981","5017","13","Male","true","true","false","false","""event"",""trial"",""time""
""fullscreenenter"",""5"",""53849""
","
","
","""event"",""trial"",""time""
""fullscreenenter"",""5"",""53849""
","
","","","","","","","","","","","","","","","","","","","","","",""
"d3-instructions","59","143566","0.0-59.0","1981","5017","13","Male","true","true","false","false","""event"",""trial"",""time""
""fullscreenenter"",""5"",""53849""
","
","
","""event"",""trial"",""time""
""fullscreenenter"",""5"",""53849""
","
","","","","","","","","","","","","","","","","","","","","","",""
"d3-instructions","60","143902","0.0-60.0","1981","5017","13","Male","true","true","false","false","""event"",""trial"",""time""
""fullscreenenter"",""5"",""53849""
","
","
","""event"",""trial"",""time""
""fullscreenenter"",""5"",""53849""
","
","","","","","","","","","","","","","","","","","","","","","",""
"d3-animate-choice","61","147253","0.0-61.0-0.0","1981","5017","13","Male","true","true","false","false","""event"",""trial"",""time""
""fullscreenenter"",""5"",""53849""
","
","
","""event"",""trial"",""time""
""fullscreenenter"",""5"",""53849""
","
","334.29999999993015","","32","","","3000","1","1342.5999999999767","49","images/earth.jpg","images/tutrocket2","images/tutrocket1","null","images/tutrocket1","","1","practice","null","","","",""
"d3-animate-choice","62","149541","0.0-61.0-1.0","1981","5017","13","Male","true","true","false","false","""event"",""trial"",""time""
""fullscreenenter"",""5"",""53849""
","
","
","""event"",""trial"",""time""
""fullscreenenter"",""5"",""53849""
","
","279.60000000009313","","49","","","3000","1","871.6000000000931,1159.7000000000698,1415.8000000000466,1664,1887.7000000000698,2103.70000000007","49,49,49,49,49,49","images/tutyellowplanet.jpg","images/tutalien4","images/tutalien3","images/tutrocket1","images/tutalien3","images/t.png","2","practice","false","1","rare","1","2022-12-10 21:24:39.335"
"two-step-fixation","63","150550","0.0-61.0-2.0","1981","5017","13","Male","true","true","false","false","""event"",""trial"",""time""
""fullscreenenter"",""5"",""53849""
","
","
","""event"",""trial"",""time""
""fullscreenenter"",""5"",""53849""
","
","","images/earth.jpg","","","","","","","","","","","","","","fixation","","","","","",""
"d3-animate-choice","64","152705","0.0-61.0-0.1","1981","5017","13","Male","true","true","false","false","""event"",""trial"",""time""
""fullscreenenter"",""5"",""53849""
","
","
","""event"",""trial"",""time""
""fullscreenenter"",""5"",""53849""
","
","136","","49","","","3000","1","319.79999999993015,527.7999999999302,727.6999999999534,936,1111.6999999999534,1304,1511.7999999999302,1704,1943.7999999999302,2111.79999999993","49,49,49,49,49,49,49,49,49,49","images/earth.jpg","images/tutrocket2","images/tutrocket1","null","images/tutrocket1","","1","practice","null","1","","",""
"d3-animate-choice","65","154889","0.0-61.0-1.1","1981","5017","13","Male","true","true","false","false","""event"",""trial"",""time""
""fullscreenenter"",""5"",""53849""
","
","
","""event"",""trial"",""time""
""fullscreenenter"",""5"",""53849""
","
","164.29999999993015","","49","","","3000","1","356.19999999995343,604.1999999999534,804.2999999999302,1052.5,1276.2999999999302,1532.2999999999302,1780.4000000000233,2036.2999999999302","49,49,49,49,49,49,49,49","images/tutyellowplanet.jpg","images/tutalien4","images/tutalien3","images/tutrocket1","images/tutalien3","images/t.png","2","practice","false","1","rare","1","2022-12-10 21:24:44.683"
"two-step-fixation","66","155894","0.0-61.0-2.1","1981","5017","13","Male","true","true","false","false","""event"",""trial"",""time""
""fullscreenenter"",""5"",""53849""
","
","
","""event"",""trial"",""time""
""fullscreenenter"",""5"",""53849""
","
","","images/earth.jpg","","","","","","","","","","","","","","fixation","","","","","",""
"d3-animate-choice","67","157908","0.0-61.0-0.2","1981","5017","13","Male","true","true","false","false","""event"",""trial"",""time""
""fullscreenenter"",""5"",""53849""
","
","
","""event"",""trial"",""time""
""fullscreenenter"",""5"",""53849""
","
","7.900000000023283","","49","","","3000","1","696.2999999999302","49","images/earth.jpg","images/tutrocket2","images/tutrocket1","null","images/tutrocket1","","1","practice","null","1","","",""
"d3-animate-choice","68","160449","0.0-61.0-1.2","1981","5017","13","Male","true","true","false","false","""event"",""trial"",""time""
""fullscreenenter"",""5"",""53849""
","
","
","""event"",""trial"",""time""
""fullscreenenter"",""5"",""53849""
","
","538.0999999999767","","49","","","3000","1","818.1999999999534","49","images/tutgreenplanet.jpg","images/tutalien2","images/tutalien1","images/tutrocket1","images/tutalien1","images/t.png","2","practice","true","1","common","1","2022-12-10 21:24:50.243"
"two-step-fixation","69","161456","0.0-61.0-2.2","1981","5017","13","Male","true","true","false","false","""event"",""trial"",""time""
""fullscreenenter"",""5"",""53849""
","
","
","""event"",""trial"",""time""
""fullscreenenter"",""5"",""53849""
","
","","images/earth.jpg","","","","","","","","","","","","","","fixation","","","","","",""
"d3-animate-choice","70","165167","0.0-61.0-0.3","1981","5017","13","Male","true","true","false","false","""event"",""trial"",""time""
""fullscreenenter"",""5"",""53849""
","
","
","""event"",""trial"",""time""
""fullscreenenter"",""5"",""53849""
","
","1702.0999999999767","","49","","","3000","1","2622.20000000007,2910.20000000007,3478.3000000000466,3710.20000000007","49,49,49,49","images/earth.jpg","images/tutrocket2","images/tutrocket1","null","images/tutrocket1","","1","practice","null","1","","",""
"d3-animate-choice","71","167388","0.0-61.0-1.3","1981","5017","13","Male","true","true","false","false","""event"",""trial"",""time""
""fullscreenenter"",""5"",""53849""
","
","
","""event"",""trial"",""time""
""fullscreenenter"",""5"",""53849""
","
","207.09999999997672","","49","","","3000","1","687.2999999999302,887.2999999999302,1111.1999999999534,1295.1999999999534,1455.1999999999534,1535.1999999999534,2095.1999999999534","49,49,49,49,49,49,49","images/tutyellowplanet.jpg","images/tutalien4","images/tutalien3","images/tutrocket1","images/tutalien3","images/nothing.png","2","practice","false","1","rare","0","2022-12-10 21:24:57.182"
"two-step-fixation","72","168398","0.0-61.0-2.3","1981","5017","13","Male","true","true","false","false","""event"",""trial"",""time""
""fullscreenenter"",""5"",""53849""
","
","
","""event"",""trial"",""time""
""fullscreenenter"",""5"",""53849""
","
","","images/earth.jpg","","","","","","","","","","","","","","fixation","","","","","",""
"d3-animate-choice","73","170408","0.0-61.0-0.4","1981","5017","13","Male","true","true","false","false","""event"",""trial"",""time""
""fullscreenenter"",""5"",""53849""
","
","
","""event"",""trial"",""time""
""fullscreenenter"",""5"",""53849""
","
","0.7999999999301508","","49","","","3000","1","544.7999999999302,744.7999999999302,936.7999999999302,1193,1296.8999999999069,1425.0999999999767,1728.8999999999069,2000.8999999999069","49,49,49,49,49,49,49,49","images/earth.jpg","images/tutrocket2","images/tutrocket1","null","images/tutrocket1","","1","practice","null","1","","",""
"d3-animate-choice","74","172622","0.0-61.0-1.4","1981","5017","13","Male","true","true","false","false","""event"",""trial"",""time""
""fullscreenenter"",""5"",""53849""
","
","
","""event"",""trial"",""time""
""fullscreenenter"",""5"",""53849""
","
","206.59999999997672","","49","","","3000","1","398.5999999999767,886.8000000000466,1206.5999999999767,1390.7000000000698,1551,1783,2038.7000000000698,2166.70000000007","49,49,49,49,49,49,49,49","images/tutgreenplanet.jpg","images/tutalien2","images/tutalien1","images/tutrocket1","images/tutalien1","images/nothing.png","2","practice","true","1","common","0","2022-12-10 21:25:02.416"
"two-step-fixation","75","173630","0.0-61.0-2.4","1981","5017","13","Male","true","true","false","false","""event"",""trial"",""time""
""fullscreenenter"",""5"",""53849""
","
","
","""event"",""trial"",""time""
""fullscreenenter"",""5"",""53849""
","
","","images/earth.jpg","","","","","","","","","","","","","","fixation","","","","","",""
"d3-animate-choice","76","176155","0.0-61.0-0.5","1981","5017","13","Male","true","true","false","false","""event"",""trial"",""time""
""fullscreenenter"",""5"",""53849""
","
","
","""event"",""trial"",""time""
""fullscreenenter"",""5"",""53849""
","
","520.5","","49","","","3000","1","800.6999999999534,1040.5,1208.5999999999767,1424.6999999999534,1656.5","49,49,49,49,49","images/earth.jpg","images/tutrocket2","images/tutrocket1","null","images/tutrocket1","","1","practice","null","1","","",""
"d3-animate-choice","77","178662","0.0-61.0-1.5","1981","5017","13","Male","true","true","false","false","""event"",""trial"",""time""
""fullscreenenter"",""5"",""53849""
","
","
","""event"",""trial"",""time""
""fullscreenenter"",""5"",""53849""
","
","500.19999999995343","","49","","","3000","1","788.1999999999534,1028.1999999999534,1596.2999999999302,1780.2999999999302,2020.2999999999302,2268.29999999993","49,49,49,49,49,49","images/tutyellowplanet.jpg","images/tutalien4","images/tutalien3","images/tutrocket1","images/tutalien3","images/nothing.png","2","practice","false","1","rare","0","2022-12-10 21:25:08.456"
"two-step-fixation","78","179670","0.0-61.0-2.5","1981","5017","13","Male","true","true","false","false","""event"",""trial"",""time""
""fullscreenenter"",""5"",""53849""
","
","
","""event"",""trial"",""time""
""fullscreenenter"",""5"",""53849""
","
","","images/earth.jpg","","","","","","","","","","","","","","fixation","","","","","",""
"d3-animate-choice","79","181862","0.0-61.0-0.6","1981","5017","13","Male","true","true","false","false","""event"",""trial"",""time""
""fullscreenenter"",""5"",""53849""
","
","
","""event"",""trial"",""time""
""fullscreenenter"",""5"",""53849""
","
","185.40000000002328","","49","","","3000","1","385.30000000004657,657.3000000000466,1113.5999999999767,1697.5,1913.5999999999767,2153.5","49,49,49,49,49,49","images/earth.jpg","images/tutrocket2","images/tutrocket1","null","images/tutrocket1","","1","practice","null","1","","",""
"d3-animate-choice","80","184001","0.0-61.0-1.6","1981","5017","13","Male","true","true","false","false","""event"",""trial"",""time""
""fullscreenenter"",""5"",""53849""
","
","
","""event"",""trial"",""time""
""fullscreenenter"",""5"",""53849""
","
","137.70000000006985","","49","","","3000","1","377.70000000006985,690,929.9000000000233,1121.8000000000466,1345.8000000000466,1585.8000000000466,1777.8000000000466,2137.9000000000233","49,49,49,49,49,49,49,49","images/tutyellowplanet.jpg","images/tutalien4","images/tutalien3","images/tutrocket1","images/tutalien3","images/nothing.png","2","practice","false","1","rare","0","2022-12-10 21:25:13.795"
"two-step-fixation","81","185003","0.0-61.0-2.6","1981","5017","13","Male","true","true","false","false","""event"",""trial"",""time""
""fullscreenenter"",""5"",""53849""
","
","
","""event"",""trial"",""time""
""fullscreenenter"",""5"",""53849""
","
","","images/earth.jpg","","","","","","","","","","","","","","fixation","","","","","",""
"d3-animate-choice","82","187270","0.0-61.0-0.7","1981","5017","13","Male","true","true","false","false","""event"",""trial"",""time""
""fullscreenenter"",""5"",""53849""
","
","
","""event"",""trial"",""time""
""fullscreenenter"",""5"",""53849""
","
","260.5999999999767","","49","","","3000","1","644.8000000000466,988.9000000000233,1164.8000000000466,1380.6999999999534,1653,1932.9000000000233,2132.8000000000466","49,49,49,49,49,49,49","images/earth.jpg","images/tutrocket2","images/tutrocket1","null","images/tutrocket1","","1","practice","null","1","","",""
"d3-animate-choice","83","189566","0.0-61.0-1.7","1981","5017","13","Male","true","true","false","false","""event"",""trial"",""time""
""fullscreenenter"",""5"",""53849""
","
","
","""event"",""trial"",""time""
""fullscreenenter"",""5"",""53849""
","
","290.19999999995343","","49","","","3000","1","529.8000000000466,801.9000000000233,1017.9000000000233,1329.9000000000233,1690.0999999999767,1993.9000000000233,2273.8000000000466","49,49,49,49,49,49,49","images/tutyellowplanet.jpg","images/tutalien4","images/tutalien3","images/tutrocket1","images/tutalien3","images/t.png","2","practice","false","1","rare","1","2022-12-10 21:25:19.360"
"two-step-fixation","84","190574","0.0-61.0-2.7","1981","5017","13","Male","true","true","false","false","""event"",""trial"",""time""
""fullscreenenter"",""5"",""53849""
","
","
","""event"",""trial"",""time""
""fullscreenenter"",""5"",""53849""
","
","","images/earth.jpg","","","","","","","","","","","","","","fixation","","","","","",""
"d3-animate-choice","85","192995","0.0-61.0-0.8","1981","5017","13","Male","true","true","false","false","""event"",""trial"",""time""
""fullscreenenter"",""5"",""53849""
","
","
","""event"",""trial"",""time""
""fullscreenenter"",""5"",""53849""
","
","418.30000000004657","","49","","","3000","1","690.5,890.7000000000698,1090.3000000000466,1274.7000000000698,1554.3000000000466,2154.4000000000233","49,49,49,49,49,49","images/earth.jpg","images/tutrocket2","images/tutrocket1","null","images/tutrocket1","","1","practice","null","1","","",""
"d3-animate-choice","86","196181","0.0-61.0-1.8","1981","5017","13","Male","true","true","false","false","""event"",""trial"",""time""
""fullscreenenter"",""5"",""53849""
","
","
","""event"",""trial"",""time""
""fullscreenenter"",""5"",""53849""
","
","1181.6999999999534","","48","","","3000","1","2733.6999999999534,3133.8000000000466","49,49","images/tutgreenplanet.jpg","images/tutalien2","images/tutalien1","images/tutrocket1","images/tutalien2","images/nothing.png","2","practice","true","2","common","0","2022-12-10 21:25:25.976"
"two-step-fixation","87","197190","0.0-61.0-2.8","1981","5017","13","Male","true","true","false","false","""event"",""trial"",""time""
""fullscreenenter"",""5"",""53849""
","
","
","""event"",""trial"",""time""
""fullscreenenter"",""5"",""53849""
","
","","images/earth.jpg","","","","","","","","","","","","","","fixation","","","","","",""
"d3-animate-choice","88","200018","0.0-61.0-0.9","1981","5017","13","Male","true","true","false","false","""event"",""trial"",""time""
""fullscreenenter"",""5"",""53849""
","
","
","""event"",""trial"",""time""
""fullscreenenter"",""5"",""53849""
","
","826.5999999999767","","49","","","3000","1","1058.5999999999767,1922.5999999999767,2130.9000000000233","49,49,49","images/earth.jpg","images/tutrocket2","images/tutrocket1","null","images/tutrocket1","","1","practice","null","1","","",""
"d3-animate-choice","89","202694","0.0-61.0-1.9","1981","5017","13","Male","true","true","false","false","""event"",""trial"",""time""
""fullscreenenter"",""5"",""53849""
","
","
","""event"",""trial"",""time""
""fullscreenenter"",""5"",""53849""
","
","670","","49","","","3000","1","1189.9000000000233,1725.9000000000233,1917.7999999999302","49,49,49","images/tutgreenplanet.jpg","images/tutalien2","images/tutalien1","images/tutrocket1","images/tutalien1","images/nothing.png","2","practice","true","1","common","0","2022-12-10 21:25:32.488"
"two-step-fixation","90","203702","0.0-61.0-2.9","1981","5017","13","Male","true","true","false","false","""event"",""trial"",""time""
""fullscreenenter"",""5"",""53849""
","
","
","""event"",""trial"",""time""
""fullscreenenter"",""5"",""53849""
","
","","images/earth.jpg","","","","","","","","","","","","","","fixation","","","","","",""
"d3-animate-choice","91","205789","0.0-61.0-0.10","1981","5017","13","Male","true","true","false","false","""event"",""trial"",""time""
""fullscreenenter"",""5"",""53849""
","
","
","""event"",""trial"",""time""
""fullscreenenter"",""5"",""53849""
","
","82.40000000002328","","49","","","3000","1","1202.4000000000233","49","images/earth.jpg","images/tutrocket2","images/tutrocket1","null","images/tutrocket1","","1","practice","null","1","","",""
"d3-animate-choice","92","208027","0.0-61.0-1.10","1981","5017","13","Male","true","true","false","false","""event"",""trial"",""time""
""fullscreenenter"",""5"",""53849""
","
","
","""event"",""trial"",""time""
""fullscreenenter"",""5"",""53849""
","
","235.69999999995343","","49","","","3000","1","419.4000000000233,1299.5,1499.5","49,49,49","images/tutgreenplanet.jpg","images/tutalien2","images/tutalien1","images/tutrocket1","images/tutalien1","images/t.png","2","practice","true","1","common","1","2022-12-10 21:25:37.821"
"two-step-fixation","93","209030","0.0-61.0-2.10","1981","5017","13","Male","true","true","false","false","""event"",""trial"",""time""
""fullscreenenter"",""5"",""53849""
","
","
","""event"",""trial"",""time""
""fullscreenenter"",""5"",""53849""
","
","","images/earth.jpg","","","","","","","","","","","","","","fixation","","","","","",""
"d3-animate-choice","94","211213","0.0-61.0-0.11","1981","5017","13","Male","true","true","false","false","""event"",""trial"",""time""
""fullscreenenter"",""5"",""53849""
","
","
","""event"",""trial"",""time""
""fullscreenenter"",""5"",""53849""
","
","179","","49","","","3000","1","339,539.0999999999767,731.0999999999767,931.0999999999767,1115,1467.0999999999767,1835.0999999999767,2179.20000000007","49,49,49,49,49,48,49,48","images/earth.jpg","images/tutrocket2","images/tutrocket1","null","images/tutrocket1","","1","practice","null","1","","",""
"d3-animate-choice","95","213933","0.0-61.0-1.11","1981","5017","13","Male","true","true","false","false","""event"",""trial"",""time""
""fullscreenenter"",""5"",""53849""
","
","
","""event"",""trial"",""time""
""fullscreenenter"",""5"",""53849""
","
","715.7000000000698","","48","","","3000","1","1387.7000000000698,1907.7000000000698,2211.600000000093","49,49,48","images/tutyellowplanet.jpg","images/tutalien4","images/tutalien3","images/tutrocket1","images/tutalien4","images/t.png","2","practice","false","2","rare","1","2022-12-10 21:25:43.727"
"two-step-fixation","96","214934","0.0-61.0-2.11","1981","5017","13","Male","true","true","false","false","""event"",""trial"",""time""
""fullscreenenter"",""5"",""53849""
","
","
","""event"",""trial"",""time""
""fullscreenenter"",""5"",""53849""
","
","","images/earth.jpg","","","","","","","","","","","","","","fixation","","","","","",""
"d3-animate-choice","97","217061","0.0-61.0-0.12","1981","5017","13","Male","true","true","false","false","""event"",""trial"",""time""
""fullscreenenter"",""5"",""53849""
","
","
","""event"",""trial"",""time""
""fullscreenenter"",""5"",""53849""
","
","123.09999999997672","","49","","","3000","1","371.0999999999767","49","images/earth.jpg","images/tutrocket2","images/tutrocket1","null","images/tutrocket1","","1","practice","null","1","","",""
"d3-animate-choice","98","219694","0.0-61.0-1.12","1981","5017","13","Male","true","true","false","false","""event"",""trial"",""time""
""fullscreenenter"",""5"",""53849""
","
","
","""event"",""trial"",""time""
""fullscreenenter"",""5"",""53849""
","
","628.4000000000233","","49","","","3000","1","","","images/tutgreenplanet.jpg","images/tutalien2","images/tutalien1","images/tutrocket1","images/tutalien1","images/nothing.png","2","practice","true","1","common","0","2022-12-10 21:25:49.488"
"two-step-fixation","99","220713","0.0-61.0-2.12","1981","5017","13","Male","true","true","false","false","""event"",""trial"",""time""
""fullscreenenter"",""5"",""53849""
","
","
","""event"",""trial"",""time""
""fullscreenenter"",""5"",""53849""
","
","","images/earth.jpg","","","","","","","","","","","","","","fixation","","","","","",""
"d3-animate-choice","100","222805","0.0-61.0-0.13","1981","5017","13","Male","true","true","false","false","""event"",""trial"",""time""
""fullscreenenter"",""5"",""53849""
","
","
","""event"",""trial"",""time""
""fullscreenenter"",""5"",""53849""
","
","88.70000000006985","","48","","","3000","1","288.80000000004657,464.80000000004657,681","48,48,48","images/earth.jpg","images/tutrocket2","images/tutrocket1","null","images/tutrocket2","","1","practice","null","2","","",""
"d3-animate-choice","101","225181","0.0-61.0-1.13","1981","5017","13","Male","true","true","false","false","""event"",""trial"",""time""
""fullscreenenter"",""5"",""53849""
","
","
","""event"",""trial"",""time""
""fullscreenenter"",""5"",""53849""
","
","372.69999999995343","","48","","","3000","1","692.7999999999302,916.5999999999767,1124.9000000000233,1332.5999999999767,1564.6999999999534,1812.7999999999302,2012.6999999999534,2236.6999999999534","48,48,48,48,48,48,48,48","images/tutyellowplanet.jpg","images/tutalien4","images/tutalien3","images/tutrocket2","images/tutalien4","images/nothing.png","2","practice","true","2","common","0","2022-12-10 21:25:54.976"
"two-step-fixation","102","226190","0.0-61.0-2.13","1981","5017","13","Male","true","true","false","false","""event"",""trial"",""time""
""fullscreenenter"",""5"",""53849""
","
","
","""event"",""trial"",""time""
""fullscreenenter"",""5"",""53849""
","
","","images/earth.jpg","","","","","","","","","","","","","","fixation","","","","","",""
"d3-animate-choice","103","228262","0.0-61.0-0.14","1981","5017","13","Male","true","true","false","false","""event"",""trial"",""time""
""fullscreenenter"",""5"",""53849""
","
","
","""event"",""trial"",""time""
""fullscreenenter"",""5"",""53849""
","
","67.90000000002328","","48","","","3000","1","428.10000000009313,604,876,1444.1000000000931,1708.1000000000931","48,48,48,48,48","images/earth.jpg","images/tutrocket2","images/tutrocket1","null","images/tutrocket2","","1","practice","null","2","","",""
"d3-animate-choice","104","230302","0.0-61.0-1.14","1981","5017","13","Male","true","true","false","false","""event"",""trial"",""time""
""fullscreenenter"",""5"",""53849""
","
","
","""event"",""trial"",""time""
""fullscreenenter"",""5"",""53849""
","
","36.09999999997672","","48","","","3000","1","564.3000000000466,908.2000000000698,1236.3000000000466,1804.3000000000466","48,48,48,48","images/tutyellowplanet.jpg","images/tutalien4","images/tutalien3","images/tutrocket2","images/tutalien4","images/t.png","2","practice","true","2","common","1","2022-12-10 21:26:00.096"
"two-step-fixation","105","231310","0.0-61.0-2.14","1981","5017","13","Male","true","true","false","false","""event"",""trial"",""time""
""fullscreenenter"",""5"",""53849""
","
","
","""event"",""trial"",""time""
""fullscreenenter"",""5"",""53849""
","
","","images/earth.jpg","","","","","","","","","","","","","","fixation","","","","","",""
"d3-animate-choice","106","233542","0.0-61.0-0.15","1981","5017","13","Male","true","true","false","false","""event"",""trial"",""time""
""fullscreenenter"",""5"",""53849""
","
","
","""event"",""trial"",""time""
""fullscreenenter"",""5"",""53849""
","
","228.90000000002328","","48","","","3000","1","620.8000000000466,1213.1000000000931,1556.9000000000233,1852.9000000000233,2213.20000000007","48,48,48,48,48","images/earth.jpg","images/tutrocket2","images/tutrocket1","null","images/tutrocket2","","1","practice","null","2","","",""
"d3-animate-choice","107","235790","0.0-61.0-1.15","1981","5017","13","Male","true","true","false","false","""event"",""trial"",""time""
""fullscreenenter"",""5"",""53849""
","
","
","""event"",""trial"",""time""
""fullscreenenter"",""5"",""53849""
","
","244.09999999997672","","48","","","3000","1","468.0999999999767,756.0999999999767,996.2000000000698,1252.3000000000466,1628.0999999999767,1932.2000000000698,2244.20000000007","48,48,48,48,48,48,48","images/tutyellowplanet.jpg","images/tutalien4","images/tutalien3","images/tutrocket2","images/tutalien4","images/t.png","2","practice","true","2","common","1","2022-12-10 21:26:05.584"
"two-step-fixation","108","236798","0.0-61.0-2.15","1981","5017","13","Male","true","true","false","false","""event"",""trial"",""time""
""fullscreenenter"",""5"",""53849""
","
","
","""event"",""trial"",""time""
""fullscreenenter"",""5"",""53849""
","
","","images/earth.jpg","","","","","","","","","","","","","","fixation","","","","","",""
"d3-animate-choice","109","239182","0.0-61.0-0.16","1981","5017","13","Male","true","true","false","false","""event"",""trial"",""time""
""fullscreenenter"",""5"",""53849""
","
","
","""event"",""trial"",""time""
""fullscreenenter"",""5"",""53849""
","
","380.9000000000233","","48","","","3000","1","620.9000000000233,820.9000000000233,1085,1316.9000000000233,1557.0999999999767,1820.9000000000233,2037,2277","48,48,48,48,48,48,48,48","images/earth.jpg","images/tutrocket2","images/tutrocket1","null","images/tutrocket2","","1","practice","null","2","","",""
"d3-animate-choice","110","241790","0.0-61.0-1.16","1981","5017","13","Male","true","true","false","false","""event"",""trial"",""time""
""fullscreenenter"",""5"",""53849""
","
","
","""event"",""trial"",""time""
""fullscreenenter"",""5"",""53849""
","
","605.5","","48","","","3000","1","901.8000000000466,1229.5999999999767,2069.5999999999767,2357.5999999999767","48,48,48,48","images/tutyellowplanet.jpg","images/tutalien4","images/tutalien3","images/tutrocket2","images/tutalien4","images/nothing.png","2","practice","true","2","common","0","2022-12-10 21:26:11.584"
"two-step-fixation","111","242798","0.0-61.0-2.16","1981","5017","13","Male","true","true","false","false","""event"",""trial"",""time""
""fullscreenenter"",""5"",""53849""
","
","
","""event"",""trial"",""time""
""fullscreenenter"",""5"",""53849""
","
","","images/earth.jpg","","","","","","","","","","","","","","fixation","","","","","",""
"d3-animate-choice","112","245438","0.0-61.0-0.17","1981","5017","13","Male","true","true","false","false","""event"",""trial"",""time""
""fullscreenenter"",""5"",""53849""
","
","
","""event"",""trial"",""time""
""fullscreenenter"",""5"",""53849""
","
","637.4000000000233","","49","","","3000","1","885.8000000000466,2405.3000000000466","49,48","images/earth.jpg","images/tutrocket2","images/tutrocket1","null","images/tutrocket1","","1","practice","null","1","","",""
"d3-animate-choice","113","247734","0.0-61.0-1.17","1981","5017","13","Male","true","true","false","false","""event"",""trial"",""time""
""fullscreenenter"",""5"",""53849""
","
","
","""event"",""trial"",""time""
""fullscreenenter"",""5"",""53849""
","
","293.0999999999767","","48","","","3000","1","","","images/tutyellowplanet.jpg","images/tutalien4","images/tutalien3","images/tutrocket1","images/tutalien4","images/t.png","2","practice","false","2","rare","1","2022-12-10 21:26:17.528"
"two-step-fixation","114","248736","0.0-61.0-2.17","1981","5017","13","Male","true","true","false","false","""event"",""trial"",""time""
""fullscreenenter"",""5"",""53849""
","
","
","""event"",""trial"",""time""
""fullscreenenter"",""5"",""53849""
","
","","images/earth.jpg","","","","","","","","","","","","","","fixation","","","","","",""
"d3-animate-choice","115","250797","0.0-61.0-0.18","1981","5017","13","Male","true","true","false","false","""event"",""trial"",""time""
""fullscreenenter"",""5"",""53849""
","
","
","""event"",""trial"",""time""
""fullscreenenter"",""5"",""53849""
","
","59.199999999953434","","48","","","3000","1","","","images/earth.jpg","images/tutrocket2","images/tutrocket1","null","images/tutrocket2","","1","practice","null","2","","",""
"d3-animate-choice","116","253366","0.0-61.0-1.18","1981","5017","13","Male","true","true","false","false","""event"",""trial"",""time""
""fullscreenenter"",""5"",""53849""
","
","
","""event"",""trial"",""time""
""fullscreenenter"",""5"",""53849""
","
","558.4000000000233","","48","","","3000","1","","","images/tutyellowplanet.jpg","images/tutalien4","images/tutalien3","images/tutrocket2","images/tutalien4","images/t.png","2","practice","true","2","common","1","2022-12-10 21:26:23.160"
"two-step-fixation","117","254373","0.0-61.0-2.18","1981","5017","13","Male","true","true","false","false","""event"",""trial"",""time""
""fullscreenenter"",""5"",""53849""
","
","
","""event"",""trial"",""time""
""fullscreenenter"",""5"",""53849""
","
","","images/earth.jpg","","","","","","","","","","","","","","fixation","","","","","",""
"d3-animate-choice","118","256886","0.0-61.0-0.19","1981","5017","13","Male","true","true","false","false","""event"",""trial"",""time""
""fullscreenenter"",""5"",""53849""
","
","
","""event"",""trial"",""time""
""fullscreenenter"",""5"",""53849""
","
","502.69999999995343","","49","","","3000","1","","","images/earth.jpg","images/tutrocket2","images/tutrocket1","null","images/tutrocket1","","1","practice","null","1","","",""
"d3-animate-choice","119","259373","0.0-61.0-1.19","1981","5017","13","Male","true","true","false","false","""event"",""trial"",""time""
""fullscreenenter"",""5"",""53849""
","
","
","""event"",""trial"",""time""
""fullscreenenter"",""5"",""53849""
","
","477.79999999993015","","49","","","3000","1","1277.7999999999302,1845.8999999999069,2389.899999999907","49,49,49","images/tutgreenplanet.jpg","images/tutalien2","images/tutalien1","images/tutrocket1","images/tutalien1","images/t.png","2","practice","true","1","common","1","2022-12-10 21:26:29.167"
"two-step-fixation","120","260382","0.0-61.0-2.19","1981","5017","13","Male","true","true","false","false","""event"",""trial"",""time""
""fullscreenenter"",""5"",""53849""
","
","
","""event"",""trial"",""time""
""fullscreenenter"",""5"",""53849""
","
","","images/earth.jpg","","","","","","","","","","","","","","fixation","","","","","",""
"d3-instructions","121","263654","0.0-62.0","1981","5017","13","Male","true","true","false","false","""event"",""trial"",""time""
""fullscreenenter"",""5"",""53849""
","
","
","""event"",""trial"",""time""
""fullscreenenter"",""5"",""53849""
","
","","","","","","","","","","","","","","","","","","","","","",""
"audio-keyboard-response","122","271406","0.0-63.0","1981","5017","13","Male","true","true","false","false","""event"",""trial"",""time""
""fullscreenenter"",""5"",""53849""
","
","
","""event"",""trial"",""time""
""fullscreenenter"",""5"",""53849""
","
","7748","audio/instructions/treasure_feedback.wav","32","","","","","","","","","","","","","","","","","","",""
"d3-instructions","123","274190","0.0-64.0","1981","5017","13","Male","true","true","false","false","""event"",""trial"",""time""
""fullscreenenter"",""5"",""53849""
","
","
","""event"",""trial"",""time""
""fullscreenenter"",""5"",""53849""
","
","","","","","","","","","","","","","","","","","","","","","",""
"d3-instructions","124","274734","0.0-65.0","1981","5017","13","Male","true","true","false","false","""event"",""trial"",""time""
""fullscreenenter"",""5"",""53849""
","
","
","""event"",""trial"",""time""
""fullscreenenter"",""5"",""53849""
","
","","","","","","","","","","","","","","","","","","","","","",""
"d3-instructions","125","275310","0.0-66.0","1981","5017","13","Male","true","true","false","false","""event"",""trial"",""time""
""fullscreenenter"",""5"",""53849""
","
","
","""event"",""trial"",""time""
""fullscreenenter"",""5"",""53849""
","
","","","","","","","","","","","","","","","","","","","","","",""
"d3-instructions","126","275774","0.0-67.0","1981","5017","13","Male","true","true","false","false","""event"",""trial"",""time""
""fullscreenenter"",""5"",""53849""
","
","
","""event"",""trial"",""time""
""fullscreenenter"",""5"",""53849""
","
","","","","","","","","","","","","","","","","","","","","","",""
"d3-instructions","127","276151","0.0-68.0","1981","5017","13","Male","true","true","false","false","""event"",""trial"",""time""
""fullscreenenter"",""5"",""53849""
","
","
","""event"",""trial"",""time""
""fullscreenenter"",""5"",""53849""
","
","","","","","","","","","","","","","","","","","","","","","",""
"instructions-quiz","128","279424","0.0-69.0","1981","5017","13","Male","true","true","false","false","""event"",""trial"",""time""
""fullscreenenter"",""5"",""53849""
","
","
","""event"",""trial"",""time""
""fullscreenenter"",""5"",""53849""
","
","3270.5","audio/quiz/Q1_Prompt.wav","","1","","","","","","","","","","","","","","","","","",""
"audio-keyboard-response","129","280359","0.0-70.0","1981","5017","13","Male","true","true","false","false","""event"",""trial"",""time""
""fullscreenenter"",""5"",""53849""
","
","
","""event"",""trial"",""time""
""fullscreenenter"",""5"",""53849""
","
","932","audio/quiz/Q1_Correct.wav","32","","","","","","","","","","","","","","","","","","",""
"instructions-quiz","130","285971","0.0-71.0","1981","5017","13","Male","true","true","false","false","""event"",""trial"",""time""
""fullscreenenter"",""5"",""53849""
","
","
","""event"",""trial"",""time""
""fullscreenenter"",""5"",""53849""
","
","5611.099999999977","audio/quiz/Q2_Prompt.wav","","1","","","","","","","","","","","","","","","","","",""
"audio-keyboard-response","131","300042","0.0-72.0","1981","5017","13","Male","true","true","false","false","""event"",""trial"",""time""
""fullscreenenter"",""5"",""53849""
","
","
","""event"",""trial"",""time""
""fullscreenenter"",""5"",""53849""
","
","null","audio/quiz/Q2_Incorrect.wav","null","","","","","","","","","","","","","","","","","","",""
"instructions-quiz","132","303292","0.0-73.0","1981","5017","13","Male","true","true","false","false","""event"",""trial"",""time""
""fullscreenenter"",""5"",""53849""
","
","
","""event"",""trial"",""time""
""fullscreenenter"",""5"",""53849""
","
","3249.0999999999767","audio/quiz/Q3_Prompt.wav","","1","","","","","","","","","","","","","","","","","",""
"audio-keyboard-response","133","304592","0.0-74.0","1981","5017","13","Male","true","true","false","false","""event"",""trial"",""time""
""fullscreenenter"",""5"",""53849""
","
","
","""event"",""trial"",""time""
""fullscreenenter"",""5"",""53849""
","
","1288","audio/quiz/Q3_Correct.wav","32","","","","","","","","","","","","","","","","","","",""
"d3-instructions","134","306889","0.0-75.0","1981","5017","13","Male","true","true","false","false","""event"",""trial"",""time""
""fullscreenenter"",""5"",""53849""
","
","
","""event"",""trial"",""time""
""fullscreenenter"",""5"",""53849""
","
","","","","","","","","","","","","","","","","","","","","","",""
"d3-animate-choice","135","310188","0.0-76.0-0.0","1981","5017","13","Male","true","true","false","false","""event"",""trial"",""time""
""fullscreenenter"",""5"",""53849""
","
","
","""event"",""trial"",""time""
""fullscreenenter"",""5"",""53849""
","
","1286.2000000000698","","49","","","3000","1","","","images/earth.jpg","images/rocket2","images/rocket1","null","images/rocket1","","1","real","null","1","","",""
"d3-animate-choice","136","312950","0.0-76.0-1.0","1981","5017","13","Male","true","true","false","false","""event"",""trial"",""time""
""fullscreenenter"",""5"",""53849""
","
","
","""event"",""trial"",""time""
""fullscreenenter"",""5"",""53849""
","
","754.9000000000233","","49","","","3000","1","1058.9000000000233,1362.9000000000233,1635.0999999999767,1946.9000000000233,2186.9000000000233,2435.0999999999767,2635.20000000007","49,49,49,49,49,49,49","images/redplanet1.jpg","images/alien2","images/alien1","images/rocket1","images/alien1","images/nothing.png","2","real","true","1","common","0","2022-12-10 21:27:22.744"
"two-step-fixation","137","313958","0.0-76.0-2.0","1981","5017","13","Male","true","true","false","false","""event"",""trial"",""time""
""fullscreenenter"",""5"",""53849""
","
","
","""event"",""trial"",""time""
""fullscreenenter"",""5"",""53849""
","
","","images/earth.jpg","","","","","","","","","","","","","","fixation","","","","","",""
"d3-animate-choice","138","316014","0.0-76.0-0.1","1981","5017","13","Male","true","true","false","false","""event"",""trial"",""time""
""fullscreenenter"",""5"",""53849""
","
","
","""event"",""trial"",""time""
""fullscreenenter"",""5"",""53849""
","
","48.90000000002328","","48","","","3000","1","240.90000000002328,441,657","48,48,48","images/earth.jpg","images/rocket2","images/rocket1","null","images/rocket2","","1","real","null","2","","",""
"d3-animate-choice","139","318470","0.0-76.0-1.1","1981","5017","13","Male","true","true","false","false","""event"",""trial"",""time""
""fullscreenenter"",""5"",""53849""
","
","
","""event"",""trial"",""time""
""fullscreenenter"",""5"",""53849""
","
","449.9000000000233","","48","","","3000","1","2202.1999999999534","48","images/redplanet1.jpg","images/alien2","images/alien1","images/rocket2","images/alien2","images/t.png","2","real","false","2","rare","1","2022-12-10 21:27:28.265"
"two-step-fixation","140","319478","0.0-76.0-2.1","1981","5017","13","Male","true","true","false","false","""event"",""trial"",""time""
""fullscreenenter"",""5"",""53849""
","
","
","""event"",""trial"",""time""
""fullscreenenter"",""5"",""53849""
","
","","images/earth.jpg","","","","","","","","","","","","","","fixation","","","","","",""
"d3-animate-choice","141","321741","0.0-76.0-0.2","1981","5017","13","Male","true","true","false","false","""event"",""trial"",""time""
""fullscreenenter"",""5"",""53849""
","
","
","""event"",""trial"",""time""
""fullscreenenter"",""5"",""53849""
","
","257.30000000004657","","48","","","3000","1","449.30000000004657,625.2000000000698,809.4000000000233,977.3000000000466,1129.4000000000233,1281.3000000000466,1433.7000000000698,1577.5,1729.4000000000233,1865.3000000000466,1993.4000000000233,2137.70000000007","48,48,48,48,48,48,48,48,48,48,48,48","images/earth.jpg","images/rocket2","images/rocket1","null","images/rocket2","","1","real","null","2","","",""
"d3-animate-choice","142","323870","0.0-76.0-1.2","1981","5017","13","Male","true","true","false","false","""event"",""trial"",""time""
""fullscreenenter"",""5"",""53849""
","
","
","""event"",""trial"",""time""
""fullscreenenter"",""5"",""53849""
","
","123.09999999997672","","48","","","3000","1","331,523,763,939.2000000000698,1267.0999999999767,1491,1659,1851.0999999999767,2051.0999999999767","48,48,48,48,48,48,48,48,48","images/purpleplanet.jpg","images/alien4","images/alien3","images/rocket2","images/alien4","images/t.png","2","real","true","2","common","1","2022-12-10 21:27:33.664"
"two-step-fixation","143","324877","0.0-76.0-2.2","1981","5017","13","Male","true","true","false","false","""event"",""trial"",""time""
""fullscreenenter"",""5"",""53849""
","
","
","""event"",""trial"",""time""
""fullscreenenter"",""5"",""53849""
","
","","images/earth.jpg","","","","","","","","","","","","","","fixation","","","","","",""
"d3-animate-choice","144","326950","0.0-76.0-0.3","1981","5017","13","Male","true","true","false","false","""event"",""trial"",""time""
""fullscreenenter"",""5"",""53849""
","
","
","""event"",""trial"",""time""
""fullscreenenter"",""5"",""53849""
","
","66.80000000004657","","48","","","3000","1","882.9000000000233,1194.9000000000233,1530.9000000000233,1771,2003","48,48,48,48,48","images/earth.jpg","images/rocket2","images/rocket1","null","images/rocket2","","1","real","null","2","","",""
"d3-animate-choice","145","329277","0.0-76.0-1.3","1981","5017","13","Male","true","true","false","false","""event"",""trial"",""time""
""fullscreenenter"",""5"",""53849""
","
","
","""event"",""trial"",""time""
""fullscreenenter"",""5"",""53849""
","
","322.5","","48","","","3000","1","1034.5,1410.5999999999767,1754.5999999999767,2026.5,2314.5999999999767","48,48,48,48,48","images/purpleplanet.jpg","images/alien4","images/alien3","images/rocket2","images/alien4","images/t.png","2","real","true","2","common","1","2022-12-10 21:27:39.072"
"two-step-fixation","146","330286","0.0-76.0-2.3","1981","5017","13","Male","true","true","false","false","""event"",""trial"",""time""
""fullscreenenter"",""5"",""53849""
","
","
","""event"",""trial"",""time""
""fullscreenenter"",""5"",""53849""
","
","","images/earth.jpg","","","","","","","","","","","","","","fixation","","","","","",""
"d3-animate-choice","147","333317","0.0-76.0-0.4","1981","5017","13","Male","true","true","false","false","""event"",""trial"",""time""
""fullscreenenter"",""5"",""53849""
","
","
","""event"",""trial"",""time""
""fullscreenenter"",""5"",""53849""
","
","1026.5","","48","","","3000","1","1450.5,2090.600000000093,2482.600000000093,2818.70000000007","48,48,48,48","images/earth.jpg","images/rocket2","images/rocket1","null","images/rocket2","","1","real","null","2","","",""
"d3-animate-choice","148","335566","0.0-76.0-1.4","1981","5017","13","Male","true","true","false","false","""event"",""trial"",""time""
""fullscreenenter"",""5"",""53849""
","
","
","""event"",""trial"",""time""
""fullscreenenter"",""5"",""53849""
","
","243.69999999995343","","48","","","3000","1","771.5","48","images/purpleplanet.jpg","images/alien4","images/alien3","images/rocket2","images/alien4","images/t.png","2","real","true","2","common","1","2022-12-10 21:27:45.360"
"two-step-fixation","149","336578","0.0-76.0-2.4","1981","5017","13","Male","true","true","false","false","""event"",""trial"",""time""
""fullscreenenter"",""5"",""53849""
","
","
","""event"",""trial"",""time""
""fullscreenenter"",""5"",""53849""
","
","","images/earth.jpg","","","","","","","","","","","","","","fixation","","","","","",""
"d3-animate-choice","150","340198","0.0-76.0-0.5","1981","5017","13","Male","true","true","false","false","""event"",""trial"",""time""
""fullscreenenter"",""5"",""53849""
","
","
","""event"",""trial"",""time""
""fullscreenenter"",""5"",""53849""
","
","1614.4000000000233","","48","","","3000","1","2150.600000000093,2718.5","48,48","images/earth.jpg","images/rocket2","images/rocket1","null","images/rocket2","","1","real","null","2","","",""
"d3-animate-choice","151","342366","0.0-76.0-1.5","1981","5017","13","Male","true","true","false","false","""event"",""trial"",""time""
""fullscreenenter"",""5"",""53849""
","
","
","""event"",""trial"",""time""
""fullscreenenter"",""5"",""53849""
","
","163.5","","48","","","3000","1","755.8999999999069,2067.5999999999767","48,48","images/redplanet1.jpg","images/alien2","images/alien1","images/rocket2","images/alien2","images/nothing.png","2","real","false","2","rare","0","2022-12-10 21:27:52.160"
"two-step-fixation","152","343378","0.0-76.0-2.5","1981","5017","13","Male","true","true","false","false","""event"",""trial"",""time""
""fullscreenenter"",""5"",""53849""
","
","
","""event"",""trial"",""time""
""fullscreenenter"",""5"",""53849""
","
","","images/earth.jpg","","","","","","","","","","","","","","fixation","","","","","",""
"d3-animate-choice","153","346797","0.0-76.0-0.6","1981","5017","13","Male","true","true","false","false","""event"",""trial"",""time""
""fullscreenenter"",""5"",""53849""
","
","
","""event"",""trial"",""time""
""fullscreenenter"",""5"",""53849""
","
","1415.9000000000233","","48","","","3000","1","2199.8000000000466,2512.20000000007,2607.9000000000233,2807.9000000000233,3056,3231.9000000000233","48,48,48,48,48,48","images/earth.jpg","images/rocket2","images/rocket1","null","images/rocket2","","1","real","null","2","","",""
"d3-animate-choice","154","348854","0.0-76.0-1.6","1981","5017","13","Male","true","true","false","false","""event"",""trial"",""time""
""fullscreenenter"",""5"",""53849""
","
","
","""event"",""trial"",""time""
""fullscreenenter"",""5"",""53849""
","
","51.79999999993015","","48","","","3000","1","243.89999999990687,475.89999999990687,683.8999999999069,923.8999999999069,1132,1339.8999999999069,1548,1980","48,48,48,48,48,48,48,48","images/redplanet1.jpg","images/alien2","images/alien1","images/rocket2","images/alien2","images/t.png","2","real","false","2","rare","1","2022-12-10 21:27:58.648"
"two-step-fixation","155","349862","0.0-76.0-2.6","1981","5017","13","Male","true","true","false","false","""event"",""trial"",""time""
""fullscreenenter"",""5"",""53849""
","
","
","""event"",""trial"",""time""
""fullscreenenter"",""5"",""53849""
","
","","images/earth.jpg","","","","","","","","","","","","","","fixation","","","","","",""
"d3-animate-choice","156","353022","0.0-76.0-0.7","1981","5017","13","Male","true","true","false","false","""event"",""trial"",""time""
""fullscreenenter"",""5"",""53849""
","
","
","""event"",""trial"",""time""
""fullscreenenter"",""5"",""53849""
","
","1154.6999999999534","","48","","","3000","1","1378.5999999999767,1626.6999999999534,2883,3122.79999999993","48,48,48,48","images/earth.jpg","images/rocket2","images/rocket1","null","images/rocket2","","1","real","null","2","","",""
"d3-animate-choice","157","355190","0.0-76.0-1.7","1981","5017","13","Male","true","true","false","false","""event"",""trial"",""time""
""fullscreenenter"",""5"",""53849""
","
","
","""event"",""trial"",""time""
""fullscreenenter"",""5"",""53849""
","
","163.79999999993015","","48","","","3000","1","371.79999999993015,611.7999999999302,1075.7999999999302","48,48,48","images/purpleplanet.jpg","images/alien4","images/alien3","images/rocket2","images/alien4","images/t.png","2","real","true","2","common","1","2022-12-10 21:28:04.984"
"two-step-fixation","158","356198","0.0-76.0-2.7","1981","5017","13","Male","true","true","false","false","""event"",""trial"",""time""
""fullscreenenter"",""5"",""53849""
","
","
","""event"",""trial"",""time""
""fullscreenenter"",""5"",""53849""
","
","","images/earth.jpg","","","","","","","","","","","","","","fixation","","","","","",""
"d3-animate-choice","159","358293","0.0-76.0-0.8","1981","5017","13","Male","true","true","false","false","""event"",""trial"",""time""
""fullscreenenter"",""5"",""53849""
","
","
","""event"",""trial"",""time""
""fullscreenenter"",""5"",""53849""
","
","91.90000000002328","","48","","","3000","1","","","images/earth.jpg","images/rocket2","images/rocket1","null","images/rocket2","","1","real","null","2","","",""
"d3-animate-choice","160","361237","0.0-76.0-1.8","1981","5017","13","Male","true","true","false","false","""event"",""trial"",""time""
""fullscreenenter"",""5"",""53849""
","
","
","""event"",""trial"",""time""
""fullscreenenter"",""5"",""53849""
","
","940.7999999999302","","49","","","3000","1","","","images/purpleplanet.jpg","images/alien4","images/alien3","images/rocket2","images/alien3","images/t.png","2","real","true","1","common","1","2022-12-10 21:28:11.031"
"two-step-fixation","161","362245","0.0-76.0-2.8","1981","5017","13","Male","true","true","false","false","""event"",""trial"",""time""
""fullscreenenter"",""5"",""53849""
","
","
","""event"",""trial"",""time""
""fullscreenenter"",""5"",""53849""
","
","","images/earth.jpg","","","","","","","","","","","","","","fixation","","","","","",""
"d3-animate-choice","162","364518","0.0-76.0-0.9","1981","5017","13","Male","true","true","false","false","""event"",""trial"",""time""
""fullscreenenter"",""5"",""53849""
","
","
","""event"",""trial"",""time""
""fullscreenenter"",""5"",""53849""
","
","269","","48","","","3000","1","","","images/earth.jpg","images/rocket2","images/rocket1","null","images/rocket2","","1","real","null","2","","",""
"d3-animate-choice","163","367206","0.0-76.0-1.9","1981","5017","13","Male","true","true","false","false","""event"",""trial"",""time""
""fullscreenenter"",""5"",""53849""
","
","
","""event"",""trial"",""time""
""fullscreenenter"",""5"",""53849""
","
","685.0999999999767","","48","","","3000","1","","","images/purpleplanet.jpg","images/alien4","images/alien3","images/rocket2","images/alien4","images/nothing.png","2","real","true","2","common","0","2022-12-10 21:28:17.000"
"two-step-fixation","164","368211","0.0-76.0-2.9","1981","5017","13","Male","true","true","false","false","""event"",""trial"",""time""
""fullscreenenter"",""5"",""53849""
","
","
","""event"",""trial"",""time""
""fullscreenenter"",""5"",""53849""
","
","","images/earth.jpg","","","","","","","","","","","","","","fixation","","","","","",""
"d3-animate-choice","165","371438","0.0-76.0-0.10","1981","5017","13","Male","true","true","false","false","""event"",""trial"",""time""
""fullscreenenter"",""5"",""53849""
","
","
","""event"",""trial"",""time""
""fullscreenenter"",""5"",""53849""
","
","1223.3000000000466","","49","","","3000","1","","","images/earth.jpg","images/rocket2","images/rocket1","null","images/rocket1","","1","real","null","1","","",""
"d3-animate-choice","166","374558","0.0-76.0-1.10","1981","5017","13","Male","true","true","false","false","""event"",""trial"",""time""
""fullscreenenter"",""5"",""53849""
","
","
","""event"",""trial"",""time""
""fullscreenenter"",""5"",""53849""
","
","1117.5999999999767","","49","","","3000","1","","","images/purpleplanet.jpg","images/alien4","images/alien3","images/rocket1","images/alien3","images/t.png","2","real","false","1","rare","1","2022-12-10 21:28:24.352"
"two-step-fixation","167","375566","0.0-76.0-2.10","1981","5017","13","Male","true","true","false","false","""event"",""trial"",""time""
""fullscreenenter"",""5"",""53849""
","
","
","""event"",""trial"",""time""
""fullscreenenter"",""5"",""53849""
","
","","images/earth.jpg","","","","","","","","","","","","","","fixation","","","","","",""
"d3-animate-choice","168","378510","0.0-76.0-0.11","1981","5017","13","Male","true","true","false","false","""event"",""trial"",""time""
""fullscreenenter"",""5"",""53849""
","
","
","""event"",""trial"",""time""
""fullscreenenter"",""5"",""53849""
","
","941.5999999999767","","49","","","3000","1","","","images/earth.jpg","images/rocket2","images/rocket1","null","images/rocket1","","1","real","null","1","","",""
"d3-animate-choice","169","381534","0.0-76.0-1.11","1981","5017","13","Male","true","true","false","false","""event"",""trial"",""time""
""fullscreenenter"",""5"",""53849""
","
","
","""event"",""trial"",""time""
""fullscreenenter"",""5"",""53849""
","
","1013.5999999999767","","49","","","3000","1","","","images/redplanet1.jpg","images/alien2","images/alien1","images/rocket1","images/alien1","images/nothing.png","2","real","true","1","common","0","2022-12-10 21:28:31.328"
"two-step-fixation","170","382542","0.0-76.0-2.11","1981","5017","13","Male","true","true","false","false","""event"",""trial"",""time""
""fullscreenenter"",""5"",""53849""
","
","
","""event"",""trial"",""time""
""fullscreenenter"",""5"",""53849""
","
","","images/earth.jpg","","","","","","","","","","","","","","fixation","","","","","",""
"d3-animate-choice","171","384910","0.0-76.0-0.12","1981","5017","13","Male","true","true","false","false","""event"",""trial"",""time""
""fullscreenenter"",""5"",""53849""
","
","
","""event"",""trial"",""time""
""fullscreenenter"",""5"",""53849""
","
","358","","49","","","3000","1","574,1133.9000000000233,1358,1525.9000000000233,1798","49,49,49,49,49","images/earth.jpg","images/rocket2","images/rocket1","null","images/rocket1","","1","real","null","1","","",""
"d3-animate-choice","172","387682","0.0-76.0-1.12","1981","5017","13","Male","true","true","false","false","""event"",""trial"",""time""
""fullscreenenter"",""5"",""53849""
","
","
","""event"",""trial"",""time""
""fullscreenenter"",""5"",""53849""
","
","766.1999999999534","","49","","","3000","1","1094.1999999999534,2110.4000000000233","49,49","images/purpleplanet.jpg","images/alien4","images/alien3","images/rocket1","images/alien3","images/t.png","2","real","false","1","rare","1","2022-12-10 21:28:37.476"
"two-step-fixation","173","388686","0.0-76.0-2.12","1981","5017","13","Male","true","true","false","false","""event"",""trial"",""time""
""fullscreenenter"",""5"",""53849""
","
","
","""event"",""trial"",""time""
""fullscreenenter"",""5"",""53849""
","
","","images/earth.jpg","","","","","","","","","","","","","","fixation","","","","","",""
"d3-animate-choice","174","390752","0.0-76.0-0.13","1981","5017","13","Male","true","true","false","false","""event"",""trial"",""time""
""fullscreenenter"",""5"",""53849""
","
","
","""event"",""trial"",""time""
""fullscreenenter"",""5"",""53849""
","
","61.800000000046566","","49","","","3000","1","309.70000000006985,813.6000000000931","49,49","images/earth.jpg","images/rocket2","images/rocket1","null","images/rocket1","","1","real","null","1","","",""
"d3-animate-choice","175","393398","0.0-76.0-1.13","1981","5017","13","Male","true","true","false","false","""event"",""trial"",""time""
""fullscreenenter"",""5"",""53849""
","
","
","""event"",""trial"",""time""
""fullscreenenter"",""5"",""53849""
","
","636.5","","49","","","3000","1","2500.29999999993","49","images/redplanet1.jpg","images/alien2","images/alien1","images/rocket1","images/alien1","images/t.png","2","real","true","1","common","1","2022-12-10 21:28:43.192"
"two-step-fixation","176","394405","0.0-76.0-2.13","1981","5017","13","Male","true","true","false","false","""event"",""trial"",""time""
""fullscreenenter"",""5"",""53849""
","
","
","""event"",""trial"",""time""
""fullscreenenter"",""5"",""53849""
","
","","images/earth.jpg","","","","","","","","","","","","","","fixation","","","","","",""
"d3-animate-choice","177","396718","0.0-76.0-0.14","1981","5017","13","Male","true","true","false","false","""event"",""trial"",""time""
""fullscreenenter"",""5"",""53849""
","
","
","""event"",""trial"",""time""
""fullscreenenter"",""5"",""53849""
","
","303","","48","","","3000","1","","","images/earth.jpg","images/rocket2","images/rocket1","null","images/rocket2","","1","real","null","2","","",""
"d3-animate-choice","178","399166","0.0-76.0-1.14","1981","5017","13","Male","true","true","false","false","""event"",""trial"",""time""
""fullscreenenter"",""5"",""53849""
","
","
","""event"",""trial"",""time""
""fullscreenenter"",""5"",""53849""
","
","439.30000000004657","","49","","","3000","1","2351.20000000007","50","images/purpleplanet.jpg","images/alien4","images/alien3","images/rocket2","images/alien3","images/t.png","2","real","true","1","common","1","2022-12-10 21:28:48.960"
"two-step-fixation","179","400174","0.0-76.0-2.14","1981","5017","13","Male","true","true","false","false","""event"",""trial"",""time""
""fullscreenenter"",""5"",""53849""
","
","
","""event"",""trial"",""time""
""fullscreenenter"",""5"",""53849""
","
","","images/earth.jpg","","","","","","","","","","","","","","fixation","","","","","",""
"d3-animate-choice","180","402422","0.0-76.0-0.15","1981","5017","13","Male","true","true","false","false","""event"",""trial"",""time""
""fullscreenenter"",""5"",""53849""
","
","
","""event"",""trial"",""time""
""fullscreenenter"",""5"",""53849""
","
","239.30000000004657","","49","","","3000","1","727,903.0999999999767,1071.0999999999767,1367,1591,1799,2191.1999999999534","49,49,49,49,49,49,49","images/earth.jpg","images/rocket2","images/rocket1","null","images/rocket1","","1","real","null","1","","",""
"d3-animate-choice","181","404894","0.0-76.0-1.15","1981","5017","13","Male","true","true","false","false","""event"",""trial"",""time""
""fullscreenenter"",""5"",""53849""
","
","
","""event"",""trial"",""time""
""fullscreenenter"",""5"",""53849""
","
","463.19999999995343","","49","","","3000","1","1879,2191","49,49","images/redplanet1.jpg","images/alien2","images/alien1","images/rocket1","images/alien1","images/t.png","2","real","true","1","common","1","2022-12-10 21:28:54.688"
"two-step-fixation","182","405901","0.0-76.0-2.15","1981","5017","13","Male","true","true","false","false","""event"",""trial"",""time""
""fullscreenenter"",""5"",""53849""
","
","
","""event"",""trial"",""time""
""fullscreenenter"",""5"",""53849""
","
","","images/earth.jpg","","","","","","","","","","","","","","fixation","","","","","",""
"d3-animate-choice","183","408422","0.0-76.0-0.16","1981","5017","13","Male","true","true","false","false","""event"",""trial"",""time""
""fullscreenenter"",""5"",""53849""
","
","
","""event"",""trial"",""time""
""fullscreenenter"",""5"",""53849""
","
","512.4000000000233","","49","","","3000","1","","","images/earth.jpg","images/rocket2","images/rocket1","null","images/rocket1","","1","real","null","1","","",""
"d3-animate-choice","184","410494","0.0-76.0-1.16","1981","5017","13","Male","true","true","false","false","""event"",""trial"",""time""
""fullscreenenter"",""5"",""53849""
","
","
","""event"",""trial"",""time""
""fullscreenenter"",""5"",""53849""
","
","63.29999999993015","","49","","","3000","1","263.19999999995343,1223.2999999999302,1439.3999999999069,1679.1999999999534,1863.1999999999534","49,49,49,49,49","images/redplanet1.jpg","images/alien2","images/alien1","images/rocket1","images/alien1","images/nothing.png","2","real","true","1","common","0","2022-12-10 21:29:00.288"
"two-step-fixation","185","411501","0.0-76.0-2.16","1981","5017","13","Male","true","true","false","false","""event"",""trial"",""time""
""fullscreenenter"",""5"",""53849""
","
","
","""event"",""trial"",""time""
""fullscreenenter"",""5"",""53849""
","
","","images/earth.jpg","","","","","","","","","","","","","","fixation","","","","","",""
"d3-animate-choice","186","414763","0.0-76.0-0.17","1981","5017","13","Male","true","true","false","false","""event"",""trial"",""time""
""fullscreenenter"",""5"",""53849""
","
","
","""event"",""trial"",""time""
""fullscreenenter"",""5"",""53849""
","
","1256.0999999999767","","49","","","3000","1","1456.2000000000698,1744.0999999999767,1968.0999999999767,2584.20000000007,3152.4000000000233","49,49,49,49,49","images/earth.jpg","images/rocket2","images/rocket1","null","images/rocket1","","1","real","null","1","","",""
"d3-animate-choice","187","416996","0.0-76.0-1.17","1981","5017","13","Male","true","true","false","false","""event"",""trial"",""time""
""fullscreenenter"",""5"",""53849""
","
","
","""event"",""trial"",""time""
""fullscreenenter"",""5"",""53849""
","
","226.60000000009313","","49","","","3000","1","786.8000000000466,1130.7000000000698,1754.9000000000233","49,49,49","images/redplanet1.jpg","images/alien2","images/alien1","images/rocket1","images/alien1","images/t.png","2","real","true","1","common","1","2022-12-10 21:29:06.790"
"two-step-fixation","188","417998","0.0-76.0-2.17","1981","5017","13","Male","true","true","false","false","""event"",""trial"",""time""
""fullscreenenter"",""5"",""53849""
","
","
","""event"",""trial"",""time""
""fullscreenenter"",""5"",""53849""
","
","","images/earth.jpg","","","","","","","","","","","","","","fixation","","","","","",""
"d3-animate-choice","189","420062","0.0-76.0-0.18","1981","5017","13","Male","true","true","false","false","""event"",""trial"",""time""
""fullscreenenter"",""5"",""53849""
","
","
","""event"",""trial"",""time""
""fullscreenenter"",""5"",""53849""
","
","56.09999999997672","","49","","","3000","1","552.3000000000466,856.1999999999534,1304.0999999999767","49,49,49","images/earth.jpg","images/rocket2","images/rocket1","null","images/rocket1","","1","real","null","1","","",""
"d3-animate-choice","190","422142","0.0-76.0-1.18","1981","5017","13","Male","true","true","false","false","""event"",""trial"",""time""
""fullscreenenter"",""5"",""53849""
","
","
","""event"",""trial"",""time""
""fullscreenenter"",""5"",""53849""
","
","72.29999999993015","","49","","","3000","1","672.2999999999302,1264.4000000000233","49,49","images/redplanet1.jpg","images/alien2","images/alien1","images/rocket1","images/alien1","images/nothing.png","2","real","true","1","common","0","2022-12-10 21:29:11.936"
"two-step-fixation","191","423149","0.0-76.0-2.18","1981","5017","13","Male","true","true","false","false","""event"",""trial"",""time""
""fullscreenenter"",""5"",""53849""
","
","
","""event"",""trial"",""time""
""fullscreenenter"",""5"",""53849""
","
","","images/earth.jpg","","","","","","","","","","","","","","fixation","","","","","",""
"d3-animate-choice","192","425862","0.0-76.0-0.19","1981","5017","13","Male","true","true","false","false","""event"",""trial"",""time""
""fullscreenenter"",""5"",""53849""
","
","
","""event"",""trial"",""time""
""fullscreenenter"",""5"",""53849""
","
","705.1999999999534","","49","","","3000","1","1033.0999999999767,1753.1999999999534,2121.0999999999767,2393.1999999999534","49,49,49,49","images/earth.jpg","images/rocket2","images/rocket1","null","images/rocket1","","1","real","null","1","","",""
"d3-animate-choice","193","427894","0.0-76.0-1.19","1981","5017","13","Male","true","true","false","false","""event"",""trial"",""time""
""fullscreenenter"",""5"",""53849""
","
","
","""event"",""trial"",""time""
""fullscreenenter"",""5"",""53849""
","
","24.5","","49","","","3000","1","768.6999999999534,1096.9000000000233,1368.6999999999534,1944.6999999999534","49,49,49,49","images/redplanet1.jpg","images/alien2","images/alien1","images/rocket1","images/alien1","images/t.png","2","real","true","1","common","1","2022-12-10 21:29:17.688"
"two-step-fixation","194","428902","0.0-76.0-2.19","1981","5017","13","Male","true","true","false","false","""event"",""trial"",""time""
""fullscreenenter"",""5"",""53849""
","
","
","""event"",""trial"",""time""
""fullscreenenter"",""5"",""53849""
","
","","images/earth.jpg","","","","","","","","","","","","","","fixation","","","","","",""
"d3-animate-choice","195","430958","0.0-76.0-0.20","1981","5017","13","Male","true","true","false","false","""event"",""trial"",""time""
""fullscreenenter"",""5"",""53849""
","
","
","""event"",""trial"",""time""
""fullscreenenter"",""5"",""53849""
","
","48.60000000009313","","49","","","3000","1","344.60000000009313,624.8000000000466,912.6000000000931,1200.7000000000698,1504.6000000000931,1784.6000000000931,2008.6000000000931","49,49,49,49,49,49,49","images/earth.jpg","images/rocket2","images/rocket1","null","images/rocket1","","1","real","null","1","","",""
"d3-animate-choice","196","433229","0.0-76.0-1.20","1981","5017","13","Male","true","true","false","false","""event"",""trial"",""time""
""fullscreenenter"",""5"",""53849""
","
","
","""event"",""trial"",""time""
""fullscreenenter"",""5"",""53849""
","
","264.9000000000233","","49","","","3000","1","816.9000000000233,1137,1432.9000000000233,1705,2025.1999999999534","49,49,49,49,49","images/purpleplanet.jpg","images/alien4","images/alien3","images/rocket1","images/alien3","images/nothing.png","2","real","false","1","rare","0","2022-12-10 21:29:23.023"
"two-step-fixation","197","434230","0.0-76.0-2.20","1981","5017","13","Male","true","true","false","false","""event"",""trial"",""time""
""fullscreenenter"",""5"",""53849""
","
","
","""event"",""trial"",""time""
""fullscreenenter"",""5"",""53849""
","
","","images/earth.jpg","","","","","","","","","","","","","","fixation","","","","","",""
"d3-animate-choice","198","436550","0.0-76.0-0.21","1981","5017","13","Male","true","true","false","false","""event"",""trial"",""time""
""fullscreenenter"",""5"",""53849""
","
","
","""event"",""trial"",""time""
""fullscreenenter"",""5"",""53849""
","
","312.5999999999767","","49","","","3000","1","512.5999999999767,688.8000000000466,888.8000000000466,1168.6999999999534,1424.6999999999534,1672.6999999999534,2064.5999999999767","49,49,49,49,49,49,49","images/earth.jpg","images/rocket2","images/rocket1","null","images/rocket1","","1","real","null","1","","",""
"d3-animate-choice","199","438581","0.0-76.0-1.21","1981","5017","13","Male","true","true","false","false","""event"",""trial"",""time""
""fullscreenenter"",""5"",""53849""
","
","
","""event"",""trial"",""time""
""fullscreenenter"",""5"",""53849""
","
","25.399999999906868","","49","","","3000","1","241.5,729.5,961.5,1225.5","49,49,49,49","images/purpleplanet.jpg","images/alien4","images/alien3","images/rocket1","images/alien3","images/t.png","2","real","false","1","rare","1","2022-12-10 21:29:28.376"
"two-step-fixation","200","439586","0.0-76.0-2.21","1981","5017","13","Male","true","true","false","false","""event"",""trial"",""time""
""fullscreenenter"",""5"",""53849""
","
","
","""event"",""trial"",""time""
""fullscreenenter"",""5"",""53849""
","
","","images/earth.jpg","","","","","","","","","","","","","","fixation","","","","","",""
"d3-animate-choice","201","441838","0.0-76.0-0.22","1981","5017","13","Male","true","true","false","false","""event"",""trial"",""time""
""fullscreenenter"",""5"",""53849""
","
","
","""event"",""trial"",""time""
""fullscreenenter"",""5"",""53849""
","
","244.5","","49","","","3000","1","588.4000000000233,860.5,1148.4000000000233,1396.5,1684.5,1924.5,2196.5","49,49,49,49,49,49,49","images/earth.jpg","images/rocket2","images/rocket1","null","images/rocket1","","1","real","null","1","","",""
"d3-animate-choice","202","444102","0.0-76.0-1.22","1981","5017","13","Male","true","true","false","false","""event"",""trial"",""time""
""fullscreenenter"",""5"",""53849""
","
","
","""event"",""trial"",""time""
""fullscreenenter"",""5"",""53849""
","
","257.79999999993015","","49","","","3000","1","569.6999999999534,857.6999999999534,1137.6999999999534,2057.9000000000233","49,49,49,49","images/redplanet1.jpg","images/alien2","images/alien1","images/rocket1","images/alien1","images/t.png","2","real","true","1","common","1","2022-12-10 21:29:33.896"
"two-step-fixation","203","445110","0.0-76.0-2.22","1981","5017","13","Male","true","true","false","false","""event"",""trial"",""time""
""fullscreenenter"",""5"",""53849""
","
","
","""event"",""trial"",""time""
""fullscreenenter"",""5"",""53849""
","
","","images/earth.jpg","","","","","","","","","","","","","","fixation","","","","","",""
"d3-animate-choice","204","447742","0.0-76.0-0.23","1981","5017","13","Male","true","true","false","false","""event"",""trial"",""time""
""fullscreenenter"",""5"",""53849""
","
","
","""event"",""trial"",""time""
""fullscreenenter"",""5"",""53849""
","
","625.3000000000466","","49","","","3000","1","2513.4000000000233","49","images/earth.jpg","images/rocket2","images/rocket1","null","images/rocket1","","1","real","null","1","","",""
"d3-animate-choice","205","450086","0.0-76.0-1.23","1981","5017","13","Male","true","true","false","false","""event"",""trial"",""time""
""fullscreenenter"",""5"",""53849""
","
","
","""event"",""trial"",""time""
""fullscreenenter"",""5"",""53849""
","
","337.4000000000233","","49","","","3000","1","","","images/redplanet1.jpg","images/alien2","images/alien1","images/rocket1","images/alien1","images/t.png","2","real","true","1","common","1","2022-12-10 21:29:39.880"
"two-step-fixation","206","451094","0.0-76.0-2.23","1981","5017","13","Male","true","true","false","false","""event"",""trial"",""time""
""fullscreenenter"",""5"",""53849""
","
","
","""event"",""trial"",""time""
""fullscreenenter"",""5"",""53849""
","
","","images/earth.jpg","","","","","","","","","","","","","","fixation","","","","","",""
"d3-animate-choice","207","453398","0.0-76.0-0.24","1981","5017","13","Male","true","true","false","false","""event"",""trial"",""time""
""fullscreenenter"",""5"",""53849""
","
","
","""event"",""trial"",""time""
""fullscreenenter"",""5"",""53849""
","
","298.29999999993015","","49","","","3000","1","","","images/earth.jpg","images/rocket2","images/rocket1","null","images/rocket1","","1","real","null","1","","",""
"d3-animate-choice","208","455414","0.0-76.0-1.24","1981","5017","13","Male","true","true","false","false","""event"",""trial"",""time""
""fullscreenenter"",""5"",""53849""
","
","
","""event"",""trial"",""time""
""fullscreenenter"",""5"",""53849""
","
","10.300000000046566","","49","","","3000","1","","","images/redplanet1.jpg","images/alien2","images/alien1","images/rocket1","images/alien1","images/nothing.png","2","real","true","1","common","0","2022-12-10 21:29:45.208"
"two-step-fixation","209","456422","0.0-76.0-2.24","1981","5017","13","Male","true","true","false","false","""event"",""trial"",""time""
""fullscreenenter"",""5"",""53849""
","
","
","""event"",""trial"",""time""
""fullscreenenter"",""5"",""53849""
","
","","images/earth.jpg","","","","","","","","","","","","","","fixation","","","","","",""
"d3-animate-choice","210","458822","0.0-76.0-0.25","1981","5017","13","Male","true","true","false","false","""event"",""trial"",""time""
""fullscreenenter"",""5"",""53849""
","
","
","""event"",""trial"",""time""
""fullscreenenter"",""5"",""53849""
","
","394.5","","49","","","3000","1","","","images/earth.jpg","images/rocket2","images/rocket1","null","images/rocket1","","1","real","null","1","","",""
"d3-animate-choice","211","462493","0.0-76.0-1.25","1981","5017","13","Male","true","true","false","false","""event"",""trial"",""time""
""fullscreenenter"",""5"",""53849""
","
","
","""event"",""trial"",""time""
""fullscreenenter"",""5"",""53849""
","
","1666.7999999999302","","49","","","3000","1","","","images/redplanet1.jpg","images/alien2","images/alien1","images/rocket1","images/alien1","images/t.png","2","real","true","1","common","1","2022-12-10 21:29:52.287"
"two-step-fixation","212","463502","0.0-76.0-2.25","1981","5017","13","Male","true","true","false","false","""event"",""trial"",""time""
""fullscreenenter"",""5"",""53849""
","
","
","""event"",""trial"",""time""
""fullscreenenter"",""5"",""53849""
","
","","images/earth.jpg","","","","","","","","","","","","","","fixation","","","","","",""
"d3-animate-choice","213","465662","0.0-76.0-0.26","1981","5017","13","Male","true","true","false","false","""event"",""trial"",""time""
""fullscreenenter"",""5"",""53849""
","
","
","""event"",""trial"",""time""
""fullscreenenter"",""5"",""53849""
","
","155.40000000002328","","49","","","3000","1","","","images/earth.jpg","images/rocket2","images/rocket1","null","images/rocket1","","1","real","null","1","","",""
"d3-animate-choice","214","468358","0.0-76.0-1.26","1981","5017","13","Male","true","true","false","false","""event"",""trial"",""time""
""fullscreenenter"",""5"",""53849""
","
","
","""event"",""trial"",""time""
""fullscreenenter"",""5"",""53849""
","
","691.1999999999534","","49","","","3000","1","","","images/redplanet1.jpg","images/alien2","images/alien1","images/rocket1","images/alien1","images/nothing.png","2","real","true","1","common","0","2022-12-10 21:29:58.152"
"two-step-fixation","215","469366","0.0-76.0-2.26","1981","5017","13","Male","true","true","false","false","""event"",""trial"",""time""
""fullscreenenter"",""5"",""53849""
","
","
","""event"",""trial"",""time""
""fullscreenenter"",""5"",""53849""
","
","","images/earth.jpg","","","","","","","","","","","","","","fixation","","","","","",""
"d3-animate-choice","216","471782","0.0-76.0-0.27","1981","5017","13","Male","true","true","false","false","""event"",""trial"",""time""
""fullscreenenter"",""5"",""53849""
","
","
","""event"",""trial"",""time""
""fullscreenenter"",""5"",""53849""
","
","411.10000000009313","","48","","","3000","1","","","images/earth.jpg","images/rocket2","images/rocket1","null","images/rocket2","","1","real","null","2","","",""
"d3-animate-choice","217","474902","0.0-76.0-1.27","1981","5017","13","Male","true","true","false","false","""event"",""trial"",""time""
""fullscreenenter"",""5"",""53849""
","
","
","""event"",""trial"",""time""
""fullscreenenter"",""5"",""53849""
","
","1115.9000000000233","","49","","","3000","1","","","images/redplanet1.jpg","images/alien2","images/alien1","images/rocket2","images/alien1","images/nothing.png","2","real","false","1","rare","0","2022-12-10 21:30:04.696"
"two-step-fixation","218","475907","0.0-76.0-2.27","1981","5017","13","Male","true","true","false","false","""event"",""trial"",""time""
""fullscreenenter"",""5"",""53849""
","
","
","""event"",""trial"",""time""
""fullscreenenter"",""5"",""53849""
","
","","images/earth.jpg","","","","","","","","","","","","","","fixation","","","","","",""
"d3-animate-choice","219","478214","0.0-76.0-0.28","1981","5017","13","Male","true","true","false","false","""event"",""trial"",""time""
""fullscreenenter"",""5"",""53849""
","
","
","""event"",""trial"",""time""
""fullscreenenter"",""5"",""53849""
","
","302.19999999995343","","48","","","3000","1","","","images/earth.jpg","images/rocket2","images/rocket1","null","images/rocket2","","1","real","null","2","","",""
"d3-animate-choice","220","481342","0.0-76.0-1.28","1981","5017","13","Male","true","true","false","false","""event"",""trial"",""time""
""fullscreenenter"",""5"",""53849""
","
","
","""event"",""trial"",""time""
""fullscreenenter"",""5"",""53849""
","
","1123.4000000000233","","48","","","3000","1","","","images/purpleplanet.jpg","images/alien4","images/alien3","images/rocket2","images/alien4","images/t.png","2","real","true","2","common","1","2022-12-10 21:30:11.136"
"two-step-fixation","221","482350","0.0-76.0-2.28","1981","5017","13","Male","true","true","false","false","""event"",""trial"",""time""
""fullscreenenter"",""5"",""53849""
","
","
","""event"",""trial"",""time""
""fullscreenenter"",""5"",""53849""
","
","","images/earth.jpg","","","","","","","","","","","","","","fixation","","","","","",""
"d3-animate-choice","222","485326","0.0-76.0-0.29","1981","5017","13","Male","true","true","false","false","""event"",""trial"",""time""
""fullscreenenter"",""5"",""53849""
","
","
","""event"",""trial"",""time""
""fullscreenenter"",""5"",""53849""
","
","971.5999999999767","","49","","","3000","1","","","images/earth.jpg","images/rocket2","images/rocket1","null","images/rocket1","","1","real","null","1","","",""
"d3-animate-choice","223","488358","0.0-76.0-1.29","1981","5017","13","Male","true","true","false","false","""event"",""trial"",""time""
""fullscreenenter"",""5"",""53849""
","
","
","""event"",""trial"",""time""
""fullscreenenter"",""5"",""53849""
","
","1028.5","","49","","","3000","1","","","images/redplanet1.jpg","images/alien2","images/alien1","images/rocket1","images/alien1","images/t.png","2","real","true","1","common","1","2022-12-10 21:30:18.152"
"two-step-fixation","224","489365","0.0-76.0-2.29","1981","5017","13","Male","true","true","false","false","""event"",""trial"",""time""
""fullscreenenter"",""5"",""53849""
","
","
","""event"",""trial"",""time""
""fullscreenenter"",""5"",""53849""
","
","","images/earth.jpg","","","","","","","","","","","","","","fixation","","","","","",""
"d3-animate-choice","225","492038","0.0-76.0-0.30","1981","5017","13","Male","true","true","false","false","""event"",""trial"",""time""
""fullscreenenter"",""5"",""53849""
","
","
","""event"",""trial"",""time""
""fullscreenenter"",""5"",""53849""
","
","669","","49","","","3000","1","","","images/earth.jpg","images/rocket2","images/rocket1","null","images/rocket1","","1","real","null","1","","",""
"d3-animate-choice","226","494493","0.0-76.0-1.30","1981","5017","13","Male","true","true","false","false","""event"",""trial"",""time""
""fullscreenenter"",""5"",""53849""
","
","
","""event"",""trial"",""time""
""fullscreenenter"",""5"",""53849""
","
