"trial_type","trial_index","time_elapsed","internal_node_id","participant_id","subject_id","age","gender","rocket_sides","red_planet_first_rocket","red_display_order","purple_display_order","interactions","blur_events","focus_events","fullscreenenter_events","fullscreenexit_events","rt","stimulus","key_press","button_pressed","success","duration","valid_pressed","rts","keys","planet_text","right_text","left_text","center_text","chosen_text","reward_text","trial_stage","practice_trial","transition_type","choice","transition","reward","timestamp"
"pavlovia","0","6","0.0-0.0","259","5225","13","Male","true","true","false","false","
","
","
","
","
","","","","","","","","","","","","","","","","","","","","","",""
"html-keyboard-response","1","3076","0.0-1.0","259","5225","13","Male","true","true","false","false","
","
","
","
","
","3067.2999999970198","Welcome! Press the space bar to begin.","32","","","","","","","","","","","","","","","","","","",""
"audio-keyboard-response","2","8280","0.0-2.0","259","5225","13","Male","true","true","false","false","""event"",""trial"",""time""
""blur"",""3"",""16239""
""focus"",""3"",""16240""
","""event"",""trial"",""time""
""blur"",""3"",""16239""
","""event"",""trial"",""time""
""focus"",""3"",""16240""
","
","
","5109","audio/beep_loop.wav","32","","","","","","","","","","","","","","","","","","",""
"audio-button-response","3","20505","0.0-3.0","259","5225","13","Male","true","true","false","false","""event"",""trial"",""time""
""blur"",""3"",""16239""
""focus"",""3"",""16240""
","""event"",""trial"",""time""
""blur"",""3"",""16239""
","""event"",""trial"",""time""
""focus"",""3"",""16240""
","
","
","NaN","audio/fish.mp3","","1","","","","","","","","","","","","","","","","","",""
"audio-button-response","4","23220","0.0-4.0","259","5225","13","Male","true","true","false","false","""event"",""trial"",""time""
""blur"",""3"",""16239""
""focus"",""3"",""16240""
""fullscreenenter"",""5"",""35098""
","""event"",""trial"",""time""
""blur"",""3"",""16239""
","""event"",""trial"",""time""
""focus"",""3"",""16240""
","""event"",""trial"",""time""
""fullscreenenter"",""5"",""35098""
","
","NaN","audio/tiger.mp3","","4","","","","","","","","","","","","","","","","","",""
"fullscreen","5","35997","0.0-5.0","259","5225","13","Male","true","true","false","false","""event"",""trial"",""time""
""blur"",""3"",""16239""
""focus"",""3"",""16240""
""fullscreenenter"",""5"",""35098""
","""event"",""trial"",""time""
""blur"",""3"",""16239""
","""event"",""trial"",""time""
""focus"",""3"",""16240""
","""event"",""trial"",""time""
""fullscreenenter"",""5"",""35098""
","
","","","","","true","","","","","","","","","","","","","","","","",""
"d3-instructions","6","44883","0.0-6.0","259","5225","13","Male","true","true","false","false","""event"",""trial"",""time""
""blur"",""3"",""16239""
""focus"",""3"",""16240""
""fullscreenenter"",""5"",""35098""
","""event"",""trial"",""time""
""blur"",""3"",""16239""
","""event"",""trial"",""time""
""focus"",""3"",""16240""
","""event"",""trial"",""time""
""fullscreenenter"",""5"",""35098""
","
","","","","","","","","","","","","","","","","","","","","","",""
"d3-instructions","7","54554","0.0-7.0","259","5225","13","Male","true","true","false","false","""event"",""trial"",""time""
""blur"",""3"",""16239""
""focus"",""3"",""16240""
""fullscreenenter"",""5"",""35098""
","""event"",""trial"",""time""
""blur"",""3"",""16239""
","""event"",""trial"",""time""
""focus"",""3"",""16240""
","""event"",""trial"",""time""
""fullscreenenter"",""5"",""35098""
","
","","","","","","","","","","","","","","","","","","","","","",""
"d3-instructions","8","62896","0.0-8.0","259","5225","13","Male","true","true","false","false","""event"",""trial"",""time""
""blur"",""3"",""16239""
""focus"",""3"",""16240""
""fullscreenenter"",""5"",""35098""
","""event"",""trial"",""time""
""blur"",""3"",""16239""
","""event"",""trial"",""time""
""focus"",""3"",""16240""
","""event"",""trial"",""time""
""fullscreenenter"",""5"",""35098""
","
","","","","","","","","","","","","","","","","","","","","","",""
"d3-instructions","9","75420","0.0-9.0","259","5225","13","Male","true","true","false","false","""event"",""trial"",""time""
""blur"",""3"",""16239""
""focus"",""3"",""16240""
""fullscreenenter"",""5"",""35098""
","""event"",""trial"",""time""
""blur"",""3"",""16239""
","""event"",""trial"",""time""
""focus"",""3"",""16240""
","""event"",""trial"",""time""
""fullscreenenter"",""5"",""35098""
","
","","","","","","","","","","","","","","","","","","","","","",""
"d3-instructions","10","89136","0.0-10.0","259","5225","13","Male","true","true","false","false","""event"",""trial"",""time""
""blur"",""3"",""16239""
""focus"",""3"",""16240""
""fullscreenenter"",""5"",""35098""
","""event"",""trial"",""time""
""blur"",""3"",""16239""
","""event"",""trial"",""time""
""focus"",""3"",""16240""
","""event"",""trial"",""time""
""fullscreenenter"",""5"",""35098""
","
","","","","","","","","","","","","","","","","","","","","","",""
"d3-animate-choice","11","96214","0.0-11.0","259","5225","13","Male","true","true","false","false","""event"",""trial"",""time""
""blur"",""3"",""16239""
""focus"",""3"",""16240""
""fullscreenenter"",""5"",""35098""
","""event"",""trial"",""time""
""blur"",""3"",""16239""
","""event"",""trial"",""time""
""focus"",""3"",""16240""
","""event"",""trial"",""time""
""fullscreenenter"",""5"",""35098""
","
","1049","","223","","","3000","1","3960.6999999955297,5061.69999999553","223,49","images/tutgreenplanet.jpg","images/tutalien1","images/tutalien2","null","images/tutalien2","","NA","practice","null","","","",""
"d3-animate-choice","12","100021","0.0-12.0","259","5225","13","Male","true","true","false","false","""event"",""trial"",""time""
""blur"",""3"",""16239""
""focus"",""3"",""16240""
""fullscreenenter"",""5"",""35098""
","""event"",""trial"",""time""
""blur"",""3"",""16239""
","""event"",""trial"",""time""
""focus"",""3"",""16240""
","""event"",""trial"",""time""
""fullscreenenter"",""5"",""35098""
","
","1793.1000000014901","","48","","","3000","1","","","images/tutgreenplanet.jpg","images/tutalien1","images/tutalien2","null","images/tutalien1","","NA","practice","null","","","",""
"d3-animate-choice","13","102374","0.0-13.0","259","5225","13","Male","true","true","false","false","""event"",""trial"",""time""
""blur"",""3"",""16239""
""focus"",""3"",""16240""
""fullscreenenter"",""5"",""35098""
","""event"",""trial"",""time""
""blur"",""3"",""16239""
","""event"",""trial"",""time""
""focus"",""3"",""16240""
","""event"",""trial"",""time""
""fullscreenenter"",""5"",""35098""
","
","340.3999999985099","","49","","","3000","1","","","images/tutgreenplanet.jpg","images/tutalien1","images/tutalien2","null","images/tutalien2","","NA","practice","null","","","",""
"d3-animate-choice","14","104725","0.0-14.0","259","5225","13","Male","true","true","false","false","""event"",""trial"",""time""
""blur"",""3"",""16239""
""focus"",""3"",""16240""
""fullscreenenter"",""5"",""35098""
","""event"",""trial"",""time""
""blur"",""3"",""16239""
","""event"",""trial"",""time""
""focus"",""3"",""16240""
","""event"",""trial"",""time""
""fullscreenenter"",""5"",""35098""
","
","336.20000000298023","","49","","","3000","1","","","images/tutgreenplanet.jpg","images/tutalien1","images/tutalien2","null","images/tutalien2","","NA","practice","null","","","",""
"d3-instructions","15","112023","0.0-15.0","259","5225","13","Male","true","true","false","false","""event"",""trial"",""time""
""blur"",""3"",""16239""
""focus"",""3"",""16240""
""fullscreenenter"",""5"",""35098""
","""event"",""trial"",""time""
""blur"",""3"",""16239""
","""event"",""trial"",""time""
""focus"",""3"",""16240""
","""event"",""trial"",""time""
""fullscreenenter"",""5"",""35098""
","
","","","","","","","","","","","","","","","","","","","","","",""
"d3-instructions","16","118328","0.0-16.0","259","5225","13","Male","true","true","false","false","""event"",""trial"",""time""
""blur"",""3"",""16239""
""focus"",""3"",""16240""
""fullscreenenter"",""5"",""35098""
","""event"",""trial"",""time""
""blur"",""3"",""16239""
","""event"",""trial"",""time""
""focus"",""3"",""16240""
","""event"",""trial"",""time""
""fullscreenenter"",""5"",""35098""
","
","","","","","","","","","","","","","","","","","","","","","",""
"d3-instructions","17","129178","0.0-17.0","259","5225","13","Male","true","true","false","false","""event"",""trial"",""time""
""blur"",""3"",""16239""
""focus"",""3"",""16240""
""fullscreenenter"",""5"",""35098""
","""event"",""trial"",""time""
""blur"",""3"",""16239""
","""event"",""trial"",""time""
""focus"",""3"",""16240""
","""event"",""trial"",""time""
""fullscreenenter"",""5"",""35098""
","
","","","","","","","","","","","","","","","","","","","","","",""
"d3-instructions","18","145023","0.0-18.0","259","5225","13","Male","true","true","false","false","""event"",""trial"",""time""
""blur"",""3"",""16239""
""focus"",""3"",""16240""
""fullscreenenter"",""5"",""35098""
","""event"",""trial"",""time""
""blur"",""3"",""16239""
","""event"",""trial"",""time""
""focus"",""3"",""16240""
","""event"",""trial"",""time""
""fullscreenenter"",""5"",""35098""
","
","","","","","","","","","","","","","","","","","","","","","",""
"d3-instructions","19","157483","0.0-19.0","259","5225","13","Male","true","true","false","false","""event"",""trial"",""time""
""blur"",""3"",""16239""
""focus"",""3"",""16240""
""fullscreenenter"",""5"",""35098""
","""event"",""trial"",""time""
""blur"",""3"",""16239""
","""event"",""trial"",""time""
""focus"",""3"",""16240""
","""event"",""trial"",""time""
""fullscreenenter"",""5"",""35098""
","
","","","","","","","","","","","","","","","","","","","","","",""
"d3-animate-choice","20","160640","0.0-20.0","259","5225","13","Male","true","true","false","false","""event"",""trial"",""time""
""blur"",""3"",""16239""
""focus"",""3"",""16240""
""fullscreenenter"",""5"",""35098""
","""event"",""trial"",""time""
""blur"",""3"",""16239""
","""event"",""trial"",""time""
""focus"",""3"",""16240""
","""event"",""trial"",""time""
""fullscreenenter"",""5"",""35098""
","
","1150.6999999955297","","49","","","3000","1","1737.6999999955297,2690.5","49,49","images/tutyellowplanet.jpg","null","images/tutalien3","null","images/tutalien3","images/t.png","NA","practice","null","","","",""
"d3-animate-choice","21","163053","0.0-21.0","259","5225","13","Male","true","true","false","false","""event"",""trial"",""time""
""blur"",""3"",""16239""
""focus"",""3"",""16240""
""fullscreenenter"",""5"",""35098""
","""event"",""trial"",""time""
""blur"",""3"",""16239""
","""event"",""trial"",""time""
""focus"",""3"",""16240""
","""event"",""trial"",""time""
""fullscreenenter"",""5"",""35098""
","
","405.19999999552965","","49","","","3000","1","1862.6999999955297","49","images/tutyellowplanet.jpg","null","images/tutalien3","null","images/tutalien3","images/t.png","NA","practice","null","","","",""
"d3-animate-choice","22","165373","0.0-22.0","259","5225","13","Male","true","true","false","false","""event"",""trial"",""time""
""blur"",""3"",""16239""
""focus"",""3"",""16240""
""fullscreenenter"",""5"",""35098""
","""event"",""trial"",""time""
""blur"",""3"",""16239""
","""event"",""trial"",""time""
""focus"",""3"",""16240""
","""event"",""trial"",""time""
""fullscreenenter"",""5"",""35098""
","
","307.30000000447035","","49","","","3000","1","","","images/tutyellowplanet.jpg","null","images/tutalien3","null","images/tutalien3","images/nothing.png","NA","practice","null","","","",""
"d3-animate-choice","23","167653","0.0-23.0","259","5225","13","Male","true","true","false","false","""event"",""trial"",""time""
""blur"",""3"",""16239""
""focus"",""3"",""16240""
""fullscreenenter"",""5"",""35098""
","""event"",""trial"",""time""
""blur"",""3"",""16239""
","""event"",""trial"",""time""
""focus"",""3"",""16240""
","""event"",""trial"",""time""
""fullscreenenter"",""5"",""35098""
","
","274","","49","","","3000","1","","","images/tutyellowplanet.jpg","null","images/tutalien3","null","images/tutalien3","images/nothing.png","NA","practice","null","","","",""
"d3-animate-choice","24","170037","0.0-24.0","259","5225","13","Male","true","true","false","false","""event"",""trial"",""time""
""blur"",""3"",""16239""
""focus"",""3"",""16240""
""fullscreenenter"",""5"",""35098""
","""event"",""trial"",""time""
""blur"",""3"",""16239""
","""event"",""trial"",""time""
""focus"",""3"",""16240""
","""event"",""trial"",""time""
""fullscreenenter"",""5"",""35098""
","
","379.09999999403954","","49","","","3000","1","","","images/tutyellowplanet.jpg","null","images/tutalien3","null","images/tutalien3","images/t.png","NA","practice","null","","","",""
"d3-animate-choice","25","172405","0.0-25.0","259","5225","13","Male","true","true","false","false","""event"",""trial"",""time""
""blur"",""3"",""16239""
""focus"",""3"",""16240""
""fullscreenenter"",""5"",""35098""
","""event"",""trial"",""time""
""blur"",""3"",""16239""
","""event"",""trial"",""time""
""focus"",""3"",""16240""
","""event"",""trial"",""time""
""fullscreenenter"",""5"",""35098""
","
","360.5","","49","","","3000","1","1958","49","images/tutyellowplanet.jpg","null","images/tutalien3","null","images/tutalien3","images/t.png","NA","practice","null","","","",""
"d3-animate-choice","26","174837","0.0-26.0","259","5225","13","Male","true","true","false","false","""event"",""trial"",""time""
""blur"",""3"",""16239""
""focus"",""3"",""16240""
""fullscreenenter"",""5"",""35098""
","""event"",""trial"",""time""
""blur"",""3"",""16239""
","""event"",""trial"",""time""
""focus"",""3"",""16240""
","""event"",""trial"",""time""
""fullscreenenter"",""5"",""35098""
","
","423.30000000447035","","49","","","3000","1","","","images/tutyellowplanet.jpg","null","images/tutalien3","null","images/tutalien3","images/t.png","NA","practice","null","","","",""
"d3-animate-choice","27","177293","0.0-27.0","259","5225","13","Male","true","true","false","false","""event"",""trial"",""time""
""blur"",""3"",""16239""
""focus"",""3"",""16240""
""fullscreenenter"",""5"",""35098""
","""event"",""trial"",""time""
""blur"",""3"",""16239""
","""event"",""trial"",""time""
""focus"",""3"",""16240""
","""event"",""trial"",""time""
""fullscreenenter"",""5"",""35098""
","
","444.5","","49","","","3000","1","","","images/tutyellowplanet.jpg","null","images/tutalien3","null","images/tutalien3","images/nothing.png","NA","practice","null","","","",""
"d3-animate-choice","28","179717","0.0-28.0","259","5225","13","Male","true","true","false","false","""event"",""trial"",""time""
""blur"",""3"",""16239""
""focus"",""3"",""16240""
""fullscreenenter"",""5"",""35098""
","""event"",""trial"",""time""
""blur"",""3"",""16239""
","""event"",""trial"",""time""
""focus"",""3"",""16240""
","""event"",""trial"",""time""
""fullscreenenter"",""5"",""35098""
","
","416.59999999403954","","49","","","3000","1","","","images/tutyellowplanet.jpg","null","images/tutalien3","null","images/tutalien3","images/t.png","NA","practice","null","","","",""
"d3-animate-choice","29","182541","0.0-29.0","259","5225","13","Male","true","true","false","false","""event"",""trial"",""time""
""blur"",""3"",""16239""
""focus"",""3"",""16240""
""fullscreenenter"",""5"",""35098""
","""event"",""trial"",""time""
""blur"",""3"",""16239""
","""event"",""trial"",""time""
""focus"",""3"",""16240""
","""event"",""trial"",""time""
""fullscreenenter"",""5"",""35098""
","
","813.5","","49","","","3000","1","","","images/tutyellowplanet.jpg","null","images/tutalien3","null","images/tutalien3","images/nothing.png","NA","practice","null","","","",""
"d3-instructions","30","188558","0.0-30.0","259","5225","13","Male","true","true","false","false","""event"",""trial"",""time""
""blur"",""3"",""16239""
""focus"",""3"",""16240""
""fullscreenenter"",""5"",""35098""
","""event"",""trial"",""time""
""blur"",""3"",""16239""
","""event"",""trial"",""time""
""focus"",""3"",""16240""
","""event"",""trial"",""time""
""fullscreenenter"",""5"",""35098""
","
","","","","","","","","","","","","","","","","","","","","","",""
"d3-instructions","31","195795","0.0-31.0","259","5225","13","Male","true","true","false","false","""event"",""trial"",""time""
""blur"",""3"",""16239""
""focus"",""3"",""16240""
""fullscreenenter"",""5"",""35098""
","""event"",""trial"",""time""
""blur"",""3"",""16239""
","""event"",""trial"",""time""
""focus"",""3"",""16240""
","""event"",""trial"",""time""
""fullscreenenter"",""5"",""35098""
","
","","","","","","","","","","","","","","","","","","","","","",""
"d3-instructions","32","204169","0.0-32.0","259","5225","13","Male","true","true","false","false","""event"",""trial"",""time""
""blur"",""3"",""16239""
""focus"",""3"",""16240""
""fullscreenenter"",""5"",""35098""
","""event"",""trial"",""time""
""blur"",""3"",""16239""
","""event"",""trial"",""time""
""focus"",""3"",""16240""
","""event"",""trial"",""time""
""fullscreenenter"",""5"",""35098""
","
","","","","","","","","","","","","","","","","","","","","","",""
"d3-instructions","33","208000","0.0-33.0","259","5225","13","Male","true","true","false","false","""event"",""trial"",""time""
""blur"",""3"",""16239""
""focus"",""3"",""16240""
""fullscreenenter"",""5"",""35098""
","""event"",""trial"",""time""
""blur"",""3"",""16239""
","""event"",""trial"",""time""
""focus"",""3"",""16240""
","""event"",""trial"",""time""
""fullscreenenter"",""5"",""35098""
","
","","","","","","","","","","","","","","","","","","","","","",""
"d3-animate-choice","34","210581","0.0-34.0","259","5225","13","Male","true","true","false","false","""event"",""trial"",""time""
""blur"",""3"",""16239""
""focus"",""3"",""16240""
""fullscreenenter"",""5"",""35098""
","""event"",""trial"",""time""
""blur"",""3"",""16239""
","""event"",""trial"",""time""
""focus"",""3"",""16240""
","""event"",""trial"",""time""
""fullscreenenter"",""5"",""35098""
","
","573.5","","49","","","3000","1","","","images/tutgreenplanet.jpg","images/tutalien1","images/tutalien2","null","images/tutalien2","images/t.png","NA","practice","null","","","",""
"d3-animate-choice","35","212926","0.0-35.0","259","5225","13","Male","true","true","false","false","""event"",""trial"",""time""
""blur"",""3"",""16239""
""focus"",""3"",""16240""
""fullscreenenter"",""5"",""35098""
","""event"",""trial"",""time""
""blur"",""3"",""16239""
","""event"",""trial"",""time""
""focus"",""3"",""16240""
","""event"",""trial"",""time""
""fullscreenenter"",""5"",""35098""
","
","331.5","","48","","","3000","1","","","images/tutgreenplanet.jpg","images/tutalien1","images/tutalien2","null","images/tutalien1","images/nothing.png","NA","practice","null","","","",""
"d3-animate-choice","36","215205","0.0-36.0","259","5225","13","Male","true","true","false","false","""event"",""trial"",""time""
""blur"",""3"",""16239""
""focus"",""3"",""16240""
""fullscreenenter"",""5"",""35098""
","""event"",""trial"",""time""
""blur"",""3"",""16239""
","""event"",""trial"",""time""
""focus"",""3"",""16240""
","""event"",""trial"",""time""
""fullscreenenter"",""5"",""35098""
","
","270.70000000298023","","49","","","3000","1","","","images/tutgreenplanet.jpg","images/tutalien1","images/tutalien2","null","images/tutalien2","images/t.png","NA","practice","null","","","",""
"d3-animate-choice","37","217501","0.0-37.0","259","5225","13","Male","true","true","false","false","""event"",""trial"",""time""
""blur"",""3"",""16239""
""focus"",""3"",""16240""
""fullscreenenter"",""5"",""35098""
","""event"",""trial"",""time""
""blur"",""3"",""16239""
","""event"",""trial"",""time""
""focus"",""3"",""16240""
","""event"",""trial"",""time""
""fullscreenenter"",""5"",""35098""
","
","284.79999999701977","","49","","","3000","1","","","images/tutgreenplanet.jpg","images/tutalien1","images/tutalien2","null","images/tutalien2","images/t.png","NA","practice","null","","","",""
"d3-animate-choice","38","219773","0.0-38.0","259","5225","13","Male","true","true","false","false","""event"",""trial"",""time""
""blur"",""3"",""16239""
""focus"",""3"",""16240""
""fullscreenenter"",""5"",""35098""
","""event"",""trial"",""time""
""blur"",""3"",""16239""
","""event"",""trial"",""time""
""focus"",""3"",""16240""
","""event"",""trial"",""time""
""fullscreenenter"",""5"",""35098""
","
","261","","49","","","3000","1","","","images/tutgreenplanet.jpg","images/tutalien1","images/tutalien2","null","images/tutalien2","images/t.png","NA","practice","null","","","",""
"d3-animate-choice","39","222045","0.0-39.0","259","5225","13","Male","true","true","false","false","""event"",""trial"",""time""
""blur"",""3"",""16239""
""focus"",""3"",""16240""
""fullscreenenter"",""5"",""35098""
","""event"",""trial"",""time""
""blur"",""3"",""16239""
","""event"",""trial"",""time""
""focus"",""3"",""16240""
","""event"",""trial"",""time""
""fullscreenenter"",""5"",""35098""
","
","258.1000000014901","","48","","","3000","1","","","images/tutgreenplanet.jpg","images/tutalien1","images/tutalien2","null","images/tutalien1","images/nothing.png","NA","practice","null","","","",""
"d3-animate-choice","40","224317","0.0-40.0","259","5225","13","Male","true","true","false","false","""event"",""trial"",""time""
""blur"",""3"",""16239""
""focus"",""3"",""16240""
""fullscreenenter"",""5"",""35098""
","""event"",""trial"",""time""
""blur"",""3"",""16239""
","""event"",""trial"",""time""
""focus"",""3"",""16240""
","""event"",""trial"",""time""
""fullscreenenter"",""5"",""35098""
","
","259.80000000447035","","49","","","3000","1","1718.3000000044703","49","images/tutgreenplanet.jpg","images/tutalien1","images/tutalien2","null","images/tutalien2","images/nothing.png","NA","practice","null","","","",""
"d3-animate-choice","41","226781","0.0-41.0","259","5225","13","Male","true","true","false","false","""event"",""trial"",""time""
""blur"",""3"",""16239""
""focus"",""3"",""16240""
""fullscreenenter"",""5"",""35098""
","""event"",""trial"",""time""
""blur"",""3"",""16239""
","""event"",""trial"",""time""
""focus"",""3"",""16240""
","""event"",""trial"",""time""
""fullscreenenter"",""5"",""35098""
","
","452.6000000014901","","48","","","3000","1","","","images/tutgreenplanet.jpg","images/tutalien1","images/tutalien2","null","images/tutalien1","images/nothing.png","NA","practice","null","","","",""
"d3-animate-choice","42","229245","0.0-42.0","259","5225","13","Male","true","true","false","false","""event"",""trial"",""time""
""blur"",""3"",""16239""
""focus"",""3"",""16240""
""fullscreenenter"",""5"",""35098""
","""event"",""trial"",""time""
""blur"",""3"",""16239""
","""event"",""trial"",""time""
""focus"",""3"",""16240""
","""event"",""trial"",""time""
""fullscreenenter"",""5"",""35098""
","
","451.6000000014901","","49","","","3000","1","1913.6000000014901","49","images/tutgreenplanet.jpg","images/tutalien1","images/tutalien2","null","images/tutalien2","images/t.png","NA","practice","null","","","",""
"d3-animate-choice","43","231517","0.0-43.0","259","5225","13","Male","true","true","false","false","""event"",""trial"",""time""
""blur"",""3"",""16239""
""focus"",""3"",""16240""
""fullscreenenter"",""5"",""35098""
","""event"",""trial"",""time""
""blur"",""3"",""16239""
","""event"",""trial"",""time""
""focus"",""3"",""16240""
","""event"",""trial"",""time""
""fullscreenenter"",""5"",""35098""
","
","261.1000000014901","","49","","","3000","1","","","images/tutgreenplanet.jpg","images/tutalien1","images/tutalien2","null","images/tutalien2","images/t.png","NA","practice","null","","","",""
"d3-instructions","44","244532","0.0-44.0","259","5225","13","Male","true","true","false","false","""event"",""trial"",""time""
""blur"",""3"",""16239""
""focus"",""3"",""16240""
""fullscreenenter"",""5"",""35098""
","""event"",""trial"",""time""
""blur"",""3"",""16239""
","""event"",""trial"",""time""
""focus"",""3"",""16240""
","""event"",""trial"",""time""
""fullscreenenter"",""5"",""35098""
","
","","","","","","","","","","","","","","","","","","","","","",""
"d3-instructions","45","247644","0.0-45.0","259","5225","13","Male","true","true","false","false","""event"",""trial"",""time""
""blur"",""3"",""16239""
""focus"",""3"",""16240""
""fullscreenenter"",""5"",""35098""
","""event"",""trial"",""time""
""blur"",""3"",""16239""
","""event"",""trial"",""time""
""focus"",""3"",""16240""
","""event"",""trial"",""time""
""fullscreenenter"",""5"",""35098""
","
","","","","","","","","","","","","","","","","","","","","","",""
"d3-instructions","46","250940","0.0-46.0","259","5225","13","Male","true","true","false","false","""event"",""trial"",""time""
""blur"",""3"",""16239""
""focus"",""3"",""16240""
""fullscreenenter"",""5"",""35098""
","""event"",""trial"",""time""
""blur"",""3"",""16239""
","""event"",""trial"",""time""
""focus"",""3"",""16240""
","""event"",""trial"",""time""
""fullscreenenter"",""5"",""35098""
","
","","","","","","","","","","","","","","","","","","","","","",""
"d3-instructions","47","257950","0.0-47.0","259","5225","13","Male","true","true","false","false","""event"",""trial"",""time""
""blur"",""3"",""16239""
""focus"",""3"",""16240""
""fullscreenenter"",""5"",""35098""
","""event"",""trial"",""time""
""blur"",""3"",""16239""
","""event"",""trial"",""time""
""focus"",""3"",""16240""
","""event"",""trial"",""time""
""fullscreenenter"",""5"",""35098""
","
","","","","","","","","","","","","","","","","","","","","","",""
"d3-instructions","48","263175","0.0-48.0","259","5225","13","Male","true","true","false","false","""event"",""trial"",""time""
""blur"",""3"",""16239""
""focus"",""3"",""16240""
""fullscreenenter"",""5"",""35098""
","""event"",""trial"",""time""
""blur"",""3"",""16239""
","""event"",""trial"",""time""
""focus"",""3"",""16240""
","""event"",""trial"",""time""
""fullscreenenter"",""5"",""35098""
","
","","","","","","","","","","","","","","","","","","","","","",""
"d3-instructions","49","267888","0.0-49.0","259","5225","13","Male","true","true","false","false","""event"",""trial"",""time""
""blur"",""3"",""16239""
""focus"",""3"",""16240""
""fullscreenenter"",""5"",""35098""
","""event"",""trial"",""time""
""blur"",""3"",""16239""
","""event"",""trial"",""time""
""focus"",""3"",""16240""
","""event"",""trial"",""time""
""fullscreenenter"",""5"",""35098""
","
","","","","","","","","","","","","","","","","","","","","","",""
"d3-instructions","50","278926","0.0-50.0","259","5225","13","Male","true","true","false","false","""event"",""trial"",""time""
""blur"",""3"",""16239""
""focus"",""3"",""16240""
""fullscreenenter"",""5"",""35098""
","""event"",""trial"",""time""
""blur"",""3"",""16239""
","""event"",""trial"",""time""
""focus"",""3"",""16240""
","""event"",""trial"",""time""
""fullscreenenter"",""5"",""35098""
","
","","","","","","","","","","","","","","","","","","","","","",""
"d3-instructions","51","281311","0.0-51.0","259","5225","13","Male","true","true","false","false","""event"",""trial"",""time""
""blur"",""3"",""16239""
""focus"",""3"",""16240""
""fullscreenenter"",""5"",""35098""
","""event"",""trial"",""time""
""blur"",""3"",""16239""
","""event"",""trial"",""time""
""focus"",""3"",""16240""
","""event"",""trial"",""time""
""fullscreenenter"",""5"",""35098""
","
","","","","","","","","","","","","","","","","","","","","","",""
"d3-instructions","52","283283","0.0-52.0","259","5225","13","Male","true","true","false","false","""event"",""trial"",""time""
""blur"",""3"",""16239""
""focus"",""3"",""16240""
""fullscreenenter"",""5"",""35098""
","""event"",""trial"",""time""
""blur"",""3"",""16239""
","""event"",""trial"",""time""
""focus"",""3"",""16240""
","""event"",""trial"",""time""
""fullscreenenter"",""5"",""35098""
","
","","","","","","","","","","","","","","","","","","","","","",""
"d3-instructions","53","295768","0.0-53.0","259","5225","13","Male","true","true","false","false","""event"",""trial"",""time""
""blur"",""3"",""16239""
""focus"",""3"",""16240""
""fullscreenenter"",""5"",""35098""
","""event"",""trial"",""time""
""blur"",""3"",""16239""
","""event"",""trial"",""time""
""focus"",""3"",""16240""
","""event"",""trial"",""time""
""fullscreenenter"",""5"",""35098""
","
","","","","","","","","","","","","","","","","","","","","","",""
"d3-instructions","54","303584","0.0-54.0","259","5225","13","Male","true","true","false","false","""event"",""trial"",""time""
""blur"",""3"",""16239""
""focus"",""3"",""16240""
""fullscreenenter"",""5"",""35098""
","""event"",""trial"",""time""
""blur"",""3"",""16239""
","""event"",""trial"",""time""
""focus"",""3"",""16240""
","""event"",""trial"",""time""
""fullscreenenter"",""5"",""35098""
","
","","","","","","","","","","","","","","","","","","","","","",""
"d3-instructions","55","309337","0.0-55.0","259","5225","13","Male","true","true","false","false","""event"",""trial"",""time""
""blur"",""3"",""16239""
""focus"",""3"",""16240""
""fullscreenenter"",""5"",""35098""
","""event"",""trial"",""time""
""blur"",""3"",""16239""
","""event"",""trial"",""time""
""focus"",""3"",""16240""
","""event"",""trial"",""time""
""fullscreenenter"",""5"",""35098""
","
","","","","","","","","","","","","","","","","","","","","","",""
"d3-instructions","56","311912","0.0-56.0","259","5225","13","Male","true","true","false","false","""event"",""trial"",""time""
""blur"",""3"",""16239""
""focus"",""3"",""16240""
""fullscreenenter"",""5"",""35098""
","""event"",""trial"",""time""
""blur"",""3"",""16239""
","""event"",""trial"",""time""
""focus"",""3"",""16240""
","""event"",""trial"",""time""
""fullscreenenter"",""5"",""35098""
","
","","","","","","","","","","","","","","","","","","","","","",""
"d3-instructions","57","315490","0.0-57.0","259","5225","13","Male","true","true","false","false","""event"",""trial"",""time""
""blur"",""3"",""16239""
""focus"",""3"",""16240""
""fullscreenenter"",""5"",""35098""
","""event"",""trial"",""time""
""blur"",""3"",""16239""
","""event"",""trial"",""time""
""focus"",""3"",""16240""
","""event"",""trial"",""time""
""fullscreenenter"",""5"",""35098""
","
","","","","","","","","","","","","","","","","","","","","","",""
"d3-instructions","58","318213","0.0-58.0","259","5225","13","Male","true","true","false","false","""event"",""trial"",""time""
""blur"",""3"",""16239""
""focus"",""3"",""16240""
""fullscreenenter"",""5"",""35098""
","""event"",""trial"",""time""
""blur"",""3"",""16239""
","""event"",""trial"",""time""
""focus"",""3"",""16240""
","""event"",""trial"",""time""
""fullscreenenter"",""5"",""35098""
","
","","","","","","","","","","","","","","","","","","","","","",""
"d3-instructions","59","320922","0.0-59.0","259","5225","13","Male","true","true","false","false","""event"",""trial"",""time""
""blur"",""3"",""16239""
""focus"",""3"",""16240""
""fullscreenenter"",""5"",""35098""
","""event"",""trial"",""time""
""blur"",""3"",""16239""
","""event"",""trial"",""time""
""focus"",""3"",""16240""
","""event"",""trial"",""time""
""fullscreenenter"",""5"",""35098""
","
","","","","","","","","","","","","","","","","","","","","","",""
"d3-instructions","60","323332","0.0-60.0","259","5225","13","Male","true","true","false","false","""event"",""trial"",""time""
""blur"",""3"",""16239""
""focus"",""3"",""16240""
""fullscreenenter"",""5"",""35098""
","""event"",""trial"",""time""
""blur"",""3"",""16239""
","""event"",""trial"",""time""
""focus"",""3"",""16240""
","""event"",""trial"",""time""
""fullscreenenter"",""5"",""35098""
","
","","","","","","","","","","","","","","","","","","","","","",""
"d3-animate-choice","61","326029","0.0-61.0-0.0","259","5225","13","Male","true","true","false","false","""event"",""trial"",""time""
""blur"",""3"",""16239""
""focus"",""3"",""16240""
""fullscreenenter"",""5"",""35098""
","""event"",""trial"",""time""
""blur"",""3"",""16239""
","""event"",""trial"",""time""
""focus"",""3"",""16240""
","""event"",""trial"",""time""
""fullscreenenter"",""5"",""35098""
","
","681.8999999985099","","49","","","3000","1","","","images/earth.jpg","images/tutrocket2","images/tutrocket1","null","images/tutrocket1","","1","practice","null","1","","",""
"d3-animate-choice","62","329109","0.0-61.0-1.0","259","5225","13","Male","true","true","false","false","""event"",""trial"",""time""
""blur"",""3"",""16239""
""focus"",""3"",""16240""
""fullscreenenter"",""5"",""35098""
","""event"",""trial"",""time""
""blur"",""3"",""16239""
","""event"",""trial"",""time""
""focus"",""3"",""16240""
","""event"",""trial"",""time""
""fullscreenenter"",""5"",""35098""
","
","1068.3999999985099","","49","","","3000","1","","","images/tutgreenplanet.jpg","images/tutalien2","images/tutalien1","images/tutrocket1","images/tutalien1","images/nothing.png","2","practice","true","1","common","0","2022-12-13 02:24:09.859"
"two-step-fixation","63","330117","0.0-61.0-2.0","259","5225","13","Male","true","true","false","false","""event"",""trial"",""time""
""blur"",""3"",""16239""
""focus"",""3"",""16240""
""fullscreenenter"",""5"",""35098""
","""event"",""trial"",""time""
""blur"",""3"",""16239""
","""event"",""trial"",""time""
""focus"",""3"",""16240""
","""event"",""trial"",""time""
""fullscreenenter"",""5"",""35098""
","
","","images/earth.jpg","","","","","","","","","","","","","","fixation","","","","","",""
"d3-animate-choice","64","332605","0.0-61.0-0.1","259","5225","13","Male","true","true","false","false","""event"",""trial"",""time""
""blur"",""3"",""16239""
""focus"",""3"",""16240""
""fullscreenenter"",""5"",""35098""
","""event"",""trial"",""time""
""blur"",""3"",""16239""
","""event"",""trial"",""time""
""focus"",""3"",""16240""
","""event"",""trial"",""time""
""fullscreenenter"",""5"",""35098""
","
","476.1000000014901","","49","","","3000","1","","","images/earth.jpg","images/tutrocket2","images/tutrocket1","null","images/tutrocket1","","1","practice","null","1","","",""
"d3-animate-choice","65","335245","0.0-61.0-1.1","259","5225","13","Male","true","true","false","false","""event"",""trial"",""time""
""blur"",""3"",""16239""
""focus"",""3"",""16240""
""fullscreenenter"",""5"",""35098""
","""event"",""trial"",""time""
""blur"",""3"",""16239""
","""event"",""trial"",""time""
""focus"",""3"",""16240""
","""event"",""trial"",""time""
""fullscreenenter"",""5"",""35098""
","
","626.5","","48","","","3000","1","","","images/tutgreenplanet.jpg","images/tutalien2","images/tutalien1","images/tutrocket1","images/tutalien2","images/nothing.png","2","practice","true","2","common","0","2022-12-13 02:24:15.995"
"two-step-fixation","66","336253","0.0-61.0-2.1","259","5225","13","Male","true","true","false","false","""event"",""trial"",""time""
""blur"",""3"",""16239""
""focus"",""3"",""16240""
""fullscreenenter"",""5"",""35098""
","""event"",""trial"",""time""
""blur"",""3"",""16239""
","""event"",""trial"",""time""
""focus"",""3"",""16240""
","""event"",""trial"",""time""
""fullscreenenter"",""5"",""35098""
","
","","images/earth.jpg","","","","","","","","","","","","","","fixation","","","","","",""
"d3-animate-choice","67","338701","0.0-61.0-0.2","259","5225","13","Male","true","true","false","false","""event"",""trial"",""time""
""blur"",""3"",""16239""
""focus"",""3"",""16240""
""fullscreenenter"",""5"",""35098""
","""event"",""trial"",""time""
""blur"",""3"",""16239""
","""event"",""trial"",""time""
""focus"",""3"",""16240""
","""event"",""trial"",""time""
""fullscreenenter"",""5"",""35098""
","
","438","","49","","","3000","1","","","images/earth.jpg","images/tutrocket2","images/tutrocket1","null","images/tutrocket1","","1","practice","null","1","","",""
"d3-animate-choice","68","341629","0.0-61.0-1.2","259","5225","13","Male","true","true","false","false","""event"",""trial"",""time""
""blur"",""3"",""16239""
""focus"",""3"",""16240""
""fullscreenenter"",""5"",""35098""
","""event"",""trial"",""time""
""blur"",""3"",""16239""
","""event"",""trial"",""time""
""focus"",""3"",""16240""
","""event"",""trial"",""time""
""fullscreenenter"",""5"",""35098""
","
","919.2999999970198","","49","","","3000","1","","","images/tutyellowplanet.jpg","images/tutalien4","images/tutalien3","images/tutrocket1","images/tutalien3","images/nothing.png","2","practice","false","1","rare","0","2022-12-13 02:24:22.380"
"two-step-fixation","69","342637","0.0-61.0-2.2","259","5225","13","Male","true","true","false","false","""event"",""trial"",""time""
""blur"",""3"",""16239""
""focus"",""3"",""16240""
""fullscreenenter"",""5"",""35098""
","""event"",""trial"",""time""
""blur"",""3"",""16239""
","""event"",""trial"",""time""
""focus"",""3"",""16240""
","""event"",""trial"",""time""
""fullscreenenter"",""5"",""35098""
","
","","images/earth.jpg","","","","","","","","","","","","","","fixation","","","","","",""
"d3-animate-choice","70","344891","0.0-61.0-0.3","259","5225","13","Male","true","true","false","false","""event"",""trial"",""time""
""blur"",""3"",""16239""
""focus"",""3"",""16240""
""fullscreenenter"",""5"",""35098""
","""event"",""trial"",""time""
""blur"",""3"",""16239""
","""event"",""trial"",""time""
""focus"",""3"",""16240""
","""event"",""trial"",""time""
""fullscreenenter"",""5"",""35098""
","
","247.09999999403954","","48","","","3000","1","","","images/earth.jpg","images/tutrocket2","images/tutrocket1","null","images/tutrocket2","","1","practice","null","2","","",""
"d3-animate-choice","71","347445","0.0-61.0-1.3","259","5225","13","Male","true","true","false","false","""event"",""trial"",""time""
""blur"",""3"",""16239""
""focus"",""3"",""16240""
""fullscreenenter"",""5"",""35098""
","""event"",""trial"",""time""
""blur"",""3"",""16239""
","""event"",""trial"",""time""
""focus"",""3"",""16240""
","""event"",""trial"",""time""
""fullscreenenter"",""5"",""35098""
","
","545.5","","48","","","3000","1","","","images/tutyellowplanet.jpg","images/tutalien4","images/tutalien3","images/tutrocket2","images/tutalien4","images/nothing.png","2","practice","true","2","common","0","2022-12-13 02:24:28.195"
"two-step-fixation","72","348453","0.0-61.0-2.3","259","5225","13","Male","true","true","false","false","""event"",""trial"",""time""
""blur"",""3"",""16239""
""focus"",""3"",""16240""
""fullscreenenter"",""5"",""35098""
","""event"",""trial"",""time""
""blur"",""3"",""16239""
","""event"",""trial"",""time""
""focus"",""3"",""16240""
","""event"",""trial"",""time""
""fullscreenenter"",""5"",""35098""
","
","","images/earth.jpg","","","","","","","","","","","","","","fixation","","","","","",""
"d3-animate-choice","73","350853","0.0-61.0-0.4","259","5225","13","Male","true","true","false","false","""event"",""trial"",""time""
""blur"",""3"",""16239""
""focus"",""3"",""16240""
""fullscreenenter"",""5"",""35098""
","""event"",""trial"",""time""
""blur"",""3"",""16239""
","""event"",""trial"",""time""
""focus"",""3"",""16240""
","""event"",""trial"",""time""
""fullscreenenter"",""5"",""35098""
","
","388.8999999985099","","48","","","3000","1","","","images/earth.jpg","images/tutrocket2","images/tutrocket1","null","images/tutrocket2","","1","practice","null","2","","",""
"d3-animate-choice","74","353355","0.0-61.0-1.4","259","5225","13","Male","true","true","false","false","""event"",""trial"",""time""
""blur"",""3"",""16239""
""focus"",""3"",""16240""
""fullscreenenter"",""5"",""35098""
","""event"",""trial"",""time""
""blur"",""3"",""16239""
","""event"",""trial"",""time""
""focus"",""3"",""16240""
","""event"",""trial"",""time""
""fullscreenenter"",""5"",""35098""
","
","485.79999999701977","","48","","","3000","1","","","images/tutyellowplanet.jpg","images/tutalien4","images/tutalien3","images/tutrocket2","images/tutalien4","images/t.png","2","practice","true","2","common","1","2022-12-13 02:24:34.105"
"two-step-fixation","75","354365","0.0-61.0-2.4","259","5225","13","Male","true","true","false","false","""event"",""trial"",""time""
""blur"",""3"",""16239""
""focus"",""3"",""16240""
""fullscreenenter"",""5"",""35098""
","""event"",""trial"",""time""
""blur"",""3"",""16239""
","""event"",""trial"",""time""
""focus"",""3"",""16240""
","""event"",""trial"",""time""
""fullscreenenter"",""5"",""35098""
","
","","images/earth.jpg","","","","","","","","","","","","","","fixation","","","","","",""
"d3-animate-choice","76","356686","0.0-61.0-0.5","259","5225","13","Male","true","true","false","false","""event"",""trial"",""time""
""blur"",""3"",""16239""
""focus"",""3"",""16240""
""fullscreenenter"",""5"",""35098""
","""event"",""trial"",""time""
""blur"",""3"",""16239""
","""event"",""trial"",""time""
""focus"",""3"",""16240""
","""event"",""trial"",""time""
""fullscreenenter"",""5"",""35098""
","
","304.80000000447035","","49","","","3000","1","","","images/earth.jpg","images/tutrocket2","images/tutrocket1","null","images/tutrocket1","","1","practice","null","1","","",""
"d3-animate-choice","77","359365","0.0-61.0-1.5","259","5225","13","Male","true","true","false","false","""event"",""trial"",""time""
""blur"",""3"",""16239""
""focus"",""3"",""16240""
""fullscreenenter"",""5"",""35098""
","""event"",""trial"",""time""
""blur"",""3"",""16239""
","""event"",""trial"",""time""
""focus"",""3"",""16240""
","""event"",""trial"",""time""
""fullscreenenter"",""5"",""35098""
","
","665.8999999985099","","49","","","3000","1","","","images/tutgreenplanet.jpg","images/tutalien2","images/tutalien1","images/tutrocket1","images/tutalien1","images/nothing.png","2","practice","true","1","common","0","2022-12-13 02:24:40.115"
"two-step-fixation","78","360373","0.0-61.0-2.5","259","5225","13","Male","true","true","false","false","""event"",""trial"",""time""
""blur"",""3"",""16239""
""focus"",""3"",""16240""
""fullscreenenter"",""5"",""35098""
","""event"",""trial"",""time""
""blur"",""3"",""16239""
","""event"",""trial"",""time""
""focus"",""3"",""16240""
","""event"",""trial"",""time""
""fullscreenenter"",""5"",""35098""
","
","","images/earth.jpg","","","","","","","","","","","","","","fixation","","","","","",""
"d3-animate-choice","79","362589","0.0-61.0-0.6","259","5225","13","Male","true","true","false","false","""event"",""trial"",""time""
""blur"",""3"",""16239""
""focus"",""3"",""16240""
""fullscreenenter"",""5"",""35098""
","""event"",""trial"",""time""
""blur"",""3"",""16239""
","""event"",""trial"",""time""
""focus"",""3"",""16240""
","""event"",""trial"",""time""
""fullscreenenter"",""5"",""35098""
","
","201.20000000298023","","48","","","3000","1","","","images/earth.jpg","images/tutrocket2","images/tutrocket1","null","images/tutrocket2","","1","practice","null","2","","",""
"d3-animate-choice","80","365021","0.0-61.0-1.6","259","5225","13","Male","true","true","false","false","""event"",""trial"",""time""
""blur"",""3"",""16239""
""focus"",""3"",""16240""
""fullscreenenter"",""5"",""35098""
","""event"",""trial"",""time""
""blur"",""3"",""16239""
","""event"",""trial"",""time""
""focus"",""3"",""16240""
","""event"",""trial"",""time""
""fullscreenenter"",""5"",""35098""
","
","423.29999999701977","","48","","","3000","1","","","images/tutyellowplanet.jpg","images/tutalien4","images/tutalien3","images/tutrocket2","images/tutalien4","images/t.png","2","practice","true","2","common","1","2022-12-13 02:24:45.771"
"two-step-fixation","81","366029","0.0-61.0-2.6","259","5225","13","Male","true","true","false","false","""event"",""trial"",""time""
""blur"",""3"",""16239""
""focus"",""3"",""16240""
""fullscreenenter"",""5"",""35098""
","""event"",""trial"",""time""
""blur"",""3"",""16239""
","""event"",""trial"",""time""
""focus"",""3"",""16240""
","""event"",""trial"",""time""
""fullscreenenter"",""5"",""35098""
","
","","images/earth.jpg","","","","","","","","","","","","","","fixation","","","","","",""
"d3-animate-choice","82","368509","0.0-61.0-0.7","259","5225","13","Male","true","true","false","false","""event"",""trial"",""time""
""blur"",""3"",""16239""
""focus"",""3"",""16240""
""fullscreenenter"",""5"",""35098""
","""event"",""trial"",""time""
""blur"",""3"",""16239""
","""event"",""trial"",""time""
""focus"",""3"",""16240""
","""event"",""trial"",""time""
""fullscreenenter"",""5"",""35098""
","
","468.80000000447035","","48","","","3000","1","","","images/earth.jpg","images/tutrocket2","images/tutrocket1","null","images/tutrocket2","","1","practice","null","2","","",""
"d3-animate-choice","83","371173","0.0-61.0-1.7","259","5225","13","Male","true","true","false","false","""event"",""trial"",""time""
""blur"",""3"",""16239""
""focus"",""3"",""16240""
""fullscreenenter"",""5"",""35098""
","""event"",""trial"",""time""
""blur"",""3"",""16239""
","""event"",""trial"",""time""
""focus"",""3"",""16240""
","""event"",""trial"",""time""
""fullscreenenter"",""5"",""35098""
","
","655.2000000029802","","48","","","3000","1","","","images/tutyellowplanet.jpg","images/tutalien4","images/tutalien3","images/tutrocket2","images/tutalien4","images/t.png","2","practice","true","2","common","1","2022-12-13 02:24:51.923"
"two-step-fixation","84","372181","0.0-61.0-2.7","259","5225","13","Male","true","true","false","false","""event"",""trial"",""time""
""blur"",""3"",""16239""
""focus"",""3"",""16240""
""fullscreenenter"",""5"",""35098""
","""event"",""trial"",""time""
""blur"",""3"",""16239""
","""event"",""trial"",""time""
""focus"",""3"",""16240""
","""event"",""trial"",""time""
""fullscreenenter"",""5"",""35098""
","
","","images/earth.jpg","","","","","","","","","","","","","","fixation","","","","","",""
"d3-animate-choice","85","374589","0.0-61.0-0.8","259","5225","13","Male","true","true","false","false","""event"",""trial"",""time""
""blur"",""3"",""16239""
""focus"",""3"",""16240""
""fullscreenenter"",""5"",""35098""
","""event"",""trial"",""time""
""blur"",""3"",""16239""
","""event"",""trial"",""time""
""focus"",""3"",""16240""
","""event"",""trial"",""time""
""fullscreenenter"",""5"",""35098""
","
","398.5","","49","","","3000","1","","","images/earth.jpg","images/tutrocket2","images/tutrocket1","null","images/tutrocket1","","1","practice","null","1","","",""
"d3-animate-choice","86","377037","0.0-61.0-1.8","259","5225","13","Male","true","true","false","false","""event"",""trial"",""time""
""blur"",""3"",""16239""
""focus"",""3"",""16240""
""fullscreenenter"",""5"",""35098""
","""event"",""trial"",""time""
""blur"",""3"",""16239""
","""event"",""trial"",""time""
""focus"",""3"",""16240""
","""event"",""trial"",""time""
""fullscreenenter"",""5"",""35098""
","
","435.6000000014901","","49","","","3000","1","","","images/tutgreenplanet.jpg","images/tutalien2","images/tutalien1","images/tutrocket1","images/tutalien1","images/nothing.png","2","practice","true","1","common","0","2022-12-13 02:24:57.788"
"two-step-fixation","87","378045","0.0-61.0-2.8","259","5225","13","Male","true","true","false","false","""event"",""trial"",""time""
""blur"",""3"",""16239""
""focus"",""3"",""16240""
""fullscreenenter"",""5"",""35098""
","""event"",""trial"",""time""
""blur"",""3"",""16239""
","""event"",""trial"",""time""
""focus"",""3"",""16240""
","""event"",""trial"",""time""
""fullscreenenter"",""5"",""35098""
","
","","images/earth.jpg","","","","","","","","","","","","","","fixation","","","","","",""
"d3-animate-choice","88","380381","0.0-61.0-0.9","259","5225","13","Male","true","true","false","false","""event"",""trial"",""time""
""blur"",""3"",""16239""
""focus"",""3"",""16240""
""fullscreenenter"",""5"",""35098""
","""event"",""trial"",""time""
""blur"",""3"",""16239""
","""event"",""trial"",""time""
""focus"",""3"",""16240""
","""event"",""trial"",""time""
""fullscreenenter"",""5"",""35098""
","
","321.70000000298023","","49","","","3000","1","","","images/earth.jpg","images/tutrocket2","images/tutrocket1","null","images/tutrocket1","","1","practice","null","1","","",""
"d3-animate-choice","89","382805","0.0-61.0-1.9","259","5225","13","Male","true","true","false","false","""event"",""trial"",""time""
""blur"",""3"",""16239""
""focus"",""3"",""16240""
""fullscreenenter"",""5"",""35098""
","""event"",""trial"",""time""
""blur"",""3"",""16239""
","""event"",""trial"",""time""
""focus"",""3"",""16240""
","""event"",""trial"",""time""
""fullscreenenter"",""5"",""35098""
","
","413.3999999985099","","48","","","3000","1","","","images/tutyellowplanet.jpg","images/tutalien4","images/tutalien3","images/tutrocket1","images/tutalien4","images/nothing.png","2","practice","false","2","rare","0","2022-12-13 02:25:03.555"
"two-step-fixation","90","383813","0.0-61.0-2.9","259","5225","13","Male","true","true","false","false","""event"",""trial"",""time""
""blur"",""3"",""16239""
""focus"",""3"",""16240""
""fullscreenenter"",""5"",""35098""
","""event"",""trial"",""time""
""blur"",""3"",""16239""
","""event"",""trial"",""time""
""focus"",""3"",""16240""
","""event"",""trial"",""time""
""fullscreenenter"",""5"",""35098""
","
","","images/earth.jpg","","","","","","","","","","","","","","fixation","","","","","",""
"d3-animate-choice","91","386069","0.0-61.0-0.10","259","5225","13","Male","true","true","false","false","""event"",""trial"",""time""
""blur"",""3"",""16239""
""focus"",""3"",""16240""
""fullscreenenter"",""5"",""35098""
","""event"",""trial"",""time""
""blur"",""3"",""16239""
","""event"",""trial"",""time""
""focus"",""3"",""16240""
","""event"",""trial"",""time""
""fullscreenenter"",""5"",""35098""
","
","248.5","","49","","","3000","1","","","images/earth.jpg","images/tutrocket2","images/tutrocket1","null","images/tutrocket1","","1","practice","null","1","","",""
"d3-animate-choice","92","389341","0.0-61.0-1.10","259","5225","13","Male","true","true","false","false","""event"",""trial"",""time""
""blur"",""3"",""16239""
""focus"",""3"",""16240""
""fullscreenenter"",""5"",""35098""
","""event"",""trial"",""time""
""blur"",""3"",""16239""
","""event"",""trial"",""time""
""focus"",""3"",""16240""
","""event"",""trial"",""time""
""fullscreenenter"",""5"",""35098""
","
","1260.6000000014901","","48","","","3000","1","","","images/tutyellowplanet.jpg","images/tutalien4","images/tutalien3","images/tutrocket1","images/tutalien4","images/nothing.png","2","practice","false","2","rare","0","2022-12-13 02:25:10.091"
"two-step-fixation","93","390349","0.0-61.0-2.10","259","5225","13","Male","true","true","false","false","""event"",""trial"",""time""
""blur"",""3"",""16239""
""focus"",""3"",""16240""
""fullscreenenter"",""5"",""35098""
","""event"",""trial"",""time""
""blur"",""3"",""16239""
","""event"",""trial"",""time""
""focus"",""3"",""16240""
","""event"",""trial"",""time""
""fullscreenenter"",""5"",""35098""
","
","","images/earth.jpg","","","","","","","","","","","","","","fixation","","","","","",""
"d3-animate-choice","94","392707","0.0-61.0-0.11","259","5225","13","Male","true","true","false","false","""event"",""trial"",""time""
""blur"",""3"",""16239""
""focus"",""3"",""16240""
""fullscreenenter"",""5"",""35098""
","""event"",""trial"",""time""
""blur"",""3"",""16239""
","""event"",""trial"",""time""
""focus"",""3"",""16240""
","""event"",""trial"",""time""
""fullscreenenter"",""5"",""35098""
","
","346.6000000014901","","49","","","3000","1","","","images/earth.jpg","images/tutrocket2","images/tutrocket1","null","images/tutrocket1","","1","practice","null","1","","",""
"d3-animate-choice","95","395589","0.0-61.0-1.11","259","5225","13","Male","true","true","false","false","""event"",""trial"",""time""
""blur"",""3"",""16239""
""focus"",""3"",""16240""
""fullscreenenter"",""5"",""35098""
","""event"",""trial"",""time""
""blur"",""3"",""16239""
","""event"",""trial"",""time""
""focus"",""3"",""16240""
","""event"",""trial"",""time""
""fullscreenenter"",""5"",""35098""
","
","872.0999999940395","","49","","","3000","1","","","images/tutyellowplanet.jpg","images/tutalien4","images/tutalien3","images/tutrocket1","images/tutalien3","images/nothing.png","2","practice","false","1","rare","0","2022-12-13 02:25:16.339"
"two-step-fixation","96","396597","0.0-61.0-2.11","259","5225","13","Male","true","true","false","false","""event"",""trial"",""time""
""blur"",""3"",""16239""
""focus"",""3"",""16240""
""fullscreenenter"",""5"",""35098""
","""event"",""trial"",""time""
""blur"",""3"",""16239""
","""event"",""trial"",""time""
""focus"",""3"",""16240""
","""event"",""trial"",""time""
""fullscreenenter"",""5"",""35098""
","
","","images/earth.jpg","","","","","","","","","","","","","","fixation","","","","","",""
"d3-animate-choice","97","398958","0.0-61.0-0.12","259","5225","13","Male","true","true","false","false","""event"",""trial"",""time""
""blur"",""3"",""16239""
""focus"",""3"",""16240""
""fullscreenenter"",""5"",""35098""
","""event"",""trial"",""time""
""blur"",""3"",""16239""
","""event"",""trial"",""time""
""focus"",""3"",""16240""
","""event"",""trial"",""time""
""fullscreenenter"",""5"",""35098""
","
","352.59999999403954","","48","","","3000","1","","","images/earth.jpg","images/tutrocket2","images/tutrocket1","null","images/tutrocket2","","1","practice","null","2","","",""
"d3-animate-choice","98","401845","0.0-61.0-1.12","259","5225","13","Male","true","true","false","false","""event"",""trial"",""time""
""blur"",""3"",""16239""
""focus"",""3"",""16240""
""fullscreenenter"",""5"",""35098""
","""event"",""trial"",""time""
""blur"",""3"",""16239""
","""event"",""trial"",""time""
""focus"",""3"",""16240""
","""event"",""trial"",""time""
""fullscreenenter"",""5"",""35098""
","
","873.6999999955297","","49","","","3000","1","","","images/tutyellowplanet.jpg","images/tutalien4","images/tutalien3","images/tutrocket2","images/tutalien3","images/nothing.png","2","practice","true","1","common","0","2022-12-13 02:25:22.595"
"two-step-fixation","99","402854","0.0-61.0-2.12","259","5225","13","Male","true","true","false","false","""event"",""trial"",""time""
""blur"",""3"",""16239""
""focus"",""3"",""16240""
""fullscreenenter"",""5"",""35098""
","""event"",""trial"",""time""
""blur"",""3"",""16239""
","""event"",""trial"",""time""
""focus"",""3"",""16240""
","""event"",""trial"",""time""
""fullscreenenter"",""5"",""35098""
","
","","images/earth.jpg","","","","","","","","","","","","","","fixation","","","","","",""
"d3-animate-choice","100","405813","0.0-61.0-0.13","259","5225","13","Male","true","true","false","false","""event"",""trial"",""time""
""blur"",""3"",""16239""
""focus"",""3"",""16240""
""fullscreenenter"",""5"",""35098""
","""event"",""trial"",""time""
""blur"",""3"",""16239""
","""event"",""trial"",""time""
""focus"",""3"",""16240""
","""event"",""trial"",""time""
""fullscreenenter"",""5"",""35098""
","
","949.8999999985099","","49","","","3000","1","","","images/earth.jpg","images/tutrocket2","images/tutrocket1","null","images/tutrocket1","","1","practice","null","1","","",""
"d3-animate-choice","101","408813","0.0-61.0-1.13","259","5225","13","Male","true","true","false","false","""event"",""trial"",""time""
""blur"",""3"",""16239""
""focus"",""3"",""16240""
""fullscreenenter"",""5"",""35098""
","""event"",""trial"",""time""
""blur"",""3"",""16239""
","""event"",""trial"",""time""
""focus"",""3"",""16240""
","""event"",""trial"",""time""
""fullscreenenter"",""5"",""35098""
","
","987.7999999970198","","48","","","3000","1","","","images/tutyellowplanet.jpg","images/tutalien4","images/tutalien3","images/tutrocket1","images/tutalien4","images/t.png","2","practice","false","2","rare","1","2022-12-13 02:25:29.563"
"two-step-fixation","102","409822","0.0-61.0-2.13","259","5225","13","Male","true","true","false","false","""event"",""trial"",""time""
""blur"",""3"",""16239""
""focus"",""3"",""16240""
""fullscreenenter"",""5"",""35098""
","""event"",""trial"",""time""
""blur"",""3"",""16239""
","""event"",""trial"",""time""
""focus"",""3"",""16240""
","""event"",""trial"",""time""
""fullscreenenter"",""5"",""35098""
","
","","images/earth.jpg","","","","","","","","","","","","","","fixation","","","","","",""
"d3-animate-choice","103","412149","0.0-61.0-0.14","259","5225","13","Male","true","true","false","false","""event"",""trial"",""time""
""blur"",""3"",""16239""
""focus"",""3"",""16240""
""fullscreenenter"",""5"",""35098""
","""event"",""trial"",""time""
""blur"",""3"",""16239""
","""event"",""trial"",""time""
""focus"",""3"",""16240""
","""event"",""trial"",""time""
""fullscreenenter"",""5"",""35098""
","
","314.19999999552965","","49","","","3000","1","","","images/earth.jpg","images/tutrocket2","images/tutrocket1","null","images/tutrocket1","","1","practice","null","1","","",""
"d3-animate-choice","104","415445","0.0-61.0-1.14","259","5225","13","Male","true","true","false","false","""event"",""trial"",""time""
""blur"",""3"",""16239""
""focus"",""3"",""16240""
""fullscreenenter"",""5"",""35098""
","""event"",""trial"",""time""
""blur"",""3"",""16239""
","""event"",""trial"",""time""
""focus"",""3"",""16240""
","""event"",""trial"",""time""
""fullscreenenter"",""5"",""35098""
","
","1285.4000000059605","","49","","","3000","1","","","images/tutgreenplanet.jpg","images/tutalien2","images/tutalien1","images/tutrocket1","images/tutalien1","images/t.png","2","practice","true","1","common","1","2022-12-13 02:25:36.195"
"two-step-fixation","105","416453","0.0-61.0-2.14","259","5225","13","Male","true","true","false","false","""event"",""trial"",""time""
""blur"",""3"",""16239""
""focus"",""3"",""16240""
""fullscreenenter"",""5"",""35098""
","""event"",""trial"",""time""
""blur"",""3"",""16239""
","""event"",""trial"",""time""
""focus"",""3"",""16240""
","""event"",""trial"",""time""
""fullscreenenter"",""5"",""35098""
","
","","images/earth.jpg","","","","","","","","","","","","","","fixation","","","","","",""
"d3-animate-choice","106","418764","0.0-61.0-0.15","259","5225","13","Male","true","true","false","false","""event"",""trial"",""time""
""blur"",""3"",""16239""
""focus"",""3"",""16240""
""fullscreenenter"",""5"",""35098""
","""event"",""trial"",""time""
""blur"",""3"",""16239""
","""event"",""trial"",""time""
""focus"",""3"",""16240""
","""event"",""trial"",""time""
""fullscreenenter"",""5"",""35098""
","
","304.19999999552965","","49","","","3000","1","","","images/earth.jpg","images/tutrocket2","images/tutrocket1","null","images/tutrocket1","","1","practice","null","1","","",""
"d3-animate-choice","107","421773","0.0-61.0-1.15","259","5225","13","Male","true","true","false","false","""event"",""trial"",""time""
""blur"",""3"",""16239""
""focus"",""3"",""16240""
""fullscreenenter"",""5"",""35098""
","""event"",""trial"",""time""
""blur"",""3"",""16239""
","""event"",""trial"",""time""
""focus"",""3"",""16240""
","""event"",""trial"",""time""
""fullscreenenter"",""5"",""35098""
","
","997.7999999970198","","48","","","3000","1","","","images/tutyellowplanet.jpg","images/tutalien4","images/tutalien3","images/tutrocket1","images/tutalien4","images/t.png","2","practice","false","2","rare","1","2022-12-13 02:25:42.523"
"two-step-fixation","108","422781","0.0-61.0-2.15","259","5225","13","Male","true","true","false","false","""event"",""trial"",""time""
""blur"",""3"",""16239""
""focus"",""3"",""16240""
""fullscreenenter"",""5"",""35098""
","""event"",""trial"",""time""
""blur"",""3"",""16239""
","""event"",""trial"",""time""
""focus"",""3"",""16240""
","""event"",""trial"",""time""
""fullscreenenter"",""5"",""35098""
","
","","images/earth.jpg","","","","","","","","","","","","","","fixation","","","","","",""
"d3-animate-choice","109","425493","0.0-61.0-0.16","259","5225","13","Male","true","true","false","false","""event"",""trial"",""time""
""blur"",""3"",""16239""
""focus"",""3"",""16240""
""fullscreenenter"",""5"",""35098""
","""event"",""trial"",""time""
""blur"",""3"",""16239""
","""event"",""trial"",""time""
""focus"",""3"",""16240""
","""event"",""trial"",""time""
""fullscreenenter"",""5"",""35098""
","
","697.6000000014901","","49","","","3000","1","","","images/earth.jpg","images/tutrocket2","images/tutrocket1","null","images/tutrocket1","","1","practice","null","1","","",""
"d3-animate-choice","110","428037","0.0-61.0-1.16","259","5225","13","Male","true","true","false","false","""event"",""trial"",""time""
""blur"",""3"",""16239""
""focus"",""3"",""16240""
""fullscreenenter"",""5"",""35098""
","""event"",""trial"",""time""
""blur"",""3"",""16239""
","""event"",""trial"",""time""
""focus"",""3"",""16240""
","""event"",""trial"",""time""
""fullscreenenter"",""5"",""35098""
","
","534.6000000014901","","49","","","3000","1","","","images/tutgreenplanet.jpg","images/tutalien2","images/tutalien1","images/tutrocket1","images/tutalien1","images/nothing.png","2","practice","true","1","common","0","2022-12-13 02:25:48.787"
"two-step-fixation","111","429044","0.0-61.0-2.16","259","5225","13","Male","true","true","false","false","""event"",""trial"",""time""
""blur"",""3"",""16239""
""focus"",""3"",""16240""
""fullscreenenter"",""5"",""35098""
","""event"",""trial"",""time""
""blur"",""3"",""16239""
","""event"",""trial"",""time""
""focus"",""3"",""16240""
","""event"",""trial"",""time""
""fullscreenenter"",""5"",""35098""
","
","","images/earth.jpg","","","","","","","","","","","","","","fixation","","","","","",""
"d3-animate-choice","112","431629","0.0-61.0-0.17","259","5225","13","Male","true","true","false","false","""event"",""trial"",""time""
""blur"",""3"",""16239""
""focus"",""3"",""16240""
""fullscreenenter"",""5"",""35098""
","""event"",""trial"",""time""
""blur"",""3"",""16239""
","""event"",""trial"",""time""
""focus"",""3"",""16240""
","""event"",""trial"",""time""
""fullscreenenter"",""5"",""35098""
","
","573.3999999985099","","49","","","3000","1","","","images/earth.jpg","images/tutrocket2","images/tutrocket1","null","images/tutrocket1","","1","practice","null","1","","",""
"d3-animate-choice","113","434077","0.0-61.0-1.17","259","5225","13","Male","true","true","false","false","""event"",""trial"",""time""
""blur"",""3"",""16239""
""focus"",""3"",""16240""
""fullscreenenter"",""5"",""35098""
","""event"",""trial"",""time""
""blur"",""3"",""16239""
","""event"",""trial"",""time""
""focus"",""3"",""16240""
","""event"",""trial"",""time""
""fullscreenenter"",""5"",""35098""
","
","440.8999999985099","","48","","","3000","1","","","images/tutyellowplanet.jpg","images/tutalien4","images/tutalien3","images/tutrocket1","images/tutalien4","images/nothing.png","2","practice","false","2","rare","0","2022-12-13 02:25:54.827"
"two-step-fixation","114","435085","0.0-61.0-2.17","259","5225","13","Male","true","true","false","false","""event"",""trial"",""time""
""blur"",""3"",""16239""
""focus"",""3"",""16240""
""fullscreenenter"",""5"",""35098""
","""event"",""trial"",""time""
""blur"",""3"",""16239""
","""event"",""trial"",""time""
""focus"",""3"",""16240""
","""event"",""trial"",""time""
""fullscreenenter"",""5"",""35098""
","
","","images/earth.jpg","","","","","","","","","","","","","","fixation","","","","","",""
"d3-animate-choice","115","437405","0.0-61.0-0.18","259","5225","13","Male","true","true","false","false","""event"",""trial"",""time""
""blur"",""3"",""16239""
""focus"",""3"",""16240""
""fullscreenenter"",""5"",""35098""
","""event"",""trial"",""time""
""blur"",""3"",""16239""
","""event"",""trial"",""time""
""focus"",""3"",""16240""
","""event"",""trial"",""time""
""fullscreenenter"",""5"",""35098""
","
","309.8999999985099","","49","","","3000","1","","","images/earth.jpg","images/tutrocket2","images/tutrocket1","null","images/tutrocket1","","1","practice","null","1","","",""
"d3-animate-choice","116","440156","0.0-61.0-1.18","259","5225","13","Male","true","true","false","false","""event"",""trial"",""time""
""blur"",""3"",""16239""
""focus"",""3"",""16240""
""fullscreenenter"",""5"",""35098""
","""event"",""trial"",""time""
""blur"",""3"",""16239""
","""event"",""trial"",""time""
""focus"",""3"",""16240""
","""event"",""trial"",""time""
""fullscreenenter"",""5"",""35098""
","
","739.8000000044703","","49","","","3000","1","","","images/tutyellowplanet.jpg","images/tutalien4","images/tutalien3","images/tutrocket1","images/tutalien3","images/nothing.png","2","practice","false","1","rare","0","2022-12-13 02:26:00.906"
"two-step-fixation","117","441165","0.0-61.0-2.18","259","5225","13","Male","true","true","false","false","""event"",""trial"",""time""
""blur"",""3"",""16239""
""focus"",""3"",""16240""
""fullscreenenter"",""5"",""35098""
","""event"",""trial"",""time""
""blur"",""3"",""16239""
","""event"",""trial"",""time""
""focus"",""3"",""16240""
","""event"",""trial"",""time""
""fullscreenenter"",""5"",""35098""
","
","","images/earth.jpg","","","","","","","","","","","","","","fixation","","","","","",""
"d3-animate-choice","118","443861","0.0-61.0-0.19","259","5225","13","Male","true","true","false","false","""event"",""trial"",""time""
""blur"",""3"",""16239""
""focus"",""3"",""16240""
""fullscreenenter"",""5"",""35098""
","""event"",""trial"",""time""
""blur"",""3"",""16239""
","""event"",""trial"",""time""
""focus"",""3"",""16240""
","""event"",""trial"",""time""
""fullscreenenter"",""5"",""35098""
","
","685.2999999970198","","49","","","3000","1","","","images/earth.jpg","images/tutrocket2","images/tutrocket1","null","images/tutrocket1","","1","practice","null","1","","",""
"d3-animate-choice","119","446470","0.0-61.0-1.19","259","5225","13","Male","true","true","false","false","""event"",""trial"",""time""
""blur"",""3"",""16239""
""focus"",""3"",""16240""
""fullscreenenter"",""5"",""35098""
","""event"",""trial"",""time""
""blur"",""3"",""16239""
","""event"",""trial"",""time""
""focus"",""3"",""16240""
","""event"",""trial"",""time""
""fullscreenenter"",""5"",""35098""
","
","603.3999999985099","","49","","","3000","1","","","images/tutgreenplanet.jpg","images/tutalien2","images/tutalien1","images/tutrocket1","images/tutalien1","images/nothing.png","2","practice","true","1","common","0","2022-12-13 02:26:07.220"
"two-step-fixation","120","447477","0.0-61.0-2.19","259","5225","13","Male","true","true","false","false","""event"",""trial"",""time""
""blur"",""3"",""16239""
""focus"",""3"",""16240""
""fullscreenenter"",""5"",""35098""
","""event"",""trial"",""time""
""blur"",""3"",""16239""
","""event"",""trial"",""time""
""focus"",""3"",""16240""
","""event"",""trial"",""time""
""fullscreenenter"",""5"",""35098""
","
","","images/earth.jpg","","","","","","","","","","","","","","fixation","","","","","",""
"d3-instructions","121","451095","0.0-62.0","259","5225","13","Male","true","true","false","false","""event"",""trial"",""time""
""blur"",""3"",""16239""
""focus"",""3"",""16240""
""fullscreenenter"",""5"",""35098""
","""event"",""trial"",""time""
""blur"",""3"",""16239""
","""event"",""trial"",""time""
""focus"",""3"",""16240""
","""event"",""trial"",""time""
""fullscreenenter"",""5"",""35098""
","
","","","","","","","","","","","","","","","","","","","","","",""
"audio-keyboard-response","122","454038","0.0-63.0","259","5225","13","Male","true","true","false","false","""event"",""trial"",""time""
""blur"",""3"",""16239""
""focus"",""3"",""16240""
""fullscreenenter"",""5"",""35098""
","""event"",""trial"",""time""
""blur"",""3"",""16239""
","""event"",""trial"",""time""
""focus"",""3"",""16240""
","""event"",""trial"",""time""
""fullscreenenter"",""5"",""35098""
","
","2944","audio/instructions/treasure_feedback.wav","32","","","","","","","","","","","","","","","","","","",""
"d3-instructions","123","466672","0.0-64.0","259","5225","13","Male","true","true","false","false","""event"",""trial"",""time""
""blur"",""3"",""16239""
""focus"",""3"",""16240""
""fullscreenenter"",""5"",""35098""
","""event"",""trial"",""time""
""blur"",""3"",""16239""
","""event"",""trial"",""time""
""focus"",""3"",""16240""
","""event"",""trial"",""time""
""fullscreenenter"",""5"",""35098""
","
","","","","","","","","","","","","","","","","","","","","","",""
"d3-instructions","124","476795","0.0-65.0","259","5225","13","Male","true","true","false","false","""event"",""trial"",""time""
""blur"",""3"",""16239""
""focus"",""3"",""16240""
""fullscreenenter"",""5"",""35098""
","""event"",""trial"",""time""
""blur"",""3"",""16239""
","""event"",""trial"",""time""
""focus"",""3"",""16240""
","""event"",""trial"",""time""
""fullscreenenter"",""5"",""35098""
","
","","","","","","","","","","","","","","","","","","","","","",""
"d3-instructions","125","487249","0.0-66.0","259","5225","13","Male","true","true","false","false","""event"",""trial"",""time""
""blur"",""3"",""16239""
""focus"",""3"",""16240""
""fullscreenenter"",""5"",""35098""
","""event"",""trial"",""time""
""blur"",""3"",""16239""
","""event"",""trial"",""time""
""focus"",""3"",""16240""
","""event"",""trial"",""time""
""fullscreenenter"",""5"",""35098""
","
","","","","","","","","","","","","","","","","","","","","","",""
"d3-instructions","126","498765","0.0-67.0","259","5225","13","Male","true","true","false","false","""event"",""trial"",""time""
""blur"",""3"",""16239""
""focus"",""3"",""16240""
""fullscreenenter"",""5"",""35098""
","""event"",""trial"",""time""
""blur"",""3"",""16239""
","""event"",""trial"",""time""
""focus"",""3"",""16240""
","""event"",""trial"",""time""
""fullscreenenter"",""5"",""35098""
","
","","","","","","","","","","","","","","","","","","","","","",""
"d3-instructions","127","502353","0.0-68.0","259","5225","13","Male","true","true","false","false","""event"",""trial"",""time""
""blur"",""3"",""16239""
""focus"",""3"",""16240""
""fullscreenenter"",""5"",""35098""
","""event"",""trial"",""time""
""blur"",""3"",""16239""
","""event"",""trial"",""time""
""focus"",""3"",""16240""
","""event"",""trial"",""time""
""fullscreenenter"",""5"",""35098""
","
","","","","","","","","","","","","","","","","","","","","","",""
"instructions-quiz","128","507403","0.0-69.0","259","5225","13","Male","true","true","false","false","""event"",""trial"",""time""
""blur"",""3"",""16239""
""focus"",""3"",""16240""
""fullscreenenter"",""5"",""35098""
","""event"",""trial"",""time""
""blur"",""3"",""16239""
","""event"",""trial"",""time""
""focus"",""3"",""16240""
","""event"",""trial"",""time""
""fullscreenenter"",""5"",""35098""
","
","5044.5","audio/quiz/Q1_Prompt.wav","","1","","","","","","","","","","","","","","","","","",""
"audio-keyboard-response","129","509011","0.0-70.0","259","5225","13","Male","true","true","false","false","""event"",""trial"",""time""
""blur"",""3"",""16239""
""focus"",""3"",""16240""
""fullscreenenter"",""5"",""35098""
","""event"",""trial"",""time""
""blur"",""3"",""16239""
","""event"",""trial"",""time""
""focus"",""3"",""16240""
","""event"",""trial"",""time""
""fullscreenenter"",""5"",""35098""
","
","1611","audio/quiz/Q1_Correct.wav","32","","","","","","","","","","","","","","","","","","",""
"instructions-quiz","130","518224","0.0-71.0","259","5225","13","Male","true","true","false","false","""event"",""trial"",""time""
""blur"",""3"",""16239""
""focus"",""3"",""16240""
""fullscreenenter"",""5"",""35098""
","""event"",""trial"",""time""
""blur"",""3"",""16239""
","""event"",""trial"",""time""
""focus"",""3"",""16240""
","""event"",""trial"",""time""
""fullscreenenter"",""5"",""35098""
","
","9209","audio/quiz/Q2_Prompt.wav","","1","","","","","","","","","","","","","","","","","",""
"audio-keyboard-response","131","520864","0.0-72.0","259","5225","13","Male","true","true","false","false","""event"",""trial"",""time""
""blur"",""3"",""16239""
""focus"",""3"",""16240""
""fullscreenenter"",""5"",""35098""
","""event"",""trial"",""time""
""blur"",""3"",""16239""
","""event"",""trial"",""time""
""focus"",""3"",""16240""
","""event"",""trial"",""time""
""fullscreenenter"",""5"",""35098""
","
","2635","audio/quiz/Q2_Incorrect.wav","32","","","","","","","","","","","","","","","","","","",""
"instructions-quiz","132","525766","0.0-73.0","259","5225","13","Male","true","true","false","false","""event"",""trial"",""time""
""blur"",""3"",""16239""
""focus"",""3"",""16240""
""fullscreenenter"",""5"",""35098""
","""event"",""trial"",""time""
""blur"",""3"",""16239""
","""event"",""trial"",""time""
""focus"",""3"",""16240""
","""event"",""trial"",""time""
""fullscreenenter"",""5"",""35098""
","
","4897.60000000149","audio/quiz/Q3_Prompt.wav","","1","","","","","","","","","","","","","","","","","",""
"audio-keyboard-response","133","526544","0.0-74.0","259","5225","13","Male","true","true","false","false","""event"",""trial"",""time""
""blur"",""3"",""16239""
""focus"",""3"",""16240""
""fullscreenenter"",""5"",""35098""
","""event"",""trial"",""time""
""blur"",""3"",""16239""
","""event"",""trial"",""time""
""focus"",""3"",""16240""
","""event"",""trial"",""time""
""fullscreenenter"",""5"",""35098""
","
","768","audio/quiz/Q3_Correct.wav","32","","","","","","","","","","","","","","","","","","",""
"d3-instructions","134","531480","0.0-75.0","259","5225","13","Male","true","true","false","false","""event"",""trial"",""time""
""blur"",""3"",""16239""
""focus"",""3"",""16240""
""fullscreenenter"",""5"",""35098""
","""event"",""trial"",""time""
""blur"",""3"",""16239""
","""event"",""trial"",""time""
""focus"",""3"",""16240""
","""event"",""trial"",""time""
""fullscreenenter"",""5"",""35098""
","
","","","","","","","","","","","","","","","","","","","","","",""
"d3-animate-choice","135","534365","0.0-76.0-0.0","259","5225","13","Male","true","true","false","false","""event"",""trial"",""time""
""blur"",""3"",""16239""
""focus"",""3"",""16240""
""fullscreenenter"",""5"",""35098""
","""event"",""trial"",""time""
""blur"",""3"",""16239""
","""event"",""trial"",""time""
""focus"",""3"",""16240""
","""event"",""trial"",""time""
""fullscreenenter"",""5"",""35098""
","
","874.3000000044703","","48","","","3000","1","","","images/earth.jpg","images/rocket2","images/rocket1","null","images/rocket2","","1","real","null","2","","",""
"d3-animate-choice","136","536678","0.0-76.0-1.0","259","5225","13","Male","true","true","false","false","""event"",""trial"",""time""
""blur"",""3"",""16239""
""focus"",""3"",""16240""
""fullscreenenter"",""5"",""35098""
","""event"",""trial"",""time""
""blur"",""3"",""16239""
","""event"",""trial"",""time""
""focus"",""3"",""16240""
","""event"",""trial"",""time""
""fullscreenenter"",""5"",""35098""
","
","302.3999999985099","","49","","","3000","1","","","images/purpleplanet.jpg","images/alien4","images/alien3","images/rocket2","images/alien3","images/nothing.png","2","real","true","1","common","0","2022-12-13 02:27:37.428"
"two-step-fixation","137","537686","0.0-76.0-2.0","259","5225","13","Male","true","true","false","false","""event"",""trial"",""time""
""blur"",""3"",""16239""
""focus"",""3"",""16240""
""fullscreenenter"",""5"",""35098""
","""event"",""trial"",""time""
""blur"",""3"",""16239""
","""event"",""trial"",""time""
""focus"",""3"",""16240""
","""event"",""trial"",""time""
""fullscreenenter"",""5"",""35098""
","
","","images/earth.jpg","","","","","","","","","","","","","","fixation","","","","","",""
"d3-animate-choice","138","539974","0.0-76.0-0.1","259","5225","13","Male","true","true","false","false","""event"",""trial"",""time""
""blur"",""3"",""16239""
""focus"",""3"",""16240""
""fullscreenenter"",""5"",""35098""
","""event"",""trial"",""time""
""blur"",""3"",""16239""
","""event"",""trial"",""time""
""focus"",""3"",""16240""
","""event"",""trial"",""time""
""fullscreenenter"",""5"",""35098""
","
","278.70000000298023","","48","","","3000","1","","","images/earth.jpg","images/rocket2","images/rocket1","null","images/rocket2","","1","real","null","2","","",""
"d3-animate-choice","139","542382","0.0-76.0-1.1","259","5225","13","Male","true","true","false","false","""event"",""trial"",""time""
""blur"",""3"",""16239""
""focus"",""3"",""16240""
""fullscreenenter"",""5"",""35098""
","""event"",""trial"",""time""
""blur"",""3"",""16239""
","""event"",""trial"",""time""
""focus"",""3"",""16240""
","""event"",""trial"",""time""
""fullscreenenter"",""5"",""35098""
","
","394.69999999552965","","48","","","3000","1","","","images/purpleplanet.jpg","images/alien4","images/alien3","images/rocket2","images/alien4","images/t.png","2","real","true","2","common","1","2022-12-13 02:27:43.132"
"two-step-fixation","140","543389","0.0-76.0-2.1","259","5225","13","Male","true","true","false","false","""event"",""trial"",""time""
""blur"",""3"",""16239""
""focus"",""3"",""16240""
""fullscreenenter"",""5"",""35098""
","""event"",""trial"",""time""
""blur"",""3"",""16239""
","""event"",""trial"",""time""
""focus"",""3"",""16240""
","""event"",""trial"",""time""
""fullscreenenter"",""5"",""35098""
","
","","images/earth.jpg","","","","","","","","","","","","","","fixation","","","","","",""
"d3-animate-choice","141","545830","0.0-76.0-0.2","259","5225","13","Male","true","true","false","false","""event"",""trial"",""time""
""blur"",""3"",""16239""
""focus"",""3"",""16240""
""fullscreenenter"",""5"",""35098""
","""event"",""trial"",""time""
""blur"",""3"",""16239""
","""event"",""trial"",""time""
""focus"",""3"",""16240""
","""event"",""trial"",""time""
""fullscreenenter"",""5"",""35098""
","
","429.8999999985099","","48","","","3000","1","","","images/earth.jpg","images/rocket2","images/rocket1","null","images/rocket2","","1","real","null","2","","",""
"d3-animate-choice","142","548309","0.0-76.0-1.2","259","5225","13","Male","true","true","false","false","""event"",""trial"",""time""
""blur"",""3"",""16239""
""focus"",""3"",""16240""
""fullscreenenter"",""5"",""35098""
","""event"",""trial"",""time""
""blur"",""3"",""16239""
","""event"",""trial"",""time""
""focus"",""3"",""16240""
","""event"",""trial"",""time""
""fullscreenenter"",""5"",""35098""
","
","470.5","","48","","","3000","1","","","images/purpleplanet.jpg","images/alien4","images/alien3","images/rocket2","images/alien4","images/t.png","2","real","true","2","common","1","2022-12-13 02:27:49.060"
"two-step-fixation","143","549318","0.0-76.0-2.2","259","5225","13","Male","true","true","false","false","""event"",""trial"",""time""
""blur"",""3"",""16239""
""focus"",""3"",""16240""
""fullscreenenter"",""5"",""35098""
","""event"",""trial"",""time""
""blur"",""3"",""16239""
","""event"",""trial"",""time""
""focus"",""3"",""16240""
","""event"",""trial"",""time""
""fullscreenenter"",""5"",""35098""
","
","","images/earth.jpg","","","","","","","","","","","","","","fixation","","","","","",""
"d3-animate-choice","144","551774","0.0-76.0-0.3","259","5225","13","Male","true","true","false","false","""event"",""trial"",""time""
""blur"",""3"",""16239""
""focus"",""3"",""16240""
""fullscreenenter"",""5"",""35098""
","""event"",""trial"",""time""
""blur"",""3"",""16239""
","""event"",""trial"",""time""
""focus"",""3"",""16240""
","""event"",""trial"",""time""
""fullscreenenter"",""5"",""35098""
","
","443.3999999985099","","48","","","3000","1","","","images/earth.jpg","images/rocket2","images/rocket1","null","images/rocket2","","1","real","null","2","","",""
"d3-animate-choice","145","554334","0.0-76.0-1.3","259","5225","13","Male","true","true","false","false","""event"",""trial"",""time""
""blur"",""3"",""16239""
""focus"",""3"",""16240""
""fullscreenenter"",""5"",""35098""
","""event"",""trial"",""time""
""blur"",""3"",""16239""
","""event"",""trial"",""time""
""focus"",""3"",""16240""
","""event"",""trial"",""time""
""fullscreenenter"",""5"",""35098""
","
","544.6999999955297","","48","","","3000","1","","","images/purpleplanet.jpg","images/alien4","images/alien3","images/rocket2","images/alien4","images/t.png","2","real","true","2","common","1","2022-12-13 02:27:55.084"
"two-step-fixation","146","555342","0.0-76.0-2.3","259","5225","13","Male","true","true","false","false","""event"",""trial"",""time""
""blur"",""3"",""16239""
""focus"",""3"",""16240""
""fullscreenenter"",""5"",""35098""
","""event"",""trial"",""time""
""blur"",""3"",""16239""
","""event"",""trial"",""time""
""focus"",""3"",""16240""
","""event"",""trial"",""time""
""fullscreenenter"",""5"",""35098""
","
","","images/earth.jpg","","","","","","","","","","","","","","fixation","","","","","",""
"d3-animate-choice","147","557748","0.0-76.0-0.4","259","5225","13","Male","true","true","false","false","""event"",""trial"",""time""
""blur"",""3"",""16239""
""focus"",""3"",""16240""
""fullscreenenter"",""5"",""35098""
","""event"",""trial"",""time""
""blur"",""3"",""16239""
","""event"",""trial"",""time""
""focus"",""3"",""16240""
","""event"",""trial"",""time""
""fullscreenenter"",""5"",""35098""
","
","398.5","","48","","","3000","1","","","images/earth.jpg","images/rocket2","images/rocket1","null","images/rocket2","","1","real","null","2","","",""
"d3-animate-choice","148","560214","0.0-76.0-1.4","259","5225","13","Male","true","true","false","false","""event"",""trial"",""time""
""blur"",""3"",""16239""
""focus"",""3"",""16240""
""fullscreenenter"",""5"",""35098""
","""event"",""trial"",""time""
""blur"",""3"",""16239""
","""event"",""trial"",""time""
""focus"",""3"",""16240""
","""event"",""trial"",""time""
""fullscreenenter"",""5"",""35098""
","
","450.80000000447035","","48","","","3000","1","","","images/redplanet1.jpg","images/alien2","images/alien1","images/rocket2","images/alien2","images/t.png","2","real","false","2","rare","1","2022-12-13 02:28:00.964"
"two-step-fixation","149","561222","0.0-76.0-2.4","259","5225","13","Male","true","true","false","false","""event"",""trial"",""time""
""blur"",""3"",""16239""
""focus"",""3"",""16240""
""fullscreenenter"",""5"",""35098""
","""event"",""trial"",""time""
""blur"",""3"",""16239""
","""event"",""trial"",""time""
""focus"",""3"",""16240""
","""event"",""trial"",""time""
""fullscreenenter"",""5"",""35098""
","
","","images/earth.jpg","","","","","","","","","","","","","","fixation","","","","","",""
"d3-animate-choice","150","563622","0.0-76.0-0.5","259","5225","13","Male","true","true","false","false","""event"",""trial"",""time""
""blur"",""3"",""16239""
""focus"",""3"",""16240""
""fullscreenenter"",""5"",""35098""
","""event"",""trial"",""time""
""blur"",""3"",""16239""
","""event"",""trial"",""time""
""focus"",""3"",""16240""
","""event"",""trial"",""time""
""fullscreenenter"",""5"",""35098""
","
","391.8999999985099","","48","","","3000","1","","","images/earth.jpg","images/rocket2","images/rocket1","null","images/rocket2","","1","real","null","2","","",""
"d3-animate-choice","151","566078","0.0-76.0-1.5","259","5225","13","Male","true","true","false","false","""event"",""trial"",""time""
""blur"",""3"",""16239""
""focus"",""3"",""16240""
""fullscreenenter"",""5"",""35098""
","""event"",""trial"",""time""
""blur"",""3"",""16239""
","""event"",""trial"",""time""
""focus"",""3"",""16240""
","""event"",""trial"",""time""
""fullscreenenter"",""5"",""35098""
","
","448.3999999985099","","48","","","3000","1","","","images/purpleplanet.jpg","images/alien4","images/alien3","images/rocket2","images/alien4","images/t.png","2","real","true","2","common","1","2022-12-13 02:28:06.828"
"two-step-fixation","152","567086","0.0-76.0-2.5","259","5225","13","Male","true","true","false","false","""event"",""trial"",""time""
""blur"",""3"",""16239""
""focus"",""3"",""16240""
""fullscreenenter"",""5"",""35098""
","""event"",""trial"",""time""
""blur"",""3"",""16239""
","""event"",""trial"",""time""
""focus"",""3"",""16240""
","""event"",""trial"",""time""
""fullscreenenter"",""5"",""35098""
","
","","images/earth.jpg","","","","","","","","","","","","","","fixation","","","","","",""
"d3-animate-choice","153","569437","0.0-76.0-0.6","259","5225","13","Male","true","true","false","false","""event"",""trial"",""time""
""blur"",""3"",""16239""
""focus"",""3"",""16240""
""fullscreenenter"",""5"",""35098""
","""event"",""trial"",""time""
""blur"",""3"",""16239""
","""event"",""trial"",""time""
""focus"",""3"",""16240""
","""event"",""trial"",""time""
""fullscreenenter"",""5"",""35098""
","
","341.3999999985099","","48","","","3000","1","","","images/earth.jpg","images/rocket2","images/rocket1","null","images/rocket2","","1","real","null","2","","",""
"d3-animate-choice","154","571855","0.0-76.0-1.6","259","5225","13","Male","true","true","false","false","""event"",""trial"",""time""
""blur"",""3"",""16239""
""focus"",""3"",""16240""
""fullscreenenter"",""5"",""35098""
","""event"",""trial"",""time""
""blur"",""3"",""16239""
","""event"",""trial"",""time""
""focus"",""3"",""16240""
","""event"",""trial"",""time""
""fullscreenenter"",""5"",""35098""
","
","405.69999999552965","","48","","","3000","1","","","images/purpleplanet.jpg","images/alien4","images/alien3","images/rocket2","images/alien4","images/t.png","2","real","true","2","common","1","2022-12-13 02:28:12.605"
"two-step-fixation","155","572861","0.0-76.0-2.6","259","5225","13","Male","true","true","false","false","""event"",""trial"",""time""
""blur"",""3"",""16239""
""focus"",""3"",""16240""
""fullscreenenter"",""5"",""35098""
","""event"",""trial"",""time""
""blur"",""3"",""16239""
","""event"",""trial"",""time""
""focus"",""3"",""16240""
","""event"",""trial"",""time""
""fullscreenenter"",""5"",""35098""
","
","","images/earth.jpg","","","","","","","","","","","","","","fixation","","","","","",""
"d3-animate-choice","156","575191","0.0-76.0-0.7","259","5225","13","Male","true","true","false","false","""event"",""trial"",""time""
""blur"",""3"",""16239""
""focus"",""3"",""16240""
""fullscreenenter"",""5"",""35098""
","""event"",""trial"",""time""
""blur"",""3"",""16239""
","""event"",""trial"",""time""
""focus"",""3"",""16240""
","""event"",""trial"",""time""
""fullscreenenter"",""5"",""35098""
","
","317","","48","","","3000","1","","","images/earth.jpg","images/rocket2","images/rocket1","null","images/rocket2","","1","real","null","2","","",""
"d3-animate-choice","157","578037","0.0-76.0-1.7","259","5225","13","Male","true","true","false","false","""event"",""trial"",""time""
""blur"",""3"",""16239""
""focus"",""3"",""16240""
""fullscreenenter"",""5"",""35098""
","""event"",""trial"",""time""
""blur"",""3"",""16239""
","""event"",""trial"",""time""
""focus"",""3"",""16240""
","""event"",""trial"",""time""
""fullscreenenter"",""5"",""35098""
","
","836.3000000044703","","48","","","3000","1","","","images/redplanet1.jpg","images/alien2","images/alien1","images/rocket2","images/alien2","images/t.png","2","real","false","2","rare","1","2022-12-13 02:28:18.787"
"two-step-fixation","158","579045","0.0-76.0-2.7","259","5225","13","Male","true","true","false","false","""event"",""trial"",""time""
""blur"",""3"",""16239""
""focus"",""3"",""16240""
""fullscreenenter"",""5"",""35098""
","""event"",""trial"",""time""
""blur"",""3"",""16239""
","""event"",""trial"",""time""
""focus"",""3"",""16240""
","""event"",""trial"",""time""
""fullscreenenter"",""5"",""35098""
","
","","images/earth.jpg","","","","","","","","","","","","","","fixation","","","","","",""
"d3-animate-choice","159","581950","0.0-76.0-0.8","259","5225","13","Male","true","true","false","false","""event"",""trial"",""time""
""blur"",""3"",""16239""
""focus"",""3"",""16240""
""fullscreenenter"",""5"",""35098""
","""event"",""trial"",""time""
""blur"",""3"",""16239""
","""event"",""trial"",""time""
""focus"",""3"",""16240""
","""event"",""trial"",""time""
""fullscreenenter"",""5"",""35098""
","
","890.2999999970198","","48","","","3000","1","","","images/earth.jpg","images/rocket2","images/rocket1","null","images/rocket2","","1","real","null","2","","",""
"d3-animate-choice","160","584485","0.0-76.0-1.8","259","5225","13","Male","true","true","false","false","""event"",""trial"",""time""
""blur"",""3"",""16239""
""focus"",""3"",""16240""
""fullscreenenter"",""5"",""35098""
","""event"",""trial"",""time""
""blur"",""3"",""16239""
","""event"",""trial"",""time""
""focus"",""3"",""16240""
","""event"",""trial"",""time""
""fullscreenenter"",""5"",""35098""
","
","520.8000000044703","","48","","","3000","1","","","images/purpleplanet.jpg","images/alien4","images/alien3","images/rocket2","images/alien4","images/t.png","2","real","true","2","common","1","2022-12-13 02:28:25.235"
"two-step-fixation","161","585493","0.0-76.0-2.8","259","5225","13","Male","true","true","false","false","""event"",""trial"",""time""
""blur"",""3"",""16239""
""focus"",""3"",""16240""
""fullscreenenter"",""5"",""35098""
","""event"",""trial"",""time""
""blur"",""3"",""16239""
","""event"",""trial"",""time""
""focus"",""3"",""16240""
","""event"",""trial"",""time""
""fullscreenenter"",""5"",""35098""
","
","","images/earth.jpg","","","","","","","","","","","","","","fixation","","","","","",""
"d3-animate-choice","162","587861","0.0-76.0-0.9","259","5225","13","Male","true","true","false","false","""event"",""trial"",""time""
""blur"",""3"",""16239""
""focus"",""3"",""16240""
""fullscreenenter"",""5"",""35098""
","""event"",""trial"",""time""
""blur"",""3"",""16239""
","""event"",""trial"",""time""
""focus"",""3"",""16240""
","""event"",""trial"",""time""
""fullscreenenter"",""5"",""35098""
","
","361.8999999985099","","48","","","3000","1","","","images/earth.jpg","images/rocket2","images/rocket1","null","images/rocket2","","1","real","null","2","","",""
"d3-animate-choice","163","590501","0.0-76.0-1.9","259","5225","13","Male","true","true","false","false","""event"",""trial"",""time""
""blur"",""3"",""16239""
""focus"",""3"",""16240""
""fullscreenenter"",""5"",""35098""
","""event"",""trial"",""time""
""blur"",""3"",""16239""
","""event"",""trial"",""time""
""focus"",""3"",""16240""
","""event"",""trial"",""time""
""fullscreenenter"",""5"",""35098""
","
","632","","48","","","3000","1","","","images/redplanet1.jpg","images/alien2","images/alien1","images/rocket2","images/alien2","images/nothing.png","2","real","false","2","rare","0","2022-12-13 02:28:31.251"
"two-step-fixation","164","591509","0.0-76.0-2.9","259","5225","13","Male","true","true","false","false","""event"",""trial"",""time""
""blur"",""3"",""16239""
""focus"",""3"",""16240""
""fullscreenenter"",""5"",""35098""
","""event"",""trial"",""time""
""blur"",""3"",""16239""
","""event"",""trial"",""time""
""focus"",""3"",""16240""
","""event"",""trial"",""time""
""fullscreenenter"",""5"",""35098""
","
","","images/earth.jpg","","","","","","","","","","","","","","fixation","","","","","",""
"d3-animate-choice","165","593981","0.0-76.0-0.10","259","5225","13","Male","true","true","false","false","""event"",""trial"",""time""
""blur"",""3"",""16239""
""focus"",""3"",""16240""
""fullscreenenter"",""5"",""35098""
","""event"",""trial"",""time""
""blur"",""3"",""16239""
","""event"",""trial"",""time""
""focus"",""3"",""16240""
","""event"",""trial"",""time""
""fullscreenenter"",""5"",""35098""
","
","462.8999999985099","","48","","","3000","1","","","images/earth.jpg","images/rocket2","images/rocket1","null","images/rocket2","","1","real","null","2","","",""
"d3-animate-choice","166","596484","0.0-76.0-1.10","259","5225","13","Male","true","true","false","false","""event"",""trial"",""time""
""blur"",""3"",""16239""
""focus"",""3"",""16240""
""fullscreenenter"",""5"",""35098""
","""event"",""trial"",""time""
""blur"",""3"",""16239""
","""event"",""trial"",""time""
""focus"",""3"",""16240""
","""event"",""trial"",""time""
""fullscreenenter"",""5"",""35098""
","
","491.40000000596046","","48","","","3000","1","","","images/purpleplanet.jpg","images/alien4","images/alien3","images/rocket2","images/alien4","images/t.png","2","real","true","2","common","1","2022-12-13 02:28:37.234"
"two-step-fixation","167","597493","0.0-76.0-2.10","259","5225","13","Male","true","true","false","false","""event"",""trial"",""time""
""blur"",""3"",""16239""
""focus"",""3"",""16240""
""fullscreenenter"",""5"",""35098""
","""event"",""trial"",""time""
""blur"",""3"",""16239""
","""event"",""trial"",""time""
""focus"",""3"",""16240""
","""event"",""trial"",""time""
""fullscreenenter"",""5"",""35098""
","
","","images/earth.jpg","","","","","","","","","","","","","","fixation","","","","","",""
"d3-animate-choice","168","600725","0.0-76.0-0.11","259","5225","13","Male","true","true","false","false","""event"",""trial"",""time""
""blur"",""3"",""16239""
""focus"",""3"",""16240""
""fullscreenenter"",""5"",""35098""
","""event"",""trial"",""time""
""blur"",""3"",""16239""
","""event"",""trial"",""time""
""focus"",""3"",""16240""
","""event"",""trial"",""time""
""fullscreenenter"",""5"",""35098""
","
","799.3999999985099","","189","","","3000","1","1219","48","images/earth.jpg","images/rocket2","images/rocket1","null","images/rocket2","","1","real","null","","","",""
"d3-animate-choice","169","603373","0.0-76.0-1.11","259","5225","13","Male","true","true","false","false","""event"",""trial"",""time""
""blur"",""3"",""16239""
""focus"",""3"",""16240""
""fullscreenenter"",""5"",""35098""
","""event"",""trial"",""time""
""blur"",""3"",""16239""
","""event"",""trial"",""time""
""focus"",""3"",""16240""
","""event"",""trial"",""time""
""fullscreenenter"",""5"",""35098""
","
","635.8999999985099","","48","","","3000","1","","","images/purpleplanet.jpg","images/alien4","images/alien3","images/rocket2","images/alien4","images/t.png","2","real","true","2","common","1","2022-12-13 02:28:44.123"
"two-step-fixation","170","604381","0.0-76.0-2.11","259","5225","13","Male","true","true","false","false","""event"",""trial"",""time""
""blur"",""3"",""16239""
""focus"",""3"",""16240""
""fullscreenenter"",""5"",""35098""
","""event"",""trial"",""time""
""blur"",""3"",""16239""
","""event"",""trial"",""time""
""focus"",""3"",""16240""
","""event"",""trial"",""time""
""fullscreenenter"",""5"",""35098""
","
","","images/earth.jpg","","","","","","","","","","","","","","fixation","","","","","",""
"d3-animate-choice","171","606740","0.0-76.0-0.12","259","5225","13","Male","true","true","false","false","""event"",""trial"",""time""
""blur"",""3"",""16239""
""focus"",""3"",""16240""
""fullscreenenter"",""5"",""35098""
","""event"",""trial"",""time""
""blur"",""3"",""16239""
","""event"",""trial"",""time""
""focus"",""3"",""16240""
","""event"",""trial"",""time""
""fullscreenenter"",""5"",""35098""
","
","349.1000000014901","","48","","","3000","1","","","images/earth.jpg","images/rocket2","images/rocket1","null","images/rocket2","","1","real","null","2","","",""
"d3-animate-choice","172","609412","0.0-76.0-1.12","259","5225","13","Male","true","true","false","false","""event"",""trial"",""time""
""blur"",""3"",""16239""
""focus"",""3"",""16240""
""fullscreenenter"",""5"",""35098""
","""event"",""trial"",""time""
""blur"",""3"",""16239""
","""event"",""trial"",""time""
""focus"",""3"",""16240""
","""event"",""trial"",""time""
""fullscreenenter"",""5"",""35098""
","
","657.1000000014901","","48","","","3000","1","","","images/purpleplanet.jpg","images/alien4","images/alien3","images/rocket2","images/alien4","images/t.png","2","real","true","2","common","1","2022-12-13 02:28:50.163"
"two-step-fixation","173","610421","0.0-76.0-2.12","259","5225","13","Male","true","true","false","false","""event"",""trial"",""time""
""blur"",""3"",""16239""
""focus"",""3"",""16240""
""fullscreenenter"",""5"",""35098""
","""event"",""trial"",""time""
""blur"",""3"",""16239""
","""event"",""trial"",""time""
""focus"",""3"",""16240""
","""event"",""trial"",""time""
""fullscreenenter"",""5"",""35098""
","
","","images/earth.jpg","","","","","","","","","","","","","","fixation","","","","","",""
"d3-animate-choice","174","612741","0.0-76.0-0.13","259","5225","13","Male","true","true","false","false","""event"",""trial"",""time""
""blur"",""3"",""16239""
""focus"",""3"",""16240""
""fullscreenenter"",""5"",""35098""
","""event"",""trial"",""time""
""blur"",""3"",""16239""
","""event"",""trial"",""time""
""focus"",""3"",""16240""
","""event"",""trial"",""time""
""fullscreenenter"",""5"",""35098""
","
","304.79999999701977","","48","","","3000","1","","","images/earth.jpg","images/rocket2","images/rocket1","null","images/rocket2","","1","real","null","2","","",""
"d3-animate-choice","175","615244","0.0-76.0-1.13","259","5225","13","Male","true","true","false","false","""event"",""trial"",""time""
""blur"",""3"",""16239""
""focus"",""3"",""16240""
""fullscreenenter"",""5"",""35098""
","""event"",""trial"",""time""
""blur"",""3"",""16239""
","""event"",""trial"",""time""
""focus"",""3"",""16240""
","""event"",""trial"",""time""
""fullscreenenter"",""5"",""35098""
","
","493.30000000447035","","49","","","3000","1","","","images/redplanet1.jpg","images/alien2","images/alien1","images/rocket2","images/alien1","images/nothing.png","2","real","false","1","rare","0","2022-12-13 02:28:55.995"
"two-step-fixation","176","616253","0.0-76.0-2.13","259","5225","13","Male","true","true","false","false","""event"",""trial"",""time""
""blur"",""3"",""16239""
""focus"",""3"",""16240""
""fullscreenenter"",""5"",""35098""
","""event"",""trial"",""time""
""blur"",""3"",""16239""
","""event"",""trial"",""time""
""focus"",""3"",""16240""
","""event"",""trial"",""time""
""fullscreenenter"",""5"",""35098""
","
","","images/earth.jpg","","","","","","","","","","","","","","fixation","","","","","",""
"d3-animate-choice","177","618637","0.0-76.0-0.14","259","5225","13","Male","true","true","false","false","""event"",""trial"",""time""
""blur"",""3"",""16239""
""focus"",""3"",""16240""
""fullscreenenter"",""5"",""35098""
","""event"",""trial"",""time""
""blur"",""3"",""16239""
","""event"",""trial"",""time""
""focus"",""3"",""16240""
","""event"",""trial"",""time""
""fullscreenenter"",""5"",""35098""
","
","375.6000000014901","","48","","","3000","1","","","images/earth.jpg","images/rocket2","images/rocket1","null","images/rocket2","","1","real","null","2","","",""
"d3-animate-choice","178","621468","0.0-76.0-1.14","259","5225","13","Male","true","true","false","false","""event"",""trial"",""time""
""blur"",""3"",""16239""
""focus"",""3"",""16240""
""fullscreenenter"",""5"",""35098""
","""event"",""trial"",""time""
""blur"",""3"",""16239""
