"trial_type","trial_index","time_elapsed","internal_node_id","participant_id","subject_id","age","gender","rocket_sides","red_planet_first_rocket","red_display_order","purple_display_order","interactions","blur_events","focus_events","fullscreenenter_events","fullscreenexit_events","rt","stimulus","key_press","button_pressed","success","duration","valid_pressed","rts","keys","planet_text","right_text","left_text","center_text","chosen_text","reward_text","trial_stage","practice_trial","transition_type","choice","transition","reward","timestamp"
"pavlovia","0","8","0.0-0.0","332","641","9","Male","true","true","false","true","
","
","
","
","
","","","","","","","","","","","","","","","","","","","","","",""
"html-keyboard-response","1","1923","0.0-1.0","332","641","9","Male","true","true","false","true","
","
","
","
","
","1913.3999999761581","Welcome! Press the space bar to begin.","32","","","","","","","","","","","","","","","","","","",""
"audio-keyboard-response","2","4627","0.0-2.0","332","641","9","Male","true","true","false","true","
","
","
","
","
","2589","audio/beep_loop.wav","32","","","","","","","","","","","","","","","","","","",""
"audio-button-response","3","7807","0.0-3.0","332","641","9","Male","true","true","false","true","
","
","
","
","
","NaN","audio/fish.mp3","","1","","","","","","","","","","","","","","","","","",""
"audio-button-response","4","10562","0.0-4.0","332","641","9","Male","true","true","false","true","""event"",""trial"",""time""
""fullscreenenter"",""5"",""14022""
","
","
","""event"",""trial"",""time""
""fullscreenenter"",""5"",""14022""
","
","NaN","audio/tiger.mp3","","4","","","","","","","","","","","","","","","","","",""
"fullscreen","5","14991","0.0-5.0","332","641","9","Male","true","true","false","true","""event"",""trial"",""time""
""fullscreenenter"",""5"",""14022""
","
","
","""event"",""trial"",""time""
""fullscreenenter"",""5"",""14022""
","
","","","","","true","","","","","","","","","","","","","","","","",""
"d3-instructions","6","25420","0.0-6.0","332","641","9","Male","true","true","false","true","""event"",""trial"",""time""
""fullscreenenter"",""5"",""14022""
","
","
","""event"",""trial"",""time""
""fullscreenenter"",""5"",""14022""
","
","","","","","","","","","","","","","","","","","","","","","",""
"d3-instructions","7","38322","0.0-7.0","332","641","9","Male","true","true","false","true","""event"",""trial"",""time""
""fullscreenenter"",""5"",""14022""
","
","
","""event"",""trial"",""time""
""fullscreenenter"",""5"",""14022""
","
","","","","","","","","","","","","","","","","","","","","","",""
"d3-instructions","8","42371","0.0-8.0","332","641","9","Male","true","true","false","true","""event"",""trial"",""time""
""fullscreenenter"",""5"",""14022""
","
","
","""event"",""trial"",""time""
""fullscreenenter"",""5"",""14022""
","
","","","","","","","","","","","","","","","","","","","","","",""
"d3-instructions","9","52930","0.0-9.0","332","641","9","Male","true","true","false","true","""event"",""trial"",""time""
""fullscreenenter"",""5"",""14022""
","
","
","""event"",""trial"",""time""
""fullscreenenter"",""5"",""14022""
","
","","","","","","","","","","","","","","","","","","","","","",""
"d3-instructions","10","68027","0.0-10.0","332","641","9","Male","true","true","false","true","""event"",""trial"",""time""
""fullscreenenter"",""5"",""14022""
","
","
","""event"",""trial"",""time""
""fullscreenenter"",""5"",""14022""
","
","","","","","","","","","","","","","","","","","","","","","",""
"d3-animate-choice","11","76097","0.0-11.0","332","641","9","Male","true","true","false","true","""event"",""trial"",""time""
""fullscreenenter"",""5"",""14022""
","
","
","""event"",""trial"",""time""
""fullscreenenter"",""5"",""14022""
","
","6061.699999988079","","49","","","3000","1","7605.799999952316","96","images/tutgreenplanet.jpg","images/tutalien1","images/tutalien2","null","images/tutalien2","","NA","practice","null","","","",""
"d3-animate-choice","12","81471","0.0-12.0","332","641","9","Male","true","true","false","true","""event"",""trial"",""time""
""fullscreenenter"",""5"",""14022""
","
","
","""event"",""trial"",""time""
""fullscreenenter"",""5"",""14022""
","
","2167.199999988079","","96","","","3000","1","3358.899999976158","49","images/tutgreenplanet.jpg","images/tutalien1","images/tutalien2","null","images/tutalien2","","NA","practice","null","","","",""
"d3-animate-choice","13","86144","0.0-13.0","332","641","9","Male","true","true","false","true","""event"",""trial"",""time""
""fullscreenenter"",""5"",""14022""
","
","
","""event"",""trial"",""time""
""fullscreenenter"",""5"",""14022""
","
","1217.3999999761581","","96","","","3000","1","2657.2999999523163,4465.399999976158","48,49","images/tutgreenplanet.jpg","images/tutalien1","images/tutalien2","null","images/tutalien1","","NA","practice","null","","","",""
"d3-animate-choice","14","89197","0.0-14.0","332","641","9","Male","true","true","false","true","""event"",""trial"",""time""
""fullscreenenter"",""5"",""14022""
","
","
","""event"",""trial"",""time""
""fullscreenenter"",""5"",""14022""
","
","1033.0999999642372","","49","","","3000","1","","","images/tutgreenplanet.jpg","images/tutalien1","images/tutalien2","null","images/tutalien2","","NA","practice","null","","","",""
"d3-instructions","15","96155","0.0-15.0","332","641","9","Male","true","true","false","true","""event"",""trial"",""time""
""fullscreenenter"",""5"",""14022""
","
","
","""event"",""trial"",""time""
""fullscreenenter"",""5"",""14022""
","
","","","","","","","","","","","","","","","","","","","","","",""
"d3-instructions","16","101051","0.0-16.0","332","641","9","Male","true","true","false","true","""event"",""trial"",""time""
""fullscreenenter"",""5"",""14022""
","
","
","""event"",""trial"",""time""
""fullscreenenter"",""5"",""14022""
","
","","","","","","","","","","","","","","","","","","","","","",""
"d3-instructions","17","108355","0.0-17.0","332","641","9","Male","true","true","false","true","""event"",""trial"",""time""
""fullscreenenter"",""5"",""14022""
","
","
","""event"",""trial"",""time""
""fullscreenenter"",""5"",""14022""
","
","","","","","","","","","","","","","","","","","","","","","",""
"d3-instructions","18","112003","0.0-18.0","332","641","9","Male","true","true","false","true","""event"",""trial"",""time""
""fullscreenenter"",""5"",""14022""
","
","
","""event"",""trial"",""time""
""fullscreenenter"",""5"",""14022""
","
","","","","","","","","","","","","","","","","","","","","","",""
"d3-instructions","19","126667","0.0-19.0","332","641","9","Male","true","true","false","true","""event"",""trial"",""time""
""fullscreenenter"",""5"",""14022""
","
","
","""event"",""trial"",""time""
""fullscreenenter"",""5"",""14022""
","
","","","","","","","","","","","","","","","","","","","","","",""
"d3-animate-choice","20","129929","0.0-20.0","332","641","9","Male","true","true","false","true","""event"",""trial"",""time""
""fullscreenenter"",""5"",""14022""
","
","
","""event"",""trial"",""time""
""fullscreenenter"",""5"",""14022""
","
","1246.800000011921","","49","","","3000","1","2574.5","49","images/tutyellowplanet.jpg","null","images/tutalien3","null","images/tutalien3","images/nothing.png","NA","practice","null","","","",""
"d3-animate-choice","21","132735","0.0-21.0","332","641","9","Male","true","true","false","true","""event"",""trial"",""time""
""fullscreenenter"",""5"",""14022""
","
","
","""event"",""trial"",""time""
""fullscreenenter"",""5"",""14022""
","
","801","","49","","","3000","1","","","images/tutyellowplanet.jpg","null","images/tutalien3","null","images/tutalien3","images/t.png","NA","practice","null","","","",""
"d3-animate-choice","22","135223","0.0-22.0","332","641","9","Male","true","true","false","true","""event"",""trial"",""time""
""fullscreenenter"",""5"",""14022""
","
","
","""event"",""trial"",""time""
""fullscreenenter"",""5"",""14022""
","
","482.69999998807907","","49","","","3000","1","","","images/tutyellowplanet.jpg","null","images/tutalien3","null","images/tutalien3","images/t.png","NA","practice","null","","","",""
"d3-animate-choice","23","137623","0.0-23.0","332","641","9","Male","true","true","false","true","""event"",""trial"",""time""
""fullscreenenter"",""5"",""14022""
","
","
","""event"",""trial"",""time""
""fullscreenenter"",""5"",""14022""
","
","393.7000000476837","","49","","","3000","1","","","images/tutyellowplanet.jpg","null","images/tutalien3","null","images/tutalien3","images/nothing.png","NA","practice","null","","","",""
"d3-animate-choice","24","140143","0.0-24.0","332","641","9","Male","true","true","false","true","""event"",""trial"",""time""
""fullscreenenter"",""5"",""14022""
","
","
","""event"",""trial"",""time""
""fullscreenenter"",""5"",""14022""
","
","505.89999997615814","","49","","","3000","1","1993.8999999761581","49","images/tutyellowplanet.jpg","null","images/tutalien3","null","images/tutalien3","images/t.png","NA","practice","null","","","",""
"d3-animate-choice","25","142475","0.0-25.0","332","641","9","Male","true","true","false","true","""event"",""trial"",""time""
""fullscreenenter"",""5"",""14022""
","
","
","""event"",""trial"",""time""
""fullscreenenter"",""5"",""14022""
","
","322","","49","","","3000","1","","","images/tutyellowplanet.jpg","null","images/tutalien3","null","images/tutalien3","images/t.png","NA","practice","null","","","",""
"d3-animate-choice","26","144822","0.0-26.0","332","641","9","Male","true","true","false","true","""event"",""trial"",""time""
""fullscreenenter"",""5"",""14022""
","
","
","""event"",""trial"",""time""
""fullscreenenter"",""5"",""14022""
","
","340.0999999642372","","49","","","3000","1","","","images/tutyellowplanet.jpg","null","images/tutalien3","null","images/tutalien3","images/t.png","NA","practice","null","","","",""
"d3-animate-choice","27","147120","0.0-27.0","332","641","9","Male","true","true","false","true","""event"",""trial"",""time""
""fullscreenenter"",""5"",""14022""
","
","
","""event"",""trial"",""time""
""fullscreenenter"",""5"",""14022""
","
","290.19999998807907","","49","","","3000","1","","","images/tutyellowplanet.jpg","null","images/tutalien3","null","images/tutalien3","images/t.png","NA","practice","null","","","",""
"d3-animate-choice","28","149523","0.0-28.0","332","641","9","Male","true","true","false","true","""event"",""trial"",""time""
""fullscreenenter"",""5"",""14022""
","
","
","""event"",""trial"",""time""
""fullscreenenter"",""5"",""14022""
","
","384.39999997615814","","49","","","3000","1","","","images/tutyellowplanet.jpg","null","images/tutalien3","null","images/tutalien3","images/t.png","NA","practice","null","","","",""
"d3-animate-choice","29","151920","0.0-29.0","332","641","9","Male","true","true","false","true","""event"",""trial"",""time""
""fullscreenenter"",""5"",""14022""
","
","
","""event"",""trial"",""time""
""fullscreenenter"",""5"",""14022""
","
","389.5","","49","","","3000","1","","","images/tutyellowplanet.jpg","null","images/tutalien3","null","images/tutalien3","images/t.png","NA","practice","null","","","",""
"d3-instructions","30","157499","0.0-30.0","332","641","9","Male","true","true","false","true","""event"",""trial"",""time""
""fullscreenenter"",""5"",""14022""
","
","
","""event"",""trial"",""time""
""fullscreenenter"",""5"",""14022""
","
","","","","","","","","","","","","","","","","","","","","","",""
"d3-instructions","31","169925","0.0-31.0","332","641","9","Male","true","true","false","true","""event"",""trial"",""time""
""fullscreenenter"",""5"",""14022""
","
","
","""event"",""trial"",""time""
""fullscreenenter"",""5"",""14022""
","
","","","","","","","","","","","","","","","","","","","","","",""
"d3-instructions","32","175259","0.0-32.0","332","641","9","Male","true","true","false","true","""event"",""trial"",""time""
""fullscreenenter"",""5"",""14022""
","
","
","""event"",""trial"",""time""
""fullscreenenter"",""5"",""14022""
","
","","","","","","","","","","","","","","","","","","","","","",""
"d3-instructions","33","177890","0.0-33.0","332","641","9","Male","true","true","false","true","""event"",""trial"",""time""
""fullscreenenter"",""5"",""14022""
","
","
","""event"",""trial"",""time""
""fullscreenenter"",""5"",""14022""
","
","","","","","","","","","","","","","","","","","","","","","",""
"d3-animate-choice","34","181238","0.0-34.0","332","641","9","Male","true","true","false","true","""event"",""trial"",""time""
""fullscreenenter"",""5"",""14022""
","
","
","""event"",""trial"",""time""
""fullscreenenter"",""5"",""14022""
","
","1343.8999999761581","","49","","","3000","1","","","images/tutgreenplanet.jpg","images/tutalien1","images/tutalien2","null","images/tutalien2","images/t.png","NA","practice","null","","","",""
"d3-animate-choice","35","183714","0.0-35.0","332","641","9","Male","true","true","false","true","""event"",""trial"",""time""
""fullscreenenter"",""5"",""14022""
","
","
","""event"",""trial"",""time""
""fullscreenenter"",""5"",""14022""
","
","458.5","","49","","","3000","1","","","images/tutgreenplanet.jpg","images/tutalien1","images/tutalien2","null","images/tutalien2","images/t.png","NA","practice","null","","","",""
"d3-animate-choice","36","187101","0.0-36.0","332","641","9","Male","true","true","false","true","""event"",""trial"",""time""
""fullscreenenter"",""5"",""14022""
","
","
","""event"",""trial"",""time""
""fullscreenenter"",""5"",""14022""
","
","1382.6000000238419","","49","","","3000","1","","","images/tutgreenplanet.jpg","images/tutalien1","images/tutalien2","null","images/tutalien2","images/t.png","NA","practice","null","","","",""
"d3-animate-choice","37","189557","0.0-37.0","332","641","9","Male","true","true","false","true","""event"",""trial"",""time""
""fullscreenenter"",""5"",""14022""
","
","
","""event"",""trial"",""time""
""fullscreenenter"",""5"",""14022""
","
","443.5","","49","","","3000","1","","","images/tutgreenplanet.jpg","images/tutalien1","images/tutalien2","null","images/tutalien2","images/t.png","NA","practice","null","","","",""
"d3-animate-choice","38","192015","0.0-38.0","332","641","9","Male","true","true","false","true","""event"",""trial"",""time""
""fullscreenenter"",""5"",""14022""
","
","
","""event"",""trial"",""time""
""fullscreenenter"",""5"",""14022""
","
","444","","49","","","3000","1","","","images/tutgreenplanet.jpg","images/tutalien1","images/tutalien2","null","images/tutalien2","images/t.png","NA","practice","null","","","",""
"d3-animate-choice","39","194566","0.0-39.0","332","641","9","Male","true","true","false","true","""event"",""trial"",""time""
""fullscreenenter"",""5"",""14022""
","
","
","""event"",""trial"",""time""
""fullscreenenter"",""5"",""14022""
","
","535.8000000119209","","49","","","3000","1","","","images/tutgreenplanet.jpg","images/tutalien1","images/tutalien2","null","images/tutalien2","images/t.png","NA","practice","null","","","",""
"d3-animate-choice","40","197190","0.0-40.0","332","641","9","Male","true","true","false","true","""event"",""trial"",""time""
""fullscreenenter"",""5"",""14022""
","
","
","""event"",""trial"",""time""
""fullscreenenter"",""5"",""14022""
","
","619.5999999642372","","49","","","3000","1","","","images/tutgreenplanet.jpg","images/tutalien1","images/tutalien2","null","images/tutalien2","images/t.png","NA","practice","null","","","",""
"d3-animate-choice","41","199464","0.0-41.0","332","641","9","Male","true","true","false","true","""event"",""trial"",""time""
""fullscreenenter"",""5"",""14022""
","
","
","""event"",""trial"",""time""
""fullscreenenter"",""5"",""14022""
","
","258.7000000476837","","49","","","3000","1","1755","49","images/tutgreenplanet.jpg","images/tutalien1","images/tutalien2","null","images/tutalien2","images/t.png","NA","practice","null","","","",""
"d3-animate-choice","42","201757","0.0-42.0","332","641","9","Male","true","true","false","true","""event"",""trial"",""time""
""fullscreenenter"",""5"",""14022""
","
","
","""event"",""trial"",""time""
""fullscreenenter"",""5"",""14022""
","
","280.69999998807907","","49","","","3000","1","","","images/tutgreenplanet.jpg","images/tutalien1","images/tutalien2","null","images/tutalien2","images/t.png","NA","practice","null","","","",""
"d3-animate-choice","43","204500","0.0-43.0","332","641","9","Male","true","true","false","true","""event"",""trial"",""time""
""fullscreenenter"",""5"",""14022""
","
","
","""event"",""trial"",""time""
""fullscreenenter"",""5"",""14022""
","
","732.6000000238419","","49","","","3000","1","2387.2000000476837","49","images/tutgreenplanet.jpg","images/tutalien1","images/tutalien2","null","images/tutalien2","images/t.png","NA","practice","null","","","",""
"d3-instructions","44","211874","0.0-44.0","332","641","9","Male","true","true","false","true","""event"",""trial"",""time""
""fullscreenenter"",""5"",""14022""
","
","
","""event"",""trial"",""time""
""fullscreenenter"",""5"",""14022""
","
","","","","","","","","","","","","","","","","","","","","","",""
"d3-instructions","45","221595","0.0-45.0","332","641","9","Male","true","true","false","true","""event"",""trial"",""time""
""fullscreenenter"",""5"",""14022""
","
","
","""event"",""trial"",""time""
""fullscreenenter"",""5"",""14022""
","
","","","","","","","","","","","","","","","","","","","","","",""
"d3-instructions","46","226131","0.0-46.0","332","641","9","Male","true","true","false","true","""event"",""trial"",""time""
""fullscreenenter"",""5"",""14022""
","
","
","""event"",""trial"",""time""
""fullscreenenter"",""5"",""14022""
","
","","","","","","","","","","","","","","","","","","","","","",""
"d3-instructions","47","227635","0.0-47.0","332","641","9","Male","true","true","false","true","""event"",""trial"",""time""
""fullscreenenter"",""5"",""14022""
","
","
","""event"",""trial"",""time""
""fullscreenenter"",""5"",""14022""
","
","","","","","","","","","","","","","","","","","","","","","",""
"d3-instructions","48","229858","0.0-48.0","332","641","9","Male","true","true","false","true","""event"",""trial"",""time""
""fullscreenenter"",""5"",""14022""
","
","
","""event"",""trial"",""time""
""fullscreenenter"",""5"",""14022""
","
","","","","","","","","","","","","","","","","","","","","","",""
"d3-instructions","49","230859","0.0-49.0","332","641","9","Male","true","true","false","true","""event"",""trial"",""time""
""fullscreenenter"",""5"",""14022""
","
","
","""event"",""trial"",""time""
""fullscreenenter"",""5"",""14022""
","
","","","","","","","","","","","","","","","","","","","","","",""
"d3-instructions","50","232963","0.0-50.0","332","641","9","Male","true","true","false","true","""event"",""trial"",""time""
""fullscreenenter"",""5"",""14022""
","
","
","""event"",""trial"",""time""
""fullscreenenter"",""5"",""14022""
","
","","","","","","","","","","","","","","","","","","","","","",""
"d3-instructions","51","234971","0.0-51.0","332","641","9","Male","true","true","false","true","""event"",""trial"",""time""
""fullscreenenter"",""5"",""14022""
","
","
","""event"",""trial"",""time""
""fullscreenenter"",""5"",""14022""
","
","","","","","","","","","","","","","","","","","","","","","",""
"d3-instructions","52","236922","0.0-52.0","332","641","9","Male","true","true","false","true","""event"",""trial"",""time""
""fullscreenenter"",""5"",""14022""
","
","
","""event"",""trial"",""time""
""fullscreenenter"",""5"",""14022""
","
","","","","","","","","","","","","","","","","","","","","","",""
"d3-instructions","53","240282","0.0-53.0","332","641","9","Male","true","true","false","true","""event"",""trial"",""time""
""fullscreenenter"",""5"",""14022""
","
","
","""event"",""trial"",""time""
""fullscreenenter"",""5"",""14022""
","
","","","","","","","","","","","","","","","","","","","","","",""
"d3-instructions","54","243517","0.0-54.0","332","641","9","Male","true","true","false","true","""event"",""trial"",""time""
""fullscreenenter"",""5"",""14022""
","
","
","""event"",""trial"",""time""
""fullscreenenter"",""5"",""14022""
","
","","","","","","","","","","","","","","","","","","","","","",""
"d3-instructions","55","249667","0.0-55.0","332","641","9","Male","true","true","false","true","""event"",""trial"",""time""
""fullscreenenter"",""5"",""14022""
","
","
","""event"",""trial"",""time""
""fullscreenenter"",""5"",""14022""
","
","","","","","","","","","","","","","","","","","","","","","",""
"d3-instructions","56","253059","0.0-56.0","332","641","9","Male","true","true","false","true","""event"",""trial"",""time""
""fullscreenenter"",""5"",""14022""
","
","
","""event"",""trial"",""time""
""fullscreenenter"",""5"",""14022""
","
","","","","","","","","","","","","","","","","","","","","","",""
"d3-instructions","57","260652","0.0-57.0","332","641","9","Male","true","true","false","true","""event"",""trial"",""time""
""fullscreenenter"",""5"",""14022""
","
","
","""event"",""trial"",""time""
""fullscreenenter"",""5"",""14022""
","
","","","","","","","","","","","","","","","","","","","","","",""
"d3-instructions","58","271355","0.0-58.0","332","641","9","Male","true","true","false","true","""event"",""trial"",""time""
""fullscreenenter"",""5"",""14022""
","
","
","""event"",""trial"",""time""
""fullscreenenter"",""5"",""14022""
","
","","","","","","","","","","","","","","","","","","","","","",""
"d3-instructions","59","273947","0.0-59.0","332","641","9","Male","true","true","false","true","""event"",""trial"",""time""
""fullscreenenter"",""5"",""14022""
","
","
","""event"",""trial"",""time""
""fullscreenenter"",""5"",""14022""
","
","","","","","","","","","","","","","","","","","","","","","",""
"d3-instructions","60","276659","0.0-60.0","332","641","9","Male","true","true","false","true","""event"",""trial"",""time""
""fullscreenenter"",""5"",""14022""
","
","
","""event"",""trial"",""time""
""fullscreenenter"",""5"",""14022""
","
","","","","","","","","","","","","","","","","","","","","","",""
"d3-animate-choice","61","280053","0.0-61.0-0.0","332","641","9","Male","true","true","false","true","""event"",""trial"",""time""
""fullscreenenter"",""5"",""14022""
","
","
","""event"",""trial"",""time""
""fullscreenenter"",""5"",""14022""
","
","1389.3999999761581","","49","","","3000","1","","","images/earth.jpg","images/tutrocket2","images/tutrocket1","null","images/tutrocket1","","1","practice","null","1","","",""
"d3-animate-choice","62","282937","0.0-61.0-1.0","332","641","9","Male","true","true","false","true","""event"",""trial"",""time""
""fullscreenenter"",""5"",""14022""
","
","
","""event"",""trial"",""time""
""fullscreenenter"",""5"",""14022""
","
","875.6000000238419","","49","","","3000","1","","","images/tutgreenplanet.jpg","images/tutalien2","images/tutalien1","images/tutrocket1","images/tutalien1","images/t.png","2","practice","true","1","common","1","2022-02-04 21:28:18.830"
"two-step-fixation","63","283959","0.0-61.0-2.0","332","641","9","Male","true","true","false","true","""event"",""trial"",""time""
""fullscreenenter"",""5"",""14022""
","
","
","""event"",""trial"",""time""
""fullscreenenter"",""5"",""14022""
","
","","images/earth.jpg","","","","","","","","","","","","","","fixation","","","","","",""
"d3-animate-choice","64","286397","0.0-61.0-0.1","332","641","9","Male","true","true","false","true","""event"",""trial"",""time""
""fullscreenenter"",""5"",""14022""
","
","
","""event"",""trial"",""time""
""fullscreenenter"",""5"",""14022""
","
","433.4000000357628","","49","","","3000","1","","","images/earth.jpg","images/tutrocket2","images/tutrocket1","null","images/tutrocket1","","1","practice","null","1","","",""
"d3-animate-choice","65","289150","0.0-61.0-1.1","332","641","9","Male","true","true","false","true","""event"",""trial"",""time""
""fullscreenenter"",""5"",""14022""
","
","
","""event"",""trial"",""time""
""fullscreenenter"",""5"",""14022""
","
","747.3000000119209","","48","","","3000","1","","","images/tutgreenplanet.jpg","images/tutalien2","images/tutalien1","images/tutrocket1","images/tutalien2","images/t.png","2","practice","true","2","common","1","2022-02-04 21:28:25.042"
"two-step-fixation","66","290154","0.0-61.0-2.1","332","641","9","Male","true","true","false","true","""event"",""trial"",""time""
""fullscreenenter"",""5"",""14022""
","
","
","""event"",""trial"",""time""
""fullscreenenter"",""5"",""14022""
","
","","images/earth.jpg","","","","","","","","","","","","","","fixation","","","","","",""
"d3-animate-choice","67","292584","0.0-61.0-0.2","332","641","9","Male","true","true","false","true","""event"",""trial"",""time""
""fullscreenenter"",""5"",""14022""
","
","
","""event"",""trial"",""time""
""fullscreenenter"",""5"",""14022""
","
","422.4000000357628","","48","","","3000","1","","","images/earth.jpg","images/tutrocket2","images/tutrocket1","null","images/tutrocket2","","1","practice","null","2","","",""
"d3-animate-choice","68","294965","0.0-61.0-1.2","332","641","9","Male","true","true","false","true","""event"",""trial"",""time""
""fullscreenenter"",""5"",""14022""
","
","
","""event"",""trial"",""time""
""fullscreenenter"",""5"",""14022""
","
","368.39999997615814","","48","","","3000","1","","","images/tutgreenplanet.jpg","images/tutalien2","images/tutalien1","images/tutrocket2","images/tutalien2","images/nothing.png","2","practice","false","2","rare","0","2022-02-04 21:28:30.857"
"two-step-fixation","69","295983","0.0-61.0-2.2","332","641","9","Male","true","true","false","true","""event"",""trial"",""time""
""fullscreenenter"",""5"",""14022""
","
","
","""event"",""trial"",""time""
""fullscreenenter"",""5"",""14022""
","
","","images/earth.jpg","","","","","","","","","","","","","","fixation","","","","","",""
"d3-animate-choice","70","298364","0.0-61.0-0.3","332","641","9","Male","true","true","false","true","""event"",""trial"",""time""
""fullscreenenter"",""5"",""14022""
","
","
","""event"",""trial"",""time""
""fullscreenenter"",""5"",""14022""
","
","376.30000001192093","","49","","","3000","1","","","images/earth.jpg","images/tutrocket2","images/tutrocket1","null","images/tutrocket1","","1","practice","null","1","","",""
"d3-animate-choice","71","300731","0.0-61.0-1.3","332","641","9","Male","true","true","false","true","""event"",""trial"",""time""
""fullscreenenter"",""5"",""14022""
","
","
","""event"",""trial"",""time""
""fullscreenenter"",""5"",""14022""
","
","365.2999999523163","","49","","","3000","1","","","images/tutgreenplanet.jpg","images/tutalien2","images/tutalien1","images/tutrocket1","images/tutalien1","images/t.png","2","practice","true","1","common","1","2022-02-04 21:28:36.624"
"two-step-fixation","72","301736","0.0-61.0-2.3","332","641","9","Male","true","true","false","true","""event"",""trial"",""time""
""fullscreenenter"",""5"",""14022""
","
","
","""event"",""trial"",""time""
""fullscreenenter"",""5"",""14022""
","
","","images/earth.jpg","","","","","","","","","","","","","","fixation","","","","","",""
"d3-animate-choice","73","304196","0.0-61.0-0.4","332","641","9","Male","true","true","false","true","""event"",""trial"",""time""
""fullscreenenter"",""5"",""14022""
","
","
","""event"",""trial"",""time""
""fullscreenenter"",""5"",""14022""
","
","455.69999998807907","","49","","","3000","1","","","images/earth.jpg","images/tutrocket2","images/tutrocket1","null","images/tutrocket1","","1","practice","null","1","","",""
"d3-animate-choice","74","307252","0.0-61.0-1.4","332","641","9","Male","true","true","false","true","""event"",""trial"",""time""
""fullscreenenter"",""5"",""14022""
","
","
","""event"",""trial"",""time""
""fullscreenenter"",""5"",""14022""
","
","1052.800000011921","","49","","","3000","1","","","images/tutgreenplanet.jpg","images/tutalien2","images/tutalien1","images/tutrocket1","images/tutalien1","images/t.png","2","practice","true","1","common","1","2022-02-04 21:28:43.144"
"two-step-fixation","75","308256","0.0-61.0-2.4","332","641","9","Male","true","true","false","true","""event"",""trial"",""time""
""fullscreenenter"",""5"",""14022""
","
","
","""event"",""trial"",""time""
""fullscreenenter"",""5"",""14022""
","
","","images/earth.jpg","","","","","","","","","","","","","","fixation","","","","","",""
"d3-animate-choice","76","310596","0.0-61.0-0.5","332","641","9","Male","true","true","false","true","""event"",""trial"",""time""
""fullscreenenter"",""5"",""14022""
","
","
","""event"",""trial"",""time""
""fullscreenenter"",""5"",""14022""
","
","337","","49","","","3000","1","","","images/earth.jpg","images/tutrocket2","images/tutrocket1","null","images/tutrocket1","","1","practice","null","1","","",""
"d3-animate-choice","77","313045","0.0-61.0-1.5","332","641","9","Male","true","true","false","true","""event"",""trial"",""time""
""fullscreenenter"",""5"",""14022""
","
","
","""event"",""trial"",""time""
""fullscreenenter"",""5"",""14022""
","
","443.60000002384186","","49","","","3000","1","","","images/tutgreenplanet.jpg","images/tutalien2","images/tutalien1","images/tutrocket1","images/tutalien1","images/nothing.png","2","practice","true","1","common","0","2022-02-04 21:28:48.937"
"two-step-fixation","78","314048","0.0-61.0-2.5","332","641","9","Male","true","true","false","true","""event"",""trial"",""time""
""fullscreenenter"",""5"",""14022""
","
","
","""event"",""trial"",""time""
""fullscreenenter"",""5"",""14022""
","
","","images/earth.jpg","","","","","","","","","","","","","","fixation","","","","","",""
"d3-animate-choice","79","316430","0.0-61.0-0.6","332","641","9","Male","true","true","false","true","""event"",""trial"",""time""
""fullscreenenter"",""5"",""14022""
","
","
","""event"",""trial"",""time""
""fullscreenenter"",""5"",""14022""
","
","375.9000000357628","","49","","","3000","1","2048.300000011921","49","images/earth.jpg","images/tutrocket2","images/tutrocket1","null","images/tutrocket1","","1","practice","null","1","","",""
"d3-animate-choice","80","319215","0.0-61.0-1.6","332","641","9","Male","true","true","false","true","""event"",""trial"",""time""
""fullscreenenter"",""5"",""14022""
","
","
","""event"",""trial"",""time""
""fullscreenenter"",""5"",""14022""
","
","778.5","","48","","","3000","1","","","images/tutyellowplanet.jpg","images/tutalien4","images/tutalien3","images/tutrocket1","images/tutalien4","images/t.png","2","practice","false","2","rare","1","2022-02-04 21:28:55.107"
"two-step-fixation","81","320226","0.0-61.0-2.6","332","641","9","Male","true","true","false","true","""event"",""trial"",""time""
""fullscreenenter"",""5"",""14022""
","
","
","""event"",""trial"",""time""
""fullscreenenter"",""5"",""14022""
","
","","images/earth.jpg","","","","","","","","","","","","","","fixation","","","","","",""
"d3-animate-choice","82","322628","0.0-61.0-0.7","332","641","9","Male","true","true","false","true","""event"",""trial"",""time""
""fullscreenenter"",""5"",""14022""
","
","
","""event"",""trial"",""time""
""fullscreenenter"",""5"",""14022""
","
","397.5","","48","","","3000","1","","","images/earth.jpg","images/tutrocket2","images/tutrocket1","null","images/tutrocket2","","1","practice","null","2","","",""
"d3-animate-choice","83","324996","0.0-61.0-1.7","332","641","9","Male","true","true","false","true","""event"",""trial"",""time""
""fullscreenenter"",""5"",""14022""
","
","
","""event"",""trial"",""time""
""fullscreenenter"",""5"",""14022""
","
","364.60000002384186","","48","","","3000","1","","","images/tutyellowplanet.jpg","images/tutalien4","images/tutalien3","images/tutrocket2","images/tutalien4","images/nothing.png","2","practice","true","2","common","0","2022-02-04 21:29:00.888"
"two-step-fixation","84","326001","0.0-61.0-2.7","332","641","9","Male","true","true","false","true","""event"",""trial"",""time""
""fullscreenenter"",""5"",""14022""
","
","
","""event"",""trial"",""time""
""fullscreenenter"",""5"",""14022""
","
","","images/earth.jpg","","","","","","","","","","","","","","fixation","","","","","",""
"d3-animate-choice","85","328334","0.0-61.0-0.8","332","641","9","Male","true","true","false","true","""event"",""trial"",""time""
""fullscreenenter"",""5"",""14022""
","
","
","""event"",""trial"",""time""
""fullscreenenter"",""5"",""14022""
","
","329.39999997615814","","48","","","3000","1","","","images/earth.jpg","images/tutrocket2","images/tutrocket1","null","images/tutrocket2","","1","practice","null","2","","",""
"d3-animate-choice","86","330723","0.0-61.0-1.8","332","641","9","Male","true","true","false","true","""event"",""trial"",""time""
""fullscreenenter"",""5"",""14022""
","
","
","""event"",""trial"",""time""
""fullscreenenter"",""5"",""14022""
","
","385.80000001192093","","48","","","3000","1","","","images/tutyellowplanet.jpg","images/tutalien4","images/tutalien3","images/tutrocket2","images/tutalien4","images/t.png","2","practice","true","2","common","1","2022-02-04 21:29:06.615"
"two-step-fixation","87","331726","0.0-61.0-2.8","332","641","9","Male","true","true","false","true","""event"",""trial"",""time""
""fullscreenenter"",""5"",""14022""
","
","
","""event"",""trial"",""time""
""fullscreenenter"",""5"",""14022""
","
","","images/earth.jpg","","","","","","","","","","","","","","fixation","","","","","",""
"d3-animate-choice","88","334029","0.0-61.0-0.9","332","641","9","Male","true","true","false","true","""event"",""trial"",""time""
""fullscreenenter"",""5"",""14022""
","
","
","""event"",""trial"",""time""
""fullscreenenter"",""5"",""14022""
","
","299.5","","48","","","3000","1","","","images/earth.jpg","images/tutrocket2","images/tutrocket1","null","images/tutrocket2","","1","practice","null","2","","",""
"d3-animate-choice","89","336308","0.0-61.0-1.9","332","641","9","Male","true","true","false","true","""event"",""trial"",""time""
""fullscreenenter"",""5"",""14022""
","
","
","""event"",""trial"",""time""
""fullscreenenter"",""5"",""14022""
","
","275.89999997615814","","48","","","3000","1","","","images/tutgreenplanet.jpg","images/tutalien2","images/tutalien1","images/tutrocket2","images/tutalien2","images/t.png","2","practice","false","2","rare","1","2022-02-04 21:29:12.201"
"two-step-fixation","90","337311","0.0-61.0-2.9","332","641","9","Male","true","true","false","true","""event"",""trial"",""time""
""fullscreenenter"",""5"",""14022""
","
","
","""event"",""trial"",""time""
""fullscreenenter"",""5"",""14022""
","
","","images/earth.jpg","","","","","","","","","","","","","","fixation","","","","","",""
"d3-animate-choice","91","339580","0.0-61.0-0.10","332","641","9","Male","true","true","false","true","""event"",""trial"",""time""
""fullscreenenter"",""5"",""14022""
","
","
","""event"",""trial"",""time""
""fullscreenenter"",""5"",""14022""
","
","266.5","","48","","","3000","1","","","images/earth.jpg","images/tutrocket2","images/tutrocket1","null","images/tutrocket2","","1","practice","null","2","","",""
"d3-animate-choice","92","341932","0.0-61.0-1.10","332","641","9","Male","true","true","false","true","""event"",""trial"",""time""
""fullscreenenter"",""5"",""14022""
","
","
","""event"",""trial"",""time""
""fullscreenenter"",""5"",""14022""
","
","348.80000001192093","","48","","","3000","1","","","images/tutyellowplanet.jpg","images/tutalien4","images/tutalien3","images/tutrocket2","images/tutalien4","images/t.png","2","practice","true","2","common","1","2022-02-04 21:29:17.824"
"two-step-fixation","93","342936","0.0-61.0-2.10","332","641","9","Male","true","true","false","true","""event"",""trial"",""time""
""fullscreenenter"",""5"",""14022""
","
","
","""event"",""trial"",""time""
""fullscreenenter"",""5"",""14022""
","
","","images/earth.jpg","","","","","","","","","","","","","","fixation","","","","","",""
"d3-animate-choice","94","345237","0.0-61.0-0.11","332","641","9","Male","true","true","false","true","""event"",""trial"",""time""
""fullscreenenter"",""5"",""14022""
","
","
","""event"",""trial"",""time""
""fullscreenenter"",""5"",""14022""
","
","295.7999999523163","","48","","","3000","1","","","images/earth.jpg","images/tutrocket2","images/tutrocket1","null","images/tutrocket2","","1","practice","null","2","","",""
"d3-animate-choice","95","347949","0.0-61.0-1.11","332","641","9","Male","true","true","false","true","""event"",""trial"",""time""
""fullscreenenter"",""5"",""14022""
","
","
","""event"",""trial"",""time""
""fullscreenenter"",""5"",""14022""
","
","707.1000000238419","","48","","","3000","1","","","images/tutyellowplanet.jpg","images/tutalien4","images/tutalien3","images/tutrocket2","images/tutalien4","images/nothing.png","2","practice","true","2","common","0","2022-02-04 21:29:23.841"
"two-step-fixation","96","348952","0.0-61.0-2.11","332","641","9","Male","true","true","false","true","""event"",""trial"",""time""
""fullscreenenter"",""5"",""14022""
","
","
","""event"",""trial"",""time""
""fullscreenenter"",""5"",""14022""
","
","","images/earth.jpg","","","","","","","","","","","","","","fixation","","","","","",""
"d3-animate-choice","97","351325","0.0-61.0-0.12","332","641","9","Male","true","true","false","true","""event"",""trial"",""time""
""fullscreenenter"",""5"",""14022""
","
","
","""event"",""trial"",""time""
""fullscreenenter"",""5"",""14022""
","
","369.5999999642372","","48","","","3000","1","","","images/earth.jpg","images/tutrocket2","images/tutrocket1","null","images/tutrocket2","","1","practice","null","2","","",""
"d3-animate-choice","98","353748","0.0-61.0-1.12","332","641","9","Male","true","true","false","true","""event"",""trial"",""time""
""fullscreenenter"",""5"",""14022""
","
","
","""event"",""trial"",""time""
""fullscreenenter"",""5"",""14022""
","
","420.19999998807907","","48","","","3000","1","","","images/tutyellowplanet.jpg","images/tutalien4","images/tutalien3","images/tutrocket2","images/tutalien4","images/t.png","2","practice","true","2","common","1","2022-02-04 21:29:29.640"
"two-step-fixation","99","354752","0.0-61.0-2.12","332","641","9","Male","true","true","false","true","""event"",""trial"",""time""
""fullscreenenter"",""5"",""14022""
","
","
","""event"",""trial"",""time""
""fullscreenenter"",""5"",""14022""
","
","","images/earth.jpg","","","","","","","","","","","","","","fixation","","","","","",""
"d3-animate-choice","100","357124","0.0-61.0-0.13","332","641","9","Male","true","true","false","true","""event"",""trial"",""time""
""fullscreenenter"",""5"",""14022""
","
","
","""event"",""trial"",""time""
""fullscreenenter"",""5"",""14022""
","
","369","","48","","","3000","1","","","images/earth.jpg","images/tutrocket2","images/tutrocket1","null","images/tutrocket2","","1","practice","null","2","","",""
"d3-animate-choice","101","359748","0.0-61.0-1.13","332","641","9","Male","true","true","false","true","""event"",""trial"",""time""
""fullscreenenter"",""5"",""14022""
","
","
","""event"",""trial"",""time""
""fullscreenenter"",""5"",""14022""
","
","621.8000000119209","","48","","","3000","1","","","images/tutyellowplanet.jpg","images/tutalien4","images/tutalien3","images/tutrocket2","images/tutalien4","images/t.png","2","practice","true","2","common","1","2022-02-04 21:29:35.640"
"two-step-fixation","102","360751","0.0-61.0-2.13","332","641","9","Male","true","true","false","true","""event"",""trial"",""time""
""fullscreenenter"",""5"",""14022""
","
","
","""event"",""trial"",""time""
""fullscreenenter"",""5"",""14022""
","
","","images/earth.jpg","","","","","","","","","","","","","","fixation","","","","","",""
"d3-animate-choice","103","363132","0.0-61.0-0.14","332","641","9","Male","true","true","false","true","""event"",""trial"",""time""
""fullscreenenter"",""5"",""14022""
","
","
","""event"",""trial"",""time""
""fullscreenenter"",""5"",""14022""
","
","377.5","","48","","","3000","1","","","images/earth.jpg","images/tutrocket2","images/tutrocket1","null","images/tutrocket2","","1","practice","null","2","","",""
"d3-animate-choice","104","365492","0.0-61.0-1.14","332","641","9","Male","true","true","false","true","""event"",""trial"",""time""
""fullscreenenter"",""5"",""14022""
","
","
","""event"",""trial"",""time""
""fullscreenenter"",""5"",""14022""
","
","357.60000002384186","","48","","","3000","1","","","images/tutyellowplanet.jpg","images/tutalien4","images/tutalien3","images/tutrocket2","images/tutalien4","images/t.png","2","practice","true","2","common","1","2022-02-04 21:29:41.384"
"two-step-fixation","105","366495","0.0-61.0-2.14","332","641","9","Male","true","true","false","true","""event"",""trial"",""time""
""fullscreenenter"",""5"",""14022""
","
","
","""event"",""trial"",""time""
""fullscreenenter"",""5"",""14022""
","
","","images/earth.jpg","","","","","","","","","","","","","","fixation","","","","","",""
"d3-animate-choice","106","368820","0.0-61.0-0.15","332","641","9","Male","true","true","false","true","""event"",""trial"",""time""
""fullscreenenter"",""5"",""14022""
","
","
","""event"",""trial"",""time""
""fullscreenenter"",""5"",""14022""
","
","321.2000000476837","","48","","","3000","1","","","images/earth.jpg","images/tutrocket2","images/tutrocket1","null","images/tutrocket2","","1","practice","null","2","","",""
"d3-animate-choice","107","371180","0.0-61.0-1.15","332","641","9","Male","true","true","false","true","""event"",""trial"",""time""
""fullscreenenter"",""5"",""14022""
","
","
","""event"",""trial"",""time""
""fullscreenenter"",""5"",""14022""
","
","356.19999998807907","","48","","","3000","1","","","images/tutyellowplanet.jpg","images/tutalien4","images/tutalien3","images/tutrocket2","images/tutalien4","images/t.png","2","practice","true","2","common","1","2022-02-04 21:29:47.072"
"two-step-fixation","108","372182","0.0-61.0-2.15","332","641","9","Male","true","true","false","true","""event"",""trial"",""time""
""fullscreenenter"",""5"",""14022""
","
","
","""event"",""trial"",""time""
""fullscreenenter"",""5"",""14022""
","
","","images/earth.jpg","","","","","","","","","","","","","","fixation","","","","","",""
"d3-animate-choice","109","374460","0.0-61.0-0.16","332","641","9","Male","true","true","false","true","""event"",""trial"",""time""
""fullscreenenter"",""5"",""14022""
","
","
","""event"",""trial"",""time""
""fullscreenenter"",""5"",""14022""
","
","275.69999998807907","","48","","","3000","1","","","images/earth.jpg","images/tutrocket2","images/tutrocket1","null","images/tutrocket2","","1","practice","null","2","","",""
"d3-animate-choice","110","376830","0.0-61.0-1.16","332","641","9","Male","true","true","false","true","""event"",""trial"",""time""
""fullscreenenter"",""5"",""14022""
","
","
","""event"",""trial"",""time""
""fullscreenenter"",""5"",""14022""
","
","363.5999999642372","","48","","","3000","1","","","images/tutyellowplanet.jpg","images/tutalien4","images/tutalien3","images/tutrocket2","images/tutalien4","images/t.png","2","practice","true","2","common","1","2022-02-04 21:29:52.722"
"two-step-fixation","111","377837","0.0-61.0-2.16","332","641","9","Male","true","true","false","true","""event"",""trial"",""time""
""fullscreenenter"",""5"",""14022""
","
","
","""event"",""trial"",""time""
""fullscreenenter"",""5"",""14022""
","
","","images/earth.jpg","","","","","","","","","","","","","","fixation","","","","","",""
"d3-animate-choice","112","380156","0.0-61.0-0.17","332","641","9","Male","true","true","false","true","""event"",""trial"",""time""
""fullscreenenter"",""5"",""14022""
","
","
","""event"",""trial"",""time""
""fullscreenenter"",""5"",""14022""
","
","313.30000001192093","","48","","","3000","1","1657.4000000357628","48","images/earth.jpg","images/tutrocket2","images/tutrocket1","null","images/tutrocket2","","1","practice","null","2","","",""
"d3-animate-choice","113","382572","0.0-61.0-1.17","332","641","9","Male","true","true","false","true","""event"",""trial"",""time""
""fullscreenenter"",""5"",""14022""
","
","
","""event"",""trial"",""time""
""fullscreenenter"",""5"",""14022""
","
","407.80000001192093","","48","","","3000","1","","","images/tutyellowplanet.jpg","images/tutalien4","images/tutalien3","images/tutrocket2","images/tutalien4","images/t.png","2","practice","true","2","common","1","2022-02-04 21:29:58.464"
"two-step-fixation","114","383576","0.0-61.0-2.17","332","641","9","Male","true","true","false","true","""event"",""trial"",""time""
""fullscreenenter"",""5"",""14022""
","
","
","""event"",""trial"",""time""
""fullscreenenter"",""5"",""14022""
","
","","images/earth.jpg","","","","","","","","","","","","","","fixation","","","","","",""
"d3-animate-choice","115","386036","0.0-61.0-0.18","332","641","9","Male","true","true","false","true","""event"",""trial"",""time""
""fullscreenenter"",""5"",""14022""
","
","
","""event"",""trial"",""time""
""fullscreenenter"",""5"",""14022""
","
","457","","48","","","3000","1","","","images/earth.jpg","images/tutrocket2","images/tutrocket1","null","images/tutrocket2","","1","practice","null","2","","",""
"d3-animate-choice","116","388740","0.0-61.0-1.18","332","641","9","Male","true","true","false","true","""event"",""trial"",""time""
""fullscreenenter"",""5"",""14022""
","
","
","""event"",""trial"",""time""
""fullscreenenter"",""5"",""14022""
","
","697.7999999523163","","48","","","3000","1","","","images/tutyellowplanet.jpg","images/tutalien4","images/tutalien3","images/tutrocket2","images/tutalien4","images/t.png","2","practice","true","2","common","1","2022-02-04 21:30:04.633"
"two-step-fixation","117","389745","0.0-61.0-2.18","332","641","9","Male","true","true","false","true","""event"",""trial"",""time""
""fullscreenenter"",""5"",""14022""
","
","
","""event"",""trial"",""time""
""fullscreenenter"",""5"",""14022""
","
","","images/earth.jpg","","","","","","","","","","","","","","fixation","","","","","",""
"d3-animate-choice","118","392036","0.0-61.0-0.19","332","641","9","Male","true","true","false","true","""event"",""trial"",""time""
""fullscreenenter"",""5"",""14022""
","
","
","""event"",""trial"",""time""
""fullscreenenter"",""5"",""14022""
","
","288.10000002384186","","48","","","3000","1","1863.9000000357628","48","images/earth.jpg","images/tutrocket2","images/tutrocket1","null","images/tutrocket2","","1","practice","null","2","","",""
"d3-animate-choice","119","394390","0.0-61.0-1.19","332","641","9","Male","true","true","false","true","""event"",""trial"",""time""
""fullscreenenter"",""5"",""14022""
","
","
","""event"",""trial"",""time""
""fullscreenenter"",""5"",""14022""
","
","349.5","","48","","","3000","1","","","images/tutyellowplanet.jpg","images/tutalien4","images/tutalien3","images/tutrocket2","images/tutalien4","images/t.png","2","practice","true","2","common","1","2022-02-04 21:30:10.282"
"two-step-fixation","120","395399","0.0-61.0-2.19","332","641","9","Male","true","true","false","true","""event"",""trial"",""time""
""fullscreenenter"",""5"",""14022""
","
","
","""event"",""trial"",""time""
""fullscreenenter"",""5"",""14022""
","
","","images/earth.jpg","","","","","","","","","","","","","","fixation","","","","","",""
"d3-instructions","121","400826","0.0-62.0","332","641","9","Male","true","true","false","true","""event"",""trial"",""time""
""fullscreenenter"",""5"",""14022""
","
","
","""event"",""trial"",""time""
""fullscreenenter"",""5"",""14022""
","
","","","","","","","","","","","","","","","","","","","","","",""
"audio-keyboard-response","122","403978","0.0-63.0","332","641","9","Male","true","true","false","true","""event"",""trial"",""time""
""fullscreenenter"",""5"",""14022""
","
","
","""event"",""trial"",""time""
""fullscreenenter"",""5"",""14022""
","
","3160","audio/instructions/treasure_feedback.wav","32","","","","","","","","","","","","","","","","","","",""
"d3-instructions","123","415035","0.0-64.0","332","641","9","Male","true","true","false","true","""event"",""trial"",""time""
""fullscreenenter"",""5"",""14022""
","
","
","""event"",""trial"",""time""
""fullscreenenter"",""5"",""14022""
","
","","","","","","","","","","","","","","","","","","","","","",""
"d3-instructions","124","420834","0.0-65.0","332","641","9","Male","true","true","false","true","""event"",""trial"",""time""
""fullscreenenter"",""5"",""14022""
","
","
","""event"",""trial"",""time""
""fullscreenenter"",""5"",""14022""
","
","","","","","","","","","","","","","","","","","","","","","",""
"d3-instructions","125","423443","0.0-66.0","332","641","9","Male","true","true","false","true","""event"",""trial"",""time""
""fullscreenenter"",""5"",""14022""
","
","
","""event"",""trial"",""time""
""fullscreenenter"",""5"",""14022""
","
","","","","","","","","","","","","","","","","","","","","","",""
"d3-instructions","126","424626","0.0-67.0","332","641","9","Male","true","true","false","true","""event"",""trial"",""time""
""fullscreenenter"",""5"",""14022""
","
","
","""event"",""trial"",""time""
""fullscreenenter"",""5"",""14022""
","
","","","","","","","","","","","","","","","","","","","","","",""
"d3-instructions","127","433866","0.0-68.0","332","641","9","Male","true","true","false","true","""event"",""trial"",""time""
""fullscreenenter"",""5"",""14022""
","
","
","""event"",""trial"",""time""
""fullscreenenter"",""5"",""14022""
","
","","","","","","","","","","","","","","","","","","","","","",""
"instructions-quiz","128","439145","0.0-69.0","332","641","9","Male","true","true","false","true","""event"",""trial"",""time""
""fullscreenenter"",""5"",""14022""
","
","
","""event"",""trial"",""time""
""fullscreenenter"",""5"",""14022""
","
","5276.099999964237","audio/quiz/Q1_Prompt.wav","","1","","","","","","","","","","","","","","","","","",""
"audio-keyboard-response","129","448309","0.0-70.0","332","641","9","Male","true","true","false","true","""event"",""trial"",""time""
""fullscreenenter"",""5"",""14022""
","
","
","""event"",""trial"",""time""
""fullscreenenter"",""5"",""14022""
","
","null","audio/quiz/Q1_Correct.wav","null","","","","","","","","","","","","","","","","","","",""
"instructions-quiz","130","457559","0.0-71.0","332","641","9","Male","true","true","false","true","""event"",""trial"",""time""
""fullscreenenter"",""5"",""14022""
","
","
","""event"",""trial"",""time""
""fullscreenenter"",""5"",""14022""
","
","9248.800000011921","audio/quiz/Q2_Prompt.wav","","0","","","","","","","","","","","","","","","","","",""
"audio-keyboard-response","131","470428","0.0-72.0","332","641","9","Male","true","true","false","true","""event"",""trial"",""time""
""fullscreenenter"",""5"",""14022""
","
","
","""event"",""trial"",""time""
""fullscreenenter"",""5"",""14022""
","
","null","audio/quiz/Q2_Correct.wav","null","","","","","","","","","","","","","","","","","","",""
"instructions-quiz","132","474336","0.0-73.0","332","641","9","Male","true","true","false","true","""event"",""trial"",""time""
""fullscreenenter"",""5"",""14022""
","
","
","""event"",""trial"",""time""
""fullscreenenter"",""5"",""14022""
","
","3905.300000011921","audio/quiz/Q3_Prompt.wav","","1","","","","","","","","","","","","","","","","","",""
"audio-keyboard-response","133","480129","0.0-74.0","332","641","9","Male","true","true","false","true","""event"",""trial"",""time""
""fullscreenenter"",""5"",""14022""
","
","
","""event"",""trial"",""time""
""fullscreenenter"",""5"",""14022""
","
","null","audio/quiz/Q3_Correct.wav","null","","","","","","","","","","","","","","","","","","",""
"d3-instructions","134","482635","0.0-75.0","332","641","9","Male","true","true","false","true","""event"",""trial"",""time""
""fullscreenenter"",""5"",""14022""
","
","
","""event"",""trial"",""time""
""fullscreenenter"",""5"",""14022""
","
","","","","","","","","","","","","","","","","","","","","","",""
"d3-animate-choice","135","485884","0.0-76.0-0.0","332","641","9","Male","true","true","false","true","""event"",""trial"",""time""
""fullscreenenter"",""5"",""14022""
","
","
","""event"",""trial"",""time""
""fullscreenenter"",""5"",""14022""
","
","1244","","49","","","3000","1","","","images/earth.jpg","images/rocket2","images/rocket1","null","images/rocket1","","1","real","null","1","","",""
"d3-animate-choice","136","488412","0.0-76.0-1.0","332","641","9","Male","true","true","false","true","""event"",""trial"",""time""
""fullscreenenter"",""5"",""14022""
","
","
","""event"",""trial"",""time""
""fullscreenenter"",""5"",""14022""
","
","525.2000000476837","","48","","","3000","1","","","images/redplanet1.jpg","images/alien2","images/alien1","images/rocket1","images/alien2","images/t.png","2","real","true","2","common","1","2022-02-04 21:31:44.304"
"two-step-fixation","137","489415","0.0-76.0-2.0","332","641","9","Male","true","true","false","true","""event"",""trial"",""time""
""fullscreenenter"",""5"",""14022""
","
","
","""event"",""trial"",""time""
""fullscreenenter"",""5"",""14022""
","
","","images/earth.jpg","","","","","","","","","","","","","","fixation","","","","","",""
"d3-animate-choice","138","491852","0.0-76.0-0.1","332","641","9","Male","true","true","false","true","""event"",""trial"",""time""
""fullscreenenter"",""5"",""14022""
","
","
","""event"",""trial"",""time""
""fullscreenenter"",""5"",""14022""
","
","425.9000000357628","","49","","","3000","1","","","images/earth.jpg","images/rocket2","images/rocket1","null","images/rocket1","","1","real","null","1","","",""
"d3-animate-choice","139","494955","0.0-76.0-1.1","332","641","9","Male","true","true","false","true","""event"",""trial"",""time""
""fullscreenenter"",""5"",""14022""
","
","
","""event"",""trial"",""time""
""fullscreenenter"",""5"",""14022""
","
","1100.300000011921","","48","","","3000","1","","","images/purpleplanet.jpg","images/alien4","images/alien3","images/rocket1","images/alien4","images/nothing.png","2","real","false","2","rare","0","2022-02-04 21:31:50.847"
"two-step-fixation","140","495958","0.0-76.0-2.1","332","641","9","Male","true","true","false","true","""event"",""trial"",""time""
""fullscreenenter"",""5"",""14022""
","
","
","""event"",""trial"",""time""
""fullscreenenter"",""5"",""14022""
","
","","images/earth.jpg","","","","","","","","","","","","","","fixation","","","","","",""
"d3-animate-choice","141","498515","0.0-76.0-0.2","332","641","9","Male","true","true","false","true","""event"",""trial"",""time""
""fullscreenenter"",""5"",""14022""
","
","
","""event"",""trial"",""time""
""fullscreenenter"",""5"",""14022""
","
","555.3000000119209","","49","","","3000","1","","","images/earth.jpg","images/rocket2","images/rocket1","null","images/rocket1","","1","real","null","1","","",""
"d3-animate-choice","142","501661","0.0-76.0-1.2","332","641","9","Male","true","true","false","true","""event"",""trial"",""time""
""fullscreenenter"",""5"",""14022""
","
","
","""event"",""trial"",""time""
""fullscreenenter"",""5"",""14022""
","
","1142.5","","48","","","3000","1","","","images/redplanet1.jpg","images/alien2","images/alien1","images/rocket1","images/alien2","images/nothing.png","2","real","true","2","common","0","2022-02-04 21:31:57.553"
"two-step-fixation","143","502663","0.0-76.0-2.2","332","641","9","Male","true","true","false","true","""event"",""trial"",""time""
""fullscreenenter"",""5"",""14022""
","
","
","""event"",""trial"",""time""
""fullscreenenter"",""5"",""14022""
","
","","images/earth.jpg","","","","","","","","","","","","","","fixation","","","","","",""
"d3-animate-choice","144","504996","0.0-76.0-0.3","332","641","9","Male","true","true","false","true","""event"",""trial"",""time""
""fullscreenenter"",""5"",""14022""
","
","
","""event"",""trial"",""time""
""fullscreenenter"",""5"",""14022""
","
","330.80000001192093","","49","","","3000","1","","","images/earth.jpg","images/rocket2","images/rocket1","null","images/rocket1","","1","real","null","1","","",""
"d3-animate-choice","145","508025","0.0-76.0-1.3","332","641","9","Male","true","true","false","true","""event"",""trial"",""time""
""fullscreenenter"",""5"",""14022""
","
","
","""event"",""trial"",""time""
""fullscreenenter"",""5"",""14022""
","
","1014.2999999523163","","49","","","3000","1","","","images/redplanet1.jpg","images/alien2","images/alien1","images/rocket1","images/alien1","images/t.png","2","real","true","1","common","1","2022-02-04 21:32:03.917"
"two-step-fixation","146","509029","0.0-76.0-2.3","332","641","9","Male","true","true","false","true","""event"",""trial"",""time""
""fullscreenenter"",""5"",""14022""
","
","
","""event"",""trial"",""time""
""fullscreenenter"",""5"",""14022""
","
","","images/earth.jpg","","","","","","","","","","","","","","fixation","","","","","",""
"d3-animate-choice","147","511357","0.0-76.0-0.4","332","641","9","Male","true","true","false","true","""event"",""trial"",""time""
""fullscreenenter"",""5"",""14022""
","
","
","""event"",""trial"",""time""
""fullscreenenter"",""5"",""14022""
","
","323.2999999523163","","48","","","3000","1","","","images/earth.jpg","images/rocket2","images/rocket1","null","images/rocket2","","1","real","null","2","","",""
"d3-animate-choice","148","514692","0.0-76.0-1.4","332","641","9","Male","true","true","false","true","""event"",""trial"",""time""
""fullscreenenter"",""5"",""14022""
","
","
","""event"",""trial"",""time""
""fullscreenenter"",""5"",""14022""
","
","1332.699999988079","","48","","","3000","1","","","images/purpleplanet.jpg","images/alien4","images/alien3","images/rocket2","images/alien4","images/t.png","2","real","true","2","common","1","2022-02-04 21:32:10.584"
"two-step-fixation","149","515695","0.0-76.0-2.4","332","641","9","Male","true","true","false","true","""event"",""trial"",""time""
""fullscreenenter"",""5"",""14022""
","
","
","""event"",""trial"",""time""
""fullscreenenter"",""5"",""14022""
","
","","images/earth.jpg","","","","","","","","","","","","","","fixation","","","","","",""
"d3-animate-choice","150","518093","0.0-76.0-0.5","332","641","9","Male","true","true","false","true","""event"",""trial"",""time""
""fullscreenenter"",""5"",""14022""
","
","
","""event"",""trial"",""time""
""fullscreenenter"",""5"",""14022""
","
","393.5","","49","","","3000","1","","","images/earth.jpg","images/rocket2","images/rocket1","null","images/rocket1","","1","real","null","1","","",""
"d3-animate-choice","151","521925","0.0-76.0-1.5","332","641","9","Male","true","true","false","true","""event"",""trial"",""time""
""fullscreenenter"",""5"",""14022""
","
","
","""event"",""trial"",""time""
""fullscreenenter"",""5"",""14022""
","
","1828.6000000238419","","49","","","3000","1","","","images/purpleplanet.jpg","images/alien4","images/alien3","images/rocket1","images/alien3","images/nothing.png","2","real","false","1","rare","0","2022-02-04 21:32:17.817"
"two-step-fixation","152","522929","0.0-76.0-2.5","332","641","9","Male","true","true","false","true","""event"",""trial"",""time""
""fullscreenenter"",""5"",""14022""
","
","
","""event"",""trial"",""time""
""fullscreenenter"",""5"",""14022""
","
","","images/earth.jpg","","","","","","","","","","","","","","fixation","","","","","",""
"d3-animate-choice","153","525507","0.0-76.0-0.6","332","641","9","Male","true","true","false","true","""event"",""trial"",""time""
""fullscreenenter"",""5"",""14022""
","
","
","""event"",""trial"",""time""
""fullscreenenter"",""5"",""14022""
","
","575.8000000119209","","49","","","3000","1","","","images/earth.jpg","images/rocket2","images/rocket1","null","images/rocket1","","1","real","null","1","","",""
"d3-animate-choice","154","529131","0.0-76.0-1.6","332","641","9","Male","true","true","false","true","""event"",""trial"",""time""
""fullscreenenter"",""5"",""14022""
","
","
","""event"",""trial"",""time""
""fullscreenenter"",""5"",""14022""
","
","1620.699999988079","","49","","","3000","1","","","images/redplanet1.jpg","images/alien2","images/alien1","images/rocket1","images/alien1","images/t.png","2","real","true","1","common","1","2022-02-04 21:32:25.024"
"two-step-fixation","155","530134","0.0-76.0-2.6","332","641","9","Male","true","true","false","true","""event"",""trial"",""time""
""fullscreenenter"",""5"",""14022""
","
","
","""event"",""trial"",""time""
""fullscreenenter"",""5"",""14022""
","
","","images/earth.jpg","","","","","","","","","","","","","","fixation","","","","","",""
"d3-animate-choice","156","532516","0.0-76.0-0.7","332","641","9","Male","true","true","false","true","""event"",""trial"",""time""
""fullscreenenter"",""5"",""14022""
","
","
","""event"",""trial"",""time""
""fullscreenenter"",""5"",""14022""
","
","379.5","","48","","","3000","1","","","images/earth.jpg","images/rocket2","images/rocket1","null","images/rocket2","","1","real","null","2","","",""
"d3-animate-choice","157","534989","0.0-76.0-1.7","332","641","9","Male","true","true","false","true","""event"",""trial"",""time""
""fullscreenenter"",""5"",""14022""
","
","
","""event"",""trial"",""time""
""fullscreenenter"",""5"",""14022""
","
","469.4000000357628","","48","","","3000","1","","","images/purpleplanet.jpg","images/alien4","images/alien3","images/rocket2","images/alien4","images/t.png","2","real","true","2","common","1","2022-02-04 21:32:30.881"
"two-step-fixation","158","535992","0.0-76.0-2.7","332","641","9","Male","true","true","false","true","""event"",""trial"",""time""
""fullscreenenter"",""5"",""14022""
","
","
","""event"",""trial"",""time""
""fullscreenenter"",""5"",""14022""
","
","","images/earth.jpg","","","","","","","","","","","","","","fixation","","","","","",""
"d3-animate-choice","159","538315","0.0-76.0-0.8","332","641","9","Male","true","true","false","true","""event"",""trial"",""time""
""fullscreenenter"",""5"",""14022""
","
","
","""event"",""trial"",""time""
""fullscreenenter"",""5"",""14022""
","
","321.30000001192093","","49","","","3000","1","","","images/earth.jpg","images/rocket2","images/rocket1","null","images/rocket1","","1","real","null","1","","",""
"d3-animate-choice","160","540709","0.0-76.0-1.8","332","641","9","Male","true","true","false","true","""event"",""trial"",""time""
""fullscreenenter"",""5"",""14022""
","
","
","""event"",""trial"",""time""
""fullscreenenter"",""5"",""14022""
","
","389.9000000357628","","49","","","3000","1","","","images/purpleplanet.jpg","images/alien4","images/alien3","images/rocket1","images/alien3","images/t.png","2","real","false","1","rare","1","2022-02-04 21:32:36.601"
"two-step-fixation","161","541720","0.0-76.0-2.8","332","641","9","Male","true","true","false","true","""event"",""trial"",""time""
""fullscreenenter"",""5"",""14022""
","
","
","""event"",""trial"",""time""
""fullscreenenter"",""5"",""14022""
","
","","images/earth.jpg","","","","","","","","","","","","","","fixation","","","","","",""
"d3-animate-choice","162","544045","0.0-76.0-0.9","332","641","9","Male","true","true","false","true","""event"",""trial"",""time""
""fullscreenenter"",""5"",""14022""
","
","
","""event"",""trial"",""time""
""fullscreenenter"",""5"",""14022""
","
","318.30000001192093","","48","","","3000","1","","","images/earth.jpg","images/rocket2","images/rocket1","null","images/rocket2","","1","real","null","2","","",""
"d3-animate-choice","163","546644","0.0-76.0-1.9","332","641","9","Male","true","true","false","true","""event"",""trial"",""time""
""fullscreenenter"",""5"",""14022""
","
","
","""event"",""trial"",""time""
""fullscreenenter"",""5"",""14022""
","
","593.8000000119209","","48","","","3000","1","","","images/purpleplanet.jpg","images/alien4","images/alien3","images/rocket2","images/alien4","images/t.png","2","real","true","2","common","1","2022-02-04 21:32:42.536"
"two-step-fixation","164","547652","0.0-76.0-2.9","332","641","9","Male","true","true","false","true","""event"",""trial"",""time""
""fullscreenenter"",""5"",""14022""
","
","
","""event"",""trial"",""time""
""fullscreenenter"",""5"",""14022""
","
","","images/earth.jpg","","","","","","","","","","","","","","fixation","","","","","",""
"d3-animate-choice","165","549951","0.0-76.0-0.10","332","641","9","Male","true","true","false","true","""event"",""trial"",""time""
""fullscreenenter"",""5"",""14022""
","
","
","""event"",""trial"",""time""
""fullscreenenter"",""5"",""14022""
","
","294","","49","","","3000","1","","","images/earth.jpg","images/rocket2","images/rocket1","null","images/rocket1","","1","real","null","1","","",""
"d3-animate-choice","166","551961","0.0-76.0-1.10","332","641","9","Male","true","true","false","true","""event"",""trial"",""time""
""fullscreenenter"",""5"",""14022""
","
","
","""event"",""trial"",""time""
""fullscreenenter"",""5"",""14022""
","
","0.19999998807907104","","49","","","3000","1","","","images/redplanet1.jpg","images/alien2","images/alien1","images/rocket1","images/alien1","images/t.png","2","real","true","1","common","1","2022-02-04 21:32:47.853"
"two-step-fixation","167","552965","0.0-76.0-2.10","332","641","9","Male","true","true","false","true","""event"",""trial"",""time""
""fullscreenenter"",""5"",""14022""
","
","
","""event"",""trial"",""time""
""fullscreenenter"",""5"",""14022""
","
","","images/earth.jpg","","","","","","","","","","","","","","fixation","","","","","",""
"d3-animate-choice","168","555557","0.0-76.0-0.11","332","641","9","Male","true","true","false","true","""event"",""trial"",""time""
""fullscreenenter"",""5"",""14022""
","
","
","""event"",""trial"",""time""
""fullscreenenter"",""5"",""14022""
","
","587.6000000238419","","48","","","3000","1","","","images/earth.jpg","images/rocket2","images/rocket1","null","images/rocket2","","1","real","null","2","","",""
"d3-animate-choice","169","557948","0.0-76.0-1.11","332","641","9","Male","true","true","false","true","""event"",""trial"",""time""
""fullscreenenter"",""5"",""14022""
","
","
","""event"",""trial"",""time""
""fullscreenenter"",""5"",""14022""
","
","387.60000002384186","","48","","","3000","1","","","images/purpleplanet.jpg","images/alien4","images/alien3","images/rocket2","images/alien4","images/t.png","2","real","true","2","common","1","2022-02-04 21:32:53.840"
"two-step-fixation","170","558951","0.0-76.0-2.11","332","641","9","Male","true","true","false","true","""event"",""trial"",""time""
""fullscreenenter"",""5"",""14022""
","
","
","""event"",""trial"",""time""
""fullscreenenter"",""5"",""14022""
","
","","images/earth.jpg","","","","","","","","","","","","","","fixation","","","","","",""
"d3-animate-choice","171","561316","0.0-76.0-0.12","332","641","9","Male","true","true","false","true","""event"",""trial"",""time""
""fullscreenenter"",""5"",""14022""
","
","
","""event"",""trial"",""time""
""fullscreenenter"",""5"",""14022""
","
","361.5","","49","","","3000","1","","","images/earth.jpg","images/rocket2","images/rocket1","null","images/rocket1","","1","real","null","1","","",""
"d3-animate-choice","172","563724","0.0-76.0-1.12","332","641","9","Male","true","true","false","true","""event"",""trial"",""time""
""fullscreenenter"",""5"",""14022""
","
","
","""event"",""trial"",""time""
""fullscreenenter"",""5"",""14022""
","
","402.89999997615814","","49","","","3000","1","","","images/purpleplanet.jpg","images/alien4","images/alien3","images/rocket1","images/alien3","images/nothing.png","2","real","false","1","rare","0","2022-02-04 21:32:59.616"
"two-step-fixation","173","564727","0.0-76.0-2.12","332","641","9","Male","true","true","false","true","""event"",""trial"",""time""
""fullscreenenter"",""5"",""14022""
","
","
","""event"",""trial"",""time""
""fullscreenenter"",""5"",""14022""
","
","","images/earth.jpg","","","","","","","","","","","","","","fixation","","","","","",""
"d3-animate-choice","174","567006","0.0-76.0-0.13","332","641","9","Male","true","true","false","true","""event"",""trial"",""time""
""fullscreenenter"",""5"",""14022""
","
","
","""event"",""trial"",""time""
""fullscreenenter"",""5"",""14022""
","
","274.80000001192093","","48","","","3000","1","","","images/earth.jpg","images/rocket2","images/rocket1","null","images/rocket2","","1","real","null","2","","",""
"d3-animate-choice","175","569301","0.0-76.0-1.13","332","641","9","Male","true","true","false","true","""event"",""trial"",""time""
""fullscreenenter"",""5"",""14022""
","
","
","""event"",""trial"",""time""
""fullscreenenter"",""5"",""14022""
","
","290.89999997615814","","48","","","3000","1","","","images/redplanet1.jpg","images/alien2","images/alien1","images/rocket2","images/alien2","images/nothing.png","2","real","false","2","rare","0","2022-02-04 21:33:05.193"
"two-step-fixation","176","570305","0.0-76.0-2.13","332","641","9","Male","true","true","false","true","""event"",""trial"",""time""
""fullscreenenter"",""5"",""14022""
","
","
","""event"",""trial"",""time""
""fullscreenenter"",""5"",""14022""
","
","","images/earth.jpg","","","","","","","","","","","","","","fixation","","","","","",""
"d3-animate-choice","177","572646","0.0-76.0-0.14","332","641","9","Male","true","true","false","true","""event"",""trial"",""time""
""fullscreenenter"",""5"",""14022""
","
","
","""event"",""trial"",""time""
""fullscreenenter"",""5"",""14022""
","
","336.2999999523163","","49","","","3000","1","","","images/earth.jpg","images/rocket2","images/rocket1","null","images/rocket1","","1","real","null","1","","",""
"d3-animate-choice","178","575078","0.0-76.0-1.14","332","641","9","Male","true","true","false","true","""event"",""trial"",""time""
""fullscreenenter"",""5"",""14022""
","
","
","""event"",""trial"",""time""
""fullscreenenter"",""5"",""14022""
","
","424.80000001192093","","48","","","3000","1","","","images/redplanet1.jpg","images/alien2","images/alien1","images/rocket1","images/alien2","images/t.png","2","real","true","2","common","1","2022-02-04 21:33:10.970"
"two-step-fixation","179","576082","0.0-76.0-2.14","332","641","9","Male","true","true","false","true","""event"",""trial"",""time""
""fullscreenenter"",""5"",""14022""
","
","
","""event"",""trial"",""time""
""fullscreenenter"",""5"",""14022""
","
","","images/earth.jpg","","","","","","","","","","","","","","fixation","","","","","",""
"d3-animate-choice","180","578478","0.0-76.0-0.15","332","641","9","Male","true","true","false","true","""event"",""trial"",""time""
""fullscreenenter"",""5"",""14022""
","
","
","""event"",""trial"",""time""
""fullscreenenter"",""5"",""14022""
","
","391.0999999642372","","49","","","3000","1","","","images/earth.jpg","images/rocket2","images/rocket1","null","images/rocket1","","1","real","null","1","","",""
"d3-animate-choice","181","580830","0.0-76.0-1.15","332","641","9","Male","true","true","false","true","""event"",""trial"",""time""
""fullscreenenter"",""5"",""14022""
","
","
","""event"",""trial"",""time""
""fullscreenenter"",""5"",""14022""
","
","330.69999998807907","","48","","","3000","1","","","images/redplanet1.jpg","images/alien2","images/alien1","images/rocket1","images/alien2","images/nothing.png","2","real","true","2","common","0","2022-02-04 21:33:16.722"
"two-step-fixation","182","581838","0.0-76.0-2.15","332","641","9","Male","true","true","false","true","""event"",""trial"",""time""
""fullscreenenter"",""5"",""14022""
","
","
","""event"",""trial"",""time""
""fullscreenenter"",""5"",""14022""
","
","","images/earth.jpg","","","","","","","","","","","","","","fixation","","","","","",""
"d3-animate-choice","183","584116","0.0-76.0-0.16","332","641","9","Male","true","true","false","true","""event"",""trial"",""time""
""fullscreenenter"",""5"",""14022""
","
","
","""event"",""trial"",""time""
""fullscreenenter"",""5"",""14022""
","
","274.9000000357628","","49","","","3000","1","","","images/earth.jpg","images/rocket2","images/rocket1","null","images/rocket1","","1","real","null","1","","",""
"d3-animate-choice","184","586540","0.0-76.0-1.16","332","641","9","Male","true","true","false","true","""event"",""trial"",""time""
""fullscreenenter"",""5"",""14022""
","
","
","""event"",""trial"",""time""
""fullscreenenter"",""5"",""14022""
","
","420.7000000476837","","49","","","3000","1","","","images/purpleplanet.jpg","images/alien4","images/alien3","images/rocket1","images/alien3","images/nothing.png","2","real","false","1","rare","0","2022-02-04 21:33:22.432"
"two-step-fixation","185","587544","0.0-76.0-2.16","332","641","9","Male","true","true","false","true","""event"",""trial"",""time""
""fullscreenenter"",""5"",""14022""
","
","
","""event"",""trial"",""time""
""fullscreenenter"",""5"",""14022""
","
","","images/earth.jpg","","","","","","","","","","","","","","fixation","","","","","",""
"d3-animate-choice","186","589825","0.0-76.0-0.17","332","641","9","Male","true","true","false","true","""event"",""trial"",""time""
""fullscreenenter"",""5"",""14022""
","
","
","""event"",""trial"",""time""
""fullscreenenter"",""5"",""14022""
","
","272.9000000357628","","49","","","3000","1","","","images/earth.jpg","images/rocket2","images/rocket1","null","images/rocket1","","1","real","null","1","","",""
"d3-animate-choice","187","592132","0.0-76.0-1.17","332","641","9","Male","true","true","false","true","""event"",""trial"",""time""
""fullscreenenter"",""5"",""14022""
","
","
","""event"",""trial"",""time""
""fullscreenenter"",""5"",""14022""
","
","298.19999998807907","","49","","","3000","1","","","images/redplanet1.jpg","images/alien2","images/alien1","images/rocket1","images/alien1","images/t.png","2","real","true","1","common","1","2022-02-04 21:33:28.024"
"two-step-fixation","188","593135","0.0-76.0-2.17","332","641","9","Male","true","true","false","true","""event"",""trial"",""time""
""fullscreenenter"",""5"",""14022""
","
","
","""event"",""trial"",""time""
""fullscreenenter"",""5"",""14022""
","
","","images/earth.jpg","","","","","","","","","","","","","","fixation","","","","","",""
"d3-animate-choice","189","595550","0.0-76.0-0.18","332","641","9","Male","true","true","false","true","""event"",""trial"",""time""
""fullscreenenter"",""5"",""14022""
","
","
","""event"",""trial"",""time""
""fullscreenenter"",""5"",""14022""
","
","410.5","","49","","","3000","1","","","images/earth.jpg","images/rocket2","images/rocket1","null","images/rocket1","","1","real","null","1","","",""
"d3-animate-choice","190","597948","0.0-76.0-1.18","332","641","9","Male","true","true","false","true","""event"",""trial"",""time""
""fullscreenenter"",""5"",""14022""
","
","
","""event"",""trial"",""time""
""fullscreenenter"",""5"",""14022""
","
","394.30000001192093","","49","","","3000","1","","","images/redplanet1.jpg","images/alien2","images/alien1","images/rocket1","images/alien1","images/t.png","2","real","true","1","common","1","2022-02-04 21:33:33.840"
"two-step-fixation","191","598951","0.0-76.0-2.18","332","641","9","Male","true","true","false","true","""event"",""trial"",""time""
""fullscreenenter"",""5"",""14022""
","
","
","""event"",""trial"",""time""
""fullscreenenter"",""5"",""14022""
","
","","images/earth.jpg","","","","","","","","","","","","","","fixation","","","","","",""
"d3-animate-choice","192","601395","0.0-76.0-0.19","332","641","9","Male","true","true","false","true","""event"",""trial"",""time""
""fullscreenenter"",""5"",""14022""
","
","
","""event"",""trial"",""time""
""fullscreenenter"",""5"",""14022""
","
","442.19999998807907","","49","","","3000","1","","","images/earth.jpg","images/rocket2","images/rocket1","null","images/rocket1","","1","real","null","1","","",""
"d3-animate-choice","193","604405","0.0-76.0-1.19","332","641","9","Male","true","true","false","true","""event"",""trial"",""time""
""fullscreenenter"",""5"",""14022""
","
","
","""event"",""trial"",""time""
""fullscreenenter"",""5"",""14022""
","
","1005.8999999761581","","49","","","3000","1","","","images/redplanet1.jpg","images/alien2","images/alien1","images/rocket1","images/alien1","images/t.png","2","real","true","1","common","1","2022-02-04 21:33:40.297"
"two-step-fixation","194","605408","0.0-76.0-2.19","332","641","9","Male","true","true","false","true","""event"",""trial"",""time""
""fullscreenenter"",""5"",""14022""
","
","
","""event"",""trial"",""time""
""fullscreenenter"",""5"",""14022""
","
","","images/earth.jpg","","","","","","","","","","","","","","fixation","","","","","",""
"d3-animate-choice","195","607676","0.0-76.0-0.20","332","641","9","Male","true","true","false","true","""event"",""trial"",""time""
""fullscreenenter"",""5"",""14022""
","
","
","""event"",""trial"",""time""
""fullscreenenter"",""5"",""14022""
","
","264.69999998807907","","49","","","3000","1","","","images/earth.jpg","images/rocket2","images/rocket1","null","images/rocket1","","1","real","null","1","","",""
"d3-animate-choice","196","611012","0.0-76.0-1.20","332","641","9","Male","true","true","false","true","""event"",""trial"",""time""
""fullscreenenter"",""5"",""14022""
","
","
","""event"",""trial"",""time""
""fullscreenenter"",""5"",""14022""
","
","1331.5","","49","","","3000","1","","","images/purpleplanet.jpg","images/alien4","images/alien3","images/rocket1","images/alien3","images/nothing.png","2","real","false","1","rare","0","2022-02-04 21:33:46.904"
"two-step-fixation","197","612015","0.0-76.0-2.20","332","641","9","Male","true","true","false","true","""event"",""trial"",""time""
""fullscreenenter"",""5"",""14022""
","
","
","""event"",""trial"",""time""
""fullscreenenter"",""5"",""14022""
","
","","images/earth.jpg","","","","","","","","","","","","","","fixation","","","","","",""
"d3-animate-choice","198","614604","0.0-76.0-0.21","332","641","9","Male","true","true","false","true","""event"",""trial"",""time""
""fullscreenenter"",""5"",""14022""
","
","
","""event"",""trial"",""time""
""fullscreenenter"",""5"",""14022""
","
","584.6999999880791","","49","","","3000","1","","","images/earth.jpg","images/rocket2","images/rocket1","null","images/rocket1","","1","real","null","1","","",""
"d3-animate-choice","199","617380","0.0-76.0-1.21","332","641","9","Male","true","true","false","true","""event"",""trial"",""time""
""fullscreenenter"",""5"",""14022""
","
","
","""event"",""trial"",""time""
""fullscreenenter"",""5"",""14022""
","
","772.6999999880791","","48","","","3000","1","","","images/purpleplanet.jpg","images/alien4","images/alien3","images/rocket1","images/alien4","images/t.png","2","real","false","2","rare","1","2022-02-04 21:33:53.272"
"two-step-fixation","200","618382","0.0-76.0-2.21","332","641","9","Male","true","true","false","true","""event"",""trial"",""time""
""fullscreenenter"",""5"",""14022""
","
","
","""event"",""trial"",""time""
""fullscreenenter"",""5"",""14022""
","
","","images/earth.jpg","","","","","","","","","","","","","","fixation","","","","","",""
"d3-animate-choice","201","620693","0.0-76.0-0.22","332","641","9","Male","true","true","false","true","""event"",""trial"",""time""
""fullscreenenter"",""5"",""14022""
","
","
","""event"",""trial"",""time""
""fullscreenenter"",""5"",""14022""
","
","305.89999997615814","","49","","","3000","1","","","images/earth.jpg","images/rocket2","images/rocket1","null","images/rocket1","","1","real","null","1","","",""
"d3-animate-choice","202","623852","0.0-76.0-1.22","332","641","9","Male","true","true","false","true","""event"",""trial"",""time""
""fullscreenenter"",""5"",""14022""
","
","
","""event"",""trial"",""time""
""fullscreenenter"",""5"",""14022""
","
","1155.3999999761581","","49","","","3000","1","","","images/redplanet1.jpg","images/alien2","images/alien1","images/rocket1","images/alien1","images/nothing.png","2","real","true","1","common","0","2022-02-04 21:33:59.744"
"two-step-fixation","203","624855","0.0-76.0-2.22","332","641","9","Male","true","true","false","true","""event"",""trial"",""time""
""fullscreenenter"",""5"",""14022""
","
","
","""event"",""trial"",""time""
""fullscreenenter"",""5"",""14022""
","
","","images/earth.jpg","","","","","","","","","","","","","","fixation","","","","","",""
"d3-animate-choice","204","627172","0.0-76.0-0.23","332","641","9","Male","true","true","false","true","""event"",""trial"",""time""
""fullscreenenter"",""5"",""14022""
","
","
","""event"",""trial"",""time""
""fullscreenenter"",""5"",""14022""
","
","313.30000001192093","","49","","","3000","1","","","images/earth.jpg","images/rocket2","images/rocket1","null","images/rocket1","","1","real","null","1","","",""
"d3-animate-choice","205","630149","0.0-76.0-1.23","332","641","9","Male","true","true","false","true","""event"",""trial"",""time""
""fullscreenenter"",""5"",""14022""
","
","
","""event"",""trial"",""time""
""fullscreenenter"",""5"",""14022""
","
","969.8000000119209","","48","","","3000","1","","","images/redplanet1.jpg","images/alien2","images/alien1","images/rocket1","images/alien2","images/t.png","2","real","true","2","common","1","2022-02-04 21:34:06.041"
"two-step-fixation","206","631152","0.0-76.0-2.23","332","641","9","Male","true","true","false","true","""event"",""trial"",""time""
""fullscreenenter"",""5"",""14022""
","
","
","""event"",""trial"",""time""
""fullscreenenter"",""5"",""14022""
","
","","images/earth.jpg","","","","","","","","","","","","","","fixation","","","","","",""
"d3-animate-choice","207","633700","0.0-76.0-0.24","332","641","9","Male","true","true","false","true","""event"",""trial"",""time""
""fullscreenenter"",""5"",""14022""
","
","
","""event"",""trial"",""time""
""fullscreenenter"",""5"",""14022""
","
","544.9000000357628","","49","","","3000","1","","","images/earth.jpg","images/rocket2","images/rocket1","null","images/rocket1","","1","real","null","1","","",""
"d3-animate-choice","208","636292","0.0-76.0-1.24","332","641","9","Male","true","true","false","true","""event"",""trial"",""time""
""fullscreenenter"",""5"",""14022""
","
","
","""event"",""trial"",""time""
""fullscreenenter"",""5"",""14022""
","
","589.3000000119209","","48","","","3000","1","","","images/redplanet1.jpg","images/alien2","images/alien1","images/rocket1","images/alien2","images/nothing.png","2","real","true","2","common","0","2022-02-04 21:34:12.184"
"two-step-fixation","209","637294","0.0-76.0-2.24","332","641","9","Male","true","true","false","true","""event"",""trial"",""time""
""fullscreenenter"",""5"",""14022""
","
","
","""event"",""trial"",""time""
""fullscreenenter"",""5"",""14022""
","
","","images/earth.jpg","","","","","","","","","","","","","","fixation","","","","","",""
"d3-animate-choice","210","639636","0.0-76.0-0.25","332","641","9","Male","true","true","false","true","""event"",""trial"",""time""
""fullscreenenter"",""5"",""14022""
","
","
","""event"",""trial"",""time""
""fullscreenenter"",""5"",""14022""
","
","339.5","","49","","","3000","1","","","images/earth.jpg","images/rocket2","images/rocket1","null","images/rocket1","","1","real","null","1","","",""
"d3-animate-choice","211","641939","0.0-76.0-1.25","332","641","9","Male","true","true","false","true","""event"",""trial"",""time""
""fullscreenenter"",""5"",""14022""
","
","
","""event"",""trial"",""time""
""fullscreenenter"",""5"",""14022""
","
","301.10000002384186","","49","","","3000","1","","","images/redplanet1.jpg","images/alien2","images/alien1","images/rocket1","images/alien1","images/t.png","2","real","true","1","common","1","2022-02-04 21:34:17.832"
"two-step-fixation","212","642943","0.0-76.0-2.25","332","641","9","Male","true","true","false","true","""event"",""trial"",""time""
""fullscreenenter"",""5"",""14022""
","
","
","""event"",""trial"",""time""
""fullscreenenter"",""5"",""14022""
","
","","images/earth.jpg","","","","","","","","","","","","","","fixation","","","","","",""
"d3-animate-choice","213","645245","0.0-76.0-0.26","332","641","9","Male","true","true","false","true","""event"",""trial"",""time""
""fullscreenenter"",""5"",""14022""
","
","
","""event"",""trial"",""time""
""fullscreenenter"",""5"",""14022""
","
","296.5","","49","","","3000","1","","","images/earth.jpg","images/rocket2","images/rocket1","null","images/rocket1","","1","real","null","1","","",""
"d3-animate-choice","214","647708","0.0-76.0-1.26","332","641","9","Male","true","true","false","true","""event"",""trial"",""time""
""fullscreenenter"",""5"",""14022""
","
","
","""event"",""trial"",""time""
""fullscreenenter"",""5"",""14022""
","
","459","","49","","","3000","1","","","images/purpleplanet.jpg","images/alien4","images/alien3","images/rocket1","images/alien3","images/nothing.png","2","real","false","1","rare","0","2022-02-04 21:34:23.600"
"two-step-fixation","215","648714","0.0-76.0-2.26","332","641","9","Male","true","true","false","true","""event"",""trial"",""time""
""fullscreenenter"",""5"",""14022""
","
","
","""event"",""trial"",""time""
""fullscreenenter"",""5"",""14022""
","
","","images/earth.jpg","","","","","","","","","","","","","","fixation","","","","","",""
"d3-animate-choice","216","651022","0.0-76.0-0.27","332","641","9","Male","true","true","false","true","""event"",""trial"",""time""
""fullscreenenter"",""5"",""14022""
","
","
","""event"",""trial"",""time""
""fullscreenenter"",""5"",""14022""
","
","302.80000001192093","","49","","","3000","1","","","images/earth.jpg","images/rocket2","images/rocket1","null","images/rocket1","","1","real","null","1","","",""
"d3-animate-choice","217","653348","0.0-76.0-1.27","332","641","9","Male","true","true","false","true","""event"",""trial"",""time""
""fullscreenenter"",""5"",""14022""
","
","
","""event"",""trial"",""time""
""fullscreenenter"",""5"",""14022""
","
","321.69999998807907","","49","","","3000","1","","","images/redplanet1.jpg","images/alien2","images/alien1","images/rocket1","images/alien1","images/t.png","2","real","true","1","common","1","2022-02-04 21:34:29.240"
"two-step-fixation","218","654352","0.0-76.0-2.27","332","641","9","Male","true","true","false","true","""event"",""trial"",""time""
""fullscreenenter"",""5"",""14022""
","
","
","""event"",""trial"",""time""
""fullscreenenter"",""5"",""14022""
","
","","images/earth.jpg","","","","","","","","","","","","","","fixation","","","","","",""
"d3-animate-choice","219","656613","0.0-76.0-0.28","332","641","9","Male","true","true","false","true","""event"",""trial"",""time""
""fullscreenenter"",""5"",""14022""
","
","
","""event"",""trial"",""time""
""fullscreenenter"",""5"",""14022""
","
","256.10000002384186","","49","","","3000","1","","","images/earth.jpg","images/rocket2","images/rocket1","null","images/rocket1","","1","real","null","1","","",""
"d3-animate-choice","220","659052","0.0-76.0-1.28","332","641","9","Male","true","true","false","true","""event"",""trial"",""time""
""fullscreenenter"",""5"",""14022""
","
","
","""event"",""trial"",""time""
""fullscreenenter"",""5"",""14022""
","
","435.69999998807907","","49","","","3000","1","","","images/redplanet1.jpg","images/alien2","images/alien1","images/rocket1","images/alien1","images/nothing.png","2","real","true","1","common","0","2022-02-04 21:34:34.944"
"two-step-fixation","221","660055","0.0-76.0-2.28","332","641","9","Male","true","true","false","true","""event"",""trial"",""time""
""fullscreenenter"",""5"",""14022""
","
","
","""event"",""trial"",""time""
""fullscreenenter"",""5"",""14022""
","
","","images/earth.jpg","","","","","","","","","","","","","","fixation","","","","","",""
"d3-animate-choice","222","662341","0.0-76.0-0.29","332","641","9","Male","true","true","false","true","""event"",""trial"",""time""
""fullscreenenter"",""5"",""14022""
","
","
","""event"",""trial"",""time""
""fullscreenenter"",""5"",""14022""
","
","281.80000001192093","","49","","","3000","1","","","images/earth.jpg","images/rocket2","images/rocket1","null","images/rocket1","","1","real","null","1","","",""
"d3-animate-choice","223","665828","0.0-76.0-1.29","332","641","9","Male","true","true","false","true","""event"",""trial"",""time""
""fullscreenenter"",""5"",""14022""
","
","
","""event"",""trial"",""time""
""fullscreenenter"",""5"",""14022""
","
","1483.3999999761581","","49","","","3000","1","","","images/redplanet1.jpg","images/alien2","images/alien1","images/rocket1","images/alien1","images/t.png","2","real","true","1","common","1","2022-02-04 21:34:41.720"
"two-step-fixation","224","666839","0.0-76.0-2.29","332","641","9","Male","true","true","false","true","""event"",""trial"",""time""
""fullscreenenter"",""5"",""14022""
","
","
","""event"",""trial"",""time""
""fullscreenenter"",""5"",""14022""
","
","","images/earth.jpg","","","","","","","","","","","","","","fixation","","","","","",""
"d3-animate-choice","225","669141","0.0-76.0-0.30","332","641","9","Male","true","true","false","true","""event"",""trial"",""time""
""fullscreenenter"",""5"",""14022""
","
","
","""event"",""trial"",""time""
""fullscreenenter"",""5"",""14022""
","
","298.7999999523163","","49","","","3000","1","","","images/earth.jpg","images/rocket2","images/rocket1","null","images/rocket1","","1","real","null","1","","",""
"d3-animate-choice","226","671731","0.0-76.0-1.30","332","641","9","Male","true","true","false","true","""event"",""trial"",""time""
""fullscreenenter"",""5"",""14022""
","
","
","""event"",""trial"",""time""
""fullscreenenter"",""5"",""14022""
","
","588.1999999880791","","49","","","3000","1","","","images/redplanet1.jpg","images/alien2","images/alien1","images/rocket1","images/alien1","images/t.png","2","real","true","1","common","1","2022-02-04 21:34:47.624"
"two-step-fixation","227","672734","0.0-76.0-2.30","332","641","9","Male","true","true","false","true","""event"",""trial"",""time""
""fullscreenenter"",""5"",""14022""
","
","
","""event"",""trial"",""time""
""fullscreenenter"",""5"",""14022""
","
","","images/earth.jpg","","","","","","","","","","","","","","fixation","","","","","",""
"d3-animate-choice","228","675061","0.0-76.0-0.31","332","641","9","Male","true","true","false","true","""event"",""trial"",""time""
""fullscreenenter"",""5"",""14022""
","
","
","""event"",""trial"",""time""
""fullscreenenter"",""5"",""14022""
","
","323.89999997615814","","49","","","3000","1","","","images/earth.jpg","images/rocket2","images/rocket1","null","images/rocket1","","1","real","null","1","","",""
"d3-animate-choice","229","677718","0.0-76.0-1.31","332","641","9","Male","true","true","false","true","""event"",""trial"",""time""
""fullscreenenter"",""5"",""14022""
","
","
","""event"",""trial"",""time""
""fullscreenenter"",""5"",""14022""
","
","651.8999999761581","","49","","","3000","1","","","images/redplanet1.jpg","images/alien2","images/alien1","images/rocket1","images/alien1","images/t.png","2","real","true","1","common","1","2022-02-04 21:34:53.610"
"two-step-fixation","230","678722","0.0-76.0-2.31","332","641","9","Male","true","true","false","true","""event"",""trial"",""time""
""fullscreenenter"",""5"",""14022""
","
","
","""event"",""trial"",""time""
""fullscreenenter"",""5"",""14022""
","
","","images/earth.jpg","","","","","","","","","","","","","","fixation","","","","","",""
"d3-animate-choice","231","681020","0.0-76.0-0.32","332","641","9","Male","true","true","false","true","""event"",""trial"",""time""
""fullscreenenter"",""5"",""14022""
","
","
","""event"",""trial"",""time""
""fullscreenenter"",""5"",""14022""
","
","294.9000000357628","","49","","","3000","1","","","images/earth.jpg","images/rocket2","images/rocket1","null","images/rocket1","","1","real","null","1","","",""
"d3-animate-choice","232","684036","0.0-76.0-1.32","332","641","9","Male","true","true","false","true","""event"",""trial"",""time""
""fullscreenenter"",""5"",""14022""
","
","
","""event"",""trial"",""time""
""fullscreenenter"",""5"",""14022""
","
","1011.8999999761581","","48","","","3000","1","","","images/purpleplanet.jpg","images/alien4","images/alien3","images/rocket1","images/alien4","images/t.png","2","real","false","2","rare","1","2022-02-04 21:34:59.928"
"two-step-fixation","233","685040","0.0-76.0-2.32","332","641","9","Male","true","true","false","true","""event"",""trial"",""time""
""fullscreenenter"",""5"",""14022""
","
","
","""event"",""trial"",""time""
""fullscreenenter"",""5"",""14022""
","
","","images/earth.jpg","","","","","","","","","","","","","","fixation","","","","","",""
"d3-animate-choice","234","687316","0.0-76.0-0.33","332","641","9","Male","true","true","false","true","""event"",""trial"",""time""
""fullscreenenter"",""5"",""14022""
","
","
","""event"",""trial"",""time""
""fullscreenenter"",""5"",""14022""
","
","272.7000000476837","","49","","","3000","1","","","images/earth.jpg","images/rocket2","images/rocket1","null","images/rocket1","","1","real","null","1","","",""
"d3-animate-choice","235","689884","0.0-76.0-1.33","332","641","9","Male","true","true","false","true","""event"",""trial"",""time""
""fullscreenenter"",""5"",""14022""
","
","
","""event"",""trial"",""time""
""fullscreenenter"",""5"",""14022""
","
","564.8000000119209","","48","","","3000","1","","","images/purpleplanet.jpg","images/alien4","images/alien3","images/rocket1","images/alien4","images/t.png","2","real","false","2","rare","1","2022-02-04 21:35:05.776"
"two-step-fixation","236","690887","0.0-76.0-2.33","332","641","9","Male","true","true","false","true","""event"",""trial"",""time""
""fullscreenenter"",""5"",""14022""
","
","
","""event"",""trial"",""time""
""fullscreenenter"",""5"",""14022""
","
","","images/earth.jpg","","","","","","","","","","","","","","fixation","","","","","",""
"d3-animate-choice","237","693204","0.0-76.0-0.34","332","641","9","Male","true","true","false","true","""event"",""trial"",""time""
""fullscreenenter"",""5"",""14022""
","
","
","""event"",""trial"",""time""
""fullscreenenter"",""5"",""14022""
","
","313.5","","49","","","3000","1","","","images/earth.jpg","images/rocket2","images/rocket1","null","images/rocket1","","1","real","null","1","","",""
"d3-animate-choice","238","696332","0.0-76.0-1.34","332","641","9","Male","true","true","false","true","""event"",""trial"",""time""
""fullscreenenter"",""5"",""14022""
","
","
","""event"",""trial"",""time""
""fullscreenenter"",""5"",""14022""
","
","1124.800000011921","","49","","","3000","1","","","images/redplanet1.jpg","images/alien2","images/alien1","images/rocket1","images/alien1","images/nothing.png","2","real","true","1","common","0","2022-02-04 21:35:12.224"
"two-step-fixation","239","697335","0.0-76.0-2.34","332","641","9","Male","true","true","false","true","""event"",""trial"",""time""
""fullscreenenter"",""5"",""14022""
","
","
","""event"",""trial"",""time""
""fullscreenenter"",""5"",""14022""
","
","","images/earth.jpg","","","","","","","","","","","","","","fixation","","","","","",""
"d3-animate-choice","240","699700","0.0-76.0-0.35","332","641","9","Male","true","true","false","true","""event"",""trial"",""time""
""fullscreenenter"",""5"",""14022""
","
","
","""event"",""trial"",""time""
""fullscreenenter"",""5"",""14022""
","
","362.4000000357628","","49","","","3000","1","","","images/earth.jpg","images/rocket2","images/rocket1","null","images/rocket1","","1","real","null","1","","",""
"d3-animate-choice","241","702323","0.0-76.0-1.35","332","641","9","Male","true","true","false","true","""event"",""trial"",""time""
""fullscreenenter"",""5"",""14022""
","
","
","""event"",""trial"",""time""
""fullscreenenter"",""5"",""14022""
","
","621.1999999880791","","49","","","3000","1","","","images/redplanet1.jpg","images/alien2","images/alien1","images/rocket1","images/alien1","images/t.png","2","real","true","1","common","1","2022-02-04 21:35:18.216"
"two-step-fixation","242","703326","0.0-76.0-2.35","332","641","9","Male","true","true","false","true","""event"",""trial"",""time""
""fullscreenenter"",""5"",""14022""
","
","
","""event"",""trial"",""time""
""fullscreenenter"",""5"",""14022""
","
","","images/earth.jpg","","","","","","","","","","","","","","fixation","","","","","",""
"d3-animate-choice","243","705597","0.0-76.0-0.36","332","641","9","Male","true","true","false","true","""event"",""trial"",""time""
""fullscreenenter"",""5"",""14022""
","
","
","""event"",""trial"",""time""
""fullscreenenter"",""5"",""14022""
","
","267.89999997615814","","49","","","3000","1","","","images/earth.jpg","images/rocket2","images/rocket1","null","images/rocket1","","1","real","null","1","","",""
"d3-animate-choice","244","708147","0.0-76.0-1.36","332","641","9","Male","true","true","false","true","""event"",""trial"",""time""
""fullscreenenter"",""5"",""14022""
","
","
","""event"",""trial"",""time""
""fullscreenenter"",""5"",""14022""
","
","547.5","","49","","","3000","1","","","images/redplanet1.jpg","images/alien2","images/alien1","images/rocket1","images/alien1","images/nothing.png","2","real","true","1","common","0","2022-02-04 21:35:24.039"
"two-step-fixation","245","709150","0.0-76.0-2.36","332","641","9","Male","true","true","false","true","""event"",""trial"",""time""
""fullscreenenter"",""5"",""14022""
","
","
","""event"",""trial"",""time""
""fullscreenenter"",""5"",""14022""
","
","","images/earth.jpg","","","","","","","","","","","","","","fixation","","","","","",""
"d3-animate-choice","246","711404","0.0-76.0-0.37","332","641","9","Male","true","true","false","true","""event"",""trial"",""time""
""fullscreenenter"",""5"",""14022""
","
","
","""event"",""trial"",""time""
""fullscreenenter"",""5"",""14022""
","
","250.69999998807907","","49","","","3000","1","","","images/earth.jpg","images/rocket2","images/rocket1","null","images/rocket1","","1","real","null","1","","",""
"d3-animate-choice","247","713764","0.0-76.0-1.37","332","641","9","Male","true","true","false","true","""event"",""trial"",""time""
""fullscreenenter"",""5"",""14022""
","
","
","""event"",""trial"",""time""
""fullscreenenter"",""5"",""14022""
","
","356.7999999523163","","49","","","3000","1","","","images/redplanet1.jpg","images/alien2","images/alien1","images/rocket1","images/alien1","images/nothing.png","2","real","true","1","common","0","2022-02-04 21:35:29.656"
"two-step-fixation","248","714768","0.0-76.0-2.37","332","641","9","Male","true","true","false","true","""event"",""trial"",""time""
""fullscreenenter"",""5"",""14022""
","
","
","""event"",""trial"",""time""
""fullscreenenter"",""5"",""14022""
","
","","images/earth.jpg","","","","","","","","","","","","","","fixation","","","","","",""
