"trial_type","trial_index","time_elapsed","internal_node_id","participant_id","subject_id","age","gender","rocket_sides","red_planet_first_rocket","red_display_order","purple_display_order","interactions","blur_events","focus_events","fullscreenenter_events","fullscreenexit_events","rt","stimulus","key_press","button_pressed","success","duration","valid_pressed","rts","keys","planet_text","right_text","left_text","center_text","chosen_text","reward_text","trial_stage","practice_trial","transition_type","choice","transition","reward","timestamp"
"pavlovia","0","1","0.0-0.0","1624","1666","21","Male","false","true","true","true","
","
","
","
","
","","","","","","","","","","","","","","","","","","","","","",""
"html-keyboard-response","1","1625","0.0-1.0","1624","1666","21","Male","false","true","true","true","
","
","
","
","
","1623.699999988079","Welcome! Press the space bar to begin.","122","","","","","","","","","","","","","","","","","","",""
"audio-keyboard-response","2","2228","0.0-2.0","1624","1666","21","Male","false","true","true","true","
","
","
","
","
","600","audio/beep_loop.wav","32","","","","","","","","","","","","","","","","","","",""
"audio-button-response","3","3734","0.0-3.0","1624","1666","21","Male","false","true","true","true","
","
","
","
","
","NaN","audio/fish.mp3","","1","","","","","","","","","","","","","","","","","",""
"audio-button-response","4","5782","0.0-4.0","1624","1666","21","Male","false","true","true","true","""event"",""trial"",""time""
""fullscreenenter"",""5"",""7575""
","
","
","""event"",""trial"",""time""
""fullscreenenter"",""5"",""7575""
","
","NaN","audio/tiger.mp3","","4","","","","","","","","","","","","","","","","","",""
"fullscreen","5","8566","0.0-5.0","1624","1666","21","Male","false","true","true","true","""event"",""trial"",""time""
""fullscreenenter"",""5"",""7575""
","
","
","""event"",""trial"",""time""
""fullscreenenter"",""5"",""7575""
","
","","","","","true","","","","","","","","","","","","","","","","",""
"d3-instructions","6","21415","0.0-6.0","1624","1666","21","Male","false","true","true","true","""event"",""trial"",""time""
""fullscreenenter"",""5"",""7575""
","
","
","""event"",""trial"",""time""
""fullscreenenter"",""5"",""7575""
","
","","","","","","","","","","","","","","","","","","","","","",""
"d3-instructions","7","29953","0.0-7.0","1624","1666","21","Male","false","true","true","true","""event"",""trial"",""time""
""fullscreenenter"",""5"",""7575""
","
","
","""event"",""trial"",""time""
""fullscreenenter"",""5"",""7575""
","
","","","","","","","","","","","","","","","","","","","","","",""
"d3-instructions","8","34498","0.0-8.0","1624","1666","21","Male","false","true","true","true","""event"",""trial"",""time""
""fullscreenenter"",""5"",""7575""
","
","
","""event"",""trial"",""time""
""fullscreenenter"",""5"",""7575""
","
","","","","","","","","","","","","","","","","","","","","","",""
"d3-instructions","9","42948","0.0-9.0","1624","1666","21","Male","false","true","true","true","""event"",""trial"",""time""
""fullscreenenter"",""5"",""7575""
","
","
","""event"",""trial"",""time""
""fullscreenenter"",""5"",""7575""
","
","","","","","","","","","","","","","","","","","","","","","",""
"d3-instructions","10","54858","0.0-10.0","1624","1666","21","Male","false","true","true","true","""event"",""trial"",""time""
""fullscreenenter"",""5"",""7575""
","
","
","""event"",""trial"",""time""
""fullscreenenter"",""5"",""7575""
","
","","","","","","","","","","","","","","","","","","","","","",""
"d3-animate-choice","11","60710","0.0-11.0","1624","1666","21","Male","false","true","true","true","""event"",""trial"",""time""
""fullscreenenter"",""5"",""7575""
","
","
","""event"",""trial"",""time""
""fullscreenenter"",""5"",""7575""
","
","1382.0999999642372","","97","","","3000","1","2265.599999964237,3837.199999988079,5616.899999976158","96,49,144","images/tutgreenplanet.jpg","images/tutalien1","images/tutalien2","null","images/tutalien2","","NA","practice","null","","","",""
"d3-animate-choice","12","64468","0.0-12.0","1624","1666","21","Male","false","true","true","true","""event"",""trial"",""time""
""fullscreenenter"",""5"",""7575""
","
","
","""event"",""trial"",""time""
""fullscreenenter"",""5"",""7575""
","
","818.6999999880791","","144","","","3000","1","1745.300000011921","48","images/tutgreenplanet.jpg","images/tutalien1","images/tutalien2","null","images/tutalien1","","NA","practice","null","","","",""
"d3-animate-choice","13","68660","0.0-13.0","1624","1666","21","Male","false","true","true","true","""event"",""trial"",""time""
""fullscreenenter"",""5"",""7575""
","
","
","""event"",""trial"",""time""
""fullscreenenter"",""5"",""7575""
","
","2186.5","","49","","","3000","1","","","images/tutgreenplanet.jpg","images/tutalien1","images/tutalien2","null","images/tutalien2","","NA","practice","null","","","",""
"d3-animate-choice","14","71895","0.0-14.0","1624","1666","21","Male","false","true","true","true","""event"",""trial"",""time""
""fullscreenenter"",""5"",""7575""
","
","
","""event"",""trial"",""time""
""fullscreenenter"",""5"",""7575""
","
","1216.3999999761581","","48","","","3000","1","","","images/tutgreenplanet.jpg","images/tutalien1","images/tutalien2","null","images/tutalien1","","NA","practice","null","","","",""
"d3-instructions","15","76903","0.0-15.0","1624","1666","21","Male","false","true","true","true","""event"",""trial"",""time""
""fullscreenenter"",""5"",""7575""
","
","
","""event"",""trial"",""time""
""fullscreenenter"",""5"",""7575""
","
","","","","","","","","","","","","","","","","","","","","","",""
"d3-instructions","16","120283","0.0-16.0","1624","1666","21","Male","false","true","true","true","""event"",""trial"",""time""
""fullscreenenter"",""5"",""7575""
","
","
","""event"",""trial"",""time""
""fullscreenenter"",""5"",""7575""
","
","","","","","","","","","","","","","","","","","","","","","",""
"d3-instructions","17","146639","0.0-17.0","1624","1666","21","Male","false","true","true","true","""event"",""trial"",""time""
""fullscreenenter"",""5"",""7575""
","
","
","""event"",""trial"",""time""
""fullscreenenter"",""5"",""7575""
","
","","","","","","","","","","","","","","","","","","","","","",""
"d3-instructions","18","164940","0.0-18.0","1624","1666","21","Male","false","true","true","true","""event"",""trial"",""time""
""fullscreenenter"",""5"",""7575""
","
","
","""event"",""trial"",""time""
""fullscreenenter"",""5"",""7575""
","
","","","","","","","","","","","","","","","","","","","","","",""
"d3-instructions","19","216463","0.0-19.0","1624","1666","21","Male","false","true","true","true","""event"",""trial"",""time""
""fullscreenenter"",""5"",""7575""
","
","
","""event"",""trial"",""time""
""fullscreenenter"",""5"",""7575""
","
","","","","","","","","","","","","","","","","","","","","","",""
"d3-animate-choice","20","218971","0.0-20.0","1624","1666","21","Male","false","true","true","true","""event"",""trial"",""time""
""fullscreenenter"",""5"",""7575""
","
","
","""event"",""trial"",""time""
""fullscreenenter"",""5"",""7575""
","
","503.69999998807907","","49","","","3000","1","949.5999999642372,1132.5,1325.5999999642372,1498.3999999761581,1664.5,1853.699999988079,2025.2999999523163,2224.5,2448.5","49,49,49,49,49,49,49,49,49","images/tutyellowplanet.jpg","null","images/tutalien3","null","images/tutalien3","images/t.png","NA","practice","null","","","",""
"d3-animate-choice","21","221123","0.0-21.0","1624","1666","21","Male","false","true","true","true","""event"",""trial"",""time""
""fullscreenenter"",""5"",""7575""
","
","
","""event"",""trial"",""time""
""fullscreenenter"",""5"",""7575""
","
","148","","49","","","3000","1","359.0999999642372,593,793.0999999642372,1025,1212,1415.199999988079,1620.8999999761581,1822.7999999523163,2040.0999999642372","49,49,49,49,49,49,49,49,49","images/tutyellowplanet.jpg","null","images/tutalien3","null","images/tutalien3","images/t.png","NA","practice","null","","","",""
"d3-animate-choice","22","223228","0.0-22.0","1624","1666","21","Male","false","true","true","true","""event"",""trial"",""time""
""fullscreenenter"",""5"",""7575""
","
","
","""event"",""trial"",""time""
""fullscreenenter"",""5"",""7575""
","
","100.30000001192093","","49","","","3000","1","319.80000001192093,520.3000000119209,745.5,968.3000000119209,1176.3999999761581,1368.300000011921,1577.3999999761581,1783.3999999761581,1979.300000011921,2017.3999999761581","49,49,49,49,49,49,49,49,49,50","images/tutyellowplanet.jpg","null","images/tutalien3","null","images/tutalien3","images/nothing.png","NA","practice","null","","","",""
"d3-animate-choice","23","225320","0.0-23.0","1624","1666","21","Male","false","true","true","true","""event"",""trial"",""time""
""fullscreenenter"",""5"",""7575""
","
","
","""event"",""trial"",""time""
""fullscreenenter"",""5"",""7575""
","
","89.80000001192093","","49","","","3000","1","308.9000000357628,511.7000000476837,697,907.3000000119209,1119.7000000476837,1301.7000000476837,1491.7000000476837,1669.6000000238419,1845.6000000238419,2041.6000000238419","49,49,49,49,49,49,49,49,49,49","images/tutyellowplanet.jpg","null","images/tutalien3","null","images/tutalien3","images/t.png","NA","practice","null","","","",""
"d3-animate-choice","24","227468","0.0-24.0","1624","1666","21","Male","false","true","true","true","""event"",""trial"",""time""
""fullscreenenter"",""5"",""7575""
","
","
","""event"",""trial"",""time""
""fullscreenenter"",""5"",""7575""
","
","143.10000002384186","","49","","","3000","1","342.19999998807907,559.1000000238419,782.1000000238419,979.1000000238419,1207.1000000238419,1413,1617,1842.1000000238419,2044.199999988079","49,49,49,49,49,49,49,49,49","images/tutyellowplanet.jpg","null","images/tutalien3","null","images/tutalien3","images/t.png","NA","practice","null","","","",""
"d3-animate-choice","25","229565","0.0-25.0","1624","1666","21","Male","false","true","true","true","""event"",""trial"",""time""
""fullscreenenter"",""5"",""7575""
","
","
","""event"",""trial"",""time""
""fullscreenenter"",""5"",""7575""
","
","93.20000004768372","","49","","","3000","1","280.30000001192093,463.4000000357628,666.3000000119209,852.6000000238419,1047.9000000357628,1235.4000000357628,1431.300000011921,1630.4000000357628,1823.800000011921,2018.4000000357628","49,49,49,49,49,49,49,49,49,49","images/tutyellowplanet.jpg","null","images/tutalien3","null","images/tutalien3","images/nothing.png","NA","practice","null","","","",""
"d3-animate-choice","26","231704","0.0-26.0","1624","1666","21","Male","false","true","true","true","""event"",""trial"",""time""
""fullscreenenter"",""5"",""7575""
","
","
","""event"",""trial"",""time""
""fullscreenenter"",""5"",""7575""
","
","133.80000001192093","","49","","","3000","1","339.39999997615814,532.8000000119209,747.6000000238419,934.6000000238419,1142.699999988079,1330.699999988079,1533.5,1745.699999988079,1955.6000000238419","49,49,49,49,49,49,49,49,49","images/tutyellowplanet.jpg","null","images/tutalien3","null","images/tutalien3","images/nothing.png","NA","practice","null","","","",""
"d3-animate-choice","27","233725","0.0-27.0","1624","1666","21","Male","false","true","true","true","""event"",""trial"",""time""
""fullscreenenter"",""5"",""7575""
","
","
","""event"",""trial"",""time""
""fullscreenenter"",""5"",""7575""
","
","17.19999998807907","","49","","","3000","1","196,402.19999998807907,618.1999999880791,813.9000000357628,1019.9000000357628,1228.4000000357628,1451.5,1663.5,1872.699999988079","49,49,49,49,49,49,49,49,49","images/tutyellowplanet.jpg","null","images/tutalien3","null","images/tutalien3","images/t.png","NA","practice","null","","","",""
"d3-animate-choice","28","235798","0.0-28.0","1624","1666","21","Male","false","true","true","true","""event"",""trial"",""time""
""fullscreenenter"",""5"",""7575""
","
","
","""event"",""trial"",""time""
""fullscreenenter"",""5"",""7575""
","
","68.90000003576279","","49","","","3000","1","271.2000000476837,494.80000001192093,717.2000000476837,953.8000000119209,1165.5,1382.2000000476837,1615.9000000357628,1807.2000000476837,2016.2000000476837","49,49,49,49,49,49,49,49,49","images/tutyellowplanet.jpg","null","images/tutalien3","null","images/tutalien3","images/t.png","NA","practice","null","","","",""
"d3-animate-choice","29","237942","0.0-29.0","1624","1666","21","Male","false","true","true","true","""event"",""trial"",""time""
""fullscreenenter"",""5"",""7575""
","
","
","""event"",""trial"",""time""
""fullscreenenter"",""5"",""7575""
","
","138.60000002384186","","49","","","3000","1","352.4000000357628,592.6000000238419,809.9000000357628,1021.8000000119209,1236.9000000357628,1444.800000011921,1718,1967.7000000476837","49,49,49,49,49,49,49,49","images/tutyellowplanet.jpg","null","images/tutalien3","null","images/tutalien3","images/t.png","NA","practice","null","","","",""
"d3-instructions","30","241126","0.0-30.0","1624","1666","21","Male","false","true","true","true","""event"",""trial"",""time""
""fullscreenenter"",""5"",""7575""
","
","
","""event"",""trial"",""time""
""fullscreenenter"",""5"",""7575""
","
","","","","","","","","","","","","","","","","","","","","","",""
"d3-instructions","31","245422","0.0-31.0","1624","1666","21","Male","false","true","true","true","""event"",""trial"",""time""
""fullscreenenter"",""5"",""7575""
","
","
","""event"",""trial"",""time""
""fullscreenenter"",""5"",""7575""
","
","","","","","","","","","","","","","","","","","","","","","",""
"d3-instructions","32","248159","0.0-32.0","1624","1666","21","Male","false","true","true","true","""event"",""trial"",""time""
""fullscreenenter"",""5"",""7575""
","
","
","""event"",""trial"",""time""
""fullscreenenter"",""5"",""7575""
","
","","","","","","","","","","","","","","","","","","","","","",""
"d3-instructions","33","251527","0.0-33.0","1624","1666","21","Male","false","true","true","true","""event"",""trial"",""time""
""fullscreenenter"",""5"",""7575""
","
","
","""event"",""trial"",""time""
""fullscreenenter"",""5"",""7575""
","
","","","","","","","","","","","","","","","","","","","","","",""
"d3-animate-choice","34","254327","0.0-34.0","1624","1666","21","Male","false","true","true","true","""event"",""trial"",""time""
""fullscreenenter"",""5"",""7575""
","
","
","""event"",""trial"",""time""
""fullscreenenter"",""5"",""7575""
","
","788.3999999761581","","49","","","3000","1","","","images/tutgreenplanet.jpg","images/tutalien1","images/tutalien2","null","images/tutalien2","images/t.png","NA","practice","null","","","",""
"d3-animate-choice","35","256599","0.0-35.0","1624","1666","21","Male","false","true","true","true","""event"",""trial"",""time""
""fullscreenenter"",""5"",""7575""
","
","
","""event"",""trial"",""time""
""fullscreenenter"",""5"",""7575""
","
","268.0999999642372","","49","","","3000","1","1709.199999988079,2023.5999999642372,2250","49,49,49","images/tutgreenplanet.jpg","images/tutalien1","images/tutalien2","null","images/tutalien2","images/t.png","NA","practice","null","","","",""
"d3-animate-choice","36","258791","0.0-36.0","1624","1666","21","Male","false","true","true","true","""event"",""trial"",""time""
""fullscreenenter"",""5"",""7575""
","
","
","""event"",""trial"",""time""
""fullscreenenter"",""5"",""7575""
","
","174.30000001192093","","49","","","3000","1","464.80000001192093,779.8000000119209,1308.800000011921,1567.6000000238419,1766.7000000476837,2039.9000000357628","49,49,49,49,49,49","images/tutgreenplanet.jpg","images/tutalien1","images/tutalien2","null","images/tutalien2","images/t.png","NA","practice","null","","","",""
"d3-animate-choice","37","260854","0.0-37.0","1624","1666","21","Male","false","true","true","true","""event"",""trial"",""time""
""fullscreenenter"",""5"",""7575""
","
","
","""event"",""trial"",""time""
""fullscreenenter"",""5"",""7575""
","
","54.30000001192093","","49","","","3000","1","282.4000000357628,520.2000000476837,818.5,1404.4000000357628,1684.2000000476837,1924.300000011921","49,49,49,49,49,49","images/tutgreenplanet.jpg","images/tutalien1","images/tutalien2","null","images/tutalien2","images/t.png","NA","practice","null","","","",""
"d3-animate-choice","38","262992","0.0-38.0","1624","1666","21","Male","false","true","true","true","""event"",""trial"",""time""
""fullscreenenter"",""5"",""7575""
","
","
","""event"",""trial"",""time""
""fullscreenenter"",""5"",""7575""
","
","125.39999997615814","","49","","","3000","1","339.39999997615814,577.5,793.1999999880791,1010.3000000119209,1204.3999999761581,1415.5,1615.199999988079,1832.3999999761581,2035.300000011921","49,49,49,49,49,49,49,49,49","images/tutgreenplanet.jpg","images/tutalien1","images/tutalien2","null","images/tutalien2","images/t.png","NA","practice","null","","","",""
"d3-animate-choice","39","265099","0.0-39.0","1624","1666","21","Male","false","true","true","true","""event"",""trial"",""time""
""fullscreenenter"",""5"",""7575""
","
","
","""event"",""trial"",""time""
""fullscreenenter"",""5"",""7575""
","
","96.80000001192093","","49","","","3000","1","300.80000001192093,510.80000001192093,726.8000000119209,929.3000000119209,1131.800000011921,1332.1000000238419,1532.800000011921,1749.800000011921,1974.7000000476837","49,49,49,49,49,49,49,49,49","images/tutgreenplanet.jpg","images/tutalien1","images/tutalien2","null","images/tutalien2","images/t.png","NA","practice","null","","","",""
"d3-animate-choice","40","267160","0.0-40.0","1624","1666","21","Male","false","true","true","true","""event"",""trial"",""time""
""fullscreenenter"",""5"",""7575""
","
","
","""event"",""trial"",""time""
""fullscreenenter"",""5"",""7575""
","
","45.5","","49","","","3000","1","253.5,476.4000000357628,699.5,923.4000000357628,1141.4000000357628,1374.5,1797.5","49,49,49,49,49,49,49","images/tutgreenplanet.jpg","images/tutalien1","images/tutalien2","null","images/tutalien2","images/t.png","NA","practice","null","","","",""
"d3-animate-choice","41","269299","0.0-41.0","1624","1666","21","Male","false","true","true","true","""event"",""trial"",""time""
""fullscreenenter"",""5"",""7575""
","
","
","""event"",""trial"",""time""
""fullscreenenter"",""5"",""7575""
","
","133.60000002384186","","49","","","3000","1","365.9000000357628,646.1000000238419,876,1103.9000000357628,1330.9000000357628,1547,1766.800000011921,1976.1000000238419","49,49,49,49,49,49,49,49","images/tutgreenplanet.jpg","images/tutalien1","images/tutalien2","null","images/tutalien2","images/t.png","NA","practice","null","","","",""
"d3-animate-choice","42","271374","0.0-42.0","1624","1666","21","Male","false","true","true","true","""event"",""trial"",""time""
""fullscreenenter"",""5"",""7575""
","
","
","""event"",""trial"",""time""
""fullscreenenter"",""5"",""7575""
","
","70.39999997615814","","49","","","3000","1","285.39999997615814,539.1999999880791,809.3999999761581,1148.3999999761581,1389.300000011921,1632.300000011921,1880.3999999761581","49,49,49,49,49,49,49","images/tutgreenplanet.jpg","images/tutalien1","images/tutalien2","null","images/tutalien2","images/t.png","NA","practice","null","","","",""
"d3-animate-choice","43","273419","0.0-43.0","1624","1666","21","Male","false","true","true","true","""event"",""trial"",""time""
""fullscreenenter"",""5"",""7575""
","
","
","""event"",""trial"",""time""
""fullscreenenter"",""5"",""7575""
","
","40.89999997615814","","49","","","3000","1","264.19999998807907,547,799.0999999642372,1049.0999999642372,1329,1537.8999999761581,1793.0999999642372,2005.8999999761581","49,49,49,49,49,49,49,49","images/tutgreenplanet.jpg","images/tutalien1","images/tutalien2","null","images/tutalien2","images/t.png","NA","practice","null","","","",""
"d3-instructions","44","280353","0.0-44.0","1624","1666","21","Male","false","true","true","true","""event"",""trial"",""time""
""fullscreenenter"",""5"",""7575""
","
","
","""event"",""trial"",""time""
""fullscreenenter"",""5"",""7575""
","
","","","","","","","","","","","","","","","","","","","","","",""
"d3-instructions","45","282388","0.0-45.0","1624","1666","21","Male","false","true","true","true","""event"",""trial"",""time""
""fullscreenenter"",""5"",""7575""
","
","
","""event"",""trial"",""time""
""fullscreenenter"",""5"",""7575""
","
","","","","","","","","","","","","","","","","","","","","","",""
"d3-instructions","46","284047","0.0-46.0","1624","1666","21","Male","false","true","true","true","""event"",""trial"",""time""
""fullscreenenter"",""5"",""7575""
","
","
","""event"",""trial"",""time""
""fullscreenenter"",""5"",""7575""
","
","","","","","","","","","","","","","","","","","","","","","",""
"d3-instructions","47","296404","0.0-47.0","1624","1666","21","Male","false","true","true","true","""event"",""trial"",""time""
""fullscreenenter"",""5"",""7575""
","
","
","""event"",""trial"",""time""
""fullscreenenter"",""5"",""7575""
","
","","","","","","","","","","","","","","","","","","","","","",""
"d3-instructions","48","298726","0.0-48.0","1624","1666","21","Male","false","true","true","true","""event"",""trial"",""time""
""fullscreenenter"",""5"",""7575""
","
","
","""event"",""trial"",""time""
""fullscreenenter"",""5"",""7575""
","
","","","","","","","","","","","","","","","","","","","","","",""
"d3-instructions","49","304282","0.0-49.0","1624","1666","21","Male","false","true","true","true","""event"",""trial"",""time""
""fullscreenenter"",""5"",""7575""
","
","
","""event"",""trial"",""time""
""fullscreenenter"",""5"",""7575""
","
","","","","","","","","","","","","","","","","","","","","","",""
"d3-instructions","50","307318","0.0-50.0","1624","1666","21","Male","false","true","true","true","""event"",""trial"",""time""
""fullscreenenter"",""5"",""7575""
","
","
","""event"",""trial"",""time""
""fullscreenenter"",""5"",""7575""
","
","","","","","","","","","","","","","","","","","","","","","",""
"d3-instructions","51","308719","0.0-51.0","1624","1666","21","Male","false","true","true","true","""event"",""trial"",""time""
""fullscreenenter"",""5"",""7575""
","
","
","""event"",""trial"",""time""
""fullscreenenter"",""5"",""7575""
","
","","","","","","","","","","","","","","","","","","","","","",""
"d3-instructions","52","309770","0.0-52.0","1624","1666","21","Male","false","true","true","true","""event"",""trial"",""time""
""fullscreenenter"",""5"",""7575""
","
","
","""event"",""trial"",""time""
""fullscreenenter"",""5"",""7575""
","
","","","","","","","","","","","","","","","","","","","","","",""
"d3-instructions","53","316031","0.0-53.0","1624","1666","21","Male","false","true","true","true","""event"",""trial"",""time""
""fullscreenenter"",""5"",""7575""
","
","
","""event"",""trial"",""time""
""fullscreenenter"",""5"",""7575""
","
","","","","","","","","","","","","","","","","","","","","","",""
"d3-instructions","54","366806","0.0-54.0","1624","1666","21","Male","false","true","true","true","""event"",""trial"",""time""
""fullscreenenter"",""5"",""7575""
","
","
","""event"",""trial"",""time""
""fullscreenenter"",""5"",""7575""
","
","","","","","","","","","","","","","","","","","","","","","",""
"d3-instructions","55","370973","0.0-55.0","1624","1666","21","Male","false","true","true","true","""event"",""trial"",""time""
""fullscreenenter"",""5"",""7575""
","
","
","""event"",""trial"",""time""
""fullscreenenter"",""5"",""7575""
","
","","","","","","","","","","","","","","","","","","","","","",""
"d3-instructions","56","375657","0.0-56.0","1624","1666","21","Male","false","true","true","true","""event"",""trial"",""time""
""fullscreenenter"",""5"",""7575""
","
","
","""event"",""trial"",""time""
""fullscreenenter"",""5"",""7575""
","
","","","","","","","","","","","","","","","","","","","","","",""
"d3-instructions","57","379761","0.0-57.0","1624","1666","21","Male","false","true","true","true","""event"",""trial"",""time""
""fullscreenenter"",""5"",""7575""
","
","
","""event"",""trial"",""time""
""fullscreenenter"",""5"",""7575""
","
","","","","","","","","","","","","","","","","","","","","","",""
"d3-instructions","58","383420","0.0-58.0","1624","1666","21","Male","false","true","true","true","""event"",""trial"",""time""
""fullscreenenter"",""5"",""7575""
","
","
","""event"",""trial"",""time""
""fullscreenenter"",""5"",""7575""
","
","","","","","","","","","","","","","","","","","","","","","",""
"d3-instructions","59","385672","0.0-59.0","1624","1666","21","Male","false","true","true","true","""event"",""trial"",""time""
""fullscreenenter"",""5"",""7575""
","
","
","""event"",""trial"",""time""
""fullscreenenter"",""5"",""7575""
","
","","","","","","","","","","","","","","","","","","","","","",""
"d3-instructions","60","388089","0.0-60.0","1624","1666","21","Male","false","true","true","true","""event"",""trial"",""time""
""fullscreenenter"",""5"",""7575""
","
","
","""event"",""trial"",""time""
""fullscreenenter"",""5"",""7575""
","
","","","","","","","","","","","","","","","","","","","","","",""
"d3-animate-choice","61","391047","0.0-61.0-0.0","1624","1666","21","Male","false","true","true","true","""event"",""trial"",""time""
""fullscreenenter"",""5"",""7575""
","
","
","""event"",""trial"",""time""
""fullscreenenter"",""5"",""7575""
","
","504","","97","","","3000","1","945","49","images/earth.jpg","images/tutrocket2","images/tutrocket1","null","images/tutrocket1","","1","practice","null","","","",""
"d3-animate-choice","62","394021","0.0-61.0-1.0","1624","1666","21","Male","false","true","true","true","""event"",""trial"",""time""
""fullscreenenter"",""5"",""7575""
","
","
","""event"",""trial"",""time""
""fullscreenenter"",""5"",""7575""
","
","952.9000000357628","","49","","","3000","1","","","images/tutgreenplanet.jpg","images/tutalien2","images/tutalien1","images/tutrocket1","images/tutalien1","images/nothing.png","2","practice","true","1","common","0","2022-05-06 02:53:20.074"
"two-step-fixation","63","395033","0.0-61.0-2.0","1624","1666","21","Male","false","true","true","true","""event"",""trial"",""time""
""fullscreenenter"",""5"",""7575""
","
","
","""event"",""trial"",""time""
""fullscreenenter"",""5"",""7575""
","
","","images/earth.jpg","","","","","","","","","","","","","","fixation","","","","","",""
"d3-animate-choice","64","397858","0.0-61.0-0.1","1624","1666","21","Male","false","true","true","true","""event"",""trial"",""time""
""fullscreenenter"",""5"",""7575""
","
","
","""event"",""trial"",""time""
""fullscreenenter"",""5"",""7575""
","
","819.3000000119209","","49","","","3000","1","","","images/earth.jpg","images/tutrocket2","images/tutrocket1","null","images/tutrocket1","","1","practice","null","1","","",""
"d3-animate-choice","65","400838","0.0-61.0-1.1","1624","1666","21","Male","false","true","true","true","""event"",""trial"",""time""
""fullscreenenter"",""5"",""7575""
","
","
","""event"",""trial"",""time""
""fullscreenenter"",""5"",""7575""
","
","974.6999999880791","","48","","","3000","1","","","images/tutyellowplanet.jpg","images/tutalien4","images/tutalien3","images/tutrocket1","images/tutalien4","images/t.png","2","practice","false","2","rare","1","2022-05-06 02:53:26.891"
"two-step-fixation","66","401856","0.0-61.0-2.1","1624","1666","21","Male","false","true","true","true","""event"",""trial"",""time""
""fullscreenenter"",""5"",""7575""
","
","
","""event"",""trial"",""time""
""fullscreenenter"",""5"",""7575""
","
","","images/earth.jpg","","","","","","","","","","","","","","fixation","","","","","",""
"d3-animate-choice","67","404265","0.0-61.0-0.2","1624","1666","21","Male","false","true","true","true","""event"",""trial"",""time""
""fullscreenenter"",""5"",""7575""
","
","
","""event"",""trial"",""time""
""fullscreenenter"",""5"",""7575""
","
","403.10000002384186","","49","","","3000","1","","","images/earth.jpg","images/tutrocket2","images/tutrocket1","null","images/tutrocket1","","1","practice","null","1","","",""
"d3-animate-choice","68","407502","0.0-61.0-1.2","1624","1666","21","Male","false","true","true","true","""event"",""trial"",""time""
""fullscreenenter"",""5"",""7575""
","
","
","""event"",""trial"",""time""
""fullscreenenter"",""5"",""7575""
","
","1230.5","","48","","","3000","1","","","images/tutgreenplanet.jpg","images/tutalien2","images/tutalien1","images/tutrocket1","images/tutalien2","images/nothing.png","2","practice","true","2","common","0","2022-05-06 02:53:33.555"
"two-step-fixation","69","408514","0.0-61.0-2.2","1624","1666","21","Male","false","true","true","true","""event"",""trial"",""time""
""fullscreenenter"",""5"",""7575""
","
","
","""event"",""trial"",""time""
""fullscreenenter"",""5"",""7575""
","
","","images/earth.jpg","","","","","","","","","","","","","","fixation","","","","","",""
"d3-animate-choice","70","410911","0.0-61.0-0.3","1624","1666","21","Male","false","true","true","true","""event"",""trial"",""time""
""fullscreenenter"",""5"",""7575""
","
","
","""event"",""trial"",""time""
""fullscreenenter"",""5"",""7575""
","
","389.7000000476837","","49","","","3000","1","","","images/earth.jpg","images/tutrocket2","images/tutrocket1","null","images/tutrocket1","","1","practice","null","1","","",""
"d3-animate-choice","71","413522","0.0-61.0-1.3","1624","1666","21","Male","false","true","true","true","""event"",""trial"",""time""
""fullscreenenter"",""5"",""7575""
","
","
","""event"",""trial"",""time""
""fullscreenenter"",""5"",""7575""
","
","594.9000000357628","","49","","","3000","1","","","images/tutgreenplanet.jpg","images/tutalien2","images/tutalien1","images/tutrocket1","images/tutalien1","images/t.png","2","practice","true","1","common","1","2022-05-06 02:53:39.574"
"two-step-fixation","72","414529","0.0-61.0-2.3","1624","1666","21","Male","false","true","true","true","""event"",""trial"",""time""
""fullscreenenter"",""5"",""7575""
","
","
","""event"",""trial"",""time""
""fullscreenenter"",""5"",""7575""
","
","","images/earth.jpg","","","","","","","","","","","","","","fixation","","","","","",""
"d3-animate-choice","73","416981","0.0-61.0-0.4","1624","1666","21","Male","false","true","true","true","""event"",""trial"",""time""
""fullscreenenter"",""5"",""7575""
","
","
","""event"",""trial"",""time""
""fullscreenenter"",""5"",""7575""
","
","431.80000001192093","","49","","","3000","1","","","images/earth.jpg","images/tutrocket2","images/tutrocket1","null","images/tutrocket1","","1","practice","null","1","","",""
"d3-animate-choice","74","419833","0.0-61.0-1.4","1624","1666","21","Male","false","true","true","true","""event"",""trial"",""time""
""fullscreenenter"",""5"",""7575""
","
","
","""event"",""trial"",""time""
""fullscreenenter"",""5"",""7575""
","
","846.5","","49","","","3000","1","","","images/tutgreenplanet.jpg","images/tutalien2","images/tutalien1","images/tutrocket1","images/tutalien1","images/nothing.png","2","practice","true","1","common","0","2022-05-06 02:53:45.886"
"two-step-fixation","75","420840","0.0-61.0-2.4","1624","1666","21","Male","false","true","true","true","""event"",""trial"",""time""
""fullscreenenter"",""5"",""7575""
","
","
","""event"",""trial"",""time""
""fullscreenenter"",""5"",""7575""
","
","","images/earth.jpg","","","","","","","","","","","","","","fixation","","","","","",""
"d3-animate-choice","76","422862","0.0-61.0-0.5","1624","1666","21","Male","false","true","true","true","""event"",""trial"",""time""
""fullscreenenter"",""5"",""7575""
","
","
","""event"",""trial"",""time""
""fullscreenenter"",""5"",""7575""
","
","15.899999976158142","","49","","","3000","1","908.8999999761581","49","images/earth.jpg","images/tutrocket2","images/tutrocket1","null","images/tutrocket1","","1","practice","null","1","","",""
"d3-animate-choice","77","426805","0.0-61.0-1.5","1624","1666","21","Male","false","true","true","true","""event"",""trial"",""time""
""fullscreenenter"",""5"",""7575""
","
","
","""event"",""trial"",""time""
""fullscreenenter"",""5"",""7575""
","
","826.5","","50","","","3000","1","1401.4000000357628,1932.6000000238419","50,48","images/tutgreenplanet.jpg","images/tutalien2","images/tutalien1","images/tutrocket1","images/tutalien2","images/nothing.png","2","practice","true","","common","0","2022-05-06 02:53:52.857"
"two-step-fixation","78","427812","0.0-61.0-2.5","1624","1666","21","Male","false","true","true","true","""event"",""trial"",""time""
""fullscreenenter"",""5"",""7575""
","
","
","""event"",""trial"",""time""
""fullscreenenter"",""5"",""7575""
","
","","images/earth.jpg","","","","","","","","","","","","","","fixation","","","","","",""
"d3-animate-choice","79","430083","0.0-61.0-0.6","1624","1666","21","Male","false","true","true","true","""event"",""trial"",""time""
""fullscreenenter"",""5"",""7575""
","
","
","""event"",""trial"",""time""
""fullscreenenter"",""5"",""7575""
","
","265.4000000357628","","49","","","3000","1","792.9000000357628,1035.4000000357628,1365.5,1662.4000000357628,1922.4000000357628,2227.300000011921","49,49,49,49,49,49","images/earth.jpg","images/tutrocket2","images/tutrocket1","null","images/tutrocket1","","1","practice","null","1","","",""
"d3-animate-choice","80","432319","0.0-61.0-1.6","1624","1666","21","Male","false","true","true","true","""event"",""trial"",""time""
""fullscreenenter"",""5"",""7575""
","
","
","""event"",""trial"",""time""
""fullscreenenter"",""5"",""7575""
","
","230.70000004768372","","49","","","3000","1","457.60000002384186,759.7000000476837,1061.7000000476837,1345.7000000476837,1597.4000000357628,1816.7000000476837","49,49,49,49,49,49","images/tutgreenplanet.jpg","images/tutalien2","images/tutalien1","images/tutrocket1","images/tutalien1","images/nothing.png","2","practice","true","1","common","0","2022-05-06 02:53:58.371"
"two-step-fixation","81","433322","0.0-61.0-2.6","1624","1666","21","Male","false","true","true","true","""event"",""trial"",""time""
""fullscreenenter"",""5"",""7575""
","
","
","""event"",""trial"",""time""
""fullscreenenter"",""5"",""7575""
","
","","images/earth.jpg","","","","","","","","","","","","","","fixation","","","","","",""
"d3-animate-choice","82","435449","0.0-61.0-0.7","1624","1666","21","Male","false","true","true","true","""event"",""trial"",""time""
""fullscreenenter"",""5"",""7575""
","
","
","""event"",""trial"",""time""
""fullscreenenter"",""5"",""7575""
","
","120.40000003576279","","48","","","3000","1","271.9000000357628,504.69999998807907","48,48","images/earth.jpg","images/tutrocket2","images/tutrocket1","null","images/tutrocket2","","1","practice","null","2","","",""
"d3-animate-choice","83","438638","0.0-61.0-1.7","1624","1666","21","Male","false","true","true","true","""event"",""trial"",""time""
""fullscreenenter"",""5"",""7575""
","
","
","""event"",""trial"",""time""
""fullscreenenter"",""5"",""7575""
","
","1184.8999999761581","","49","","","3000","1","","","images/tutgreenplanet.jpg","images/tutalien2","images/tutalien1","images/tutrocket2","images/tutalien1","images/t.png","2","practice","false","1","rare","1","2022-05-06 02:54:04.691"
"two-step-fixation","84","439644","0.0-61.0-2.7","1624","1666","21","Male","false","true","true","true","""event"",""trial"",""time""
""fullscreenenter"",""5"",""7575""
","
","
","""event"",""trial"",""time""
""fullscreenenter"",""5"",""7575""
","
","","images/earth.jpg","","","","","","","","","","","","","","fixation","","","","","",""
"d3-animate-choice","85","441732","0.0-61.0-0.8","1624","1666","21","Male","false","true","true","true","""event"",""trial"",""time""
""fullscreenenter"",""5"",""7575""
","
","
","""event"",""trial"",""time""
""fullscreenenter"",""5"",""7575""
","
","80.80000001192093","","48","","","3000","1","","","images/earth.jpg","images/tutrocket2","images/tutrocket1","null","images/tutrocket2","","1","practice","null","2","","",""
"d3-animate-choice","86","445333","0.0-61.0-1.8","1624","1666","21","Male","false","true","true","true","""event"",""trial"",""time""
""fullscreenenter"",""5"",""7575""
","
","
","""event"",""trial"",""time""
""fullscreenenter"",""5"",""7575""
","
","1595.4000000357628","","48","","","3000","1","","","images/tutyellowplanet.jpg","images/tutalien4","images/tutalien3","images/tutrocket2","images/tutalien4","images/t.png","2","practice","true","2","common","1","2022-05-06 02:54:11.385"
"two-step-fixation","87","446339","0.0-61.0-2.8","1624","1666","21","Male","false","true","true","true","""event"",""trial"",""time""
""fullscreenenter"",""5"",""7575""
","
","
","""event"",""trial"",""time""
""fullscreenenter"",""5"",""7575""
","
","","images/earth.jpg","","","","","","","","","","","","","","fixation","","","","","",""
"d3-animate-choice","88","448375","0.0-61.0-0.9","1624","1666","21","Male","false","true","true","true","""event"",""trial"",""time""
""fullscreenenter"",""5"",""7575""
","
","
","""event"",""trial"",""time""
""fullscreenenter"",""5"",""7575""
","
","28.80000001192093","","48","","","3000","1","997.2000000476837,1245.7000000476837,1449.6000000238419,1663.800000011921,1859.7000000476837","48,48,48,48,48","images/earth.jpg","images/tutrocket2","images/tutrocket1","null","images/tutrocket2","","1","practice","null","2","","",""
"d3-animate-choice","89","450395","0.0-61.0-1.9","1624","1666","21","Male","false","true","true","true","""event"",""trial"",""time""
""fullscreenenter"",""5"",""7575""
","
","
","""event"",""trial"",""time""
""fullscreenenter"",""5"",""7575""
","
","14.600000023841858","","48","","","3000","1","201.39999997615814,371.60000002384186,555.6000000238419,743.5,933.6000000238419,1125.5,1333.5,1547.8999999761581,1747.3999999761581,1955.6000000238419","48,48,48,48,48,48,48,48,48,48","images/tutyellowplanet.jpg","images/tutalien4","images/tutalien3","images/tutrocket2","images/tutalien4","images/nothing.png","2","practice","true","2","common","0","2022-05-06 02:54:16.447"
"two-step-fixation","90","451400","0.0-61.0-2.9","1624","1666","21","Male","false","true","true","true","""event"",""trial"",""time""
""fullscreenenter"",""5"",""7575""
","
","
","""event"",""trial"",""time""
""fullscreenenter"",""5"",""7575""
","
","","images/earth.jpg","","","","","","","","","","","","","","fixation","","","","","",""
"d3-animate-choice","91","453422","0.0-61.0-0.10","1624","1666","21","Male","false","true","true","true","""event"",""trial"",""time""
""fullscreenenter"",""5"",""7575""
","
","
","""event"",""trial"",""time""
""fullscreenenter"",""5"",""7575""
","
","16.5","","48","","","3000","1","180.0999999642372,346.5999999642372,514.5,680.3999999761581,850.3999999761581,1029.5,1224.5","48,48,48,48,48,48,48","images/earth.jpg","images/tutrocket2","images/tutrocket1","null","images/tutrocket2","","1","practice","null","2","","",""
"d3-animate-choice","92","455969","0.0-61.0-1.10","1624","1666","21","Male","false","true","true","true","""event"",""trial"",""time""
""fullscreenenter"",""5"",""7575""
","
","
","""event"",""trial"",""time""
""fullscreenenter"",""5"",""7575""
","
","541.5","","49","","","3000","1","","","images/tutgreenplanet.jpg","images/tutalien2","images/tutalien1","images/tutrocket2","images/tutalien1","images/nothing.png","2","practice","false","1","rare","0","2022-05-06 02:54:22.021"
"two-step-fixation","93","456975","0.0-61.0-2.10","1624","1666","21","Male","false","true","true","true","""event"",""trial"",""time""
""fullscreenenter"",""5"",""7575""
","
","
","""event"",""trial"",""time""
""fullscreenenter"",""5"",""7575""
","
","","images/earth.jpg","","","","","","","","","","","","","","fixation","","","","","",""
"d3-animate-choice","94","459144","0.0-61.0-0.11","1624","1666","21","Male","false","true","true","true","""event"",""trial"",""time""
""fullscreenenter"",""5"",""7575""
","
","
","""event"",""trial"",""time""
""fullscreenenter"",""5"",""7575""
","
","162.4000000357628","","48","","","3000","1","389.4000000357628,611.8000000119209,1083.5,1322.6000000238419,1526.300000011921,1726.4000000357628,1954.300000011921,2160.300000011921","48,48,48,48,48,48,48,48","images/earth.jpg","images/tutrocket2","images/tutrocket1","null","images/tutrocket2","","1","practice","null","2","","",""
"d3-animate-choice","95","461335","0.0-61.0-1.11","1624","1666","21","Male","false","true","true","true","""event"",""trial"",""time""
""fullscreenenter"",""5"",""7575""
","
","
","""event"",""trial"",""time""
""fullscreenenter"",""5"",""7575""
","
","186.69999998807907","","48","","","3000","1","375.69999998807907,555.8999999761581,700.5999999642372,893.8000000119209,1055.8999999761581,1250.800000011921,1443.800000011921,1627.0999999642372,1816.800000011921,1982.699999988079,2169.800000011921","48,48,48,48,48,48,48,48,48,48,48","images/tutgreenplanet.jpg","images/tutalien2","images/tutalien1","images/tutrocket2","images/tutalien2","images/nothing.png","2","practice","false","2","rare","0","2022-05-06 02:54:27.388"
"two-step-fixation","96","462341","0.0-61.0-2.11","1624","1666","21","Male","false","true","true","true","""event"",""trial"",""time""
""fullscreenenter"",""5"",""7575""
","
","
","""event"",""trial"",""time""
""fullscreenenter"",""5"",""7575""
","
","","images/earth.jpg","","","","","","","","","","","","","","fixation","","","","","",""
"d3-animate-choice","97","464509","0.0-61.0-0.12","1624","1666","21","Male","false","true","true","true","""event"",""trial"",""time""
""fullscreenenter"",""5"",""7575""
","
","
","""event"",""trial"",""time""
""fullscreenenter"",""5"",""7575""
","
","162.19999998807907","","48","","","3000","1","350.9000000357628,571.9000000357628,756.8000000119209,969.9000000357628,1175.9000000357628,1375,1631.9000000357628","48,48,48,48,48,48,48","images/earth.jpg","images/tutrocket2","images/tutrocket1","null","images/tutrocket2","","1","practice","null","2","","",""
"d3-animate-choice","98","467165","0.0-61.0-1.12","1624","1666","21","Male","false","true","true","true","""event"",""trial"",""time""
""fullscreenenter"",""5"",""7575""
","
","
","""event"",""trial"",""time""
""fullscreenenter"",""5"",""7575""
","
","650.5999999642372","","48","","","3000","1","","","images/tutyellowplanet.jpg","images/tutalien4","images/tutalien3","images/tutrocket2","images/tutalien4","images/t.png","2","practice","true","2","common","1","2022-05-06 02:54:33.217"
"two-step-fixation","99","468172","0.0-61.0-2.12","1624","1666","21","Male","false","true","true","true","""event"",""trial"",""time""
""fullscreenenter"",""5"",""7575""
","
","
","""event"",""trial"",""time""
""fullscreenenter"",""5"",""7575""
","
","","images/earth.jpg","","","","","","","","","","","","","","fixation","","","","","",""
"d3-animate-choice","100","470299","0.0-61.0-0.13","1624","1666","21","Male","false","true","true","true","""event"",""trial"",""time""
""fullscreenenter"",""5"",""7575""
","
","
","""event"",""trial"",""time""
""fullscreenenter"",""5"",""7575""
","
","121.10000002384186","","48","","","3000","1","315.30000001192093,1088,1818.1000000238419,2030.300000011921","48,48,48,48","images/earth.jpg","images/tutrocket2","images/tutrocket1","null","images/tutrocket2","","1","practice","null","2","","",""
"d3-animate-choice","101","472435","0.0-61.0-1.13","1624","1666","21","Male","false","true","true","true","""event"",""trial"",""time""
""fullscreenenter"",""5"",""7575""
","
","
","""event"",""trial"",""time""
""fullscreenenter"",""5"",""7575""
","
","130.39999997615814","","48","","","3000","1","350.30000001192093,581,803.3999999761581,1023.0999999642372,1239.300000011921,1606.5999999642372,1869.3999999761581,2071.699999988079","48,48,48,48,48,48,48,48","images/tutgreenplanet.jpg","images/tutalien2","images/tutalien1","images/tutrocket2","images/tutalien2","images/nothing.png","2","practice","false","2","rare","0","2022-05-06 02:54:38.487"
"two-step-fixation","102","473441","0.0-61.0-2.13","1624","1666","21","Male","false","true","true","true","""event"",""trial"",""time""
""fullscreenenter"",""5"",""7575""
","
","
","""event"",""trial"",""time""
""fullscreenenter"",""5"",""7575""
","
","","images/earth.jpg","","","","","","","","","","","","","","fixation","","","","","",""
"d3-animate-choice","103","475592","0.0-61.0-0.14","1624","1666","21","Male","false","true","true","true","""event"",""trial"",""time""
""fullscreenenter"",""5"",""7575""
","
","
","""event"",""trial"",""time""
""fullscreenenter"",""5"",""7575""
","
","144.30000001192093","","48","","","3000","1","319.4000000357628,528.5,741.4000000357628,948.4000000357628,1160.4000000357628,1371.300000011921,1628.4000000357628,1880.5,2044.300000011921","48,48,48,48,48,48,48,48,48","images/earth.jpg","images/tutrocket2","images/tutrocket1","null","images/tutrocket2","","1","practice","null","2","","",""
"d3-animate-choice","104","477701","0.0-61.0-1.14","1624","1666","21","Male","false","true","true","true","""event"",""trial"",""time""
""fullscreenenter"",""5"",""7575""
","
","
","""event"",""trial"",""time""
""fullscreenenter"",""5"",""7575""
","
","103.39999997615814","","48","","","3000","1","288.60000002384186,473.69999998807907,649.6000000238419,976.6000000238419,1202.6000000238419,1380.6000000238419,1575.699999988079,1769.5,1955.5","48,48,48,48,48,48,48,48,48","images/tutyellowplanet.jpg","images/tutalien4","images/tutalien3","images/tutrocket2","images/tutalien4","images/t.png","2","practice","true","2","common","1","2022-05-06 02:54:43.753"
"two-step-fixation","105","478706","0.0-61.0-2.14","1624","1666","21","Male","false","true","true","true","""event"",""trial"",""time""
""fullscreenenter"",""5"",""7575""
","
","
","""event"",""trial"",""time""
""fullscreenenter"",""5"",""7575""
","
","","images/earth.jpg","","","","","","","","","","","","","","fixation","","","","","",""
"d3-animate-choice","106","480724","0.0-61.0-0.15","1624","1666","21","Male","false","true","true","true","""event"",""trial"",""time""
""fullscreenenter"",""5"",""7575""
","
","
","""event"",""trial"",""time""
""fullscreenenter"",""5"",""7575""
","
","11.100000023841858","","48","","","3000","1","205,411,745.1000000238419,978.8000000119209,1207,1421.800000011921,1722.699999988079","48,48,48,48,48,48,48","images/earth.jpg","images/tutrocket2","images/tutrocket1","null","images/tutrocket2","","1","practice","null","2","","",""
"d3-animate-choice","107","483085","0.0-61.0-1.15","1624","1666","21","Male","false","true","true","true","""event"",""trial"",""time""
""fullscreenenter"",""5"",""7575""
","
","
","""event"",""trial"",""time""
""fullscreenenter"",""5"",""7575""
","
","356.9000000357628","","49","","","3000","1","2144.900000035763,2348.199999988079","48,48","images/tutyellowplanet.jpg","images/tutalien4","images/tutalien3","images/tutrocket2","images/tutalien3","images/nothing.png","2","practice","true","1","common","0","2022-05-06 02:54:49.138"
"two-step-fixation","108","484092","0.0-61.0-2.15","1624","1666","21","Male","false","true","true","true","""event"",""trial"",""time""
""fullscreenenter"",""5"",""7575""
","
","
","""event"",""trial"",""time""
""fullscreenenter"",""5"",""7575""
","
","","images/earth.jpg","","","","","","","","","","","","","","fixation","","","","","",""
"d3-animate-choice","109","486176","0.0-61.0-0.16","1624","1666","21","Male","false","true","true","true","""event"",""trial"",""time""
""fullscreenenter"",""5"",""7575""
","
","
","""event"",""trial"",""time""
""fullscreenenter"",""5"",""7575""
","
","77.90000003576279","","48","","","3000","1","191,406,607,791.6999999880791,1005.1000000238419,1199.1000000238419,1397.300000011921,1599.800000011921,1814.9000000357628,2027.9000000357628","48,48,48,48,48,48,48,48,48,48","images/earth.jpg","images/tutrocket2","images/tutrocket1","null","images/tutrocket2","","1","practice","null","2","","",""
"d3-animate-choice","110","488325","0.0-61.0-1.16","1624","1666","21","Male","false","true","true","true","""event"",""trial"",""time""
""fullscreenenter"",""5"",""7575""
","
","
","""event"",""trial"",""time""
""fullscreenenter"",""5"",""7575""
","
","143.70000004768372","","48","","","3000","1","363.80000001192093,567.7000000476837,764.7000000476837,981.8000000119209,1199.6000000238419,1406.800000011921,1620.5,1837.5,2033.7000000476837","48,48,48,48,48,48,48,48,48","images/tutgreenplanet.jpg","images/tutalien2","images/tutalien1","images/tutrocket2","images/tutalien2","images/nothing.png","2","practice","false","2","rare","0","2022-05-06 02:54:54.377"
"two-step-fixation","111","489331","0.0-61.0-2.16","1624","1666","21","Male","false","true","true","true","""event"",""trial"",""time""
""fullscreenenter"",""5"",""7575""
","
","
","""event"",""trial"",""time""
""fullscreenenter"",""5"",""7575""
","
","","images/earth.jpg","","","","","","","","","","","","","","fixation","","","","","",""
"d3-animate-choice","112","491384","0.0-61.0-0.17","1624","1666","21","Male","false","true","true","true","""event"",""trial"",""time""
""fullscreenenter"",""5"",""7575""
","
","
","""event"",""trial"",""time""
""fullscreenenter"",""5"",""7575""
","
","47.60000002384186","","48","","","3000","1","220.60000002384186,419.60000002384186,603.6000000238419,787.6000000238419,988.6999999880791","48,48,48,48,48","images/earth.jpg","images/tutrocket2","images/tutrocket1","null","images/tutrocket2","","1","practice","null","2","","",""
"d3-animate-choice","113","493931","0.0-61.0-1.17","1624","1666","21","Male","false","true","true","true","""event"",""trial"",""time""
""fullscreenenter"",""5"",""7575""
","
","
","""event"",""trial"",""time""
""fullscreenenter"",""5"",""7575""
","
","541.3000000119209","","49","","","3000","1","782.1000000238419,1032.2000000476837","49,49","images/tutgreenplanet.jpg","images/tutalien2","images/tutalien1","images/tutrocket2","images/tutalien1","images/t.png","2","practice","false","1","rare","1","2022-05-06 02:54:59.983"
"two-step-fixation","114","494936","0.0-61.0-2.17","1624","1666","21","Male","false","true","true","true","""event"",""trial"",""time""
""fullscreenenter"",""5"",""7575""
","
","
","""event"",""trial"",""time""
""fullscreenenter"",""5"",""7575""
","
","","images/earth.jpg","","","","","","","","","","","","","","fixation","","","","","",""
"d3-animate-choice","115","496942","0.0-61.0-0.18","1624","1666","21","Male","false","true","true","true","""event"",""trial"",""time""
""fullscreenenter"",""5"",""7575""
","
","
","""event"",""trial"",""time""
""fullscreenenter"",""5"",""7575""
","
","0.09999996423721313","","48","","","3000","1","184.69999998807907,375.5999999642372,1002.5,1231.5,1453.3999999761581,1651.8999999761581","48,48,48,48,48,48","images/earth.jpg","images/tutrocket2","images/tutrocket1","null","images/tutrocket2","","1","practice","null","2","","",""
"d3-animate-choice","116","499728","0.0-61.0-1.18","1624","1666","21","Male","false","true","true","true","""event"",""trial"",""time""
""fullscreenenter"",""5"",""7575""
","
","
","""event"",""trial"",""time""
""fullscreenenter"",""5"",""7575""
","
","781.1000000238419","","48","","","3000","1","1183.1000000238419","48","images/tutyellowplanet.jpg","images/tutalien4","images/tutalien3","images/tutrocket2","images/tutalien4","images/nothing.png","2","practice","true","2","common","0","2022-05-06 02:55:05.780"
"two-step-fixation","117","500733","0.0-61.0-2.18","1624","1666","21","Male","false","true","true","true","""event"",""trial"",""time""
""fullscreenenter"",""5"",""7575""
","
","
","""event"",""trial"",""time""
""fullscreenenter"",""5"",""7575""
","
","","images/earth.jpg","","","","","","","","","","","","","","fixation","","","","","",""
"d3-animate-choice","118","502778","0.0-61.0-0.19","1624","1666","21","Male","false","true","true","true","""event"",""trial"",""time""
""fullscreenenter"",""5"",""7575""
","
","
","""event"",""trial"",""time""
""fullscreenenter"",""5"",""7575""
","
","38.89999997615814","","48","","","3000","1","250.60000002384186,474.60000002384186,658.6000000238419","48,48,48","images/earth.jpg","images/tutrocket2","images/tutrocket1","null","images/tutrocket2","","1","practice","null","2","","",""
"d3-animate-choice","119","505541","0.0-61.0-1.19","1624","1666","21","Male","false","true","true","true","""event"",""trial"",""time""
""fullscreenenter"",""5"",""7575""
","
","
","""event"",""trial"",""time""
""fullscreenenter"",""5"",""7575""
","
","757.9000000357628","","48","","","3000","1","2587","48","images/tutyellowplanet.jpg","images/tutalien4","images/tutalien3","images/tutrocket2","images/tutalien4","images/t.png","2","practice","true","2","common","1","2022-05-06 02:55:11.593"
"two-step-fixation","120","506546","0.0-61.0-2.19","1624","1666","21","Male","false","true","true","true","""event"",""trial"",""time""
""fullscreenenter"",""5"",""7575""
","
","
","""event"",""trial"",""time""
""fullscreenenter"",""5"",""7575""
","
","","images/earth.jpg","","","","","","","","","","","","","","fixation","","","","","",""
"d3-instructions","121","509789","0.0-62.0","1624","1666","21","Male","false","true","true","true","""event"",""trial"",""time""
""fullscreenenter"",""5"",""7575""
","
","
","""event"",""trial"",""time""
""fullscreenenter"",""5"",""7575""
","
","","","","","","","","","","","","","","","","","","","","","",""
"audio-keyboard-response","122","511309","0.0-63.0","1624","1666","21","Male","false","true","true","true","""event"",""trial"",""time""
""fullscreenenter"",""5"",""7575""
","
","
","""event"",""trial"",""time""
""fullscreenenter"",""5"",""7575""
","
","1520","audio/instructions/treasure_feedback.wav","32","","","","","","","","","","","","","","","","","","",""
"d3-instructions","123","521432","0.0-64.0","1624","1666","21","Male","false","true","true","true","""event"",""trial"",""time""
""fullscreenenter"",""5"",""7575""
","
","
","""event"",""trial"",""time""
""fullscreenenter"",""5"",""7575""
","
","","","","","","","","","","","","","","","","","","","","","",""
"d3-instructions","124","538315","0.0-65.0","1624","1666","21","Male","false","true","true","true","""event"",""trial"",""time""
""fullscreenenter"",""5"",""7575""
","
","
","""event"",""trial"",""time""
""fullscreenenter"",""5"",""7575""
","
","","","","","","","","","","","","","","","","","","","","","",""
"d3-instructions","125","559244","0.0-66.0","1624","1666","21","Male","false","true","true","true","""event"",""trial"",""time""
""fullscreenenter"",""5"",""7575""
","
","
","""event"",""trial"",""time""
""fullscreenenter"",""5"",""7575""
","
","","","","","","","","","","","","","","","","","","","","","",""
"d3-instructions","126","573363","0.0-67.0","1624","1666","21","Male","false","true","true","true","""event"",""trial"",""time""
""fullscreenenter"",""5"",""7575""
","
","
","""event"",""trial"",""time""
""fullscreenenter"",""5"",""7575""
","
","","","","","","","","","","","","","","","","","","","","","",""
"d3-instructions","127","575813","0.0-68.0","1624","1666","21","Male","false","true","true","true","""event"",""trial"",""time""
""fullscreenenter"",""5"",""7575""
","
","
","""event"",""trial"",""time""
""fullscreenenter"",""5"",""7575""
","
","","","","","","","","","","","","","","","","","","","","","",""
"instructions-quiz","128","578482","0.0-69.0","1624","1666","21","Male","false","true","true","true","""event"",""trial"",""time""
""fullscreenenter"",""5"",""7575""
","
","
","""event"",""trial"",""time""
""fullscreenenter"",""5"",""7575""
","
","2665.100000023842","audio/quiz/Q1_Prompt.wav","","1","","","","","","","","","","","","","","","","","",""
"audio-keyboard-response","129","578523","0.0-70.0","1624","1666","21","Male","false","true","true","true","""event"",""trial"",""time""
""fullscreenenter"",""5"",""7575""
","
","
","""event"",""trial"",""time""
""fullscreenenter"",""5"",""7575""
","
","40","audio/quiz/Q1_Correct.wav","32","","","","","","","","","","","","","","","","","","",""
"instructions-quiz","130","582212","0.0-71.0","1624","1666","21","Male","false","true","true","true","""event"",""trial"",""time""
""fullscreenenter"",""5"",""7575""
","
","
","""event"",""trial"",""time""
""fullscreenenter"",""5"",""7575""
","
","3688.399999976158","audio/quiz/Q2_Prompt.wav","","0","","","","","","","","","","","","","","","","","",""
"audio-keyboard-response","131","582264","0.0-72.0","1624","1666","21","Male","false","true","true","true","""event"",""trial"",""time""
""fullscreenenter"",""5"",""7575""
","
","
","""event"",""trial"",""time""
""fullscreenenter"",""5"",""7575""
","
","51","audio/quiz/Q2_Correct.wav","32","","","","","","","","","","","","","","","","","","",""
"instructions-quiz","132","584886","0.0-73.0","1624","1666","21","Male","false","true","true","true","""event"",""trial"",""time""
""fullscreenenter"",""5"",""7575""
","
","
","""event"",""trial"",""time""
""fullscreenenter"",""5"",""7575""
","
","2621.5","audio/quiz/Q3_Prompt.wav","","1","","","","","","","","","","","","","","","","","",""
"audio-keyboard-response","133","584932","0.0-74.0","1624","1666","21","Male","false","true","true","true","""event"",""trial"",""time""
""fullscreenenter"",""5"",""7575""
","
","
","""event"",""trial"",""time""
""fullscreenenter"",""5"",""7575""
","
","51","audio/quiz/Q3_Correct.wav","32","","","","","","","","","","","","","","","","","","",""
"d3-instructions","134","586965","0.0-75.0","1624","1666","21","Male","false","true","true","true","""event"",""trial"",""time""
""fullscreenenter"",""5"",""7575""
","
","
","""event"",""trial"",""time""
""fullscreenenter"",""5"",""7575""
","
","","","","","","","","","","","","","","","","","","","","","",""
"d3-animate-choice","135","590709","0.0-76.0-0.0","1624","1666","21","Male","false","true","true","true","""event"",""trial"",""time""
""fullscreenenter"",""5"",""7575""
","
","
","""event"",""trial"",""time""
""fullscreenenter"",""5"",""7575""
","
","1740.300000011921","","48","","","3000","1","","","images/earth.jpg","images/rocket1","images/rocket2","null","images/rocket1","","1","real","null","2","","",""
"d3-animate-choice","136","593353","0.0-76.0-1.0","1624","1666","21","Male","false","true","true","true","""event"",""trial"",""time""
""fullscreenenter"",""5"",""7575""
","
","
","""event"",""trial"",""time""
""fullscreenenter"",""5"",""7575""
","
","635.6999999880791","","48","","","3000","1","","","images/purpleplanet.jpg","images/alien4","images/alien3","images/rocket1","images/alien4","images/nothing.png","2","real","false","2","rare","0","2022-05-06 02:56:39.405"
"two-step-fixation","137","594359","0.0-76.0-2.0","1624","1666","21","Male","false","true","true","true","""event"",""trial"",""time""
""fullscreenenter"",""5"",""7575""
","
","
","""event"",""trial"",""time""
""fullscreenenter"",""5"",""7575""
","
","","images/earth.jpg","","","","","","","","","","","","","","fixation","","","","","",""
"d3-animate-choice","138","596485","0.0-76.0-0.1","1624","1666","21","Male","false","true","true","true","""event"",""trial"",""time""
""fullscreenenter"",""5"",""7575""
","
","
","""event"",""trial"",""time""
""fullscreenenter"",""5"",""7575""
","
","119.60000002384186","","48","","","3000","1","","","images/earth.jpg","images/rocket1","images/rocket2","null","images/rocket1","","1","real","null","2","","",""
"d3-animate-choice","139","599475","0.0-76.0-1.1","1624","1666","21","Male","false","true","true","true","""event"",""trial"",""time""
""fullscreenenter"",""5"",""7575""
","
","
","""event"",""trial"",""time""
""fullscreenenter"",""5"",""7575""
","
","984.5","","48","","","3000","1","","","images/purpleplanet.jpg","images/alien4","images/alien3","images/rocket1","images/alien4","images/t.png","2","real","false","2","rare","1","2022-05-06 02:56:45.527"
"two-step-fixation","140","600480","0.0-76.0-2.1","1624","1666","21","Male","false","true","true","true","""event"",""trial"",""time""
""fullscreenenter"",""5"",""7575""
","
","
","""event"",""trial"",""time""
""fullscreenenter"",""5"",""7575""
","
","","images/earth.jpg","","","","","","","","","","","","","","fixation","","","","","",""
"d3-animate-choice","141","602533","0.0-76.0-0.2","1624","1666","21","Male","false","true","true","true","""event"",""trial"",""time""
""fullscreenenter"",""5"",""7575""
","
","
","""event"",""trial"",""time""
""fullscreenenter"",""5"",""7575""
","
","45.59999996423721","","48","","","3000","1","","","images/earth.jpg","images/rocket1","images/rocket2","null","images/rocket1","","1","real","null","2","","",""
"d3-animate-choice","142","605429","0.0-76.0-1.2","1624","1666","21","Male","false","true","true","true","""event"",""trial"",""time""
""fullscreenenter"",""5"",""7575""
","
","
","""event"",""trial"",""time""
""fullscreenenter"",""5"",""7575""
","
","891","","49","","","3000","1","","","images/redplanet1.jpg","images/alien2","images/alien1","images/rocket1","images/alien1","images/nothing.png","2","real","true","1","common","0","2022-05-06 02:56:51.481"
"two-step-fixation","143","606434","0.0-76.0-2.2","1624","1666","21","Male","false","true","true","true","""event"",""trial"",""time""
""fullscreenenter"",""5"",""7575""
","
","
","""event"",""trial"",""time""
""fullscreenenter"",""5"",""7575""
","
","","images/earth.jpg","","","","","","","","","","","","","","fixation","","","","","",""
"d3-animate-choice","144","608592","0.0-76.0-0.3","1624","1666","21","Male","false","true","true","true","""event"",""trial"",""time""
""fullscreenenter"",""5"",""7575""
","
","
","""event"",""trial"",""time""
""fullscreenenter"",""5"",""7575""
","
","152.5","","48","","","3000","1","338.69999998807907","48","images/earth.jpg","images/rocket1","images/rocket2","null","images/rocket1","","1","real","null","2","","",""
"d3-animate-choice","145","611291","0.0-76.0-1.3","1624","1666","21","Male","false","true","true","true","""event"",""trial"",""time""
""fullscreenenter"",""5"",""7575""
","
","
","""event"",""trial"",""time""
""fullscreenenter"",""5"",""7575""
","
","692.5999999642372","","48","","","3000","1","","","images/purpleplanet.jpg","images/alien4","images/alien3","images/rocket1","images/alien4","images/t.png","2","real","false","2","rare","1","2022-05-06 02:56:57.343"
"two-step-fixation","146","612296","0.0-76.0-2.3","1624","1666","21","Male","false","true","true","true","""event"",""trial"",""time""
""fullscreenenter"",""5"",""7575""
","
","
","""event"",""trial"",""time""
""fullscreenenter"",""5"",""7575""
","
","","images/earth.jpg","","","","","","","","","","","","","","fixation","","","","","",""
"d3-animate-choice","147","614499","0.0-76.0-0.4","1624","1666","21","Male","false","true","true","true","""event"",""trial"",""time""
""fullscreenenter"",""5"",""7575""
","
","
","""event"",""trial"",""time""
""fullscreenenter"",""5"",""7575""
","
","197.30000001192093","","48","","","3000","1","394.5","48","images/earth.jpg","images/rocket1","images/rocket2","null","images/rocket1","","1","real","null","2","","",""
"d3-animate-choice","148","617714","0.0-76.0-1.4","1624","1666","21","Male","false","true","true","true","""event"",""trial"",""time""
""fullscreenenter"",""5"",""7575""
","
","
","""event"",""trial"",""time""
""fullscreenenter"",""5"",""7575""
","
","1209.699999988079","","49","","","3000","1","","","images/redplanet1.jpg","images/alien2","images/alien1","images/rocket1","images/alien1","images/nothing.png","2","real","true","1","common","0","2022-05-06 02:57:03.766"
"two-step-fixation","149","618719","0.0-76.0-2.4","1624","1666","21","Male","false","true","true","true","""event"",""trial"",""time""
""fullscreenenter"",""5"",""7575""
","
","
","""event"",""trial"",""time""
""fullscreenenter"",""5"",""7575""
","
","","images/earth.jpg","","","","","","","","","","","","","","fixation","","","","","",""
"d3-animate-choice","150","621286","0.0-76.0-0.5","1624","1666","21","Male","false","true","true","true","""event"",""trial"",""time""
""fullscreenenter"",""5"",""7575""
","
","
","""event"",""trial"",""time""
""fullscreenenter"",""5"",""7575""
","
","562.6000000238419","","48","","","3000","1","","","images/earth.jpg","images/rocket1","images/rocket2","null","images/rocket1","","1","real","null","2","","",""
"d3-animate-choice","151","623870","0.0-76.0-1.5","1624","1666","21","Male","false","true","true","true","""event"",""trial"",""time""
""fullscreenenter"",""5"",""7575""
","
","
","""event"",""trial"",""time""
""fullscreenenter"",""5"",""7575""
","
","577.9000000357628","","48","","","3000","1","2574.600000023842","48","images/redplanet1.jpg","images/alien2","images/alien1","images/rocket1","images/alien2","images/t.png","2","real","true","2","common","1","2022-05-06 02:57:09.922"
"two-step-fixation","152","624876","0.0-76.0-2.5","1624","1666","21","Male","false","true","true","true","""event"",""trial"",""time""
""fullscreenenter"",""5"",""7575""
","
","
","""event"",""trial"",""time""
""fullscreenenter"",""5"",""7575""
","
","","images/earth.jpg","","","","","","","","","","","","","","fixation","","","","","",""
"d3-animate-choice","153","627060","0.0-76.0-0.6","1624","1666","21","Male","false","true","true","true","""event"",""trial"",""time""
""fullscreenenter"",""5"",""7575""
","
","
","""event"",""trial"",""time""
""fullscreenenter"",""5"",""7575""
","
","177","","48","","","3000","1","347.10000002384186,550.1000000238419,768.3000000119209,939.2000000476837,1129.2000000476837,1308.2000000476837,1519.2000000476837,1739.2000000476837,1943.1000000238419,2131","48,48,48,48,48,48,48,48,48,48","images/earth.jpg","images/rocket1","images/rocket2","null","images/rocket1","","1","real","null","2","","",""
"d3-animate-choice","154","629197","0.0-76.0-1.6","1624","1666","21","Male","false","true","true","true","""event"",""trial"",""time""
""fullscreenenter"",""5"",""7575""
","
","
","""event"",""trial"",""time""
""fullscreenenter"",""5"",""7575""
","
","132","","48","","","3000","1","299.30000001192093,492.30000001192093,693.6000000238419,907,1134.1000000238419,1341.800000011921,1540.800000011921,1750.1000000238419,1960.6000000238419","48,48,48,48,48,48,48,48,48","images/redplanet1.jpg","images/alien2","images/alien1","images/rocket1","images/alien2","images/t.png","2","real","true","2","common","1","2022-05-06 02:57:15.249"
"two-step-fixation","155","630204","0.0-76.0-2.6","1624","1666","21","Male","false","true","true","true","""event"",""trial"",""time""
""fullscreenenter"",""5"",""7575""
","
","
","""event"",""trial"",""time""
""fullscreenenter"",""5"",""7575""
","
","","images/earth.jpg","","","","","","","","","","","","","","fixation","","","","","",""
"d3-animate-choice","156","632217","0.0-76.0-0.7","1624","1666","21","Male","false","true","true","true","""event"",""trial"",""time""
""fullscreenenter"",""5"",""7575""
","
","
","""event"",""trial"",""time""
""fullscreenenter"",""5"",""7575""
","
","9.600000023841858","","48","","","3000","1","196.70000004768372,367.7000000476837,552.7000000476837,757.7000000476837,944.3000000119209,1145.800000011921,1347.5,1533.6000000238419,1768.1000000238419,1981.6000000238419","48,48,48,48,48,48,48,48,48,48","images/earth.jpg","images/rocket1","images/rocket2","null","images/rocket1","","1","real","null","2","","",""
"d3-animate-choice","157","634576","0.0-76.0-1.7","1624","1666","21","Male","false","true","true","true","""event"",""trial"",""time""
""fullscreenenter"",""5"",""7575""
","
","
","""event"",""trial"",""time""
""fullscreenenter"",""5"",""7575""
","
","354.5","","48","","","3000","1","585.8999999761581,1602.0999999642372,1893","48,48,48","images/purpleplanet.jpg","images/alien4","images/alien3","images/rocket1","images/alien4","images/t.png","2","real","false","2","rare","1","2022-05-06 02:57:20.628"
"two-step-fixation","158","635581","0.0-76.0-2.7","1624","1666","21","Male","false","true","true","true","""event"",""trial"",""time""
""fullscreenenter"",""5"",""7575""
","
","
","""event"",""trial"",""time""
""fullscreenenter"",""5"",""7575""
","
","","images/earth.jpg","","","","","","","","","","","","","","fixation","","","","","",""
"d3-animate-choice","159","637700","0.0-76.0-0.8","1624","1666","21","Male","false","true","true","true","""event"",""trial"",""time""
""fullscreenenter"",""5"",""7575""
","
","
","""event"",""trial"",""time""
""fullscreenenter"",""5"",""7575""
","
","112.89999997615814","","48","","","3000","1","302.69999998807907,498.69999998807907,700.6999999880791,896,1097.800000011921,1313.8999999761581,1532.699999988079,1751.699999988079,1943.800000011921","48,48,48,48,48,48,48,48,48","images/earth.jpg","images/rocket1","images/rocket2","null","images/rocket1","","1","real","null","2","","",""
"d3-animate-choice","160","639720","0.0-76.0-1.8","1624","1666","21","Male","false","true","true","true","""event"",""trial"",""time""
""fullscreenenter"",""5"",""7575""
","
","
","""event"",""trial"",""time""
""fullscreenenter"",""5"",""7575""
","
","14.399999976158142","","48","","","3000","1","202.19999998807907,383.30000001192093,647.3000000119209,860.1999999880791,1066.300000011921,1282.3999999761581,1496.0999999642372,1697.199999988079,1913.0999999642372","48,48,48,48,48,48,48,48,48","images/redplanet1.jpg","images/alien2","images/alien1","images/rocket1","images/alien2","images/nothing.png","2","real","true","2","common","0","2022-05-06 02:57:25.772"
"two-step-fixation","161","640725","0.0-76.0-2.8","1624","1666","21","Male","false","true","true","true","""event"",""trial"",""time""
""fullscreenenter"",""5"",""7575""
","
","
","""event"",""trial"",""time""
""fullscreenenter"",""5"",""7575""
","
","","images/earth.jpg","","","","","","","","","","","","","","fixation","","","","","",""
"d3-animate-choice","162","642846","0.0-76.0-0.9","1624","1666","21","Male","false","true","true","true","""event"",""trial"",""time""
""fullscreenenter"",""5"",""7575""
","
","
","""event"",""trial"",""time""
""fullscreenenter"",""5"",""7575""
","
","113.69999998807907","","48","","","3000","1","322.69999998807907,534.8000000119209,944.3999999761581,1554,1781.699999988079,2039.699999988079","48,48,48,48,48,48","images/earth.jpg","images/rocket1","images/rocket2","null","images/rocket1","","1","real","null","2","","",""
"d3-animate-choice","163","645013","0.0-76.0-1.9","1624","1666","21","Male","false","true","true","true","""event"",""trial"",""time""
""fullscreenenter"",""5"",""7575""
","
","
","""event"",""trial"",""time""
""fullscreenenter"",""5"",""7575""
","
","161.89999997615814","","48","","","3000","1","366.7999999523163,539,768,1158.5999999642372,1387.8999999761581,1639,1856.5999999642372,2073.699999988079","48,48,48,48,48,48,48,48","images/purpleplanet.jpg","images/alien4","images/alien3","images/rocket1","images/alien4","images/t.png","2","real","false","2","rare","1","2022-05-06 02:57:31.065"
"two-step-fixation","164","646020","0.0-76.0-2.9","1624","1666","21","Male","false","true","true","true","""event"",""trial"",""time""
""fullscreenenter"",""5"",""7575""
","
","
","""event"",""trial"",""time""
""fullscreenenter"",""5"",""7575""
","
","","images/earth.jpg","","","","","","","","","","","","","","fixation","","","","","",""
"d3-animate-choice","165","648242","0.0-76.0-0.10","1624","1666","21","Male","false","true","true","true","""event"",""trial"",""time""
""fullscreenenter"",""5"",""7575""
","
","
","""event"",""trial"",""time""
""fullscreenenter"",""5"",""7575""
","
","216.80000001192093","","48","","","3000","1","438.60000002384186,655.6000000238419,876.5,1100.6000000238419,1332.800000011921,1568.7000000476837,1781.6000000238419,2013.5","48,48,48,48,48,48,48,48","images/earth.jpg","images/rocket1","images/rocket2","null","images/rocket1","","1","real","null","2","","",""
"d3-animate-choice","166","650255","0.0-76.0-1.10","1624","1666","21","Male","false","true","true","true","""event"",""trial"",""time""
""fullscreenenter"",""5"",""7575""
","
","
","""event"",""trial"",""time""
""fullscreenenter"",""5"",""7575""
","
","8.5","","48","","","3000","1","235.5,454.60000002384186,679.1000000238419,922.6000000238419,1125.6000000238419,1418.5,1684.5,1928.5","48,48,48,48,48,48,48,48","images/redplanet1.jpg","images/alien2","images/alien1","images/rocket1","images/alien2","images/nothing.png","2","real","true","2","common","0","2022-05-06 02:57:36.307"
"two-step-fixation","167","651257","0.0-76.0-2.10","1624","1666","21","Male","false","true","true","true","""event"",""trial"",""time""
""fullscreenenter"",""5"",""7575""
","
","
","""event"",""trial"",""time""
""fullscreenenter"",""5"",""7575""
","
","","images/earth.jpg","","","","","","","","","","","","","","fixation","","","","","",""
"d3-animate-choice","168","653269","0.0-76.0-0.11","1624","1666","21","Male","false","true","true","true","""event"",""trial"",""time""
""fullscreenenter"",""5"",""7575""
","
","
","""event"",""trial"",""time""
""fullscreenenter"",""5"",""7575""
","
","5.600000023841858","","48","","","3000","1","221.10000002384186,432,648.3000000119209,908,1159.1000000238419,1385.1000000238419,1859.1000000238419","48,48,48,48,48,48,48","images/earth.jpg","images/rocket1","images/rocket2","null","images/rocket1","","1","real","null","2","","",""
"d3-animate-choice","169","655333","0.0-76.0-1.11","1624","1666","21","Male","false","true","true","true","""event"",""trial"",""time""
""fullscreenenter"",""5"",""7575""
","
","
","""event"",""trial"",""time""
""fullscreenenter"",""5"",""7575""
","
","57.39999997615814","","48","","","3000","1","305.39999997615814,519.5999999642372,776.5,1010.3999999761581,1226.3999999761581,1460.5,1764.3999999761581,1988.3999999761581","48,48,48,48,48,48,48,48","images/redplanet1.jpg","images/alien2","images/alien1","images/rocket1","images/alien2","images/t.png","2","real","true","2","common","1","2022-05-06 02:57:41.385"
"two-step-fixation","170","656337","0.0-76.0-2.11","1624","1666","21","Male","false","true","true","true","""event"",""trial"",""time""
""fullscreenenter"",""5"",""7575""
","
","
","""event"",""trial"",""time""
""fullscreenenter"",""5"",""7575""
","
","","images/earth.jpg","","","","","","","","","","","","","","fixation","","","","","",""
"d3-animate-choice","171","658414","0.0-76.0-0.12","1624","1666","21","Male","false","true","true","true","""event"",""trial"",""time""
""fullscreenenter"",""5"",""7575""
","
","
","""event"",""trial"",""time""
""fullscreenenter"",""5"",""7575""
","
","71.10000002384186","","48","","","3000","1","294.80000001192093,520.9000000357628,740.1000000238419,979.9000000357628,1213.9000000357628,1418.800000011921,1626.800000011921,1843.699999988079","48,48,48,48,48,48,48,48","images/earth.jpg","images/rocket1","images/rocket2","null","images/rocket1","","1","real","null","2","","",""
"d3-animate-choice","172","660432","0.0-76.0-1.12","1624","1666","21","Male","false","true","true","true","""event"",""trial"",""time""
""fullscreenenter"",""5"",""7575""
","
","
","""event"",""trial"",""time""
""fullscreenenter"",""5"",""7575""
","
","11.600000023841858","","48","","","3000","1","219.89999997615814,445.10000002384186,643.1000000238419,833.1000000238419,1083.1000000238419,1315,1567.1000000238419,1822.199999988079","48,48,48,48,48,48,48,48","images/redplanet1.jpg","images/alien2","images/alien1","images/rocket1","images/alien2","images/t.png","2","real","true","2","common","1","2022-05-06 02:57:46.484"
"two-step-fixation","173","661438","0.0-76.0-2.12","1624","1666","21","Male","false","true","true","true","""event"",""trial"",""time""
""fullscreenenter"",""5"",""7575""
","
","
","""event"",""trial"",""time""
""fullscreenenter"",""5"",""7575""
","
","","images/earth.jpg","","","","","","","","","","","","","","fixation","","","","","",""
"d3-animate-choice","174","663487","0.0-76.0-0.13","1624","1666","21","Male","false","true","true","true","""event"",""trial"",""time""
""fullscreenenter"",""5"",""7575""
","
","
","""event"",""trial"",""time""
""fullscreenenter"",""5"",""7575""
","
","43","","48","","","3000","1","243,434.30000001192093,634,865.3000000119209,1061,1316.1000000238419,1520.1000000238419,1711,1901.8999999761581","48,48,48,48,48,48,48,48,48","images/earth.jpg","images/rocket1","images/rocket2","null","images/rocket1","","1","real","null","2","","",""
"d3-animate-choice","175","665548","0.0-76.0-1.13","1624","1666","21","Male","false","true","true","true","""event"",""trial"",""time""
""fullscreenenter"",""5"",""7575""
","
","
","""event"",""trial"",""time""
""fullscreenenter"",""5"",""7575""
","
","55.30000001192093","","48","","","3000","1","246.19999998807907,448.39999997615814,651.3000000119209,851.3000000119209,1072.199999988079,1302.300000011921,1535.199999988079,1752.300000011921,2015.199999988079","48,48,48,48,48,48,48,48,48","images/redplanet1.jpg","images/alien2","images/alien1","images/rocket1","images/alien2","images/t.png","2","real","true","2","common","1","2022-05-06 02:57:51.600"
"two-step-fixation","176","666554","0.0-76.0-2.13","1624","1666","21","Male","false","true","true","true","""event"",""trial"",""time""
""fullscreenenter"",""5"",""7575""
","
","
","""event"",""trial"",""time""
""fullscreenenter"",""5"",""7575""
","
","","images/earth.jpg","","","","","","","","","","","","","","fixation","","","","","",""
"d3-animate-choice","177","668718","0.0-76.0-0.14","1624","1666","21","Male","false","true","true","true","""event"",""trial"",""time""
""fullscreenenter"",""5"",""7575""
","
","
","""event"",""trial"",""time""
""fullscreenenter"",""5"",""7575""
","
","157.5","","48","","","3000","1","382.60000002384186,580.6000000238419,803.6000000238419,1015.8000000119209,1244.7000000476837,1489.6000000238419,1687.5,1931.800000011921,2114.5","48,48,48,48,48,48,48,48,48","images/earth.jpg","images/rocket1","images/rocket2","null","images/rocket1","","1","real","null","2","","",""
"d3-animate-choice","178","670864","0.0-76.0-1.14","1624","1666","21","Male","false","true","true","true","""event"",""trial"",""time""
""fullscreenenter"",""5"",""7575""
","
","
","""event"",""trial"",""time""
""fullscreenenter"",""5"",""7575""
","
","141.5","","48","","","3000","1","331.39999997615814,536.8999999761581,736.8000000119209,961.5,1172.6000000238419,1367.800000011921,1573.6000000238419,1766.3999999761581,1975.5","48,48,48,48,48,48,48,48,48","images/redplanet1.jpg","images/alien2","images/alien1","images/rocket1","images/alien2","images/t.png","2","real","true","2","common","1","2022-05-06 02:57:56.917"
"two-step-fixation","179","671870","0.0-76.0-2.14","1624","1666","21","Male","false","true","true","true","""event"",""trial"",""time""
""fullscreenenter"",""5"",""7575""
","
","
","""event"",""trial"",""time""
""fullscreenenter"",""5"",""7575""
","
","","images/earth.jpg","","","","","","","","","","","","","","fixation","","","","","",""
"d3-animate-choice","180","674066","0.0-76.0-0.15","1624","1666","21","Male","false","true","true","true","""event"",""trial"",""time""
""fullscreenenter"",""5"",""7575""
","
","
","""event"",""trial"",""time""
""fullscreenenter"",""5"",""7575""
","
","187.80000001192093","","48","","","3000","1","390.5999999642372,621.8000000119209,864,1256.699999988079,1539.699999988079,1958.800000011921,2180.800000011921","48,48,48,37,48,48,48","images/earth.jpg","images/rocket1","images/rocket2","null","images/rocket1","","1","real","null","2","","",""
"d3-animate-choice","181","676281","0.0-76.0-1.15","1624","1666","21","Male","false","true","true","true","""event"",""trial"",""time""
""fullscreenenter"",""5"",""7575""
","
","
","""event"",""trial"",""time""
""fullscreenenter"",""5"",""7575""
","
","208.89999997615814","","48","","","3000","1","372.19999998807907,595.8999999761581,798.0999999642372,1000.6999999880791,1214,1405.0999999642372,1610.7999999523163,1815.8999999761581,2060.7999999523163","48,48,48,48,48,48,48,48,48","images/redplanet1.jpg","images/alien2","images/alien1","images/rocket1","images/alien2","images/t.png","2","real","true","2","common","1","2022-05-06 02:58:02.333"
"two-step-fixation","182","677287","0.0-76.0-2.15","1624","1666","21","Male","false","true","true","true","""event"",""trial"",""time""
""fullscreenenter"",""5"",""7575""
","
","
","""event"",""trial"",""time""
""fullscreenenter"",""5"",""7575""
","
","","images/earth.jpg","","","","","","","","","","","","","","fixation","","","","","",""
"d3-animate-choice","183","679355","0.0-76.0-0.16","1624","1666","21","Male","false","true","true","true","""event"",""trial"",""time""
""fullscreenenter"",""5"",""7575""
","
","
","""event"",""trial"",""time""
""fullscreenenter"",""5"",""7575""
","
","61","","48","","","3000","1","312,511.0999999642372,723.8999999761581,915.8999999761581,1128,1325.8999999761581,1544.8999999761581,1758.8999999761581,1983","48,48,48,48,48,48,48,48,48","images/earth.jpg","images/rocket1","images/rocket2","null","images/rocket1","","1","real","null","2","","",""
"d3-animate-choice","184","681476","0.0-76.0-1.16","1624","1666","21","Male","false","true","true","true","""event"",""trial"",""time""
""fullscreenenter"",""5"",""7575""
","
","
","""event"",""trial"",""time""
""fullscreenenter"",""5"",""7575""
","
","115","","48","","","3000","1","317.89999997615814,532.8999999761581,729,925,1137,1346.699999988079,1546,1778,1983.3999999761581","48,48,48,48,48,48,48,48,48","images/redplanet1.jpg","images/alien2","images/alien1","images/rocket1","images/alien2","images/nothing.png","2","real","true","2","common","0","2022-05-06 02:58:07.528"
"two-step-fixation","185","682480","0.0-76.0-2.16","1624","1666","21","Male","false","true","true","true","""event"",""trial"",""time""
""fullscreenenter"",""5"",""7575""
","
","
","""event"",""trial"",""time""
""fullscreenenter"",""5"",""7575""
","
","","images/earth.jpg","","","","","","","","","","","","","","fixation","","","","","",""
"d3-animate-choice","186","684544","0.0-76.0-0.17","1624","1666","21","Male","false","true","true","true","""event"",""trial"",""time""
""fullscreenenter"",""5"",""7575""
","
","
","""event"",""trial"",""time""
""fullscreenenter"",""5"",""7575""
","
","58.30000001192093","","48","","","3000","1","228.10000002384186,416.39999997615814,608,792.1000000238419,994,1209,1798.199999988079,1992","48,48,48,48,48,48,48,48","images/earth.jpg","images/rocket1","images/rocket2","null","images/rocket1","","1","real","null","2","","",""
"d3-animate-choice","187","686661","0.0-76.0-1.17","1624","1666","21","Male","false","true","true","true","""event"",""trial"",""time""
""fullscreenenter"",""5"",""7575""
","
","
","""event"",""trial"",""time""
""fullscreenenter"",""5"",""7575""
","
","110.79999995231628","","48","","","3000","1","297.89999997615814,486,660.7999999523163,851,999,1198.8999999761581,1409.0999999642372,1631,1842.0999999642372,2038.8999999761581","48,48,48,48,48,48,48,48,48,48","images/redplanet1.jpg","images/alien2","images/alien1","images/rocket1","images/alien2","images/t.png","2","real","true","2","common","1","2022-05-06 02:58:12.713"
"two-step-fixation","188","687666","0.0-76.0-2.17","1624","1666","21","Male","false","true","true","true","""event"",""trial"",""time""
""fullscreenenter"",""5"",""7575""
","
","
","""event"",""trial"",""time""
""fullscreenenter"",""5"",""7575""
","
","","images/earth.jpg","","","","","","","","","","","","","","fixation","","","","","",""
"d3-animate-choice","189","689770","0.0-76.0-0.18","1624","1666","21","Male","false","true","true","true","""event"",""trial"",""time""
""fullscreenenter"",""5"",""7575""
","
","
","""event"",""trial"",""time""
""fullscreenenter"",""5"",""7575""
","
","100.20000004768372","","48","","","3000","1","301.2000000476837,516.2000000476837,717.3000000119209,915.2000000476837,1119.2000000476837,1301.2000000476837,1483.2000000476837,1691.2000000476837,1901.1000000238419,2084.100000023842","48,48,48,48,48,48,48,48,48,48","images/earth.jpg","images/rocket1","images/rocket2","null","images/rocket1","","1","real","null","2","","",""
"d3-animate-choice","190","691964","0.0-76.0-1.18","1624","1666","21","Male","false","true","true","true","""event"",""trial"",""time""
""fullscreenenter"",""5"",""7575""
","
","
","""event"",""trial"",""time""
""fullscreenenter"",""5"",""7575""
","
","187.19999998807907","","48","","","3000","1","389.5,630.1999999880791,841.1999999880791,1056.3999999761581,1266.3999999761581,1481.199999988079,1668.300000011921,1856.0999999642372,2041.0999999642372","48,48,48,48,48,48,48,48,48","images/purpleplanet.jpg","images/alien4","images/alien3","images/rocket1","images/alien4","images/nothing.png","2","real","false","2","rare","0","2022-05-06 02:58:18.016"
"two-step-fixation","191","692970","0.0-76.0-2.18","1624","1666","21","Male","false","true","true","true","""event"",""trial"",""time""
""fullscreenenter"",""5"",""7575""
","
","
","""event"",""trial"",""time""
""fullscreenenter"",""5"",""7575""
","
","","images/earth.jpg","","","","","","","","","","","","","","fixation","","","","","",""
"d3-animate-choice","192","694989","0.0-76.0-0.19","1624","1666","21","Male","false","true","true","true","""event"",""trial"",""time""
""fullscreenenter"",""5"",""7575""
","
","
","""event"",""trial"",""time""
""fullscreenenter"",""5"",""7575""
","
","11.600000023841858","","48","","","3000","1","163.70000004768372,356.60000002384186,585,773.6000000238419,1001.8000000119209,1206.7000000476837,1419.2000000476837,1654.7000000476837,1798.1000000238419,2002.5","48,48,48,48,48,48,48,48,48,48","images/earth.jpg","images/rocket1","images/rocket2","null","images/rocket1","","1","real","null","2","","",""
"d3-animate-choice","193","697194","0.0-76.0-1.19","1624","1666","21","Male","false","true","true","true","""event"",""trial"",""time""
""fullscreenenter"",""5"",""7575""
","
","
","""event"",""trial"",""time""
""fullscreenenter"",""5"",""7575""
","
","200","","48","","","3000","1","423.5,628.1999999880791,833.5,1025.5,1262.5,1426,1645.3999999761581,1880.3999999761581,2085.2999999523163","48,48,48,48,48,48,48,48,48","images/redplanet1.jpg","images/alien2","images/alien1","images/rocket1","images/alien2","images/t.png","2","real","true","2","common","1","2022-05-06 02:58:23.246"
"two-step-fixation","194","698196","0.0-76.0-2.19","1624","1666","21","Male","false","true","true","true","""event"",""trial"",""time""
""fullscreenenter"",""5"",""7575""
","
","
","""event"",""trial"",""time""
""fullscreenenter"",""5"",""7575""
","
","","images/earth.jpg","","","","","","","","","","","","","","fixation","","","","","",""
"d3-animate-choice","195","700296","0.0-76.0-0.20","1624","1666","21","Male","false","true","true","true","""event"",""trial"",""time""
""fullscreenenter"",""5"",""7575""
","
","
","""event"",""trial"",""time""
""fullscreenenter"",""5"",""7575""
","
","94.10000002384186","","48","","","3000","1","295.60000002384186,505.10000002384186,744.1000000238419,981,1322.199999988079,1583.8999999761581,1828","48,48,48,48,48,48,48","images/earth.jpg","images/rocket1","images/rocket2","null","images/rocket1","","1","real","null","2","","",""
"d3-animate-choice","196","702348","0.0-76.0-1.20","1624","1666","21","Male","false","true","true","true","""event"",""trial"",""time""
""fullscreenenter"",""5"",""7575""
","
","
","""event"",""trial"",""time""
""fullscreenenter"",""5"",""7575""
","
","45.69999998807907","","48","","","3000","1","272.5,500.60000002384186,739.8000000119209,1126.5,1299.6000000238419,1513.5,1711.5,1908.3999999761581","48,48,48,48,48,48,48,48","images/redplanet1.jpg","images/alien2","images/alien1","images/rocket1","images/alien2","images/nothing.png","2","real","true","2","common","0","2022-05-06 02:58:28.400"
"two-step-fixation","197","703354","0.0-76.0-2.20","1624","1666","21","Male","false","true","true","true","""event"",""trial"",""time""
""fullscreenenter"",""5"",""7575""
","
","
","""event"",""trial"",""time""
""fullscreenenter"",""5"",""7575""
","
","","images/earth.jpg","","","","","","","","","","","","","","fixation","","","","","",""
"d3-animate-choice","198","705403","0.0-76.0-0.21","1624","1666","21","Male","false","true","true","true","""event"",""trial"",""time""
""fullscreenenter"",""5"",""7575""
","
","
","""event"",""trial"",""time""
""fullscreenenter"",""5"",""7575""
","
","42.10000002384186","","48","","","3000","1","246.10000002384186,444.10000002384186,651.1000000238419,860,1065.1000000238419,1269,1468.1000000238419,1681.8999999761581,1904","48,48,48,48,48,48,48,48,48","images/earth.jpg","images/rocket1","images/rocket2","null","images/rocket1","","1","real","null","2","","",""
"d3-animate-choice","199","707469","0.0-76.0-1.21","1624","1666","21","Male","false","true","true","true","""event"",""trial"",""time""
""fullscreenenter"",""5"",""7575""
","
","
","""event"",""trial"",""time""
""fullscreenenter"",""5"",""7575""
","
","60.89999997615814","","48","","","3000","1","262.69999998807907,472.2999999523163,686,893.1999999880791,1070,1257,1456.8999999761581,1670.7999999523163,1871.7999999523163","48,48,48,48,48,48,48,48,48","images/purpleplanet.jpg","images/alien4","images/alien3","images/rocket1","images/alien4","images/t.png","2","real","false","2","rare","1","2022-05-06 02:58:33.521"
"two-step-fixation","200","708476","0.0-76.0-2.21","1624","1666","21","Male","false","true","true","true","""event"",""trial"",""time""
""fullscreenenter"",""5"",""7575""
","
","
","""event"",""trial"",""time""
""fullscreenenter"",""5"",""7575""
","
","","images/earth.jpg","","","","","","","","","","","","","","fixation","","","","","",""
"d3-animate-choice","201","710512","0.0-76.0-0.22","1624","1666","21","Male","false","true","true","true","""event"",""trial"",""time""
""fullscreenenter"",""5"",""7575""
","
","
","""event"",""trial"",""time""
""fullscreenenter"",""5"",""7575""
","
","29.600000023841858","","48","","","3000","1","239.5,459.89999997615814,657.5,867.5,1071.6000000238419,1263.800000011921,1476.8999999761581,1674.6000000238419,1881.5","48,48,48,48,48,48,48,48,48","images/earth.jpg","images/rocket1","images/rocket2","null","images/rocket1","","1","real","null","2","","",""
"d3-animate-choice","202","712563","0.0-76.0-1.22","1624","1666","21","Male","false","true","true","true","""event"",""trial"",""time""
""fullscreenenter"",""5"",""7575""
","
","
","""event"",""trial"",""time""
""fullscreenenter"",""5"",""7575""
","
","44.80000001192093","","48","","","3000","1","261.7000000476837,493.30000001192093,720.8000000119209,927.1000000238419,1135.6000000238419,1343.6000000238419,1537.7000000476837,1735.6000000238419,1949.6000000238419","48,48,48,48,48,48,48,48,48","images/redplanet1.jpg","images/alien2","images/alien1","images/rocket1","images/alien2","images/nothing.png","2","real","true","2","common","0","2022-05-06 02:58:38.615"
"two-step-fixation","203","713570","0.0-76.0-2.22","1624","1666","21","Male","false","true","true","true","""event"",""trial"",""time""
""fullscreenenter"",""5"",""7575""
","
","
","""event"",""trial"",""time""
""fullscreenenter"",""5"",""7575""
","
","","images/earth.jpg","","","","","","","","","","","","","","fixation","","","","","",""
"d3-animate-choice","204","715809","0.0-76.0-0.23","1624","1666","21","Male","false","true","true","true","""event"",""trial"",""time""
""fullscreenenter"",""5"",""7575""
","
","
","""event"",""trial"",""time""
""fullscreenenter"",""5"",""7575""
","
","232.80000001192093","","48","","","3000","1","420.5,634.3999999761581,1507.5,1802.3999999761581,1960.1000000238419,2162.600000023842","48,48,48,48,48,48","images/earth.jpg","images/rocket1","images/rocket2","null","images/rocket1","","1","real","null","2","","",""
"d3-animate-choice","205","717960","0.0-76.0-1.23","1624","1666","21","Male","false","true","true","true","""event"",""trial"",""time""
""fullscreenenter"",""5"",""7575""
","
","
","""event"",""trial"",""time""
""fullscreenenter"",""5"",""7575""
","
","146","","48","","","3000","1","378.60000002384186,585.1000000238419,797.3999999761581,1004,1223.199999988079,1423.199999988079,1621.199999988079,1818.1000000238419,2035.6000000238419","48,48,48,48,48,48,48,48,48","images/purpleplanet.jpg","images/alien4","images/alien3","images/rocket1","images/alien4","images/t.png","2","real","false","2","rare","1","2022-05-06 02:58:44.012"
"two-step-fixation","206","718964","0.0-76.0-2.23","1624","1666","21","Male","false","true","true","true","""event"",""trial"",""time""
""fullscreenenter"",""5"",""7575""
","
","
","""event"",""trial"",""time""
""fullscreenenter"",""5"",""7575""
","
","","images/earth.jpg","","","","","","","","","","","","","","fixation","","","","","",""
"d3-animate-choice","207","721105","0.0-76.0-0.24","1624","1666","21","Male","false","true","true","true","""event"",""trial"",""time""
""fullscreenenter"",""5"",""7575""
","
","
","""event"",""trial"",""time""
""fullscreenenter"",""5"",""7575""
","
","138.30000001192093","","49","","","3000","1","","","images/earth.jpg","images/rocket1","images/rocket2","null","images/rocket2","","1","real","null","1","","",""
"d3-animate-choice","208","723272","0.0-76.0-1.24","1624","1666","21","Male","false","true","true","true","""event"",""trial"",""time""
""fullscreenenter"",""5"",""7575""
","
","
","""event"",""trial"",""time""
""fullscreenenter"",""5"",""7575""
","
","160.9000000357628","","48","","","3000","1","","","images/purpleplanet.jpg","images/alien4","images/alien3","images/rocket2","images/alien4","images/t.png","2","real","true","2","common","1","2022-05-06 02:58:49.324"
"two-step-fixation","209","724278","0.0-76.0-2.24","1624","1666","21","Male","false","true","true","true","""event"",""trial"",""time""
""fullscreenenter"",""5"",""7575""
","
","
","""event"",""trial"",""time""
""fullscreenenter"",""5"",""7575""
","
","","images/earth.jpg","","","","","","","","","","","","","","fixation","","","","","",""
"d3-animate-choice","210","726460","0.0-76.0-0.25","1624","1666","21","Male","false","true","true","true","""event"",""trial"",""time""
""fullscreenenter"",""5"",""7575""
","
","
","""event"",""trial"",""time""
""fullscreenenter"",""5"",""7575""
","
","176","","49","","","3000","1","","","images/earth.jpg","images/rocket1","images/rocket2","null","images/rocket2","","1","real","null","1","","",""
"d3-animate-choice","211","728667","0.0-76.0-1.25","1624","1666","21","Male","false","true","true","true","""event"",""trial"",""time""
""fullscreenenter"",""5"",""7575""
","
","
","""event"",""trial"",""time""
""fullscreenenter"",""5"",""7575""
","
","202.30000001192093","","48","","","3000","1","","","images/redplanet1.jpg","images/alien2","images/alien1","images/rocket2","images/alien2","images/nothing.png","2","real","false","2","rare","0","2022-05-06 02:58:54.719"
"two-step-fixation","212","729672","0.0-76.0-2.25","1624","1666","21","Male","false","true","true","true","""event"",""trial"",""time""
""fullscreenenter"",""5"",""7575""
","
","
","""event"",""trial"",""time""
""fullscreenenter"",""5"",""7575""
","
","","images/earth.jpg","","","","","","","","","","","","","","fixation","","","","","",""
"d3-animate-choice","213","731914","0.0-76.0-0.26","1624","1666","21","Male","false","true","true","true","""event"",""trial"",""time""
""fullscreenenter"",""5"",""7575""
","
","
","""event"",""trial"",""time""
""fullscreenenter"",""5"",""7575""
","
","236.30000001192093","","49","","","3000","1","","","images/earth.jpg","images/rocket1","images/rocket2","null","images/rocket2","","1","real","null","1","","",""
"d3-animate-choice","214","734455","0.0-76.0-1.26","1624","1666","21","Male","false","true","true","true","""event"",""trial"",""time""
""fullscreenenter"",""5"",""7575""
","
","
","""event"",""trial"",""time""
""fullscreenenter"",""5"",""7575""
","
","535.8000000119209","","49","","","3000","1","","","images/redplanet1.jpg","images/alien2","images/alien1","images/rocket2","images/alien1","images/t.png","2","real","false","1","rare","1","2022-05-06 02:59:00.507"
"two-step-fixation","215","735462","0.0-76.0-2.26","1624","1666","21","Male","false","true","true","true","""event"",""trial"",""time""
""fullscreenenter"",""5"",""7575""
","
","
","""event"",""trial"",""time""
""fullscreenenter"",""5"",""7575""
","
","","images/earth.jpg","","","","","","","","","","","","","","fixation","","","","","",""
"d3-animate-choice","216","737582","0.0-76.0-0.27","1624","1666","21","Male","false","true","true","true","""event"",""trial"",""time""
""fullscreenenter"",""5"",""7575""
","
","
","""event"",""trial"",""time""
""fullscreenenter"",""5"",""7575""
","
","115.20000004768372","","49","","","3000","1","388","49","images/earth.jpg","images/rocket1","images/rocket2","null","images/rocket2","","1","real","null","1","","",""
"d3-animate-choice","217","740217","0.0-76.0-1.27","1624","1666","21","Male","false","true","true","true","""event"",""trial"",""time""
""fullscreenenter"",""5"",""7575""
","
","
","""event"",""trial"",""time""
""fullscreenenter"",""5"",""7575""
","
","629.6000000238419","","48","","","3000","1","","","images/purpleplanet.jpg","images/alien4","images/alien3","images/rocket2","images/alien4","images/nothing.png","2","real","true","2","common","0","2022-05-06 02:59:06.269"
"two-step-fixation","218","741223","0.0-76.0-2.27","1624","1666","21","Male","false","true","true","true","""event"",""trial"",""time""
""fullscreenenter"",""5"",""7575""
","
","
","""event"",""trial"",""time""
""fullscreenenter"",""5"",""7575""
","
","","images/earth.jpg","","","","","","","","","","","","","","fixation","","","","","",""
"d3-animate-choice","219","743245","0.0-76.0-0.28","1624","1666","21","Male","false","true","true","true","""event"",""trial"",""time""
""fullscreenenter"",""5"",""7575""
","
","
","""event"",""trial"",""time""
""fullscreenenter"",""5"",""7575""
","
","15","","49","","","3000","1","297.69999998807907","49","images/earth.jpg","images/rocket1","images/rocket2","null","images/rocket2","","1","real","null","1","","",""
"d3-animate-choice","220","746334","0.0-76.0-1.28","1624","1666","21","Male","false","true","true","true","""event"",""trial"",""time""
""fullscreenenter"",""5"",""7575""
","
","
","""event"",""trial"",""time""
""fullscreenenter"",""5"",""7575""
","
","1084.0999999642372","","48","","","3000","1","","","images/purpleplanet.jpg","images/alien4","images/alien3","images/rocket2","images/alien4","images/t.png","2","real","true","2","common","1","2022-05-06 02:59:12.387"
"two-step-fixation","221","747340","0.0-76.0-2.28","1624","1666","21","Male","false","true","true","true","""event"",""trial"",""time""
""fullscreenenter"",""5"",""7575""
","
","
","""event"",""trial"",""time""
""fullscreenenter"",""5"",""7575""
","
