"trial_type","trial_index","time_elapsed","internal_node_id","participant_id","subject_id","age","gender","rocket_sides","red_planet_first_rocket","red_display_order","purple_display_order","interactions","blur_events","focus_events","fullscreenenter_events","fullscreenexit_events","rt","stimulus","key_press","button_pressed","success","duration","valid_pressed","rts","keys","planet_text","right_text","left_text","center_text","chosen_text","reward_text","trial_stage","practice_trial","transition_type","choice","transition","reward","timestamp"
"pavlovia","0","3","0.0-0.0","774","600","12","Female","true","false","true","false","
","
","
","
","
","","","","","","","","","","","","","","","","","","","","","",""
"html-keyboard-response","1","3042","0.0-1.0","774","600","12","Female","true","false","true","false","
","
","
","
","
","3038.300000011921","Welcome! Press the space bar to begin.","32","","","","","","","","","","","","","","","","","","",""
"audio-keyboard-response","2","7149","0.0-2.0","774","600","12","Female","true","false","true","false","
","
","
","
","
","3860","audio/beep_loop.wav","32","","","","","","","","","","","","","","","","","","",""
"audio-button-response","3","11659","0.0-3.0","774","600","12","Female","true","false","true","false","
","
","
","
","
","NaN","audio/fish.mp3","","1","","","","","","","","","","","","","","","","","",""
"audio-button-response","4","15693","0.0-4.0","774","600","12","Female","true","false","true","false","""event"",""trial"",""time""
""fullscreenenter"",""5"",""19246""
","
","
","""event"",""trial"",""time""
""fullscreenenter"",""5"",""19246""
","
","NaN","audio/tiger.mp3","","4","","","","","","","","","","","","","","","","","",""
"fullscreen","5","20232","0.0-5.0","774","600","12","Female","true","false","true","false","""event"",""trial"",""time""
""fullscreenenter"",""5"",""19246""
","
","
","""event"",""trial"",""time""
""fullscreenenter"",""5"",""19246""
","
","","","","","true","","","","","","","","","","","","","","","","",""
"d3-instructions","6","41563","0.0-6.0","774","600","12","Female","true","false","true","false","""event"",""trial"",""time""
""fullscreenenter"",""5"",""19246""
","
","
","""event"",""trial"",""time""
""fullscreenenter"",""5"",""19246""
","
","","","","","","","","","","","","","","","","","","","","","",""
"d3-instructions","7","58404","0.0-7.0","774","600","12","Female","true","false","true","false","""event"",""trial"",""time""
""fullscreenenter"",""5"",""19246""
","
","
","""event"",""trial"",""time""
""fullscreenenter"",""5"",""19246""
","
","","","","","","","","","","","","","","","","","","","","","",""
"d3-instructions","8","66358","0.0-8.0","774","600","12","Female","true","false","true","false","""event"",""trial"",""time""
""fullscreenenter"",""5"",""19246""
","
","
","""event"",""trial"",""time""
""fullscreenenter"",""5"",""19246""
","
","","","","","","","","","","","","","","","","","","","","","",""
"d3-instructions","9","78047","0.0-9.0","774","600","12","Female","true","false","true","false","""event"",""trial"",""time""
""fullscreenenter"",""5"",""19246""
","
","
","""event"",""trial"",""time""
""fullscreenenter"",""5"",""19246""
","
","","","","","","","","","","","","","","","","","","","","","",""
"d3-instructions","10","97521","0.0-10.0","774","600","12","Female","true","false","true","false","""event"",""trial"",""time""
""fullscreenenter"",""5"",""19246""
","
","
","""event"",""trial"",""time""
""fullscreenenter"",""5"",""19246""
","
","","","","","","","","","","","","","","","","","","","","","",""
"d3-animate-choice","11","100832","0.0-11.0","774","600","12","Female","true","false","true","false","""event"",""trial"",""time""
""fullscreenenter"",""5"",""19246""
","
","
","""event"",""trial"",""time""
""fullscreenenter"",""5"",""19246""
","
","1302.800000011921","","49","","","3000","1","3248.899999976158","48","images/tutgreenplanet.jpg","images/tutalien1","images/tutalien2","null","images/tutalien2","","NA","practice","null","","","",""
"d3-animate-choice","12","103767","0.0-12.0","774","600","12","Female","true","false","true","false","""event"",""trial"",""time""
""fullscreenenter"",""5"",""19246""
","
","
","""event"",""trial"",""time""
""fullscreenenter"",""5"",""19246""
","
","929.6000000238419","","48","","","3000","1","","","images/tutgreenplanet.jpg","images/tutalien1","images/tutalien2","null","images/tutalien1","","NA","practice","null","","","",""
"d3-animate-choice","13","106544","0.0-13.0","774","600","12","Female","true","false","true","false","""event"",""trial"",""time""
""fullscreenenter"",""5"",""19246""
","
","
","""event"",""trial"",""time""
""fullscreenenter"",""5"",""19246""
","
","772.5","","49","","","3000","1","","","images/tutgreenplanet.jpg","images/tutalien1","images/tutalien2","null","images/tutalien2","","NA","practice","null","","","",""
"d3-animate-choice","14","109063","0.0-14.0","774","600","12","Female","true","false","true","false","""event"",""trial"",""time""
""fullscreenenter"",""5"",""19246""
","
","
","""event"",""trial"",""time""
""fullscreenenter"",""5"",""19246""
","
","515.3999999761581","","48","","","3000","1","","","images/tutgreenplanet.jpg","images/tutalien1","images/tutalien2","null","images/tutalien1","","NA","practice","null","","","",""
"d3-instructions","15","118840","0.0-15.0","774","600","12","Female","true","false","true","false","""event"",""trial"",""time""
""fullscreenenter"",""5"",""19246""
","
","
","""event"",""trial"",""time""
""fullscreenenter"",""5"",""19246""
","
","","","","","","","","","","","","","","","","","","","","","",""
"d3-instructions","16","128504","0.0-16.0","774","600","12","Female","true","false","true","false","""event"",""trial"",""time""
""fullscreenenter"",""5"",""19246""
","
","
","""event"",""trial"",""time""
""fullscreenenter"",""5"",""19246""
","
","","","","","","","","","","","","","","","","","","","","","",""
"d3-instructions","17","140002","0.0-17.0","774","600","12","Female","true","false","true","false","""event"",""trial"",""time""
""fullscreenenter"",""5"",""19246""
","
","
","""event"",""trial"",""time""
""fullscreenenter"",""5"",""19246""
","
","","","","","","","","","","","","","","","","","","","","","",""
"d3-instructions","18","155437","0.0-18.0","774","600","12","Female","true","false","true","false","""event"",""trial"",""time""
""fullscreenenter"",""5"",""19246""
","
","
","""event"",""trial"",""time""
""fullscreenenter"",""5"",""19246""
","
","","","","","","","","","","","","","","","","","","","","","",""
"d3-instructions","19","173369","0.0-19.0","774","600","12","Female","true","false","true","false","""event"",""trial"",""time""
""fullscreenenter"",""5"",""19246""
","
","
","""event"",""trial"",""time""
""fullscreenenter"",""5"",""19246""
","
","","","","","","","","","","","","","","","","","","","","","",""
"d3-animate-choice","20","177689","0.0-20.0","774","600","12","Female","true","false","true","false","""event"",""trial"",""time""
""fullscreenenter"",""5"",""19246""
","
","
","""event"",""trial"",""time""
""fullscreenenter"",""5"",""19246""
","
","2316.699999988079","","49","","","3000","1","","","images/tutyellowplanet.jpg","null","images/tutalien3","null","images/tutalien3","images/t.png","NA","practice","null","","","",""
"d3-animate-choice","21","180381","0.0-21.0","774","600","12","Female","true","false","true","false","""event"",""trial"",""time""
""fullscreenenter"",""5"",""19246""
","
","
","""event"",""trial"",""time""
""fullscreenenter"",""5"",""19246""
","
","685.8999999761581","","49","","","3000","1","","","images/tutyellowplanet.jpg","null","images/tutalien3","null","images/tutalien3","images/nothing.png","NA","practice","null","","","",""
"d3-animate-choice","22","182774","0.0-22.0","774","600","12","Female","true","false","true","false","""event"",""trial"",""time""
""fullscreenenter"",""5"",""19246""
","
","
","""event"",""trial"",""time""
""fullscreenenter"",""5"",""19246""
","
","390.5","","49","","","3000","1","","","images/tutyellowplanet.jpg","null","images/tutalien3","null","images/tutalien3","images/t.png","NA","practice","null","","","",""
"d3-animate-choice","23","185293","0.0-23.0","774","600","12","Female","true","false","true","false","""event"",""trial"",""time""
""fullscreenenter"",""5"",""19246""
","
","
","""event"",""trial"",""time""
""fullscreenenter"",""5"",""19246""
","
","517","","49","","","3000","1","","","images/tutyellowplanet.jpg","null","images/tutalien3","null","images/tutalien3","images/t.png","NA","practice","null","","","",""
"d3-animate-choice","24","187847","0.0-24.0","774","600","12","Female","true","false","true","false","""event"",""trial"",""time""
""fullscreenenter"",""5"",""19246""
","
","
","""event"",""trial"",""time""
""fullscreenenter"",""5"",""19246""
","
","551.1999999880791","","49","","","3000","1","","","images/tutyellowplanet.jpg","null","images/tutalien3","null","images/tutalien3","images/t.png","NA","practice","null","","","",""
"d3-animate-choice","25","190367","0.0-25.0","774","600","12","Female","true","false","true","false","""event"",""trial"",""time""
""fullscreenenter"",""5"",""19246""
","
","
","""event"",""trial"",""time""
""fullscreenenter"",""5"",""19246""
","
","517.5999999642372","","49","","","3000","1","","","images/tutyellowplanet.jpg","null","images/tutalien3","null","images/tutalien3","images/t.png","NA","practice","null","","","",""
"d3-animate-choice","26","192900","0.0-26.0","774","600","12","Female","true","false","true","false","""event"",""trial"",""time""
""fullscreenenter"",""5"",""19246""
","
","
","""event"",""trial"",""time""
""fullscreenenter"",""5"",""19246""
","
","529.6999999880791","","49","","","3000","1","","","images/tutyellowplanet.jpg","null","images/tutalien3","null","images/tutalien3","images/t.png","NA","practice","null","","","",""
"d3-animate-choice","27","195272","0.0-27.0","774","600","12","Female","true","false","true","false","""event"",""trial"",""time""
""fullscreenenter"",""5"",""19246""
","
","
","""event"",""trial"",""time""
""fullscreenenter"",""5"",""19246""
","
","369.9000000357628","","49","","","3000","1","","","images/tutyellowplanet.jpg","null","images/tutalien3","null","images/tutalien3","images/t.png","NA","practice","null","","","",""
"d3-animate-choice","28","197704","0.0-28.0","774","600","12","Female","true","false","true","false","""event"",""trial"",""time""
""fullscreenenter"",""5"",""19246""
","
","
","""event"",""trial"",""time""
""fullscreenenter"",""5"",""19246""
","
","427.69999998807907","","49","","","3000","1","","","images/tutyellowplanet.jpg","null","images/tutalien3","null","images/tutalien3","images/nothing.png","NA","practice","null","","","",""
"d3-animate-choice","29","200111","0.0-29.0","774","600","12","Female","true","false","true","false","""event"",""trial"",""time""
""fullscreenenter"",""5"",""19246""
","
","
","""event"",""trial"",""time""
""fullscreenenter"",""5"",""19246""
","
","402.89999997615814","","49","","","3000","1","","","images/tutyellowplanet.jpg","null","images/tutalien3","null","images/tutalien3","images/t.png","NA","practice","null","","","",""
"d3-instructions","30","210281","0.0-30.0","774","600","12","Female","true","false","true","false","""event"",""trial"",""time""
""fullscreenenter"",""5"",""19246""
","
","
","""event"",""trial"",""time""
""fullscreenenter"",""5"",""19246""
","
","","","","","","","","","","","","","","","","","","","","","",""
"d3-instructions","31","221857","0.0-31.0","774","600","12","Female","true","false","true","false","""event"",""trial"",""time""
""fullscreenenter"",""5"",""19246""
","
","
","""event"",""trial"",""time""
""fullscreenenter"",""5"",""19246""
","
","","","","","","","","","","","","","","","","","","","","","",""
"d3-instructions","32","233895","0.0-32.0","774","600","12","Female","true","false","true","false","""event"",""trial"",""time""
""fullscreenenter"",""5"",""19246""
","
","
","""event"",""trial"",""time""
""fullscreenenter"",""5"",""19246""
","
","","","","","","","","","","","","","","","","","","","","","",""
"d3-instructions","33","244594","0.0-33.0","774","600","12","Female","true","false","true","false","""event"",""trial"",""time""
""fullscreenenter"",""5"",""19246""
","
","
","""event"",""trial"",""time""
""fullscreenenter"",""5"",""19246""
","
","","","","","","","","","","","","","","","","","","","","","",""
"d3-animate-choice","34","247495","0.0-34.0","774","600","12","Female","true","false","true","false","""event"",""trial"",""time""
""fullscreenenter"",""5"",""19246""
","
","
","""event"",""trial"",""time""
""fullscreenenter"",""5"",""19246""
","
","898.3999999761581","","49","","","3000","1","","","images/tutgreenplanet.jpg","images/tutalien1","images/tutalien2","null","images/tutalien2","images/t.png","NA","practice","null","","","",""
"d3-animate-choice","35","250229","0.0-35.0","774","600","12","Female","true","false","true","false","""event"",""trial"",""time""
""fullscreenenter"",""5"",""19246""
","
","
","""event"",""trial"",""time""
""fullscreenenter"",""5"",""19246""
","
","731.5999999642372","","49","","","3000","1","","","images/tutgreenplanet.jpg","images/tutalien1","images/tutalien2","null","images/tutalien2","images/t.png","NA","practice","null","","","",""
"d3-animate-choice","36","252704","0.0-36.0","774","600","12","Female","true","false","true","false","""event"",""trial"",""time""
""fullscreenenter"",""5"",""19246""
","
","
","""event"",""trial"",""time""
""fullscreenenter"",""5"",""19246""
","
","472.39999997615814","","48","","","3000","1","","","images/tutgreenplanet.jpg","images/tutalien1","images/tutalien2","null","images/tutalien1","images/nothing.png","NA","practice","null","","","",""
"d3-animate-choice","37","255304","0.0-37.0","774","600","12","Female","true","false","true","false","""event"",""trial"",""time""
""fullscreenenter"",""5"",""19246""
","
","
","""event"",""trial"",""time""
""fullscreenenter"",""5"",""19246""
","
","596.6000000238419","","48","","","3000","1","","","images/tutgreenplanet.jpg","images/tutalien1","images/tutalien2","null","images/tutalien1","images/nothing.png","NA","practice","null","","","",""
"d3-animate-choice","38","257778","0.0-38.0","774","600","12","Female","true","false","true","false","""event"",""trial"",""time""
""fullscreenenter"",""5"",""19246""
","
","
","""event"",""trial"",""time""
""fullscreenenter"",""5"",""19246""
","
","471","","49","","","3000","1","","","images/tutgreenplanet.jpg","images/tutalien1","images/tutalien2","null","images/tutalien2","images/t.png","NA","practice","null","","","",""
"d3-animate-choice","39","260320","0.0-39.0","774","600","12","Female","true","false","true","false","""event"",""trial"",""time""
""fullscreenenter"",""5"",""19246""
","
","
","""event"",""trial"",""time""
""fullscreenenter"",""5"",""19246""
","
","539.5","","49","","","3000","1","","","images/tutgreenplanet.jpg","images/tutalien1","images/tutalien2","null","images/tutalien2","images/t.png","NA","practice","null","","","",""
"d3-animate-choice","40","262775","0.0-40.0","774","600","12","Female","true","false","true","false","""event"",""trial"",""time""
""fullscreenenter"",""5"",""19246""
","
","
","""event"",""trial"",""time""
""fullscreenenter"",""5"",""19246""
","
","450.4000000357628","","49","","","3000","1","","","images/tutgreenplanet.jpg","images/tutalien1","images/tutalien2","null","images/tutalien2","images/t.png","NA","practice","null","","","",""
"d3-animate-choice","41","265283","0.0-41.0","774","600","12","Female","true","false","true","false","""event"",""trial"",""time""
""fullscreenenter"",""5"",""19246""
","
","
","""event"",""trial"",""time""
""fullscreenenter"",""5"",""19246""
","
","504.30000001192093","","48","","","3000","1","","","images/tutgreenplanet.jpg","images/tutalien1","images/tutalien2","null","images/tutalien1","images/nothing.png","NA","practice","null","","","",""
"d3-animate-choice","42","267512","0.0-42.0","774","600","12","Female","true","false","true","false","""event"",""trial"",""time""
""fullscreenenter"",""5"",""19246""
","
","
","""event"",""trial"",""time""
""fullscreenenter"",""5"",""19246""
","
","224.30000001192093","","49","","","3000","1","","","images/tutgreenplanet.jpg","images/tutalien1","images/tutalien2","null","images/tutalien2","images/t.png","NA","practice","null","","","",""
"d3-animate-choice","43","269927","0.0-43.0","774","600","12","Female","true","false","true","false","""event"",""trial"",""time""
""fullscreenenter"",""5"",""19246""
","
","
","""event"",""trial"",""time""
""fullscreenenter"",""5"",""19246""
","
","413.5","","49","","","3000","1","2146","49","images/tutgreenplanet.jpg","images/tutalien1","images/tutalien2","null","images/tutalien2","images/t.png","NA","practice","null","","","",""
"d3-instructions","44","285398","0.0-44.0","774","600","12","Female","true","false","true","false","""event"",""trial"",""time""
""fullscreenenter"",""5"",""19246""
","
","
","""event"",""trial"",""time""
""fullscreenenter"",""5"",""19246""
","
","","","","","","","","","","","","","","","","","","","","","",""
"d3-instructions","45","296344","0.0-45.0","774","600","12","Female","true","false","true","false","""event"",""trial"",""time""
""fullscreenenter"",""5"",""19246""
","
","
","""event"",""trial"",""time""
""fullscreenenter"",""5"",""19246""
","
","","","","","","","","","","","","","","","","","","","","","",""
"d3-instructions","46","304097","0.0-46.0","774","600","12","Female","true","false","true","false","""event"",""trial"",""time""
""fullscreenenter"",""5"",""19246""
","
","
","""event"",""trial"",""time""
""fullscreenenter"",""5"",""19246""
","
","","","","","","","","","","","","","","","","","","","","","",""
"d3-instructions","47","322512","0.0-47.0","774","600","12","Female","true","false","true","false","""event"",""trial"",""time""
""fullscreenenter"",""5"",""19246""
","
","
","""event"",""trial"",""time""
""fullscreenenter"",""5"",""19246""
","
","","","","","","","","","","","","","","","","","","","","","",""
"d3-instructions","48","331254","0.0-48.0","774","600","12","Female","true","false","true","false","""event"",""trial"",""time""
""fullscreenenter"",""5"",""19246""
","
","
","""event"",""trial"",""time""
""fullscreenenter"",""5"",""19246""
","
","","","","","","","","","","","","","","","","","","","","","",""
"d3-instructions","49","343561","0.0-49.0","774","600","12","Female","true","false","true","false","""event"",""trial"",""time""
""fullscreenenter"",""5"",""19246""
","
","
","""event"",""trial"",""time""
""fullscreenenter"",""5"",""19246""
","
","","","","","","","","","","","","","","","","","","","","","",""
"d3-instructions","50","354755","0.0-50.0","774","600","12","Female","true","false","true","false","""event"",""trial"",""time""
""fullscreenenter"",""5"",""19246""
","
","
","""event"",""trial"",""time""
""fullscreenenter"",""5"",""19246""
","
","","","","","","","","","","","","","","","","","","","","","",""
"d3-instructions","51","358456","0.0-51.0","774","600","12","Female","true","false","true","false","""event"",""trial"",""time""
""fullscreenenter"",""5"",""19246""
","
","
","""event"",""trial"",""time""
""fullscreenenter"",""5"",""19246""
","
","","","","","","","","","","","","","","","","","","","","","",""
"d3-instructions","52","362158","0.0-52.0","774","600","12","Female","true","false","true","false","""event"",""trial"",""time""
""fullscreenenter"",""5"",""19246""
","
","
","""event"",""trial"",""time""
""fullscreenenter"",""5"",""19246""
","
","","","","","","","","","","","","","","","","","","","","","",""
"d3-instructions","53","374623","0.0-53.0","774","600","12","Female","true","false","true","false","""event"",""trial"",""time""
""fullscreenenter"",""5"",""19246""
","
","
","""event"",""trial"",""time""
""fullscreenenter"",""5"",""19246""
","
","","","","","","","","","","","","","","","","","","","","","",""
"d3-instructions","54","388112","0.0-54.0","774","600","12","Female","true","false","true","false","""event"",""trial"",""time""
""fullscreenenter"",""5"",""19246""
","
","
","""event"",""trial"",""time""
""fullscreenenter"",""5"",""19246""
","
","","","","","","","","","","","","","","","","","","","","","",""
"d3-instructions","55","399699","0.0-55.0","774","600","12","Female","true","false","true","false","""event"",""trial"",""time""
""fullscreenenter"",""5"",""19246""
","
","
","""event"",""trial"",""time""
""fullscreenenter"",""5"",""19246""
","
","","","","","","","","","","","","","","","","","","","","","",""
"d3-instructions","56","407631","0.0-56.0","774","600","12","Female","true","false","true","false","""event"",""trial"",""time""
""fullscreenenter"",""5"",""19246""
","
","
","""event"",""trial"",""time""
""fullscreenenter"",""5"",""19246""
","
","","","","","","","","","","","","","","","","","","","","","",""
"d3-instructions","57","416800","0.0-57.0","774","600","12","Female","true","false","true","false","""event"",""trial"",""time""
""fullscreenenter"",""5"",""19246""
""blur"",""58"",""429225""
""focus"",""58"",""429227""
""fullscreenexit"",""58"",""429227""
","""event"",""trial"",""time""
""blur"",""58"",""429225""
","""event"",""trial"",""time""
""focus"",""58"",""429227""
","""event"",""trial"",""time""
""fullscreenenter"",""5"",""19246""
","""event"",""trial"",""time""
""fullscreenexit"",""58"",""429227""
","","","","","","","","","","","","","","","","","","","","","",""
"d3-instructions","58","433270","0.0-58.0","774","600","12","Female","true","false","true","false","""event"",""trial"",""time""
""fullscreenenter"",""5"",""19246""
""blur"",""58"",""429225""
""focus"",""58"",""429227""
""fullscreenexit"",""58"",""429227""
","""event"",""trial"",""time""
""blur"",""58"",""429225""
","""event"",""trial"",""time""
""focus"",""58"",""429227""
","""event"",""trial"",""time""
""fullscreenenter"",""5"",""19246""
","""event"",""trial"",""time""
""fullscreenexit"",""58"",""429227""
","","","","","","","","","","","","","","","","","","","","","",""
"d3-instructions","59","439367","0.0-59.0","774","600","12","Female","true","false","true","false","""event"",""trial"",""time""
""fullscreenenter"",""5"",""19246""
""blur"",""58"",""429225""
""focus"",""58"",""429227""
""fullscreenexit"",""58"",""429227""
","""event"",""trial"",""time""
""blur"",""58"",""429225""
","""event"",""trial"",""time""
""focus"",""58"",""429227""
","""event"",""trial"",""time""
""fullscreenenter"",""5"",""19246""
","""event"",""trial"",""time""
""fullscreenexit"",""58"",""429227""
","","","","","","","","","","","","","","","","","","","","","",""
"d3-instructions","60","450978","0.0-60.0","774","600","12","Female","true","false","true","false","""event"",""trial"",""time""
""fullscreenenter"",""5"",""19246""
""blur"",""58"",""429225""
""focus"",""58"",""429227""
""fullscreenexit"",""58"",""429227""
","""event"",""trial"",""time""
""blur"",""58"",""429225""
","""event"",""trial"",""time""
""focus"",""58"",""429227""
","""event"",""trial"",""time""
""fullscreenenter"",""5"",""19246""
","""event"",""trial"",""time""
""fullscreenexit"",""58"",""429227""
","","","","","","","","","","","","","","","","","","","","","",""
"d3-animate-choice","61","453788","0.0-61.0-0.0","774","600","12","Female","true","false","true","false","""event"",""trial"",""time""
""fullscreenenter"",""5"",""19246""
""blur"",""58"",""429225""
""focus"",""58"",""429227""
""fullscreenexit"",""58"",""429227""
","""event"",""trial"",""time""
""blur"",""58"",""429225""
","""event"",""trial"",""time""
""focus"",""58"",""429227""
","""event"",""trial"",""time""
""fullscreenenter"",""5"",""19246""
","""event"",""trial"",""time""
""fullscreenexit"",""58"",""429227""
","805.8000000119209","","49","","","3000","1","","","images/earth.jpg","images/tutrocket1","images/tutrocket2","null","images/tutrocket2","","1","practice","null","1","","",""
"d3-animate-choice","62","456613","0.0-61.0-1.0","774","600","12","Female","true","false","true","false","""event"",""trial"",""time""
""fullscreenenter"",""5"",""19246""
""blur"",""58"",""429225""
""focus"",""58"",""429227""
""fullscreenexit"",""58"",""429227""
","""event"",""trial"",""time""
""blur"",""58"",""429225""
","""event"",""trial"",""time""
""focus"",""58"",""429227""
","""event"",""trial"",""time""
""fullscreenenter"",""5"",""19246""
","""event"",""trial"",""time""
""fullscreenexit"",""58"",""429227""
","821.1999999880791","","48","","","3000","1","","","images/tutgreenplanet.jpg","images/tutalien2","images/tutalien1","images/tutrocket2","images/tutalien2","images/nothing.png","2","practice","true","2","common","0","2022-02-01 18:57:29.151"
"two-step-fixation","63","457617","0.0-61.0-2.0","774","600","12","Female","true","false","true","false","""event"",""trial"",""time""
""fullscreenenter"",""5"",""19246""
""blur"",""58"",""429225""
""focus"",""58"",""429227""
""fullscreenexit"",""58"",""429227""
","""event"",""trial"",""time""
""blur"",""58"",""429225""
","""event"",""trial"",""time""
""focus"",""58"",""429227""
","""event"",""trial"",""time""
""fullscreenenter"",""5"",""19246""
","""event"",""trial"",""time""
""fullscreenexit"",""58"",""429227""
","","images/earth.jpg","","","","","","","","","","","","","","fixation","","","","","",""
"d3-animate-choice","64","460043","0.0-61.0-0.1","774","600","12","Female","true","false","true","false","""event"",""trial"",""time""
""fullscreenenter"",""5"",""19246""
""blur"",""58"",""429225""
""focus"",""58"",""429227""
""fullscreenexit"",""58"",""429227""
","""event"",""trial"",""time""
""blur"",""58"",""429225""
","""event"",""trial"",""time""
""focus"",""58"",""429227""
","""event"",""trial"",""time""
""fullscreenenter"",""5"",""19246""
","""event"",""trial"",""time""
""fullscreenexit"",""58"",""429227""
","424.19999998807907","","48","","","3000","1","","","images/earth.jpg","images/tutrocket1","images/tutrocket2","null","images/tutrocket1","","1","practice","null","2","","",""
"d3-animate-choice","65","462934","0.0-61.0-1.1","774","600","12","Female","true","false","true","false","""event"",""trial"",""time""
""fullscreenenter"",""5"",""19246""
""blur"",""58"",""429225""
""focus"",""58"",""429227""
""fullscreenexit"",""58"",""429227""
","""event"",""trial"",""time""
""blur"",""58"",""429225""
","""event"",""trial"",""time""
""focus"",""58"",""429227""
","""event"",""trial"",""time""
""fullscreenenter"",""5"",""19246""
","""event"",""trial"",""time""
""fullscreenexit"",""58"",""429227""
","889.3000000119209","","49","","","3000","1","","","images/tutgreenplanet.jpg","images/tutalien2","images/tutalien1","images/tutrocket1","images/tutalien1","images/nothing.png","2","practice","false","1","rare","0","2022-02-01 18:57:35.472"
"two-step-fixation","66","463938","0.0-61.0-2.1","774","600","12","Female","true","false","true","false","""event"",""trial"",""time""
""fullscreenenter"",""5"",""19246""
""blur"",""58"",""429225""
""focus"",""58"",""429227""
""fullscreenexit"",""58"",""429227""
","""event"",""trial"",""time""
""blur"",""58"",""429225""
","""event"",""trial"",""time""
""focus"",""58"",""429227""
","""event"",""trial"",""time""
""fullscreenenter"",""5"",""19246""
","""event"",""trial"",""time""
""fullscreenexit"",""58"",""429227""
","","images/earth.jpg","","","","","","","","","","","","","","fixation","","","","","",""
"d3-animate-choice","67","466459","0.0-61.0-0.2","774","600","12","Female","true","false","true","false","""event"",""trial"",""time""
""fullscreenenter"",""5"",""19246""
""blur"",""58"",""429225""
""focus"",""58"",""429227""
""fullscreenexit"",""58"",""429227""
","""event"",""trial"",""time""
""blur"",""58"",""429225""
","""event"",""trial"",""time""
""focus"",""58"",""429227""
","""event"",""trial"",""time""
""fullscreenenter"",""5"",""19246""
","""event"",""trial"",""time""
""fullscreenexit"",""58"",""429227""
","515.3000000119209","","49","","","3000","1","","","images/earth.jpg","images/tutrocket1","images/tutrocket2","null","images/tutrocket2","","1","practice","null","1","","",""
"d3-animate-choice","68","469563","0.0-61.0-1.2","774","600","12","Female","true","false","true","false","""event"",""trial"",""time""
""fullscreenenter"",""5"",""19246""
""blur"",""58"",""429225""
""focus"",""58"",""429227""
""fullscreenexit"",""58"",""429227""
","""event"",""trial"",""time""
""blur"",""58"",""429225""
","""event"",""trial"",""time""
""focus"",""58"",""429227""
","""event"",""trial"",""time""
""fullscreenenter"",""5"",""19246""
","""event"",""trial"",""time""
""fullscreenexit"",""58"",""429227""
","1099.3999999761581","","49","","","3000","1","","","images/tutgreenplanet.jpg","images/tutalien2","images/tutalien1","images/tutrocket2","images/tutalien1","images/nothing.png","2","practice","true","1","common","0","2022-02-01 18:57:42.100"
"two-step-fixation","69","470569","0.0-61.0-2.2","774","600","12","Female","true","false","true","false","""event"",""trial"",""time""
""fullscreenenter"",""5"",""19246""
""blur"",""58"",""429225""
""focus"",""58"",""429227""
""fullscreenexit"",""58"",""429227""
","""event"",""trial"",""time""
""blur"",""58"",""429225""
","""event"",""trial"",""time""
""focus"",""58"",""429227""
","""event"",""trial"",""time""
""fullscreenenter"",""5"",""19246""
","""event"",""trial"",""time""
""fullscreenexit"",""58"",""429227""
","","images/earth.jpg","","","","","","","","","","","","","","fixation","","","","","",""
"d3-animate-choice","70","473162","0.0-61.0-0.3","774","600","12","Female","true","false","true","false","""event"",""trial"",""time""
""fullscreenenter"",""5"",""19246""
""blur"",""58"",""429225""
""focus"",""58"",""429227""
""fullscreenexit"",""58"",""429227""
","""event"",""trial"",""time""
""blur"",""58"",""429225""
","""event"",""trial"",""time""
""focus"",""58"",""429227""
","""event"",""trial"",""time""
""fullscreenenter"",""5"",""19246""
","""event"",""trial"",""time""
""fullscreenexit"",""58"",""429227""
","590.5999999642372","","48","","","3000","1","","","images/earth.jpg","images/tutrocket1","images/tutrocket2","null","images/tutrocket1","","1","practice","null","2","","",""
"d3-animate-choice","71","475775","0.0-61.0-1.3","774","600","12","Female","true","false","true","false","""event"",""trial"",""time""
""fullscreenenter"",""5"",""19246""
""blur"",""58"",""429225""
""focus"",""58"",""429227""
""fullscreenexit"",""58"",""429227""
","""event"",""trial"",""time""
""blur"",""58"",""429225""
","""event"",""trial"",""time""
""focus"",""58"",""429227""
","""event"",""trial"",""time""
""fullscreenenter"",""5"",""19246""
","""event"",""trial"",""time""
""fullscreenexit"",""58"",""429227""
","606.3999999761581","","48","","","3000","1","","","images/tutyellowplanet.jpg","images/tutalien4","images/tutalien3","images/tutrocket1","images/tutalien4","images/nothing.png","2","practice","true","2","common","0","2022-02-01 18:57:48.312"
"two-step-fixation","72","476779","0.0-61.0-2.3","774","600","12","Female","true","false","true","false","""event"",""trial"",""time""
""fullscreenenter"",""5"",""19246""
""blur"",""58"",""429225""
""focus"",""58"",""429227""
""fullscreenexit"",""58"",""429227""
","""event"",""trial"",""time""
""blur"",""58"",""429225""
","""event"",""trial"",""time""
""focus"",""58"",""429227""
","""event"",""trial"",""time""
""fullscreenenter"",""5"",""19246""
","""event"",""trial"",""time""
""fullscreenexit"",""58"",""429227""
","","images/earth.jpg","","","","","","","","","","","","","","fixation","","","","","",""
"d3-animate-choice","73","479194","0.0-61.0-0.4","774","600","12","Female","true","false","true","false","""event"",""trial"",""time""
""fullscreenenter"",""5"",""19246""
""blur"",""58"",""429225""
""focus"",""58"",""429227""
""fullscreenexit"",""58"",""429227""
","""event"",""trial"",""time""
""blur"",""58"",""429225""
","""event"",""trial"",""time""
""focus"",""58"",""429227""
","""event"",""trial"",""time""
""fullscreenenter"",""5"",""19246""
","""event"",""trial"",""time""
""fullscreenexit"",""58"",""429227""
","409.19999998807907","","48","","","3000","1","","","images/earth.jpg","images/tutrocket1","images/tutrocket2","null","images/tutrocket1","","1","practice","null","2","","",""
"d3-animate-choice","74","481880","0.0-61.0-1.4","774","600","12","Female","true","false","true","false","""event"",""trial"",""time""
""fullscreenenter"",""5"",""19246""
""blur"",""58"",""429225""
""focus"",""58"",""429227""
""fullscreenexit"",""58"",""429227""
","""event"",""trial"",""time""
""blur"",""58"",""429225""
","""event"",""trial"",""time""
""focus"",""58"",""429227""
","""event"",""trial"",""time""
""fullscreenenter"",""5"",""19246""
","""event"",""trial"",""time""
""fullscreenexit"",""58"",""429227""
","683.1999999880791","","49","","","3000","1","","","images/tutgreenplanet.jpg","images/tutalien2","images/tutalien1","images/tutrocket1","images/tutalien1","images/nothing.png","2","practice","false","1","rare","0","2022-02-01 18:57:54.417"
"two-step-fixation","75","482882","0.0-61.0-2.4","774","600","12","Female","true","false","true","false","""event"",""trial"",""time""
""fullscreenenter"",""5"",""19246""
""blur"",""58"",""429225""
""focus"",""58"",""429227""
""fullscreenexit"",""58"",""429227""
","""event"",""trial"",""time""
""blur"",""58"",""429225""
","""event"",""trial"",""time""
""focus"",""58"",""429227""
","""event"",""trial"",""time""
""fullscreenenter"",""5"",""19246""
","""event"",""trial"",""time""
""fullscreenexit"",""58"",""429227""
","","images/earth.jpg","","","","","","","","","","","","","","fixation","","","","","",""
"d3-animate-choice","76","485563","0.0-61.0-0.5","774","600","12","Female","true","false","true","false","""event"",""trial"",""time""
""fullscreenenter"",""5"",""19246""
""blur"",""58"",""429225""
""focus"",""58"",""429227""
""fullscreenexit"",""58"",""429227""
","""event"",""trial"",""time""
""blur"",""58"",""429225""
","""event"",""trial"",""time""
""focus"",""58"",""429227""
","""event"",""trial"",""time""
""fullscreenenter"",""5"",""19246""
","""event"",""trial"",""time""
""fullscreenexit"",""58"",""429227""
","674.5999999642372","","48","","","3000","1","","","images/earth.jpg","images/tutrocket1","images/tutrocket2","null","images/tutrocket1","","1","practice","null","2","","",""
"d3-animate-choice","77","488012","0.0-61.0-1.5","774","600","12","Female","true","false","true","false","""event"",""trial"",""time""
""fullscreenenter"",""5"",""19246""
""blur"",""58"",""429225""
""focus"",""58"",""429227""
""fullscreenexit"",""58"",""429227""
","""event"",""trial"",""time""
""blur"",""58"",""429225""
","""event"",""trial"",""time""
""focus"",""58"",""429227""
","""event"",""trial"",""time""
""fullscreenenter"",""5"",""19246""
","""event"",""trial"",""time""
""fullscreenexit"",""58"",""429227""
","446.30000001192093","","48","","","3000","1","","","images/tutgreenplanet.jpg","images/tutalien2","images/tutalien1","images/tutrocket1","images/tutalien2","images/nothing.png","2","practice","false","2","rare","0","2022-02-01 18:58:00.549"
"two-step-fixation","78","489014","0.0-61.0-2.5","774","600","12","Female","true","false","true","false","""event"",""trial"",""time""
""fullscreenenter"",""5"",""19246""
""blur"",""58"",""429225""
""focus"",""58"",""429227""
""fullscreenexit"",""58"",""429227""
","""event"",""trial"",""time""
""blur"",""58"",""429225""
","""event"",""trial"",""time""
""focus"",""58"",""429227""
","""event"",""trial"",""time""
""fullscreenenter"",""5"",""19246""
","""event"",""trial"",""time""
""fullscreenexit"",""58"",""429227""
","","images/earth.jpg","","","","","","","","","","","","","","fixation","","","","","",""
"d3-animate-choice","79","491375","0.0-61.0-0.6","774","600","12","Female","true","false","true","false","""event"",""trial"",""time""
""fullscreenenter"",""5"",""19246""
""blur"",""58"",""429225""
""focus"",""58"",""429227""
""fullscreenexit"",""58"",""429227""
","""event"",""trial"",""time""
""blur"",""58"",""429225""
","""event"",""trial"",""time""
""focus"",""58"",""429227""
","""event"",""trial"",""time""
""fullscreenenter"",""5"",""19246""
","""event"",""trial"",""time""
""fullscreenexit"",""58"",""429227""
","358.2999999523163","","49","","","3000","1","2124.899999976158","49","images/earth.jpg","images/tutrocket1","images/tutrocket2","null","images/tutrocket2","","1","practice","null","1","","",""
"d3-animate-choice","80","493742","0.0-61.0-1.6","774","600","12","Female","true","false","true","false","""event"",""trial"",""time""
""fullscreenenter"",""5"",""19246""
""blur"",""58"",""429225""
""focus"",""58"",""429227""
""fullscreenexit"",""58"",""429227""
","""event"",""trial"",""time""
""blur"",""58"",""429225""
","""event"",""trial"",""time""
""focus"",""58"",""429227""
","""event"",""trial"",""time""
""fullscreenenter"",""5"",""19246""
","""event"",""trial"",""time""
""fullscreenexit"",""58"",""429227""
","359.69999998807907","","49","","","3000","1","","","images/tutyellowplanet.jpg","images/tutalien4","images/tutalien3","images/tutrocket2","images/tutalien3","images/t.png","2","practice","false","1","rare","1","2022-02-01 18:58:06.279"
"two-step-fixation","81","494746","0.0-61.0-2.6","774","600","12","Female","true","false","true","false","""event"",""trial"",""time""
""fullscreenenter"",""5"",""19246""
""blur"",""58"",""429225""
""focus"",""58"",""429227""
""fullscreenexit"",""58"",""429227""
","""event"",""trial"",""time""
""blur"",""58"",""429225""
","""event"",""trial"",""time""
""focus"",""58"",""429227""
","""event"",""trial"",""time""
""fullscreenenter"",""5"",""19246""
","""event"",""trial"",""time""
""fullscreenexit"",""58"",""429227""
","","images/earth.jpg","","","","","","","","","","","","","","fixation","","","","","",""
"d3-animate-choice","82","497056","0.0-61.0-0.7","774","600","12","Female","true","false","true","false","""event"",""trial"",""time""
""fullscreenenter"",""5"",""19246""
""blur"",""58"",""429225""
""focus"",""58"",""429227""
""fullscreenexit"",""58"",""429227""
","""event"",""trial"",""time""
""blur"",""58"",""429225""
","""event"",""trial"",""time""
""focus"",""58"",""429227""
","""event"",""trial"",""time""
""fullscreenenter"",""5"",""19246""
","""event"",""trial"",""time""
""fullscreenexit"",""58"",""429227""
","307.89999997615814","","49","","","3000","1","","","images/earth.jpg","images/tutrocket1","images/tutrocket2","null","images/tutrocket2","","1","practice","null","1","","",""
"d3-animate-choice","83","499558","0.0-61.0-1.7","774","600","12","Female","true","false","true","false","""event"",""trial"",""time""
""fullscreenenter"",""5"",""19246""
""blur"",""58"",""429225""
""focus"",""58"",""429227""
""fullscreenexit"",""58"",""429227""
","""event"",""trial"",""time""
""blur"",""58"",""429225""
","""event"",""trial"",""time""
""focus"",""58"",""429227""
","""event"",""trial"",""time""
""fullscreenenter"",""5"",""19246""
","""event"",""trial"",""time""
""fullscreenexit"",""58"",""429227""
","495.69999998807907","","49","","","3000","1","","","images/tutgreenplanet.jpg","images/tutalien2","images/tutalien1","images/tutrocket2","images/tutalien1","images/nothing.png","2","practice","true","1","common","0","2022-02-01 18:58:12.095"
"two-step-fixation","84","500562","0.0-61.0-2.7","774","600","12","Female","true","false","true","false","""event"",""trial"",""time""
""fullscreenenter"",""5"",""19246""
""blur"",""58"",""429225""
""focus"",""58"",""429227""
""fullscreenexit"",""58"",""429227""
","""event"",""trial"",""time""
""blur"",""58"",""429225""
","""event"",""trial"",""time""
""focus"",""58"",""429227""
","""event"",""trial"",""time""
""fullscreenenter"",""5"",""19246""
","""event"",""trial"",""time""
""fullscreenexit"",""58"",""429227""
","","images/earth.jpg","","","","","","","","","","","","","","fixation","","","","","",""
"d3-animate-choice","85","502851","0.0-61.0-0.8","774","600","12","Female","true","false","true","false","""event"",""trial"",""time""
""fullscreenenter"",""5"",""19246""
""blur"",""58"",""429225""
""focus"",""58"",""429227""
""fullscreenexit"",""58"",""429227""
","""event"",""trial"",""time""
""blur"",""58"",""429225""
","""event"",""trial"",""time""
""focus"",""58"",""429227""
","""event"",""trial"",""time""
""fullscreenenter"",""5"",""19246""
","""event"",""trial"",""time""
""fullscreenexit"",""58"",""429227""
","285.60000002384186","","49","","","3000","1","","","images/earth.jpg","images/tutrocket1","images/tutrocket2","null","images/tutrocket2","","1","practice","null","1","","",""
"d3-animate-choice","86","505543","0.0-61.0-1.8","774","600","12","Female","true","false","true","false","""event"",""trial"",""time""
""fullscreenenter"",""5"",""19246""
""blur"",""58"",""429225""
""focus"",""58"",""429227""
""fullscreenexit"",""58"",""429227""
","""event"",""trial"",""time""
""blur"",""58"",""429225""
","""event"",""trial"",""time""
""focus"",""58"",""429227""
","""event"",""trial"",""time""
""fullscreenenter"",""5"",""19246""
","""event"",""trial"",""time""
""fullscreenexit"",""58"",""429227""
","685.7000000476837","","48","","","3000","1","","","images/tutgreenplanet.jpg","images/tutalien2","images/tutalien1","images/tutrocket2","images/tutalien2","images/nothing.png","2","practice","true","2","common","0","2022-02-01 18:58:18.080"
"two-step-fixation","87","506547","0.0-61.0-2.8","774","600","12","Female","true","false","true","false","""event"",""trial"",""time""
""fullscreenenter"",""5"",""19246""
""blur"",""58"",""429225""
""focus"",""58"",""429227""
""fullscreenexit"",""58"",""429227""
","""event"",""trial"",""time""
""blur"",""58"",""429225""
","""event"",""trial"",""time""
""focus"",""58"",""429227""
","""event"",""trial"",""time""
""fullscreenenter"",""5"",""19246""
","""event"",""trial"",""time""
""fullscreenexit"",""58"",""429227""
","","images/earth.jpg","","","","","","","","","","","","","","fixation","","","","","",""
"d3-animate-choice","88","508915","0.0-61.0-0.9","774","600","12","Female","true","false","true","false","""event"",""trial"",""time""
""fullscreenenter"",""5"",""19246""
""blur"",""58"",""429225""
""focus"",""58"",""429227""
""fullscreenexit"",""58"",""429227""
","""event"",""trial"",""time""
""blur"",""58"",""429225""
","""event"",""trial"",""time""
""focus"",""58"",""429227""
","""event"",""trial"",""time""
""fullscreenenter"",""5"",""19246""
","""event"",""trial"",""time""
""fullscreenexit"",""58"",""429227""
","364.80000001192093","","49","","","3000","1","","","images/earth.jpg","images/tutrocket1","images/tutrocket2","null","images/tutrocket2","","1","practice","null","1","","",""
"d3-animate-choice","89","511416","0.0-61.0-1.9","774","600","12","Female","true","false","true","false","""event"",""trial"",""time""
""fullscreenenter"",""5"",""19246""
""blur"",""58"",""429225""
""focus"",""58"",""429227""
""fullscreenexit"",""58"",""429227""
","""event"",""trial"",""time""
""blur"",""58"",""429225""
","""event"",""trial"",""time""
""focus"",""58"",""429227""
","""event"",""trial"",""time""
""fullscreenenter"",""5"",""19246""
","""event"",""trial"",""time""
""fullscreenexit"",""58"",""429227""
","493.9000000357628","","49","","","3000","1","","","images/tutgreenplanet.jpg","images/tutalien2","images/tutalien1","images/tutrocket2","images/tutalien1","images/nothing.png","2","practice","true","1","common","0","2022-02-01 18:58:23.953"
"two-step-fixation","90","512421","0.0-61.0-2.9","774","600","12","Female","true","false","true","false","""event"",""trial"",""time""
""fullscreenenter"",""5"",""19246""
""blur"",""58"",""429225""
""focus"",""58"",""429227""
""fullscreenexit"",""58"",""429227""
","""event"",""trial"",""time""
""blur"",""58"",""429225""
","""event"",""trial"",""time""
""focus"",""58"",""429227""
","""event"",""trial"",""time""
""fullscreenenter"",""5"",""19246""
","""event"",""trial"",""time""
""fullscreenexit"",""58"",""429227""
","","images/earth.jpg","","","","","","","","","","","","","","fixation","","","","","",""
"d3-animate-choice","91","514935","0.0-61.0-0.10","774","600","12","Female","true","false","true","false","""event"",""trial"",""time""
""fullscreenenter"",""5"",""19246""
""blur"",""58"",""429225""
""focus"",""58"",""429227""
""fullscreenexit"",""58"",""429227""
","""event"",""trial"",""time""
""blur"",""58"",""429225""
","""event"",""trial"",""time""
""focus"",""58"",""429227""
","""event"",""trial"",""time""
""fullscreenenter"",""5"",""19246""
","""event"",""trial"",""time""
""fullscreenexit"",""58"",""429227""
","509","","48","","","3000","1","","","images/earth.jpg","images/tutrocket1","images/tutrocket2","null","images/tutrocket1","","1","practice","null","2","","",""
"d3-animate-choice","92","517681","0.0-61.0-1.10","774","600","12","Female","true","false","true","false","""event"",""trial"",""time""
""fullscreenenter"",""5"",""19246""
""blur"",""58"",""429225""
""focus"",""58"",""429227""
""fullscreenexit"",""58"",""429227""
","""event"",""trial"",""time""
""blur"",""58"",""429225""
","""event"",""trial"",""time""
""focus"",""58"",""429227""
","""event"",""trial"",""time""
""fullscreenenter"",""5"",""19246""
","""event"",""trial"",""time""
""fullscreenexit"",""58"",""429227""
","740.6000000238419","","48","","","3000","1","","","images/tutyellowplanet.jpg","images/tutalien4","images/tutalien3","images/tutrocket1","images/tutalien4","images/t.png","2","practice","true","2","common","1","2022-02-01 18:58:30.218"
"two-step-fixation","93","518685","0.0-61.0-2.10","774","600","12","Female","true","false","true","false","""event"",""trial"",""time""
""fullscreenenter"",""5"",""19246""
""blur"",""58"",""429225""
""focus"",""58"",""429227""
""fullscreenexit"",""58"",""429227""
","""event"",""trial"",""time""
""blur"",""58"",""429225""
","""event"",""trial"",""time""
""focus"",""58"",""429227""
","""event"",""trial"",""time""
""fullscreenenter"",""5"",""19246""
","""event"",""trial"",""time""
""fullscreenexit"",""58"",""429227""
","","images/earth.jpg","","","","","","","","","","","","","","fixation","","","","","",""
"d3-animate-choice","94","521053","0.0-61.0-0.11","774","600","12","Female","true","false","true","false","""event"",""trial"",""time""
""fullscreenenter"",""5"",""19246""
""blur"",""58"",""429225""
""focus"",""58"",""429227""
""fullscreenexit"",""58"",""429227""
","""event"",""trial"",""time""
""blur"",""58"",""429225""
","""event"",""trial"",""time""
""focus"",""58"",""429227""
","""event"",""trial"",""time""
""fullscreenenter"",""5"",""19246""
","""event"",""trial"",""time""
""fullscreenexit"",""58"",""429227""
","365.80000001192093","","48","","","3000","1","","","images/earth.jpg","images/tutrocket1","images/tutrocket2","null","images/tutrocket1","","1","practice","null","2","","",""
"d3-animate-choice","95","523494","0.0-61.0-1.11","774","600","12","Female","true","false","true","false","""event"",""trial"",""time""
""fullscreenenter"",""5"",""19246""
""blur"",""58"",""429225""
""focus"",""58"",""429227""
""fullscreenexit"",""58"",""429227""
","""event"",""trial"",""time""
""blur"",""58"",""429225""
","""event"",""trial"",""time""
""focus"",""58"",""429227""
","""event"",""trial"",""time""
""fullscreenenter"",""5"",""19246""
","""event"",""trial"",""time""
""fullscreenexit"",""58"",""429227""
","438","","48","","","3000","1","","","images/tutyellowplanet.jpg","images/tutalien4","images/tutalien3","images/tutrocket1","images/tutalien4","images/t.png","2","practice","true","2","common","1","2022-02-01 18:58:36.031"
"two-step-fixation","96","524498","0.0-61.0-2.11","774","600","12","Female","true","false","true","false","""event"",""trial"",""time""
""fullscreenenter"",""5"",""19246""
""blur"",""58"",""429225""
""focus"",""58"",""429227""
""fullscreenexit"",""58"",""429227""
","""event"",""trial"",""time""
""blur"",""58"",""429225""
","""event"",""trial"",""time""
""focus"",""58"",""429227""
","""event"",""trial"",""time""
""fullscreenenter"",""5"",""19246""
","""event"",""trial"",""time""
""fullscreenexit"",""58"",""429227""
","","images/earth.jpg","","","","","","","","","","","","","","fixation","","","","","",""
"d3-animate-choice","97","526802","0.0-61.0-0.12","774","600","12","Female","true","false","true","false","""event"",""trial"",""time""
""fullscreenenter"",""5"",""19246""
""blur"",""58"",""429225""
""focus"",""58"",""429227""
""fullscreenexit"",""58"",""429227""
","""event"",""trial"",""time""
""blur"",""58"",""429225""
","""event"",""trial"",""time""
""focus"",""58"",""429227""
","""event"",""trial"",""time""
""fullscreenenter"",""5"",""19246""
","""event"",""trial"",""time""
""fullscreenexit"",""58"",""429227""
","301.5","","48","","","3000","1","","","images/earth.jpg","images/tutrocket1","images/tutrocket2","null","images/tutrocket1","","1","practice","null","2","","",""
"d3-animate-choice","98","529459","0.0-61.0-1.12","774","600","12","Female","true","false","true","false","""event"",""trial"",""time""
""fullscreenenter"",""5"",""19246""
""blur"",""58"",""429225""
""focus"",""58"",""429227""
""fullscreenexit"",""58"",""429227""
","""event"",""trial"",""time""
""blur"",""58"",""429225""
","""event"",""trial"",""time""
""focus"",""58"",""429227""
","""event"",""trial"",""time""
""fullscreenenter"",""5"",""19246""
","""event"",""trial"",""time""
""fullscreenexit"",""58"",""429227""
","652.8000000119209","","49","","","3000","1","","","images/tutyellowplanet.jpg","images/tutalien4","images/tutalien3","images/tutrocket1","images/tutalien3","images/t.png","2","practice","true","1","common","1","2022-02-01 18:58:41.996"
"two-step-fixation","99","530463","0.0-61.0-2.12","774","600","12","Female","true","false","true","false","""event"",""trial"",""time""
""fullscreenenter"",""5"",""19246""
""blur"",""58"",""429225""
""focus"",""58"",""429227""
""fullscreenexit"",""58"",""429227""
","""event"",""trial"",""time""
""blur"",""58"",""429225""
","""event"",""trial"",""time""
""focus"",""58"",""429227""
","""event"",""trial"",""time""
""fullscreenenter"",""5"",""19246""
","""event"",""trial"",""time""
""fullscreenexit"",""58"",""429227""
","","images/earth.jpg","","","","","","","","","","","","","","fixation","","","","","",""
"d3-animate-choice","100","532991","0.0-61.0-0.13","774","600","12","Female","true","false","true","false","""event"",""trial"",""time""
""fullscreenenter"",""5"",""19246""
""blur"",""58"",""429225""
""focus"",""58"",""429227""
""fullscreenexit"",""58"",""429227""
","""event"",""trial"",""time""
""blur"",""58"",""429225""
","""event"",""trial"",""time""
""focus"",""58"",""429227""
","""event"",""trial"",""time""
""fullscreenenter"",""5"",""19246""
","""event"",""trial"",""time""
""fullscreenexit"",""58"",""429227""
","523.8999999761581","","48","","","3000","1","","","images/earth.jpg","images/tutrocket1","images/tutrocket2","null","images/tutrocket1","","1","practice","null","2","","",""
"d3-animate-choice","101","535330","0.0-61.0-1.13","774","600","12","Female","true","false","true","false","""event"",""trial"",""time""
""fullscreenenter"",""5"",""19246""
""blur"",""58"",""429225""
""focus"",""58"",""429227""
""fullscreenexit"",""58"",""429227""
","""event"",""trial"",""time""
""blur"",""58"",""429225""
","""event"",""trial"",""time""
""focus"",""58"",""429227""
","""event"",""trial"",""time""
""fullscreenenter"",""5"",""19246""
","""event"",""trial"",""time""
""fullscreenexit"",""58"",""429227""
","335.60000002384186","","48","","","3000","1","","","images/tutyellowplanet.jpg","images/tutalien4","images/tutalien3","images/tutrocket1","images/tutalien4","images/t.png","2","practice","true","2","common","1","2022-02-01 18:58:47.867"
"two-step-fixation","102","536335","0.0-61.0-2.13","774","600","12","Female","true","false","true","false","""event"",""trial"",""time""
""fullscreenenter"",""5"",""19246""
""blur"",""58"",""429225""
""focus"",""58"",""429227""
""fullscreenexit"",""58"",""429227""
","""event"",""trial"",""time""
""blur"",""58"",""429225""
","""event"",""trial"",""time""
""focus"",""58"",""429227""
","""event"",""trial"",""time""
""fullscreenenter"",""5"",""19246""
","""event"",""trial"",""time""
""fullscreenexit"",""58"",""429227""
","","images/earth.jpg","","","","","","","","","","","","","","fixation","","","","","",""
"d3-animate-choice","103","538706","0.0-61.0-0.14","774","600","12","Female","true","false","true","false","""event"",""trial"",""time""
""fullscreenenter"",""5"",""19246""
""blur"",""58"",""429225""
""focus"",""58"",""429227""
""fullscreenexit"",""58"",""429227""
","""event"",""trial"",""time""
""blur"",""58"",""429225""
","""event"",""trial"",""time""
""focus"",""58"",""429227""
","""event"",""trial"",""time""
""fullscreenenter"",""5"",""19246""
","""event"",""trial"",""time""
""fullscreenexit"",""58"",""429227""
","366.80000001192093","","48","","","3000","1","","","images/earth.jpg","images/tutrocket1","images/tutrocket2","null","images/tutrocket1","","1","practice","null","2","","",""
"d3-animate-choice","104","541347","0.0-61.0-1.14","774","600","12","Female","true","false","true","false","""event"",""trial"",""time""
""fullscreenenter"",""5"",""19246""
""blur"",""58"",""429225""
""focus"",""58"",""429227""
""fullscreenexit"",""58"",""429227""
","""event"",""trial"",""time""
""blur"",""58"",""429225""
","""event"",""trial"",""time""
""focus"",""58"",""429227""
","""event"",""trial"",""time""
""fullscreenenter"",""5"",""19246""
","""event"",""trial"",""time""
""fullscreenexit"",""58"",""429227""
","639.1999999880791","","49","","","3000","1","","","images/tutyellowplanet.jpg","images/tutalien4","images/tutalien3","images/tutrocket1","images/tutalien3","images/t.png","2","practice","true","1","common","1","2022-02-01 18:58:53.885"
"two-step-fixation","105","542351","0.0-61.0-2.14","774","600","12","Female","true","false","true","false","""event"",""trial"",""time""
""fullscreenenter"",""5"",""19246""
""blur"",""58"",""429225""
""focus"",""58"",""429227""
""fullscreenexit"",""58"",""429227""
","""event"",""trial"",""time""
""blur"",""58"",""429225""
","""event"",""trial"",""time""
""focus"",""58"",""429227""
","""event"",""trial"",""time""
""fullscreenenter"",""5"",""19246""
","""event"",""trial"",""time""
""fullscreenexit"",""58"",""429227""
","","images/earth.jpg","","","","","","","","","","","","","","fixation","","","","","",""
"d3-animate-choice","106","544781","0.0-61.0-0.15","774","600","12","Female","true","false","true","false","""event"",""trial"",""time""
""fullscreenenter"",""5"",""19246""
""blur"",""58"",""429225""
""focus"",""58"",""429227""
""fullscreenexit"",""58"",""429227""
","""event"",""trial"",""time""
""blur"",""58"",""429225""
","""event"",""trial"",""time""
""focus"",""58"",""429227""
","""event"",""trial"",""time""
""fullscreenenter"",""5"",""19246""
","""event"",""trial"",""time""
""fullscreenexit"",""58"",""429227""
","426.5","","48","","","3000","1","","","images/earth.jpg","images/tutrocket1","images/tutrocket2","null","images/tutrocket1","","1","practice","null","2","","",""
"d3-animate-choice","107","547280","0.0-61.0-1.15","774","600","12","Female","true","false","true","false","""event"",""trial"",""time""
""fullscreenenter"",""5"",""19246""
""blur"",""58"",""429225""
""focus"",""58"",""429227""
""fullscreenexit"",""58"",""429227""
","""event"",""trial"",""time""
""blur"",""58"",""429225""
","""event"",""trial"",""time""
""focus"",""58"",""429227""
","""event"",""trial"",""time""
""fullscreenenter"",""5"",""19246""
","""event"",""trial"",""time""
""fullscreenexit"",""58"",""429227""
","494","","48","","","3000","1","","","images/tutgreenplanet.jpg","images/tutalien2","images/tutalien1","images/tutrocket1","images/tutalien2","images/t.png","2","practice","false","2","rare","1","2022-02-01 18:58:59.817"
"two-step-fixation","108","548284","0.0-61.0-2.15","774","600","12","Female","true","false","true","false","""event"",""trial"",""time""
""fullscreenenter"",""5"",""19246""
""blur"",""58"",""429225""
""focus"",""58"",""429227""
""fullscreenexit"",""58"",""429227""
","""event"",""trial"",""time""
""blur"",""58"",""429225""
","""event"",""trial"",""time""
""focus"",""58"",""429227""
","""event"",""trial"",""time""
""fullscreenenter"",""5"",""19246""
","""event"",""trial"",""time""
""fullscreenexit"",""58"",""429227""
","","images/earth.jpg","","","","","","","","","","","","","","fixation","","","","","",""
"d3-animate-choice","109","550745","0.0-61.0-0.16","774","600","12","Female","true","false","true","false","""event"",""trial"",""time""
""fullscreenenter"",""5"",""19246""
""blur"",""58"",""429225""
""focus"",""58"",""429227""
""fullscreenexit"",""58"",""429227""
","""event"",""trial"",""time""
""blur"",""58"",""429225""
","""event"",""trial"",""time""
""focus"",""58"",""429227""
","""event"",""trial"",""time""
""fullscreenenter"",""5"",""19246""
","""event"",""trial"",""time""
""fullscreenexit"",""58"",""429227""
","455.7000000476837","","49","","","3000","1","","","images/earth.jpg","images/tutrocket1","images/tutrocket2","null","images/tutrocket2","","1","practice","null","1","","",""
"d3-animate-choice","110","553138","0.0-61.0-1.16","774","600","12","Female","true","false","true","false","""event"",""trial"",""time""
""fullscreenenter"",""5"",""19246""
""blur"",""58"",""429225""
""focus"",""58"",""429227""
""fullscreenexit"",""58"",""429227""
","""event"",""trial"",""time""
""blur"",""58"",""429225""
","""event"",""trial"",""time""
""focus"",""58"",""429227""
","""event"",""trial"",""time""
""fullscreenenter"",""5"",""19246""
","""event"",""trial"",""time""
""fullscreenexit"",""58"",""429227""
","390.60000002384186","","49","","","3000","1","","","images/tutyellowplanet.jpg","images/tutalien4","images/tutalien3","images/tutrocket2","images/tutalien3","images/t.png","2","practice","false","1","rare","1","2022-02-01 18:59:05.675"
"two-step-fixation","111","554141","0.0-61.0-2.16","774","600","12","Female","true","false","true","false","""event"",""trial"",""time""
""fullscreenenter"",""5"",""19246""
""blur"",""58"",""429225""
""focus"",""58"",""429227""
""fullscreenexit"",""58"",""429227""
","""event"",""trial"",""time""
""blur"",""58"",""429225""
","""event"",""trial"",""time""
""focus"",""58"",""429227""
","""event"",""trial"",""time""
""fullscreenenter"",""5"",""19246""
","""event"",""trial"",""time""
""fullscreenexit"",""58"",""429227""
","","images/earth.jpg","","","","","","","","","","","","","","fixation","","","","","",""
"d3-animate-choice","112","556979","0.0-61.0-0.17","774","600","12","Female","true","false","true","false","""event"",""trial"",""time""
""fullscreenenter"",""5"",""19246""
""blur"",""58"",""429225""
""focus"",""58"",""429227""
""fullscreenexit"",""58"",""429227""
","""event"",""trial"",""time""
""blur"",""58"",""429225""
","""event"",""trial"",""time""
""focus"",""58"",""429227""
","""event"",""trial"",""time""
""fullscreenenter"",""5"",""19246""
","""event"",""trial"",""time""
""fullscreenexit"",""58"",""429227""
","831.5","","49","","","3000","1","","","images/earth.jpg","images/tutrocket1","images/tutrocket2","null","images/tutrocket2","","1","practice","null","1","","",""
"d3-animate-choice","113","559607","0.0-61.0-1.17","774","600","12","Female","true","false","true","false","""event"",""trial"",""time""
""fullscreenenter"",""5"",""19246""
""blur"",""58"",""429225""
""focus"",""58"",""429227""
""fullscreenexit"",""58"",""429227""
","""event"",""trial"",""time""
""blur"",""58"",""429225""
","""event"",""trial"",""time""
""focus"",""58"",""429227""
","""event"",""trial"",""time""
""fullscreenenter"",""5"",""19246""
","""event"",""trial"",""time""
""fullscreenexit"",""58"",""429227""
","625.8999999761581","","48","","","3000","1","771.2999999523163","16","images/tutgreenplanet.jpg","images/tutalien2","images/tutalien1","images/tutrocket2","images/tutalien2","images/nothing.png","2","practice","true","2","common","0","2022-02-01 18:59:12.144"
"two-step-fixation","114","560610","0.0-61.0-2.17","774","600","12","Female","true","false","true","false","""event"",""trial"",""time""
""fullscreenenter"",""5"",""19246""
""blur"",""58"",""429225""
""focus"",""58"",""429227""
""fullscreenexit"",""58"",""429227""
","""event"",""trial"",""time""
""blur"",""58"",""429225""
","""event"",""trial"",""time""
""focus"",""58"",""429227""
","""event"",""trial"",""time""
""fullscreenenter"",""5"",""19246""
","""event"",""trial"",""time""
""fullscreenexit"",""58"",""429227""
","","images/earth.jpg","","","","","","","","","","","","","","fixation","","","","","",""
"d3-animate-choice","115","563297","0.0-61.0-0.18","774","600","12","Female","true","false","true","false","""event"",""trial"",""time""
""fullscreenenter"",""5"",""19246""
""blur"",""58"",""429225""
""focus"",""58"",""429227""
""fullscreenexit"",""58"",""429227""
","""event"",""trial"",""time""
""blur"",""58"",""429225""
","""event"",""trial"",""time""
""focus"",""58"",""429227""
","""event"",""trial"",""time""
""fullscreenenter"",""5"",""19246""
","""event"",""trial"",""time""
""fullscreenexit"",""58"",""429227""
","99.90000003576279","","16","","","3000","1","685.3000000119209","48","images/earth.jpg","images/tutrocket1","images/tutrocket2","null","images/tutrocket1","","1","practice","null","","","",""
"d3-animate-choice","116","565974","0.0-61.0-1.18","774","600","12","Female","true","false","true","false","""event"",""trial"",""time""
""fullscreenenter"",""5"",""19246""
""blur"",""58"",""429225""
""focus"",""58"",""429227""
""fullscreenexit"",""58"",""429227""
","""event"",""trial"",""time""
""blur"",""58"",""429225""
","""event"",""trial"",""time""
""focus"",""58"",""429227""
","""event"",""trial"",""time""
""fullscreenenter"",""5"",""19246""
","""event"",""trial"",""time""
""fullscreenexit"",""58"",""429227""
","675.1999999880791","","48","","","3000","1","","","images/tutgreenplanet.jpg","images/tutalien2","images/tutalien1","images/tutrocket1","images/tutalien2","images/t.png","2","practice","false","2","rare","1","2022-02-01 18:59:18.511"
"two-step-fixation","117","566976","0.0-61.0-2.18","774","600","12","Female","true","false","true","false","""event"",""trial"",""time""
""fullscreenenter"",""5"",""19246""
""blur"",""58"",""429225""
""focus"",""58"",""429227""
""fullscreenexit"",""58"",""429227""
","""event"",""trial"",""time""
""blur"",""58"",""429225""
","""event"",""trial"",""time""
""focus"",""58"",""429227""
","""event"",""trial"",""time""
""fullscreenenter"",""5"",""19246""
","""event"",""trial"",""time""
""fullscreenexit"",""58"",""429227""
","","images/earth.jpg","","","","","","","","","","","","","","fixation","","","","","",""
"d3-animate-choice","118","569443","0.0-61.0-0.19","774","600","12","Female","true","false","true","false","""event"",""trial"",""time""
""fullscreenenter"",""5"",""19246""
""blur"",""58"",""429225""
""focus"",""58"",""429227""
""fullscreenexit"",""58"",""429227""
","""event"",""trial"",""time""
""blur"",""58"",""429225""
","""event"",""trial"",""time""
""focus"",""58"",""429227""
","""event"",""trial"",""time""
""fullscreenenter"",""5"",""19246""
","""event"",""trial"",""time""
""fullscreenexit"",""58"",""429227""
","462","","48","","","3000","1","","","images/earth.jpg","images/tutrocket1","images/tutrocket2","null","images/tutrocket1","","1","practice","null","2","","",""
"d3-animate-choice","119","572131","0.0-61.0-1.19","774","600","12","Female","true","false","true","false","""event"",""trial"",""time""
""fullscreenenter"",""5"",""19246""
""blur"",""58"",""429225""
""focus"",""58"",""429227""
""fullscreenexit"",""58"",""429227""
","""event"",""trial"",""time""
""blur"",""58"",""429225""
","""event"",""trial"",""time""
""focus"",""58"",""429227""
","""event"",""trial"",""time""
""fullscreenenter"",""5"",""19246""
","""event"",""trial"",""time""
""fullscreenexit"",""58"",""429227""
","683.6000000238419","","48","","","3000","1","","","images/tutyellowplanet.jpg","images/tutalien4","images/tutalien3","images/tutrocket1","images/tutalien4","images/t.png","2","practice","true","2","common","1","2022-02-01 18:59:24.668"
"two-step-fixation","120","573133","0.0-61.0-2.19","774","600","12","Female","true","false","true","false","""event"",""trial"",""time""
""fullscreenenter"",""5"",""19246""
""blur"",""58"",""429225""
""focus"",""58"",""429227""
""fullscreenexit"",""58"",""429227""
","""event"",""trial"",""time""
""blur"",""58"",""429225""
","""event"",""trial"",""time""
""focus"",""58"",""429227""
","""event"",""trial"",""time""
""fullscreenenter"",""5"",""19246""
","""event"",""trial"",""time""
""fullscreenexit"",""58"",""429227""
","","images/earth.jpg","","","","","","","","","","","","","","fixation","","","","","",""
"d3-instructions","121","580680","0.0-62.0","774","600","12","Female","true","false","true","false","""event"",""trial"",""time""
""fullscreenenter"",""5"",""19246""
""blur"",""58"",""429225""
""focus"",""58"",""429227""
""fullscreenexit"",""58"",""429227""
","""event"",""trial"",""time""
""blur"",""58"",""429225""
","""event"",""trial"",""time""
""focus"",""58"",""429227""
","""event"",""trial"",""time""
""fullscreenenter"",""5"",""19246""
","""event"",""trial"",""time""
""fullscreenexit"",""58"",""429227""
","","","","","","","","","","","","","","","","","","","","","",""
"audio-keyboard-response","122","585956","0.0-63.0","774","600","12","Female","true","false","true","false","""event"",""trial"",""time""
""fullscreenenter"",""5"",""19246""
""blur"",""58"",""429225""
""focus"",""58"",""429227""
""fullscreenexit"",""58"",""429227""
","""event"",""trial"",""time""
""blur"",""58"",""429225""
","""event"",""trial"",""time""
""focus"",""58"",""429227""
","""event"",""trial"",""time""
""fullscreenenter"",""5"",""19246""
","""event"",""trial"",""time""
""fullscreenexit"",""58"",""429227""
","5277","audio/instructions/treasure_feedback.wav","32","","","","","","","","","","","","","","","","","","",""
"d3-instructions","123","607545","0.0-64.0","774","600","12","Female","true","false","true","false","""event"",""trial"",""time""
""fullscreenenter"",""5"",""19246""
""blur"",""58"",""429225""
""focus"",""58"",""429227""
""fullscreenexit"",""58"",""429227""
","""event"",""trial"",""time""
""blur"",""58"",""429225""
","""event"",""trial"",""time""
""focus"",""58"",""429227""
","""event"",""trial"",""time""
""fullscreenenter"",""5"",""19246""
","""event"",""trial"",""time""
""fullscreenexit"",""58"",""429227""
","","","","","","","","","","","","","","","","","","","","","",""
"d3-instructions","124","624006","0.0-65.0","774","600","12","Female","true","false","true","false","""event"",""trial"",""time""
""fullscreenenter"",""5"",""19246""
""blur"",""58"",""429225""
""focus"",""58"",""429227""
""fullscreenexit"",""58"",""429227""
""blur"",""125"",""646706""
""focus"",""125"",""650656""
","""event"",""trial"",""time""
""blur"",""58"",""429225""
""blur"",""125"",""646706""
","""event"",""trial"",""time""
""focus"",""58"",""429227""
""focus"",""125"",""650656""
","""event"",""trial"",""time""
""fullscreenenter"",""5"",""19246""
","""event"",""trial"",""time""
""fullscreenexit"",""58"",""429227""
","","","","","","","","","","","","","","","","","","","","","",""
"d3-instructions","125","652726","0.0-66.0","774","600","12","Female","true","false","true","false","""event"",""trial"",""time""
""fullscreenenter"",""5"",""19246""
""blur"",""58"",""429225""
""focus"",""58"",""429227""
""fullscreenexit"",""58"",""429227""
""blur"",""125"",""646706""
""focus"",""125"",""650656""
""blur"",""126"",""653171""
""focus"",""126"",""653296""
","""event"",""trial"",""time""
""blur"",""58"",""429225""
""blur"",""125"",""646706""
""blur"",""126"",""653171""
","""event"",""trial"",""time""
""focus"",""58"",""429227""
""focus"",""125"",""650656""
""focus"",""126"",""653296""
","""event"",""trial"",""time""
""fullscreenenter"",""5"",""19246""
","""event"",""trial"",""time""
""fullscreenexit"",""58"",""429227""
","","","","","","","","","","","","","","","","","","","","","",""
"d3-instructions","126","673235","0.0-67.0","774","600","12","Female","true","false","true","false","""event"",""trial"",""time""
""fullscreenenter"",""5"",""19246""
""blur"",""58"",""429225""
""focus"",""58"",""429227""
""fullscreenexit"",""58"",""429227""
""blur"",""125"",""646706""
""focus"",""125"",""650656""
""blur"",""126"",""653171""
""focus"",""126"",""653296""
","""event"",""trial"",""time""
""blur"",""58"",""429225""
""blur"",""125"",""646706""
""blur"",""126"",""653171""
","""event"",""trial"",""time""
""focus"",""58"",""429227""
""focus"",""125"",""650656""
""focus"",""126"",""653296""
","""event"",""trial"",""time""
""fullscreenenter"",""5"",""19246""
","""event"",""trial"",""time""
""fullscreenexit"",""58"",""429227""
","","","","","","","","","","","","","","","","","","","","","",""
"d3-instructions","127","683169","0.0-68.0","774","600","12","Female","true","false","true","false","""event"",""trial"",""time""
""fullscreenenter"",""5"",""19246""
""blur"",""58"",""429225""
""focus"",""58"",""429227""
""fullscreenexit"",""58"",""429227""
""blur"",""125"",""646706""
""focus"",""125"",""650656""
""blur"",""126"",""653171""
""focus"",""126"",""653296""
","""event"",""trial"",""time""
""blur"",""58"",""429225""
""blur"",""125"",""646706""
""blur"",""126"",""653171""
","""event"",""trial"",""time""
""focus"",""58"",""429227""
""focus"",""125"",""650656""
""focus"",""126"",""653296""
","""event"",""trial"",""time""
""fullscreenenter"",""5"",""19246""
","""event"",""trial"",""time""
""fullscreenexit"",""58"",""429227""
","","","","","","","","","","","","","","","","","","","","","",""
"instructions-quiz","128","688701","0.0-69.0","774","600","12","Female","true","false","true","false","""event"",""trial"",""time""
""fullscreenenter"",""5"",""19246""
""blur"",""58"",""429225""
""focus"",""58"",""429227""
""fullscreenexit"",""58"",""429227""
""blur"",""125"",""646706""
""focus"",""125"",""650656""
""blur"",""126"",""653171""
""focus"",""126"",""653296""
","""event"",""trial"",""time""
""blur"",""58"",""429225""
""blur"",""125"",""646706""
""blur"",""126"",""653171""
","""event"",""trial"",""time""
""focus"",""58"",""429227""
""focus"",""125"",""650656""
""focus"",""126"",""653296""
","""event"",""trial"",""time""
""fullscreenenter"",""5"",""19246""
","""event"",""trial"",""time""
""fullscreenexit"",""58"",""429227""
","5529.699999988079","audio/quiz/Q1_Prompt.wav","","1","","","","","","","","","","","","","","","","","",""
"audio-keyboard-response","129","689131","0.0-70.0","774","600","12","Female","true","false","true","false","""event"",""trial"",""time""
""fullscreenenter"",""5"",""19246""
""blur"",""58"",""429225""
""focus"",""58"",""429227""
""fullscreenexit"",""58"",""429227""
""blur"",""125"",""646706""
""focus"",""125"",""650656""
""blur"",""126"",""653171""
""focus"",""126"",""653296""
","""event"",""trial"",""time""
""blur"",""58"",""429225""
""blur"",""125"",""646706""
""blur"",""126"",""653171""
","""event"",""trial"",""time""
""focus"",""58"",""429227""
""focus"",""125"",""650656""
""focus"",""126"",""653296""
","""event"",""trial"",""time""
""fullscreenenter"",""5"",""19246""
","""event"",""trial"",""time""
""fullscreenexit"",""58"",""429227""
","430","audio/quiz/Q1_Correct.wav","32","","","","","","","","","","","","","","","","","","",""
"instructions-quiz","130","699520","0.0-71.0","774","600","12","Female","true","false","true","false","""event"",""trial"",""time""
""fullscreenenter"",""5"",""19246""
""blur"",""58"",""429225""
""focus"",""58"",""429227""
""fullscreenexit"",""58"",""429227""
""blur"",""125"",""646706""
""focus"",""125"",""650656""
""blur"",""126"",""653171""
""focus"",""126"",""653296""
","""event"",""trial"",""time""
""blur"",""58"",""429225""
""blur"",""125"",""646706""
""blur"",""126"",""653171""
","""event"",""trial"",""time""
""focus"",""58"",""429227""
""focus"",""125"",""650656""
""focus"",""126"",""653296""
","""event"",""trial"",""time""
""fullscreenenter"",""5"",""19246""
","""event"",""trial"",""time""
""fullscreenexit"",""58"",""429227""
","10387.899999976158","audio/quiz/Q2_Prompt.wav","","1","","","","","","","","","","","","","","","","","",""
"audio-keyboard-response","131","707750","0.0-72.0","774","600","12","Female","true","false","true","false","""event"",""trial"",""time""
""fullscreenenter"",""5"",""19246""
""blur"",""58"",""429225""
""focus"",""58"",""429227""
""fullscreenexit"",""58"",""429227""
""blur"",""125"",""646706""
""focus"",""125"",""650656""
""blur"",""126"",""653171""
""focus"",""126"",""653296""
","""event"",""trial"",""time""
""blur"",""58"",""429225""
""blur"",""125"",""646706""
""blur"",""126"",""653171""
","""event"",""trial"",""time""
""focus"",""58"",""429227""
""focus"",""125"",""650656""
""focus"",""126"",""653296""
","""event"",""trial"",""time""
""fullscreenenter"",""5"",""19246""
","""event"",""trial"",""time""
""fullscreenexit"",""58"",""429227""
","8226","audio/quiz/Q2_Incorrect.wav","91","","","","","","","","","","","","","","","","","","",""
"instructions-quiz","132","712456","0.0-73.0","774","600","12","Female","true","false","true","false","""event"",""trial"",""time""
""fullscreenenter"",""5"",""19246""
""blur"",""58"",""429225""
""focus"",""58"",""429227""
""fullscreenexit"",""58"",""429227""
""blur"",""125"",""646706""
""focus"",""125"",""650656""
""blur"",""126"",""653171""
""focus"",""126"",""653296""
","""event"",""trial"",""time""
""blur"",""58"",""429225""
""blur"",""125"",""646706""
""blur"",""126"",""653171""
","""event"",""trial"",""time""
""focus"",""58"",""429227""
""focus"",""125"",""650656""
""focus"",""126"",""653296""
","""event"",""trial"",""time""
""fullscreenenter"",""5"",""19246""
","""event"",""trial"",""time""
""fullscreenexit"",""58"",""429227""
","4705.300000011921","audio/quiz/Q3_Prompt.wav","","1","","","","","","","","","","","","","","","","","",""
"audio-keyboard-response","133","718253","0.0-74.0","774","600","12","Female","true","false","true","false","""event"",""trial"",""time""
""fullscreenenter"",""5"",""19246""
""blur"",""58"",""429225""
""focus"",""58"",""429227""
""fullscreenexit"",""58"",""429227""
""blur"",""125"",""646706""
""focus"",""125"",""650656""
""blur"",""126"",""653171""
""focus"",""126"",""653296""
","""event"",""trial"",""time""
""blur"",""58"",""429225""
""blur"",""125"",""646706""
""blur"",""126"",""653171""
","""event"",""trial"",""time""
""focus"",""58"",""429227""
""focus"",""125"",""650656""
""focus"",""126"",""653296""
","""event"",""trial"",""time""
""fullscreenenter"",""5"",""19246""
","""event"",""trial"",""time""
""fullscreenexit"",""58"",""429227""
","null","audio/quiz/Q3_Correct.wav","null","","","","","","","","","","","","","","","","","","",""
"d3-instructions","134","733884","0.0-75.0","774","600","12","Female","true","false","true","false","""event"",""trial"",""time""
""fullscreenenter"",""5"",""19246""
""blur"",""58"",""429225""
""focus"",""58"",""429227""
""fullscreenexit"",""58"",""429227""
""blur"",""125"",""646706""
""focus"",""125"",""650656""
""blur"",""126"",""653171""
""focus"",""126"",""653296""
","""event"",""trial"",""time""
""blur"",""58"",""429225""
""blur"",""125"",""646706""
""blur"",""126"",""653171""
","""event"",""trial"",""time""
""focus"",""58"",""429227""
""focus"",""125"",""650656""
""focus"",""126"",""653296""
","""event"",""trial"",""time""
""fullscreenenter"",""5"",""19246""
","""event"",""trial"",""time""
""fullscreenexit"",""58"",""429227""
","","","","","","","","","","","","","","","","","","","","","",""
"d3-animate-choice","135","736808","0.0-76.0-0.0","774","600","12","Female","true","false","true","false","""event"",""trial"",""time""
""fullscreenenter"",""5"",""19246""
""blur"",""58"",""429225""
""focus"",""58"",""429227""
""fullscreenexit"",""58"",""429227""
""blur"",""125"",""646706""
""focus"",""125"",""650656""
""blur"",""126"",""653171""
""focus"",""126"",""653296""
","""event"",""trial"",""time""
""blur"",""58"",""429225""
""blur"",""125"",""646706""
""blur"",""126"",""653171""
","""event"",""trial"",""time""
""focus"",""58"",""429227""
""focus"",""125"",""650656""
""focus"",""126"",""653296""
","""event"",""trial"",""time""
""fullscreenenter"",""5"",""19246""
","""event"",""trial"",""time""
""fullscreenexit"",""58"",""429227""
","888.4000000357628","","49","","","3000","1","","","images/earth.jpg","images/rocket2","images/rocket1","null","images/rocket1","","1","real","null","1","","",""
"d3-animate-choice","136","739743","0.0-76.0-1.0","774","600","12","Female","true","false","true","false","""event"",""trial"",""time""
""fullscreenenter"",""5"",""19246""
""blur"",""58"",""429225""
""focus"",""58"",""429227""
""fullscreenexit"",""58"",""429227""
""blur"",""125"",""646706""
""focus"",""125"",""650656""
""blur"",""126"",""653171""
""focus"",""126"",""653296""
","""event"",""trial"",""time""
""blur"",""58"",""429225""
""blur"",""125"",""646706""
""blur"",""126"",""653171""
","""event"",""trial"",""time""
""focus"",""58"",""429227""
""focus"",""125"",""650656""
""focus"",""126"",""653296""
","""event"",""trial"",""time""
""fullscreenenter"",""5"",""19246""
","""event"",""trial"",""time""
""fullscreenexit"",""58"",""429227""
","932.3999999761581","","49","","","3000","1","","","images/purpleplanet.jpg","images/alien4","images/alien3","images/rocket1","images/alien3","images/t.png","2","real","true","1","common","1","2022-02-01 19:02:12.280"
"two-step-fixation","137","740747","0.0-76.0-2.0","774","600","12","Female","true","false","true","false","""event"",""trial"",""time""
""fullscreenenter"",""5"",""19246""
""blur"",""58"",""429225""
""focus"",""58"",""429227""
""fullscreenexit"",""58"",""429227""
""blur"",""125"",""646706""
""focus"",""125"",""650656""
""blur"",""126"",""653171""
""focus"",""126"",""653296""
","""event"",""trial"",""time""
""blur"",""58"",""429225""
""blur"",""125"",""646706""
""blur"",""126"",""653171""
","""event"",""trial"",""time""
""focus"",""58"",""429227""
""focus"",""125"",""650656""
""focus"",""126"",""653296""
","""event"",""trial"",""time""
""fullscreenenter"",""5"",""19246""
","""event"",""trial"",""time""
""fullscreenexit"",""58"",""429227""
","","images/earth.jpg","","","","","","","","","","","","","","fixation","","","","","",""
"d3-animate-choice","138","743190","0.0-76.0-0.1","774","600","12","Female","true","false","true","false","""event"",""trial"",""time""
""fullscreenenter"",""5"",""19246""
""blur"",""58"",""429225""
""focus"",""58"",""429227""
""fullscreenexit"",""58"",""429227""
""blur"",""125"",""646706""
""focus"",""125"",""650656""
""blur"",""126"",""653171""
""focus"",""126"",""653296""
","""event"",""trial"",""time""
""blur"",""58"",""429225""
""blur"",""125"",""646706""
""blur"",""126"",""653171""
","""event"",""trial"",""time""
""focus"",""58"",""429227""
""focus"",""125"",""650656""
""focus"",""126"",""653296""
","""event"",""trial"",""time""
""fullscreenenter"",""5"",""19246""
","""event"",""trial"",""time""
""fullscreenexit"",""58"",""429227""
","436.80000001192093","","49","","","3000","1","","","images/earth.jpg","images/rocket2","images/rocket1","null","images/rocket1","","1","real","null","1","","",""
"d3-animate-choice","139","745764","0.0-76.0-1.1","774","600","12","Female","true","false","true","false","""event"",""trial"",""time""
""fullscreenenter"",""5"",""19246""
""blur"",""58"",""429225""
""focus"",""58"",""429227""
""fullscreenexit"",""58"",""429227""
""blur"",""125"",""646706""
""focus"",""125"",""650656""
""blur"",""126"",""653171""
""focus"",""126"",""653296""
","""event"",""trial"",""time""
""blur"",""58"",""429225""
""blur"",""125"",""646706""
""blur"",""126"",""653171""
","""event"",""trial"",""time""
""focus"",""58"",""429227""
""focus"",""125"",""650656""
""focus"",""126"",""653296""
","""event"",""trial"",""time""
""fullscreenenter"",""5"",""19246""
","""event"",""trial"",""time""
""fullscreenexit"",""58"",""429227""
","571","","49","","","3000","1","","","images/purpleplanet.jpg","images/alien4","images/alien3","images/rocket1","images/alien3","images/t.png","2","real","true","1","common","1","2022-02-01 19:02:18.301"
"two-step-fixation","140","746767","0.0-76.0-2.1","774","600","12","Female","true","false","true","false","""event"",""trial"",""time""
""fullscreenenter"",""5"",""19246""
""blur"",""58"",""429225""
""focus"",""58"",""429227""
""fullscreenexit"",""58"",""429227""
""blur"",""125"",""646706""
""focus"",""125"",""650656""
""blur"",""126"",""653171""
""focus"",""126"",""653296""
","""event"",""trial"",""time""
""blur"",""58"",""429225""
""blur"",""125"",""646706""
""blur"",""126"",""653171""
","""event"",""trial"",""time""
""focus"",""58"",""429227""
""focus"",""125"",""650656""
""focus"",""126"",""653296""
","""event"",""trial"",""time""
""fullscreenenter"",""5"",""19246""
","""event"",""trial"",""time""
""fullscreenexit"",""58"",""429227""
","","images/earth.jpg","","","","","","","","","","","","","","fixation","","","","","",""
"d3-animate-choice","141","748946","0.0-76.0-0.2","774","600","12","Female","true","false","true","false","""event"",""trial"",""time""
""fullscreenenter"",""5"",""19246""
""blur"",""58"",""429225""
""focus"",""58"",""429227""
""fullscreenexit"",""58"",""429227""
""blur"",""125"",""646706""
""focus"",""125"",""650656""
""blur"",""126"",""653171""
""focus"",""126"",""653296""
","""event"",""trial"",""time""
""blur"",""58"",""429225""
""blur"",""125"",""646706""
""blur"",""126"",""653171""
","""event"",""trial"",""time""
""focus"",""58"",""429227""
""focus"",""125"",""650656""
""focus"",""126"",""653296""
","""event"",""trial"",""time""
""fullscreenenter"",""5"",""19246""
","""event"",""trial"",""time""
""fullscreenexit"",""58"",""429227""
","176.19999998807907","","48","","","3000","1","","","images/earth.jpg","images/rocket2","images/rocket1","null","images/rocket2","","1","real","null","2","","",""
"d3-animate-choice","142","751570","0.0-76.0-1.2","774","600","12","Female","true","false","true","false","""event"",""trial"",""time""
""fullscreenenter"",""5"",""19246""
""blur"",""58"",""429225""
""focus"",""58"",""429227""
""fullscreenexit"",""58"",""429227""
""blur"",""125"",""646706""
""focus"",""125"",""650656""
""blur"",""126"",""653171""
""focus"",""126"",""653296""
","""event"",""trial"",""time""
""blur"",""58"",""429225""
""blur"",""125"",""646706""
""blur"",""126"",""653171""
","""event"",""trial"",""time""
""focus"",""58"",""429227""
""focus"",""125"",""650656""
""focus"",""126"",""653296""
","""event"",""trial"",""time""
""fullscreenenter"",""5"",""19246""
","""event"",""trial"",""time""
""fullscreenexit"",""58"",""429227""
","620.3999999761581","","48","","","3000","1","","","images/purpleplanet.jpg","images/alien4","images/alien3","images/rocket2","images/alien4","images/nothing.png","2","real","false","2","rare","0","2022-02-01 19:02:24.107"
"two-step-fixation","143","752575","0.0-76.0-2.2","774","600","12","Female","true","false","true","false","""event"",""trial"",""time""
""fullscreenenter"",""5"",""19246""
""blur"",""58"",""429225""
""focus"",""58"",""429227""
""fullscreenexit"",""58"",""429227""
""blur"",""125"",""646706""
""focus"",""125"",""650656""
""blur"",""126"",""653171""
""focus"",""126"",""653296""
","""event"",""trial"",""time""
""blur"",""58"",""429225""
""blur"",""125"",""646706""
""blur"",""126"",""653171""
","""event"",""trial"",""time""
""focus"",""58"",""429227""
""focus"",""125"",""650656""
""focus"",""126"",""653296""
","""event"",""trial"",""time""
""fullscreenenter"",""5"",""19246""
","""event"",""trial"",""time""
""fullscreenexit"",""58"",""429227""
","","images/earth.jpg","","","","","","","","","","","","","","fixation","","","","","",""
"d3-animate-choice","144","755237","0.0-76.0-0.3","774","600","12","Female","true","false","true","false","""event"",""trial"",""time""
""fullscreenenter"",""5"",""19246""
""blur"",""58"",""429225""
""focus"",""58"",""429227""
""fullscreenexit"",""58"",""429227""
""blur"",""125"",""646706""
""focus"",""125"",""650656""
""blur"",""126"",""653171""
""focus"",""126"",""653296""
","""event"",""trial"",""time""
""blur"",""58"",""429225""
""blur"",""125"",""646706""
""blur"",""126"",""653171""
","""event"",""trial"",""time""
""focus"",""58"",""429227""
""focus"",""125"",""650656""
""focus"",""126"",""653296""
","""event"",""trial"",""time""
""fullscreenenter"",""5"",""19246""
","""event"",""trial"",""time""
""fullscreenexit"",""58"",""429227""
","658.5999999642372","","48","","","3000","1","","","images/earth.jpg","images/rocket2","images/rocket1","null","images/rocket2","","1","real","null","2","","",""
"d3-animate-choice","145","757892","0.0-76.0-1.3","774","600","12","Female","true","false","true","false","""event"",""trial"",""time""
""fullscreenenter"",""5"",""19246""
""blur"",""58"",""429225""
""focus"",""58"",""429227""
""fullscreenexit"",""58"",""429227""
""blur"",""125"",""646706""
""focus"",""125"",""650656""
""blur"",""126"",""653171""
""focus"",""126"",""653296""
","""event"",""trial"",""time""
""blur"",""58"",""429225""
""blur"",""125"",""646706""
""blur"",""126"",""653171""
","""event"",""trial"",""time""
""focus"",""58"",""429227""
""focus"",""125"",""650656""
""focus"",""126"",""653296""
","""event"",""trial"",""time""
""fullscreenenter"",""5"",""19246""
","""event"",""trial"",""time""
""fullscreenexit"",""58"",""429227""
","651.9000000357628","","49","","","3000","1","","","images/purpleplanet.jpg","images/alien4","images/alien3","images/rocket2","images/alien3","images/t.png","2","real","false","1","rare","1","2022-02-01 19:02:30.429"
"two-step-fixation","146","758894","0.0-76.0-2.3","774","600","12","Female","true","false","true","false","""event"",""trial"",""time""
""fullscreenenter"",""5"",""19246""
""blur"",""58"",""429225""
""focus"",""58"",""429227""
""fullscreenexit"",""58"",""429227""
""blur"",""125"",""646706""
""focus"",""125"",""650656""
""blur"",""126"",""653171""
""focus"",""126"",""653296""
","""event"",""trial"",""time""
""blur"",""58"",""429225""
""blur"",""125"",""646706""
""blur"",""126"",""653171""
","""event"",""trial"",""time""
""focus"",""58"",""429227""
""focus"",""125"",""650656""
""focus"",""126"",""653296""
","""event"",""trial"",""time""
""fullscreenenter"",""5"",""19246""
","""event"",""trial"",""time""
""fullscreenexit"",""58"",""429227""
","","images/earth.jpg","","","","","","","","","","","","","","fixation","","","","","",""
"d3-animate-choice","147","761505","0.0-76.0-0.4","774","600","12","Female","true","false","true","false","""event"",""trial"",""time""
""fullscreenenter"",""5"",""19246""
""blur"",""58"",""429225""
""focus"",""58"",""429227""
""fullscreenexit"",""58"",""429227""
""blur"",""125"",""646706""
""focus"",""125"",""650656""
""blur"",""126"",""653171""
""focus"",""126"",""653296""
","""event"",""trial"",""time""
""blur"",""58"",""429225""
""blur"",""125"",""646706""
""blur"",""126"",""653171""
","""event"",""trial"",""time""
""focus"",""58"",""429227""
""focus"",""125"",""650656""
""focus"",""126"",""653296""
","""event"",""trial"",""time""
""fullscreenenter"",""5"",""19246""
","""event"",""trial"",""time""
""fullscreenexit"",""58"",""429227""
","605","","48","","","3000","1","","","images/earth.jpg","images/rocket2","images/rocket1","null","images/rocket2","","1","real","null","2","","",""
"d3-animate-choice","148","764589","0.0-76.0-1.4","774","600","12","Female","true","false","true","false","""event"",""trial"",""time""
""fullscreenenter"",""5"",""19246""
""blur"",""58"",""429225""
""focus"",""58"",""429227""
""fullscreenexit"",""58"",""429227""
""blur"",""125"",""646706""
""focus"",""125"",""650656""
""blur"",""126"",""653171""
""focus"",""126"",""653296""
","""event"",""trial"",""time""
""blur"",""58"",""429225""
""blur"",""125"",""646706""
""blur"",""126"",""653171""
","""event"",""trial"",""time""
""focus"",""58"",""429227""
""focus"",""125"",""650656""
""focus"",""126"",""653296""
","""event"",""trial"",""time""
""fullscreenenter"",""5"",""19246""
","""event"",""trial"",""time""
""fullscreenexit"",""58"",""429227""
","1077.1000000238419","","49","","","3000","1","","","images/redplanet1.jpg","images/alien2","images/alien1","images/rocket2","images/alien1","images/nothing.png","2","real","true","1","common","0","2022-02-01 19:02:37.126"
"two-step-fixation","149","765591","0.0-76.0-2.4","774","600","12","Female","true","false","true","false","""event"",""trial"",""time""
""fullscreenenter"",""5"",""19246""
""blur"",""58"",""429225""
""focus"",""58"",""429227""
""fullscreenexit"",""58"",""429227""
""blur"",""125"",""646706""
""focus"",""125"",""650656""
""blur"",""126"",""653171""
""focus"",""126"",""653296""
","""event"",""trial"",""time""
""blur"",""58"",""429225""
""blur"",""125"",""646706""
""blur"",""126"",""653171""
","""event"",""trial"",""time""
""focus"",""58"",""429227""
""focus"",""125"",""650656""
""focus"",""126"",""653296""
","""event"",""trial"",""time""
""fullscreenenter"",""5"",""19246""
","""event"",""trial"",""time""
""fullscreenexit"",""58"",""429227""
","","images/earth.jpg","","","","","","","","","","","","","","fixation","","","","","",""
"d3-animate-choice","150","767904","0.0-76.0-0.5","774","600","12","Female","true","false","true","false","""event"",""trial"",""time""
""fullscreenenter"",""5"",""19246""
""blur"",""58"",""429225""
""focus"",""58"",""429227""
""fullscreenexit"",""58"",""429227""
""blur"",""125"",""646706""
""focus"",""125"",""650656""
""blur"",""126"",""653171""
""focus"",""126"",""653296""
","""event"",""trial"",""time""
""blur"",""58"",""429225""
""blur"",""125"",""646706""
""blur"",""126"",""653171""
","""event"",""trial"",""time""
""focus"",""58"",""429227""
""focus"",""125"",""650656""
""focus"",""126"",""653296""
","""event"",""trial"",""time""
""fullscreenenter"",""5"",""19246""
","""event"",""trial"",""time""
""fullscreenexit"",""58"",""429227""
","309.60000002384186","","48","","","3000","1","","","images/earth.jpg","images/rocket2","images/rocket1","null","images/rocket2","","1","real","null","2","","",""
"d3-animate-choice","151","770986","0.0-76.0-1.5","774","600","12","Female","true","false","true","false","""event"",""trial"",""time""
""fullscreenenter"",""5"",""19246""
""blur"",""58"",""429225""
""focus"",""58"",""429227""
""fullscreenexit"",""58"",""429227""
""blur"",""125"",""646706""
""focus"",""125"",""650656""
""blur"",""126"",""653171""
""focus"",""126"",""653296""
","""event"",""trial"",""time""
""blur"",""58"",""429225""
""blur"",""125"",""646706""
""blur"",""126"",""653171""
","""event"",""trial"",""time""
""focus"",""58"",""429227""
""focus"",""125"",""650656""
""focus"",""126"",""653296""
","""event"",""trial"",""time""
""fullscreenenter"",""5"",""19246""
","""event"",""trial"",""time""
""fullscreenexit"",""58"",""429227""
","1079.3999999761581","","48","","","3000","1","","","images/purpleplanet.jpg","images/alien4","images/alien3","images/rocket2","images/alien4","images/nothing.png","2","real","false","2","rare","0","2022-02-01 19:02:43.523"
"two-step-fixation","152","771990","0.0-76.0-2.5","774","600","12","Female","true","false","true","false","""event"",""trial"",""time""
""fullscreenenter"",""5"",""19246""
""blur"",""58"",""429225""
""focus"",""58"",""429227""
""fullscreenexit"",""58"",""429227""
""blur"",""125"",""646706""
""focus"",""125"",""650656""
""blur"",""126"",""653171""
""focus"",""126"",""653296""
","""event"",""trial"",""time""
""blur"",""58"",""429225""
""blur"",""125"",""646706""
""blur"",""126"",""653171""
","""event"",""trial"",""time""
""focus"",""58"",""429227""
""focus"",""125"",""650656""
""focus"",""126"",""653296""
","""event"",""trial"",""time""
""fullscreenenter"",""5"",""19246""
","""event"",""trial"",""time""
""fullscreenexit"",""58"",""429227""
","","images/earth.jpg","","","","","","","","","","","","","","fixation","","","","","",""
"d3-animate-choice","153","774002","0.0-76.0-0.6","774","600","12","Female","true","false","true","false","""event"",""trial"",""time""
""fullscreenenter"",""5"",""19246""
""blur"",""58"",""429225""
""focus"",""58"",""429227""
""fullscreenexit"",""58"",""429227""
""blur"",""125"",""646706""
""focus"",""125"",""650656""
""blur"",""126"",""653171""
""focus"",""126"",""653296""
","""event"",""trial"",""time""
""blur"",""58"",""429225""
""blur"",""125"",""646706""
""blur"",""126"",""653171""
","""event"",""trial"",""time""
""focus"",""58"",""429227""
""focus"",""125"",""650656""
""focus"",""126"",""653296""
","""event"",""trial"",""time""
""fullscreenenter"",""5"",""19246""
","""event"",""trial"",""time""
""fullscreenexit"",""58"",""429227""
","8.5","","49","","","3000","1","","","images/earth.jpg","images/rocket2","images/rocket1","null","images/rocket1","","1","real","null","1","","",""
"d3-animate-choice","154","777162","0.0-76.0-1.6","774","600","12","Female","true","false","true","false","""event"",""trial"",""time""
""fullscreenenter"",""5"",""19246""
""blur"",""58"",""429225""
""focus"",""58"",""429227""
""fullscreenexit"",""58"",""429227""
""blur"",""125"",""646706""
""focus"",""125"",""650656""
""blur"",""126"",""653171""
""focus"",""126"",""653296""
","""event"",""trial"",""time""
""blur"",""58"",""429225""
""blur"",""125"",""646706""
""blur"",""126"",""653171""
","""event"",""trial"",""time""
""focus"",""58"",""429227""
""focus"",""125"",""650656""
""focus"",""126"",""653296""
","""event"",""trial"",""time""
""fullscreenenter"",""5"",""19246""
","""event"",""trial"",""time""
""fullscreenexit"",""58"",""429227""
","1157.2000000476837","","49","","","3000","1","","","images/redplanet1.jpg","images/alien2","images/alien1","images/rocket1","images/alien1","images/t.png","2","real","false","1","rare","1","2022-02-01 19:02:49.699"
"two-step-fixation","155","778167","0.0-76.0-2.6","774","600","12","Female","true","false","true","false","""event"",""trial"",""time""
""fullscreenenter"",""5"",""19246""
""blur"",""58"",""429225""
""focus"",""58"",""429227""
""fullscreenexit"",""58"",""429227""
""blur"",""125"",""646706""
""focus"",""125"",""650656""
""blur"",""126"",""653171""
""focus"",""126"",""653296""
","""event"",""trial"",""time""
""blur"",""58"",""429225""
""blur"",""125"",""646706""
""blur"",""126"",""653171""
","""event"",""trial"",""time""
""focus"",""58"",""429227""
""focus"",""125"",""650656""
""focus"",""126"",""653296""
","""event"",""trial"",""time""
""fullscreenenter"",""5"",""19246""
","""event"",""trial"",""time""
""fullscreenexit"",""58"",""429227""
","","images/earth.jpg","","","","","","","","","","","","","","fixation","","","","","",""
"d3-animate-choice","156","780537","0.0-76.0-0.7","774","600","12","Female","true","false","true","false","""event"",""trial"",""time""
""fullscreenenter"",""5"",""19246""
""blur"",""58"",""429225""
""focus"",""58"",""429227""
""fullscreenexit"",""58"",""429227""
""blur"",""125"",""646706""
""focus"",""125"",""650656""
""blur"",""126"",""653171""
""focus"",""126"",""653296""
","""event"",""trial"",""time""
""blur"",""58"",""429225""
""blur"",""125"",""646706""
""blur"",""126"",""653171""
","""event"",""trial"",""time""
""focus"",""58"",""429227""
""focus"",""125"",""650656""
""focus"",""126"",""653296""
","""event"",""trial"",""time""
""fullscreenenter"",""5"",""19246""
","""event"",""trial"",""time""
""fullscreenexit"",""58"",""429227""
","367.89999997615814","","49","","","3000","1","","","images/earth.jpg","images/rocket2","images/rocket1","null","images/rocket1","","1","real","null","1","","",""
"d3-animate-choice","157","782990","0.0-76.0-1.7","774","600","12","Female","true","false","true","false","""event"",""trial"",""time""
""fullscreenenter"",""5"",""19246""
""blur"",""58"",""429225""
""focus"",""58"",""429227""
""fullscreenexit"",""58"",""429227""
""blur"",""125"",""646706""
""focus"",""125"",""650656""
""blur"",""126"",""653171""
""focus"",""126"",""653296""
","""event"",""trial"",""time""
""blur"",""58"",""429225""
""blur"",""125"",""646706""
""blur"",""126"",""653171""
","""event"",""trial"",""time""
""focus"",""58"",""429227""
""focus"",""125"",""650656""
""focus"",""126"",""653296""
","""event"",""trial"",""time""
""fullscreenenter"",""5"",""19246""
","""event"",""trial"",""time""
""fullscreenexit"",""58"",""429227""
","450.10000002384186","","48","","","3000","1","","","images/purpleplanet.jpg","images/alien4","images/alien3","images/rocket1","images/alien4","images/t.png","2","real","true","2","common","1","2022-02-01 19:02:55.527"
"two-step-fixation","158","783994","0.0-76.0-2.7","774","600","12","Female","true","false","true","false","""event"",""trial"",""time""
""fullscreenenter"",""5"",""19246""
""blur"",""58"",""429225""
""focus"",""58"",""429227""
""fullscreenexit"",""58"",""429227""
""blur"",""125"",""646706""
""focus"",""125"",""650656""
""blur"",""126"",""653171""
""focus"",""126"",""653296""
","""event"",""trial"",""time""
""blur"",""58"",""429225""
""blur"",""125"",""646706""
""blur"",""126"",""653171""
","""event"",""trial"",""time""
""focus"",""58"",""429227""
""focus"",""125"",""650656""
""focus"",""126"",""653296""
","""event"",""trial"",""time""
""fullscreenenter"",""5"",""19246""
","""event"",""trial"",""time""
""fullscreenexit"",""58"",""429227""
","","images/earth.jpg","","","","","","","","","","","","","","fixation","","","","","",""
"d3-animate-choice","159","786672","0.0-76.0-0.8","774","600","12","Female","true","false","true","false","""event"",""trial"",""time""
""fullscreenenter"",""5"",""19246""
""blur"",""58"",""429225""
""focus"",""58"",""429227""
""fullscreenexit"",""58"",""429227""
""blur"",""125"",""646706""
""focus"",""125"",""650656""
""blur"",""126"",""653171""
""focus"",""126"",""653296""
","""event"",""trial"",""time""
""blur"",""58"",""429225""
""blur"",""125"",""646706""
""blur"",""126"",""653171""
","""event"",""trial"",""time""
""focus"",""58"",""429227""
""focus"",""125"",""650656""
""focus"",""126"",""653296""
","""event"",""trial"",""time""
