"trial_type","trial_index","time_elapsed","internal_node_id","participant_id","subject_id","age","gender","rocket_sides","red_planet_first_rocket","red_display_order","purple_display_order","interactions","blur_events","focus_events","fullscreenenter_events","fullscreenexit_events","rt","stimulus","key_press","button_pressed","success","duration","valid_pressed","rts","keys","planet_text","right_text","left_text","center_text","chosen_text","reward_text","trial_stage","practice_trial","transition_type","choice","transition","reward","timestamp"
"pavlovia","0","4","0.0-0.0","2856","5009","11","Female","true","false","false","false","
","
","
","
","
","","","","","","","","","","","","","","","","","","","","","",""
"html-keyboard-response","1","21055","0.0-1.0","2856","5009","11","Female","true","false","false","false","
","
","
","
","
","21050.199999928474","Welcome! Press the space bar to begin.","32","","","","","","","","","","","","","","","","","","",""
"audio-keyboard-response","2","23601","0.0-2.0","2856","5009","11","Female","true","false","false","false","
","
","
","
","
","1712","audio/beep_loop.wav","32","","","","","","","","","","","","","","","","","","",""
"audio-button-response","3","25593","0.0-3.0","2856","5009","11","Female","true","false","false","false","
","
","
","
","
","NaN","audio/fish.mp3","","1","","","","","","","","","","","","","","","","","",""
"audio-button-response","4","28188","0.0-4.0","2856","5009","11","Female","true","false","false","false","""event"",""trial"",""time""
""fullscreenenter"",""5"",""31372""
","
","
","""event"",""trial"",""time""
""fullscreenenter"",""5"",""31372""
","
","NaN","audio/tiger.mp3","","4","","","","","","","","","","","","","","","","","",""
"fullscreen","5","32366","0.0-5.0","2856","5009","11","Female","true","false","false","false","""event"",""trial"",""time""
""fullscreenenter"",""5"",""31372""
","
","
","""event"",""trial"",""time""
""fullscreenenter"",""5"",""31372""
","
","","","","","true","","","","","","","","","","","","","","","","",""
"d3-instructions","6","46129","0.0-6.0","2856","5009","11","Female","true","false","false","false","""event"",""trial"",""time""
""fullscreenenter"",""5"",""31372""
","
","
","""event"",""trial"",""time""
""fullscreenenter"",""5"",""31372""
","
","","","","","","","","","","","","","","","","","","","","","",""
"d3-instructions","7","54654","0.0-7.0","2856","5009","11","Female","true","false","false","false","""event"",""trial"",""time""
""fullscreenenter"",""5"",""31372""
","
","
","""event"",""trial"",""time""
""fullscreenenter"",""5"",""31372""
","
","","","","","","","","","","","","","","","","","","","","","",""
"d3-instructions","8","62248","0.0-8.0","2856","5009","11","Female","true","false","false","false","""event"",""trial"",""time""
""fullscreenenter"",""5"",""31372""
","
","
","""event"",""trial"",""time""
""fullscreenenter"",""5"",""31372""
","
","","","","","","","","","","","","","","","","","","","","","",""
"d3-instructions","9","72759","0.0-9.0","2856","5009","11","Female","true","false","false","false","""event"",""trial"",""time""
""fullscreenenter"",""5"",""31372""
","
","
","""event"",""trial"",""time""
""fullscreenenter"",""5"",""31372""
","
","","","","","","","","","","","","","","","","","","","","","",""
"d3-instructions","10","92635","0.0-10.0","2856","5009","11","Female","true","false","false","false","""event"",""trial"",""time""
""fullscreenenter"",""5"",""31372""
","
","
","""event"",""trial"",""time""
""fullscreenenter"",""5"",""31372""
","
","","","","","","","","","","","","","","","","","","","","","",""
"d3-animate-choice","11","96030","0.0-11.0","2856","5009","11","Female","true","false","false","false","""event"",""trial"",""time""
""fullscreenenter"",""5"",""31372""
","
","
","""event"",""trial"",""time""
""fullscreenenter"",""5"",""31372""
","
","1375.5","","49","","","3000","1","2458.9000000953674,3036.5","48,48","images/tutgreenplanet.jpg","images/tutalien1","images/tutalien2","null","images/tutalien2","","NA","practice","null","","","",""
"d3-animate-choice","12","98040","0.0-12.0","2856","5009","11","Female","true","false","false","false","""event"",""trial"",""time""
""fullscreenenter"",""5"",""31372""
","
","
","""event"",""trial"",""time""
""fullscreenenter"",""5"",""31372""
","
","0.8999999761581421","","48","","","3000","1","1678.8999999761581","49","images/tutgreenplanet.jpg","images/tutalien1","images/tutalien2","null","images/tutalien1","","NA","practice","null","","","",""
"d3-animate-choice","13","100217","0.0-13.0","2856","5009","11","Female","true","false","false","false","""event"",""trial"",""time""
""fullscreenenter"",""5"",""31372""
","
","
","""event"",""trial"",""time""
""fullscreenenter"",""5"",""31372""
","
","163.79999995231628","","49","","","3000","1","","","images/tutgreenplanet.jpg","images/tutalien1","images/tutalien2","null","images/tutalien2","","NA","practice","null","","","",""
"d3-animate-choice","14","102596","0.0-14.0","2856","5009","11","Female","true","false","false","false","""event"",""trial"",""time""
""fullscreenenter"",""5"",""31372""
","
","
","""event"",""trial"",""time""
""fullscreenenter"",""5"",""31372""
","
","362.5","","48","","","3000","1","","","images/tutgreenplanet.jpg","images/tutalien1","images/tutalien2","null","images/tutalien1","","NA","practice","null","","","",""
"d3-instructions","15","109172","0.0-15.0","2856","5009","11","Female","true","false","false","false","""event"",""trial"",""time""
""fullscreenenter"",""5"",""31372""
","
","
","""event"",""trial"",""time""
""fullscreenenter"",""5"",""31372""
","
","","","","","","","","","","","","","","","","","","","","","",""
"d3-instructions","16","116871","0.0-16.0","2856","5009","11","Female","true","false","false","false","""event"",""trial"",""time""
""fullscreenenter"",""5"",""31372""
","
","
","""event"",""trial"",""time""
""fullscreenenter"",""5"",""31372""
","
","","","","","","","","","","","","","","","","","","","","","",""
"d3-instructions","17","127074","0.0-17.0","2856","5009","11","Female","true","false","false","false","""event"",""trial"",""time""
""fullscreenenter"",""5"",""31372""
","
","
","""event"",""trial"",""time""
""fullscreenenter"",""5"",""31372""
","
","","","","","","","","","","","","","","","","","","","","","",""
"d3-instructions","18","141456","0.0-18.0","2856","5009","11","Female","true","false","false","false","""event"",""trial"",""time""
""fullscreenenter"",""5"",""31372""
","
","
","""event"",""trial"",""time""
""fullscreenenter"",""5"",""31372""
","
","","","","","","","","","","","","","","","","","","","","","",""
"d3-instructions","19","163243","0.0-19.0","2856","5009","11","Female","true","false","false","false","""event"",""trial"",""time""
""fullscreenenter"",""5"",""31372""
","
","
","""event"",""trial"",""time""
""fullscreenenter"",""5"",""31372""
","
","","","","","","","","","","","","","","","","","","","","","",""
"d3-animate-choice","20","170230","0.0-20.0","2856","5009","11","Female","true","false","false","false","""event"",""trial"",""time""
""fullscreenenter"",""5"",""31372""
","
","
","""event"",""trial"",""time""
""fullscreenenter"",""5"",""31372""
","
","531.5","","32","","","3000","1","4969","49","images/tutyellowplanet.jpg","null","images/tutalien3","null","images/tutalien3","images/t.png","NA","practice","null","","","",""
"d3-animate-choice","21","172816","0.0-21.0","2856","5009","11","Female","true","false","false","false","""event"",""trial"",""time""
""fullscreenenter"",""5"",""31372""
","
","
","""event"",""trial"",""time""
""fullscreenenter"",""5"",""31372""
","
","565.3999999761581","","49","","","3000","1","","","images/tutyellowplanet.jpg","null","images/tutalien3","null","images/tutalien3","images/t.png","NA","practice","null","","","",""
"d3-animate-choice","22","175082","0.0-22.0","2856","5009","11","Female","true","false","false","false","""event"",""trial"",""time""
""fullscreenenter"",""5"",""31372""
","
","
","""event"",""trial"",""time""
""fullscreenenter"",""5"",""31372""
","
","251.19999992847443","","49","","","3000","1","","","images/tutyellowplanet.jpg","null","images/tutalien3","null","images/tutalien3","images/t.png","NA","practice","null","","","",""
"d3-animate-choice","23","179055","0.0-23.0","2856","5009","11","Female","true","false","false","false","""event"",""trial"",""time""
""fullscreenenter"",""5"",""31372""
","
","
","""event"",""trial"",""time""
""fullscreenenter"",""5"",""31372""
","
","1953.2999999523163","","49","","","3000","1","2947.2999999523163","49","images/tutyellowplanet.jpg","null","images/tutalien3","null","images/tutalien3","images/t.png","NA","practice","null","","","",""
"d3-animate-choice","24","181521","0.0-24.0","2856","5009","11","Female","true","false","false","false","""event"",""trial"",""time""
""fullscreenenter"",""5"",""31372""
","
","
","""event"",""trial"",""time""
""fullscreenenter"",""5"",""31372""
","
","447.5","","49","","","3000","1","","","images/tutyellowplanet.jpg","null","images/tutalien3","null","images/tutalien3","images/t.png","NA","practice","null","","","",""
"d3-animate-choice","25","183919","0.0-25.0","2856","5009","11","Female","true","false","false","false","""event"",""trial"",""time""
""fullscreenenter"",""5"",""31372""
","
","
","""event"",""trial"",""time""
""fullscreenenter"",""5"",""31372""
","
","390.8000000715256","","49","","","3000","1","","","images/tutyellowplanet.jpg","null","images/tutalien3","null","images/tutalien3","images/t.png","NA","practice","null","","","",""
"d3-animate-choice","26","186414","0.0-26.0","2856","5009","11","Female","true","false","false","false","""event"",""trial"",""time""
""fullscreenenter"",""5"",""31372""
","
","
","""event"",""trial"",""time""
""fullscreenenter"",""5"",""31372""
","
","480.2000000476837","","49","","","3000","1","","","images/tutyellowplanet.jpg","null","images/tutalien3","null","images/tutalien3","images/t.png","NA","practice","null","","","",""
"d3-animate-choice","27","189924","0.0-27.0","2856","5009","11","Female","true","false","false","false","""event"",""trial"",""time""
""fullscreenenter"",""5"",""31372""
","
","
","""event"",""trial"",""time""
""fullscreenenter"",""5"",""31372""
","
","1504","","49","","","3000","1","","","images/tutyellowplanet.jpg","null","images/tutalien3","null","images/tutalien3","images/t.png","NA","practice","null","","","",""
"d3-animate-choice","28","193624","0.0-28.0","2856","5009","11","Female","true","false","false","false","""event"",""trial"",""time""
""fullscreenenter"",""5"",""31372""
","
","
","""event"",""trial"",""time""
""fullscreenenter"",""5"",""31372""
","
","1678.1000000238419","","49","","","3000","1","","","images/tutyellowplanet.jpg","null","images/tutalien3","null","images/tutalien3","images/t.png","NA","practice","null","","","",""
"d3-animate-choice","29","197739","0.0-29.0","2856","5009","11","Female","true","false","false","false","""event"",""trial"",""time""
""fullscreenenter"",""5"",""31372""
","
","
","""event"",""trial"",""time""
""fullscreenenter"",""5"",""31372""
","
","2109","","49","","","3000","1","","","images/tutyellowplanet.jpg","null","images/tutalien3","null","images/tutalien3","images/nothing.png","NA","practice","null","","","",""
"d3-instructions","30","206055","0.0-30.0","2856","5009","11","Female","true","false","false","false","""event"",""trial"",""time""
""fullscreenenter"",""5"",""31372""
","
","
","""event"",""trial"",""time""
""fullscreenenter"",""5"",""31372""
","
","","","","","","","","","","","","","","","","","","","","","",""
"d3-instructions","31","218974","0.0-31.0","2856","5009","11","Female","true","false","false","false","""event"",""trial"",""time""
""fullscreenenter"",""5"",""31372""
","
","
","""event"",""trial"",""time""
""fullscreenenter"",""5"",""31372""
","
","","","","","","","","","","","","","","","","","","","","","",""
"d3-instructions","32","228073","0.0-32.0","2856","5009","11","Female","true","false","false","false","""event"",""trial"",""time""
""fullscreenenter"",""5"",""31372""
","
","
","""event"",""trial"",""time""
""fullscreenenter"",""5"",""31372""
","
","","","","","","","","","","","","","","","","","","","","","",""
"d3-instructions","33","242818","0.0-33.0","2856","5009","11","Female","true","false","false","false","""event"",""trial"",""time""
""fullscreenenter"",""5"",""31372""
","
","
","""event"",""trial"",""time""
""fullscreenenter"",""5"",""31372""
","
","","","","","","","","","","","","","","","","","","","","","",""
"d3-animate-choice","34","247756","0.0-34.0","2856","5009","11","Female","true","false","false","false","""event"",""trial"",""time""
""fullscreenenter"",""5"",""31372""
","
","
","""event"",""trial"",""time""
""fullscreenenter"",""5"",""31372""
","
","2928.2999999523163","","49","","","3000","1","","","images/tutgreenplanet.jpg","images/tutalien1","images/tutalien2","null","images/tutalien2","images/t.png","NA","practice","null","","","",""
"d3-animate-choice","35","250211","0.0-35.0","2856","5009","11","Female","true","false","false","false","""event"",""trial"",""time""
""fullscreenenter"",""5"",""31372""
","
","
","""event"",""trial"",""time""
""fullscreenenter"",""5"",""31372""
","
","447.60000002384186","","49","","","3000","1","","","images/tutgreenplanet.jpg","images/tutalien1","images/tutalien2","null","images/tutalien2","images/t.png","NA","practice","null","","","",""
"d3-animate-choice","36","252571","0.0-36.0","2856","5009","11","Female","true","false","false","false","""event"",""trial"",""time""
""fullscreenenter"",""5"",""31372""
","
","
","""event"",""trial"",""time""
""fullscreenenter"",""5"",""31372""
","
","354.7000000476837","","49","","","3000","1","","","images/tutgreenplanet.jpg","images/tutalien1","images/tutalien2","null","images/tutalien2","images/t.png","NA","practice","null","","","",""
"d3-animate-choice","37","254939","0.0-37.0","2856","5009","11","Female","true","false","false","false","""event"",""trial"",""time""
""fullscreenenter"",""5"",""31372""
","
","
","""event"",""trial"",""time""
""fullscreenenter"",""5"",""31372""
","
","361","","49","","","3000","1","","","images/tutgreenplanet.jpg","images/tutalien1","images/tutalien2","null","images/tutalien2","images/t.png","NA","practice","null","","","",""
"d3-animate-choice","38","257253","0.0-38.0","2856","5009","11","Female","true","false","false","false","""event"",""trial"",""time""
""fullscreenenter"",""5"",""31372""
","
","
","""event"",""trial"",""time""
""fullscreenenter"",""5"",""31372""
","
","304.09999990463257","","49","","","3000","1","","","images/tutgreenplanet.jpg","images/tutalien1","images/tutalien2","null","images/tutalien2","images/t.png","NA","practice","null","","","",""
"d3-animate-choice","39","259605","0.0-39.0","2856","5009","11","Female","true","false","false","false","""event"",""trial"",""time""
""fullscreenenter"",""5"",""31372""
","
","
","""event"",""trial"",""time""
""fullscreenenter"",""5"",""31372""
","
","344.10000002384186","","49","","","3000","1","","","images/tutgreenplanet.jpg","images/tutalien1","images/tutalien2","null","images/tutalien2","images/t.png","NA","practice","null","","","",""
"d3-animate-choice","40","261891","0.0-40.0","2856","5009","11","Female","true","false","false","false","""event"",""trial"",""time""
""fullscreenenter"",""5"",""31372""
","
","
","""event"",""trial"",""time""
""fullscreenenter"",""5"",""31372""
","
","284","","49","","","3000","1","","","images/tutgreenplanet.jpg","images/tutalien1","images/tutalien2","null","images/tutalien2","images/nothing.png","NA","practice","null","","","",""
"d3-animate-choice","41","264282","0.0-41.0","2856","5009","11","Female","true","false","false","false","""event"",""trial"",""time""
""fullscreenenter"",""5"",""31372""
","
","
","""event"",""trial"",""time""
""fullscreenenter"",""5"",""31372""
","
","374.8000000715256","","49","","","3000","1","","","images/tutgreenplanet.jpg","images/tutalien1","images/tutalien2","null","images/tutalien2","images/t.png","NA","practice","null","","","",""
"d3-animate-choice","42","266731","0.0-42.0","2856","5009","11","Female","true","false","false","false","""event"",""trial"",""time""
""fullscreenenter"",""5"",""31372""
","
","
","""event"",""trial"",""time""
""fullscreenenter"",""5"",""31372""
","
","444.5","","49","","","3000","1","","","images/tutgreenplanet.jpg","images/tutalien1","images/tutalien2","null","images/tutalien2","images/t.png","NA","practice","null","","","",""
"d3-animate-choice","43","269043","0.0-43.0","2856","5009","11","Female","true","false","false","false","""event"",""trial"",""time""
""fullscreenenter"",""5"",""31372""
","
","
","""event"",""trial"",""time""
""fullscreenenter"",""5"",""31372""
","
","303","","49","","","3000","1","","","images/tutgreenplanet.jpg","images/tutalien1","images/tutalien2","null","images/tutalien2","images/t.png","NA","practice","null","","","",""
"d3-instructions","44","272096","0.0-44.0","2856","5009","11","Female","true","false","false","false","""event"",""trial"",""time""
""fullscreenenter"",""5"",""31372""
","
","
","""event"",""trial"",""time""
""fullscreenenter"",""5"",""31372""
","
","","","","","","","","","","","","","","","","","","","","","",""
"d3-instructions","45","276583","0.0-45.0","2856","5009","11","Female","true","false","false","false","""event"",""trial"",""time""
""fullscreenenter"",""5"",""31372""
","
","
","""event"",""trial"",""time""
""fullscreenenter"",""5"",""31372""
","
","","","","","","","","","","","","","","","","","","","","","",""
"d3-instructions","46","281676","0.0-46.0","2856","5009","11","Female","true","false","false","false","""event"",""trial"",""time""
""fullscreenenter"",""5"",""31372""
","
","
","""event"",""trial"",""time""
""fullscreenenter"",""5"",""31372""
","
","","","","","","","","","","","","","","","","","","","","","",""
"d3-instructions","47","299485","0.0-47.0","2856","5009","11","Female","true","false","false","false","""event"",""trial"",""time""
""fullscreenenter"",""5"",""31372""
","
","
","""event"",""trial"",""time""
""fullscreenenter"",""5"",""31372""
","
","","","","","","","","","","","","","","","","","","","","","",""
"d3-instructions","48","307957","0.0-48.0","2856","5009","11","Female","true","false","false","false","""event"",""trial"",""time""
""fullscreenenter"",""5"",""31372""
","
","
","""event"",""trial"",""time""
""fullscreenenter"",""5"",""31372""
","
","","","","","","","","","","","","","","","","","","","","","",""
"d3-instructions","49","322336","0.0-49.0","2856","5009","11","Female","true","false","false","false","""event"",""trial"",""time""
""fullscreenenter"",""5"",""31372""
","
","
","""event"",""trial"",""time""
""fullscreenenter"",""5"",""31372""
","
","","","","","","","","","","","","","","","","","","","","","",""
"d3-instructions","50","334338","0.0-50.0","2856","5009","11","Female","true","false","false","false","""event"",""trial"",""time""
""fullscreenenter"",""5"",""31372""
","
","
","""event"",""trial"",""time""
""fullscreenenter"",""5"",""31372""
","
","","","","","","","","","","","","","","","","","","","","","",""
"d3-instructions","51","339666","0.0-51.0","2856","5009","11","Female","true","false","false","false","""event"",""trial"",""time""
""fullscreenenter"",""5"",""31372""
","
","
","""event"",""trial"",""time""
""fullscreenenter"",""5"",""31372""
","
","","","","","","","","","","","","","","","","","","","","","",""
"d3-instructions","52","341966","0.0-52.0","2856","5009","11","Female","true","false","false","false","""event"",""trial"",""time""
""fullscreenenter"",""5"",""31372""
","
","
","""event"",""trial"",""time""
""fullscreenenter"",""5"",""31372""
","
","","","","","","","","","","","","","","","","","","","","","",""
"d3-instructions","53","353746","0.0-53.0","2856","5009","11","Female","true","false","false","false","""event"",""trial"",""time""
""fullscreenenter"",""5"",""31372""
","
","
","""event"",""trial"",""time""
""fullscreenenter"",""5"",""31372""
","
","","","","","","","","","","","","","","","","","","","","","",""
"d3-instructions","54","368513","0.0-54.0","2856","5009","11","Female","true","false","false","false","""event"",""trial"",""time""
""fullscreenenter"",""5"",""31372""
","
","
","""event"",""trial"",""time""
""fullscreenenter"",""5"",""31372""
","
","","","","","","","","","","","","","","","","","","","","","",""
"d3-instructions","55","379406","0.0-55.0","2856","5009","11","Female","true","false","false","false","""event"",""trial"",""time""
""fullscreenenter"",""5"",""31372""
","
","
","""event"",""trial"",""time""
""fullscreenenter"",""5"",""31372""
","
","","","","","","","","","","","","","","","","","","","","","",""
"d3-instructions","56","387969","0.0-56.0","2856","5009","11","Female","true","false","false","false","""event"",""trial"",""time""
""fullscreenenter"",""5"",""31372""
","
","
","""event"",""trial"",""time""
""fullscreenenter"",""5"",""31372""
","
","","","","","","","","","","","","","","","","","","","","","",""
"d3-instructions","57","483558","0.0-57.0","2856","5009","11","Female","true","false","false","false","""event"",""trial"",""time""
""fullscreenenter"",""5"",""31372""
","
","
","""event"",""trial"",""time""
""fullscreenenter"",""5"",""31372""
","
","","","","","","","","","","","","","","","","","","","","","",""
"d3-instructions","58","499379","0.0-58.0","2856","5009","11","Female","true","false","false","false","""event"",""trial"",""time""
""fullscreenenter"",""5"",""31372""
","
","
","""event"",""trial"",""time""
""fullscreenenter"",""5"",""31372""
","
","","","","","","","","","","","","","","","","","","","","","",""
"d3-instructions","59","505819","0.0-59.0","2856","5009","11","Female","true","false","false","false","""event"",""trial"",""time""
""fullscreenenter"",""5"",""31372""
","
","
","""event"",""trial"",""time""
""fullscreenenter"",""5"",""31372""
","
","","","","","","","","","","","","","","","","","","","","","",""
"d3-instructions","60","517940","0.0-60.0","2856","5009","11","Female","true","false","false","false","""event"",""trial"",""time""
""fullscreenenter"",""5"",""31372""
","
","
","""event"",""trial"",""time""
""fullscreenenter"",""5"",""31372""
","
","","","","","","","","","","","","","","","","","","","","","",""
"d3-animate-choice","61","521795","0.0-61.0-0.0","2856","5009","11","Female","true","false","false","false","""event"",""trial"",""time""
""fullscreenenter"",""5"",""31372""
","
","
","""event"",""trial"",""time""
""fullscreenenter"",""5"",""31372""
","
","1851.3999999761581","","49","","","3000","1","","","images/earth.jpg","images/tutrocket2","images/tutrocket1","null","images/tutrocket1","","1","practice","null","1","","",""
"d3-animate-choice","62","524967","0.0-61.0-1.0","2856","5009","11","Female","true","false","false","false","""event"",""trial"",""time""
""fullscreenenter"",""5"",""31372""
","
","
","""event"",""trial"",""time""
""fullscreenenter"",""5"",""31372""
","
","1163.8999999761581","","49","","","3000","1","","","images/tutyellowplanet.jpg","images/tutalien4","images/tutalien3","images/tutrocket1","images/tutalien3","images/nothing.png","2","practice","true","1","common","0","2022-12-06 15:20:05.263"
"two-step-fixation","63","525982","0.0-61.0-2.0","2856","5009","11","Female","true","false","false","false","""event"",""trial"",""time""
""fullscreenenter"",""5"",""31372""
","
","
","""event"",""trial"",""time""
""fullscreenenter"",""5"",""31372""
","
","","images/earth.jpg","","","","","","","","","","","","","","fixation","","","","","",""
"d3-animate-choice","64","528797","0.0-61.0-0.1","2856","5009","11","Female","true","false","false","false","""event"",""trial"",""time""
""fullscreenenter"",""5"",""31372""
","
","
","""event"",""trial"",""time""
""fullscreenenter"",""5"",""31372""
","
","805","","49","","","3000","1","","","images/earth.jpg","images/tutrocket2","images/tutrocket1","null","images/tutrocket1","","1","practice","null","1","","",""
"d3-animate-choice","65","531084","0.0-61.0-1.1","2856","5009","11","Female","true","false","false","false","""event"",""trial"",""time""
""fullscreenenter"",""5"",""31372""
","
","
","""event"",""trial"",""time""
""fullscreenenter"",""5"",""31372""
","
","275.7000000476837","","48","","","3000","1","","","images/tutyellowplanet.jpg","images/tutalien4","images/tutalien3","images/tutrocket1","images/tutalien4","images/t.png","2","practice","true","2","common","1","2022-12-06 15:20:11.380"
"two-step-fixation","66","532092","0.0-61.0-2.1","2856","5009","11","Female","true","false","false","false","""event"",""trial"",""time""
""fullscreenenter"",""5"",""31372""
","
","
","""event"",""trial"",""time""
""fullscreenenter"",""5"",""31372""
","
","","images/earth.jpg","","","","","","","","","","","","","","fixation","","","","","",""
"d3-animate-choice","67","534412","0.0-61.0-0.2","2856","5009","11","Female","true","false","false","false","""event"",""trial"",""time""
""fullscreenenter"",""5"",""31372""
","
","
","""event"",""trial"",""time""
""fullscreenenter"",""5"",""31372""
","
","314.39999997615814","","49","","","3000","1","","","images/earth.jpg","images/tutrocket2","images/tutrocket1","null","images/tutrocket1","","1","practice","null","1","","",""
"d3-animate-choice","68","536647","0.0-61.0-1.2","2856","5009","11","Female","true","false","false","false","""event"",""trial"",""time""
""fullscreenenter"",""5"",""31372""
","
","
","""event"",""trial"",""time""
""fullscreenenter"",""5"",""31372""
","
","226.10000002384186","","48","","","3000","1","","","images/tutyellowplanet.jpg","images/tutalien4","images/tutalien3","images/tutrocket1","images/tutalien4","images/t.png","2","practice","true","2","common","1","2022-12-06 15:20:16.943"
"two-step-fixation","69","537664","0.0-61.0-2.2","2856","5009","11","Female","true","false","false","false","""event"",""trial"",""time""
""fullscreenenter"",""5"",""31372""
","
","
","""event"",""trial"",""time""
""fullscreenenter"",""5"",""31372""
","
","","images/earth.jpg","","","","","","","","","","","","","","fixation","","","","","",""
"d3-animate-choice","70","540036","0.0-61.0-0.3","2856","5009","11","Female","true","false","false","false","""event"",""trial"",""time""
""fullscreenenter"",""5"",""31372""
","
","
","""event"",""trial"",""time""
""fullscreenenter"",""5"",""31372""
","
","362.6999999284744","","49","","","3000","1","","","images/earth.jpg","images/tutrocket2","images/tutrocket1","null","images/tutrocket1","","1","practice","null","1","","",""
"d3-animate-choice","71","542476","0.0-61.0-1.3","2856","5009","11","Female","true","false","false","false","""event"",""trial"",""time""
""fullscreenenter"",""5"",""31372""
","
","
","""event"",""trial"",""time""
""fullscreenenter"",""5"",""31372""
","
","435.7000000476837","","48","","","3000","1","","","images/tutyellowplanet.jpg","images/tutalien4","images/tutalien3","images/tutrocket1","images/tutalien4","images/t.png","2","practice","true","2","common","1","2022-12-06 15:20:22.772"
"two-step-fixation","72","543483","0.0-61.0-2.3","2856","5009","11","Female","true","false","false","false","""event"",""trial"",""time""
""fullscreenenter"",""5"",""31372""
","
","
","""event"",""trial"",""time""
""fullscreenenter"",""5"",""31372""
","
","","images/earth.jpg","","","","","","","","","","","","","","fixation","","","","","",""
"d3-animate-choice","73","545844","0.0-61.0-0.4","2856","5009","11","Female","true","false","false","false","""event"",""trial"",""time""
""fullscreenenter"",""5"",""31372""
","
","
","""event"",""trial"",""time""
""fullscreenenter"",""5"",""31372""
","
","357.2000000476837","","49","","","3000","1","","","images/earth.jpg","images/tutrocket2","images/tutrocket1","null","images/tutrocket1","","1","practice","null","1","","",""
"d3-animate-choice","74","548316","0.0-61.0-1.4","2856","5009","11","Female","true","false","false","false","""event"",""trial"",""time""
""fullscreenenter"",""5"",""31372""
","
","
","""event"",""trial"",""time""
""fullscreenenter"",""5"",""31372""
","
","464.2999999523163","","48","","","3000","1","","","images/tutyellowplanet.jpg","images/tutalien4","images/tutalien3","images/tutrocket1","images/tutalien4","images/t.png","2","practice","true","2","common","1","2022-12-06 15:20:28.612"
"two-step-fixation","75","549325","0.0-61.0-2.4","2856","5009","11","Female","true","false","false","false","""event"",""trial"",""time""
""fullscreenenter"",""5"",""31372""
","
","
","""event"",""trial"",""time""
""fullscreenenter"",""5"",""31372""
","
","","images/earth.jpg","","","","","","","","","","","","","","fixation","","","","","",""
"d3-animate-choice","76","551636","0.0-61.0-0.5","2856","5009","11","Female","true","false","false","false","""event"",""trial"",""time""
""fullscreenenter"",""5"",""31372""
","
","
","""event"",""trial"",""time""
""fullscreenenter"",""5"",""31372""
","
","300.10000002384186","","49","","","3000","1","","","images/earth.jpg","images/tutrocket2","images/tutrocket1","null","images/tutrocket1","","1","practice","null","1","","",""
"d3-animate-choice","77","553931","0.0-61.0-1.5","2856","5009","11","Female","true","false","false","false","""event"",""trial"",""time""
""fullscreenenter"",""5"",""31372""
","
","
","""event"",""trial"",""time""
""fullscreenenter"",""5"",""31372""
","
","289.5","","48","","","3000","1","","","images/tutyellowplanet.jpg","images/tutalien4","images/tutalien3","images/tutrocket1","images/tutalien4","images/nothing.png","2","practice","true","2","common","0","2022-12-06 15:20:34.227"
"two-step-fixation","78","554940","0.0-61.0-2.5","2856","5009","11","Female","true","false","false","false","""event"",""trial"",""time""
""fullscreenenter"",""5"",""31372""
","
","
","""event"",""trial"",""time""
""fullscreenenter"",""5"",""31372""
","
","","images/earth.jpg","","","","","","","","","","","","","","fixation","","","","","",""
"d3-animate-choice","79","557259","0.0-61.0-0.6","2856","5009","11","Female","true","false","false","false","""event"",""trial"",""time""
""fullscreenenter"",""5"",""31372""
","
","
","""event"",""trial"",""time""
""fullscreenenter"",""5"",""31372""
","
","313.09999990463257","","49","","","3000","1","","","images/earth.jpg","images/tutrocket2","images/tutrocket1","null","images/tutrocket1","","1","practice","null","1","","",""
"d3-animate-choice","80","559556","0.0-61.0-1.6","2856","5009","11","Female","true","false","false","false","""event"",""trial"",""time""
""fullscreenenter"",""5"",""31372""
","
","
","""event"",""trial"",""time""
""fullscreenenter"",""5"",""31372""
","
","289.5","","48","","","3000","1","","","images/tutyellowplanet.jpg","images/tutalien4","images/tutalien3","images/tutrocket1","images/tutalien4","images/t.png","2","practice","true","2","common","1","2022-12-06 15:20:39.852"
"two-step-fixation","81","560563","0.0-61.0-2.6","2856","5009","11","Female","true","false","false","false","""event"",""trial"",""time""
""fullscreenenter"",""5"",""31372""
","
","
","""event"",""trial"",""time""
""fullscreenenter"",""5"",""31372""
","
","","images/earth.jpg","","","","","","","","","","","","","","fixation","","","","","",""
"d3-animate-choice","82","562867","0.0-61.0-0.7","2856","5009","11","Female","true","false","false","false","""event"",""trial"",""time""
""fullscreenenter"",""5"",""31372""
","
","
","""event"",""trial"",""time""
""fullscreenenter"",""5"",""31372""
","
","295.1999999284744","","49","","","3000","1","","","images/earth.jpg","images/tutrocket2","images/tutrocket1","null","images/tutrocket1","","1","practice","null","1","","",""
"d3-animate-choice","83","565396","0.0-61.0-1.7","2856","5009","11","Female","true","false","false","false","""event"",""trial"",""time""
""fullscreenenter"",""5"",""31372""
","
","
","""event"",""trial"",""time""
""fullscreenenter"",""5"",""31372""
","
","523.8999999761581","","48","","","3000","1","","","images/tutyellowplanet.jpg","images/tutalien4","images/tutalien3","images/tutrocket1","images/tutalien4","images/nothing.png","2","practice","true","2","common","0","2022-12-06 15:20:45.692"
"two-step-fixation","84","566404","0.0-61.0-2.7","2856","5009","11","Female","true","false","false","false","""event"",""trial"",""time""
""fullscreenenter"",""5"",""31372""
","
","
","""event"",""trial"",""time""
""fullscreenenter"",""5"",""31372""
","
","","images/earth.jpg","","","","","","","","","","","","","","fixation","","","","","",""
"d3-animate-choice","85","568707","0.0-61.0-0.8","2856","5009","11","Female","true","false","false","false","""event"",""trial"",""time""
""fullscreenenter"",""5"",""31372""
","
","
","""event"",""trial"",""time""
""fullscreenenter"",""5"",""31372""
","
","300.2000000476837","","48","","","3000","1","","","images/earth.jpg","images/tutrocket2","images/tutrocket1","null","images/tutrocket2","","1","practice","null","2","","",""
"d3-animate-choice","86","571092","0.0-61.0-1.8","2856","5009","11","Female","true","false","false","false","""event"",""trial"",""time""
""fullscreenenter"",""5"",""31372""
","
","
","""event"",""trial"",""time""
""fullscreenenter"",""5"",""31372""
","
","374.7000000476837","","49","","","3000","1","","","images/tutgreenplanet.jpg","images/tutalien2","images/tutalien1","images/tutrocket2","images/tutalien1","images/nothing.png","2","practice","true","1","common","0","2022-12-06 15:20:51.388"
"two-step-fixation","87","572100","0.0-61.0-2.8","2856","5009","11","Female","true","false","false","false","""event"",""trial"",""time""
""fullscreenenter"",""5"",""31372""
","
","
","""event"",""trial"",""time""
""fullscreenenter"",""5"",""31372""
","
","","images/earth.jpg","","","","","","","","","","","","","","fixation","","","","","",""
"d3-animate-choice","88","574381","0.0-61.0-0.9","2856","5009","11","Female","true","false","false","false","""event"",""trial"",""time""
""fullscreenenter"",""5"",""31372""
","
","
","""event"",""trial"",""time""
""fullscreenenter"",""5"",""31372""
","
","272.39999997615814","","48","","","3000","1","","","images/earth.jpg","images/tutrocket2","images/tutrocket1","null","images/tutrocket2","","1","practice","null","2","","",""
"d3-animate-choice","89","576792","0.0-61.0-1.9","2856","5009","11","Female","true","false","false","false","""event"",""trial"",""time""
""fullscreenenter"",""5"",""31372""
","
","
","""event"",""trial"",""time""
""fullscreenenter"",""5"",""31372""
","
","402.39999997615814","","48","","","3000","1","","","images/tutgreenplanet.jpg","images/tutalien2","images/tutalien1","images/tutrocket2","images/tutalien2","images/t.png","2","practice","true","2","common","1","2022-12-06 15:20:57.088"
"two-step-fixation","90","577797","0.0-61.0-2.9","2856","5009","11","Female","true","false","false","false","""event"",""trial"",""time""
""fullscreenenter"",""5"",""31372""
","
","
","""event"",""trial"",""time""
""fullscreenenter"",""5"",""31372""
","
","","images/earth.jpg","","","","","","","","","","","","","","fixation","","","","","",""
"d3-animate-choice","91","580067","0.0-61.0-0.10","2856","5009","11","Female","true","false","false","false","""event"",""trial"",""time""
""fullscreenenter"",""5"",""31372""
","
","
","""event"",""trial"",""time""
""fullscreenenter"",""5"",""31372""
","
","263.10000002384186","","48","","","3000","1","","","images/earth.jpg","images/tutrocket2","images/tutrocket1","null","images/tutrocket2","","1","practice","null","2","","",""
"d3-animate-choice","92","582539","0.0-61.0-1.10","2856","5009","11","Female","true","false","false","false","""event"",""trial"",""time""
""fullscreenenter"",""5"",""31372""
","
","
","""event"",""trial"",""time""
""fullscreenenter"",""5"",""31372""
","
","469.39999997615814","","48","","","3000","1","","","images/tutgreenplanet.jpg","images/tutalien2","images/tutalien1","images/tutrocket2","images/tutalien2","images/nothing.png","2","practice","true","2","common","0","2022-12-06 15:21:02.835"
"two-step-fixation","93","583548","0.0-61.0-2.10","2856","5009","11","Female","true","false","false","false","""event"",""trial"",""time""
""fullscreenenter"",""5"",""31372""
","
","
","""event"",""trial"",""time""
""fullscreenenter"",""5"",""31372""
","
","","images/earth.jpg","","","","","","","","","","","","","","fixation","","","","","",""
"d3-animate-choice","94","585780","0.0-61.0-0.11","2856","5009","11","Female","true","false","false","false","""event"",""trial"",""time""
""fullscreenenter"",""5"",""31372""
","
","
","""event"",""trial"",""time""
""fullscreenenter"",""5"",""31372""
","
","223.60000002384186","","48","","","3000","1","","","images/earth.jpg","images/tutrocket2","images/tutrocket1","null","images/tutrocket2","","1","practice","null","2","","",""
"d3-animate-choice","95","588188","0.0-61.0-1.11","2856","5009","11","Female","true","false","false","false","""event"",""trial"",""time""
""fullscreenenter"",""5"",""31372""
","
","
","""event"",""trial"",""time""
""fullscreenenter"",""5"",""31372""
","
","400.5","","48","","","3000","1","","","images/tutyellowplanet.jpg","images/tutalien4","images/tutalien3","images/tutrocket2","images/tutalien4","images/nothing.png","2","practice","false","2","rare","0","2022-12-06 15:21:08.484"
"two-step-fixation","96","589195","0.0-61.0-2.11","2856","5009","11","Female","true","false","false","false","""event"",""trial"",""time""
""fullscreenenter"",""5"",""31372""
","
","
","""event"",""trial"",""time""
""fullscreenenter"",""5"",""31372""
","
","","images/earth.jpg","","","","","","","","","","","","","","fixation","","","","","",""
"d3-animate-choice","97","591511","0.0-61.0-0.12","2856","5009","11","Female","true","false","false","false","""event"",""trial"",""time""
""fullscreenenter"",""5"",""31372""
","
","
","""event"",""trial"",""time""
""fullscreenenter"",""5"",""31372""
","
","309.1999999284744","","49","","","3000","1","","","images/earth.jpg","images/tutrocket2","images/tutrocket1","null","images/tutrocket1","","1","practice","null","1","","",""
"d3-animate-choice","98","593812","0.0-61.0-1.12","2856","5009","11","Female","true","false","false","false","""event"",""trial"",""time""
""fullscreenenter"",""5"",""31372""
","
","
","""event"",""trial"",""time""
""fullscreenenter"",""5"",""31372""
","
","291.2999999523163","","49","","","3000","1","","","images/tutyellowplanet.jpg","images/tutalien4","images/tutalien3","images/tutrocket1","images/tutalien3","images/nothing.png","2","practice","true","1","common","0","2022-12-06 15:21:14.108"
"two-step-fixation","99","594832","0.0-61.0-2.12","2856","5009","11","Female","true","false","false","false","""event"",""trial"",""time""
""fullscreenenter"",""5"",""31372""
","
","
","""event"",""trial"",""time""
""fullscreenenter"",""5"",""31372""
","
","","images/earth.jpg","","","","","","","","","","","","","","fixation","","","","","",""
"d3-animate-choice","100","597171","0.0-61.0-0.13","2856","5009","11","Female","true","false","false","false","""event"",""trial"",""time""
""fullscreenenter"",""5"",""31372""
","
","
","""event"",""trial"",""time""
""fullscreenenter"",""5"",""31372""
","
","333","","49","","","3000","1","","","images/earth.jpg","images/tutrocket2","images/tutrocket1","null","images/tutrocket1","","1","practice","null","1","","",""
"d3-animate-choice","101","599435","0.0-61.0-1.13","2856","5009","11","Female","true","false","false","false","""event"",""trial"",""time""
""fullscreenenter"",""5"",""31372""
","
","
","""event"",""trial"",""time""
""fullscreenenter"",""5"",""31372""
","
","260.10000002384186","","48","","","3000","1","","","images/tutyellowplanet.jpg","images/tutalien4","images/tutalien3","images/tutrocket1","images/tutalien4","images/t.png","2","practice","true","2","common","1","2022-12-06 15:21:19.731"
"two-step-fixation","102","600444","0.0-61.0-2.13","2856","5009","11","Female","true","false","false","false","""event"",""trial"",""time""
""fullscreenenter"",""5"",""31372""
","
","
","""event"",""trial"",""time""
""fullscreenenter"",""5"",""31372""
","
","","images/earth.jpg","","","","","","","","","","","","","","fixation","","","","","",""
"d3-animate-choice","103","602708","0.0-61.0-0.14","2856","5009","11","Female","true","false","false","false","""event"",""trial"",""time""
""fullscreenenter"",""5"",""31372""
","
","
","""event"",""trial"",""time""
""fullscreenenter"",""5"",""31372""
","
","255","","49","","","3000","1","","","images/earth.jpg","images/tutrocket2","images/tutrocket1","null","images/tutrocket1","","1","practice","null","1","","",""
"d3-animate-choice","104","604955","0.0-61.0-1.14","2856","5009","11","Female","true","false","false","false","""event"",""trial"",""time""
""fullscreenenter"",""5"",""31372""
","
","
","""event"",""trial"",""time""
""fullscreenenter"",""5"",""31372""
","
","241.09999990463257","","48","","","3000","1","","","images/tutyellowplanet.jpg","images/tutalien4","images/tutalien3","images/tutrocket1","images/tutalien4","images/t.png","2","practice","true","2","common","1","2022-12-06 15:21:25.251"
"two-step-fixation","105","605964","0.0-61.0-2.14","2856","5009","11","Female","true","false","false","false","""event"",""trial"",""time""
""fullscreenenter"",""5"",""31372""
","
","
","""event"",""trial"",""time""
""fullscreenenter"",""5"",""31372""
","
","","images/earth.jpg","","","","","","","","","","","","","","fixation","","","","","",""
"d3-animate-choice","106","608270","0.0-61.0-0.15","2856","5009","11","Female","true","false","false","false","""event"",""trial"",""time""
""fullscreenenter"",""5"",""31372""
","
","
","""event"",""trial"",""time""
""fullscreenenter"",""5"",""31372""
","
","293.09999990463257","","49","","","3000","1","","","images/earth.jpg","images/tutrocket2","images/tutrocket1","null","images/tutrocket1","","1","practice","null","1","","",""
"d3-animate-choice","107","610501","0.0-61.0-1.15","2856","5009","11","Female","true","false","false","false","""event"",""trial"",""time""
""fullscreenenter"",""5"",""31372""
","
","
","""event"",""trial"",""time""
""fullscreenenter"",""5"",""31372""
","
","219.09999990463257","","48","","","3000","1","","","images/tutgreenplanet.jpg","images/tutalien2","images/tutalien1","images/tutrocket1","images/tutalien2","images/nothing.png","2","practice","false","2","rare","0","2022-12-06 15:21:30.797"
"two-step-fixation","108","611512","0.0-61.0-2.15","2856","5009","11","Female","true","false","false","false","""event"",""trial"",""time""
""fullscreenenter"",""5"",""31372""
","
","
","""event"",""trial"",""time""
""fullscreenenter"",""5"",""31372""
","
","","images/earth.jpg","","","","","","","","","","","","","","fixation","","","","","",""
"d3-animate-choice","109","613875","0.0-61.0-0.16","2856","5009","11","Female","true","false","false","false","""event"",""trial"",""time""
""fullscreenenter"",""5"",""31372""
","
","
","""event"",""trial"",""time""
""fullscreenenter"",""5"",""31372""
","
","357.7000000476837","","48","","","3000","1","","","images/earth.jpg","images/tutrocket2","images/tutrocket1","null","images/tutrocket2","","1","practice","null","2","","",""
"d3-animate-choice","110","616116","0.0-61.0-1.16","2856","5009","11","Female","true","false","false","false","""event"",""trial"",""time""
""fullscreenenter"",""5"",""31372""
","
","
","""event"",""trial"",""time""
""fullscreenenter"",""5"",""31372""
","
","230.79999995231628","","48","","","3000","1","","","images/tutyellowplanet.jpg","images/tutalien4","images/tutalien3","images/tutrocket2","images/tutalien4","images/t.png","2","practice","false","2","rare","1","2022-12-06 15:21:36.412"
"two-step-fixation","111","617123","0.0-61.0-2.16","2856","5009","11","Female","true","false","false","false","""event"",""trial"",""time""
""fullscreenenter"",""5"",""31372""
","
","
","""event"",""trial"",""time""
""fullscreenenter"",""5"",""31372""
","
","","images/earth.jpg","","","","","","","","","","","","","","fixation","","","","","",""
"d3-animate-choice","112","619383","0.0-61.0-0.17","2856","5009","11","Female","true","false","false","false","""event"",""trial"",""time""
""fullscreenenter"",""5"",""31372""
","
","
","""event"",""trial"",""time""
""fullscreenenter"",""5"",""31372""
","
","253.89999997615814","","48","","","3000","1","","","images/earth.jpg","images/tutrocket2","images/tutrocket1","null","images/tutrocket2","","1","practice","null","2","","",""
"d3-animate-choice","113","621772","0.0-61.0-1.17","2856","5009","11","Female","true","false","false","false","""event"",""trial"",""time""
""fullscreenenter"",""5"",""31372""
","
","
","""event"",""trial"",""time""
""fullscreenenter"",""5"",""31372""
","
","381.89999997615814","","48","","","3000","1","","","images/tutgreenplanet.jpg","images/tutalien2","images/tutalien1","images/tutrocket2","images/tutalien2","images/nothing.png","2","practice","true","2","common","0","2022-12-06 15:21:42.068"
"two-step-fixation","114","622780","0.0-61.0-2.17","2856","5009","11","Female","true","false","false","false","""event"",""trial"",""time""
""fullscreenenter"",""5"",""31372""
","
","
","""event"",""trial"",""time""
""fullscreenenter"",""5"",""31372""
","
","","images/earth.jpg","","","","","","","","","","","","","","fixation","","","","","",""
"d3-animate-choice","115","625530","0.0-61.0-0.18","2856","5009","11","Female","true","false","false","false","""event"",""trial"",""time""
""fullscreenenter"",""5"",""31372""
","
","
","""event"",""trial"",""time""
""fullscreenenter"",""5"",""31372""
","
","746.5","","48","","","3000","1","","","images/earth.jpg","images/tutrocket2","images/tutrocket1","null","images/tutrocket2","","1","practice","null","2","","",""
"d3-animate-choice","116","628140","0.0-61.0-1.18","2856","5009","11","Female","true","false","false","false","""event"",""trial"",""time""
""fullscreenenter"",""5"",""31372""
","
","
","""event"",""trial"",""time""
""fullscreenenter"",""5"",""31372""
","
","600.6999999284744","","48","","","3000","1","","","images/tutgreenplanet.jpg","images/tutalien2","images/tutalien1","images/tutrocket2","images/tutalien2","images/nothing.png","2","practice","true","2","common","0","2022-12-06 15:21:48.436"
"two-step-fixation","117","629147","0.0-61.0-2.18","2856","5009","11","Female","true","false","false","false","""event"",""trial"",""time""
""fullscreenenter"",""5"",""31372""
","
","
","""event"",""trial"",""time""
""fullscreenenter"",""5"",""31372""
","
","","images/earth.jpg","","","","","","","","","","","","","","fixation","","","","","",""
"d3-animate-choice","118","631403","0.0-61.0-0.19","2856","5009","11","Female","true","false","false","false","""event"",""trial"",""time""
""fullscreenenter"",""5"",""31372""
","
","
","""event"",""trial"",""time""
""fullscreenenter"",""5"",""31372""
","
","250.40000009536743","","49","","","3000","1","","","images/earth.jpg","images/tutrocket2","images/tutrocket1","null","images/tutrocket1","","1","practice","null","1","","",""
"d3-animate-choice","119","634671","0.0-61.0-1.19","2856","5009","11","Female","true","false","false","false","""event"",""trial"",""time""
""fullscreenenter"",""5"",""31372""
","
","
","""event"",""trial"",""time""
""fullscreenenter"",""5"",""31372""
","
","1248.7000000476837","","49","","","3000","1","","","images/tutyellowplanet.jpg","images/tutalien4","images/tutalien3","images/tutrocket1","images/tutalien3","images/nothing.png","2","practice","true","1","common","0","2022-12-06 15:21:54.967"
"two-step-fixation","120","635676","0.0-61.0-2.19","2856","5009","11","Female","true","false","false","false","""event"",""trial"",""time""
""fullscreenenter"",""5"",""31372""
","
","
","""event"",""trial"",""time""
""fullscreenenter"",""5"",""31372""
","
","","images/earth.jpg","","","","","","","","","","","","","","fixation","","","","","",""
"d3-instructions","121","638229","0.0-62.0","2856","5009","11","Female","true","false","false","false","""event"",""trial"",""time""
""fullscreenenter"",""5"",""31372""
","
","
","""event"",""trial"",""time""
""fullscreenenter"",""5"",""31372""
","
","","","","","","","","","","","","","","","","","","","","","",""
"audio-keyboard-response","122","640594","0.0-63.0","2856","5009","11","Female","true","false","false","false","""event"",""trial"",""time""
""fullscreenenter"",""5"",""31372""
","
","
","""event"",""trial"",""time""
""fullscreenenter"",""5"",""31372""
","
","2360","audio/instructions/treasure_feedback.wav","66","","","","","","","","","","","","","","","","","","",""
"d3-instructions","123","678527","0.0-64.0","2856","5009","11","Female","true","false","false","false","""event"",""trial"",""time""
""fullscreenenter"",""5"",""31372""
","
","
","""event"",""trial"",""time""
""fullscreenenter"",""5"",""31372""
","
","","","","","","","","","","","","","","","","","","","","","",""
"d3-instructions","124","693738","0.0-65.0","2856","5009","11","Female","true","false","false","false","""event"",""trial"",""time""
""fullscreenenter"",""5"",""31372""
","
","
","""event"",""trial"",""time""
""fullscreenenter"",""5"",""31372""
","
","","","","","","","","","","","","","","","","","","","","","",""
"d3-instructions","125","721835","0.0-66.0","2856","5009","11","Female","true","false","false","false","""event"",""trial"",""time""
""fullscreenenter"",""5"",""31372""
","
","
","""event"",""trial"",""time""
""fullscreenenter"",""5"",""31372""
","
","","","","","","","","","","","","","","","","","","","","","",""
"d3-instructions","126","739181","0.0-67.0","2856","5009","11","Female","true","false","false","false","""event"",""trial"",""time""
""fullscreenenter"",""5"",""31372""
","
","
","""event"",""trial"",""time""
""fullscreenenter"",""5"",""31372""
","
","","","","","","","","","","","","","","","","","","","","","",""
"d3-instructions","127","749932","0.0-68.0","2856","5009","11","Female","true","false","false","false","""event"",""trial"",""time""
""fullscreenenter"",""5"",""31372""
","
","
","""event"",""trial"",""time""
""fullscreenenter"",""5"",""31372""
","
","","","","","","","","","","","","","","","","","","","","","",""
"instructions-quiz","128","754676","0.0-69.0","2856","5009","11","Female","true","false","false","false","""event"",""trial"",""time""
""fullscreenenter"",""5"",""31372""
","
","
","""event"",""trial"",""time""
""fullscreenenter"",""5"",""31372""
","
","4741.5","audio/quiz/Q1_Prompt.wav","","0","","","","","","","","","","","","","","","","","",""
"audio-keyboard-response","129","764947","0.0-70.0","2856","5009","11","Female","true","false","false","false","""event"",""trial"",""time""
""fullscreenenter"",""5"",""31372""
","
","
","""event"",""trial"",""time""
""fullscreenenter"",""5"",""31372""
","
","null","audio/quiz/Q1_Incorrect.wav","null","","","","","","","","","","","","","","","","","","",""
"instructions-quiz","130","767117","0.0-71.0","2856","5009","11","Female","true","false","false","false","""event"",""trial"",""time""
""fullscreenenter"",""5"",""31372""
","
","
","""event"",""trial"",""time""
""fullscreenenter"",""5"",""31372""
","
","2168.5999999046326","audio/quiz/Q2_Prompt.wav","","0","","","","","","","","","","","","","","","","","",""
"audio-keyboard-response","131","779986","0.0-72.0","2856","5009","11","Female","true","false","false","false","""event"",""trial"",""time""
""fullscreenenter"",""5"",""31372""
","
","
","""event"",""trial"",""time""
""fullscreenenter"",""5"",""31372""
","
","null","audio/quiz/Q2_Correct.wav","null","","","","","","","","","","","","","","","","","","",""
"instructions-quiz","132","784377","0.0-73.0","2856","5009","11","Female","true","false","false","false","""event"",""trial"",""time""
""fullscreenenter"",""5"",""31372""
","
","
","""event"",""trial"",""time""
""fullscreenenter"",""5"",""31372""
","
","4389.399999976158","audio/quiz/Q3_Prompt.wav","","1","","","","","","","","","","","","","","","","","",""
"audio-keyboard-response","133","790177","0.0-74.0","2856","5009","11","Female","true","false","false","false","""event"",""trial"",""time""
""fullscreenenter"",""5"",""31372""
","
","
","""event"",""trial"",""time""
""fullscreenenter"",""5"",""31372""
","
","null","audio/quiz/Q3_Correct.wav","null","","","","","","","","","","","","","","","","","","",""
"d3-instructions","134","794589","0.0-75.0","2856","5009","11","Female","true","false","false","false","""event"",""trial"",""time""
""fullscreenenter"",""5"",""31372""
","
","
","""event"",""trial"",""time""
""fullscreenenter"",""5"",""31372""
","
","","","","","","","","","","","","","","","","","","","","","",""
"d3-animate-choice","135","798459","0.0-76.0-0.0","2856","5009","11","Female","true","false","false","false","""event"",""trial"",""time""
""fullscreenenter"",""5"",""31372""
","
","
","""event"",""trial"",""time""
""fullscreenenter"",""5"",""31372""
","
","1866.9000000953674","","49","","","3000","1","","","images/earth.jpg","images/rocket2","images/rocket1","null","images/rocket1","","1","real","null","1","","",""
"d3-animate-choice","136","800828","0.0-76.0-1.0","2856","5009","11","Female","true","false","false","false","""event"",""trial"",""time""
""fullscreenenter"",""5"",""31372""
","
","
","""event"",""trial"",""time""
""fullscreenenter"",""5"",""31372""
","
","357.90000009536743","","49","","","3000","1","","","images/redplanet1.jpg","images/alien2","images/alien1","images/rocket1","images/alien1","images/nothing.png","2","real","false","1","rare","0","2022-12-06 15:24:41.124"
"two-step-fixation","137","801836","0.0-76.0-2.0","2856","5009","11","Female","true","false","false","false","""event"",""trial"",""time""
""fullscreenenter"",""5"",""31372""
","
","
","""event"",""trial"",""time""
""fullscreenenter"",""5"",""31372""
","
","","images/earth.jpg","","","","","","","","","","","","","","fixation","","","","","",""
"d3-animate-choice","138","804115","0.0-76.0-0.1","2856","5009","11","Female","true","false","false","false","""event"",""trial"",""time""
""fullscreenenter"",""5"",""31372""
","
","
","""event"",""trial"",""time""
""fullscreenenter"",""5"",""31372""
","
","269.3000000715256","","49","","","3000","1","","","images/earth.jpg","images/rocket2","images/rocket1","null","images/rocket1","","1","real","null","1","","",""
"d3-animate-choice","139","806419","0.0-76.0-1.1","2856","5009","11","Female","true","false","false","false","""event"",""trial"",""time""
""fullscreenenter"",""5"",""31372""
","
","
","""event"",""trial"",""time""
""fullscreenenter"",""5"",""31372""
","
","294.7000000476837","","48","","","3000","1","","","images/purpleplanet.jpg","images/alien4","images/alien3","images/rocket1","images/alien4","images/t.png","2","real","true","2","common","1","2022-12-06 15:24:46.715"
"two-step-fixation","140","807428","0.0-76.0-2.1","2856","5009","11","Female","true","false","false","false","""event"",""trial"",""time""
""fullscreenenter"",""5"",""31372""
","
","
","""event"",""trial"",""time""
""fullscreenenter"",""5"",""31372""
","
","","images/earth.jpg","","","","","","","","","","","","","","fixation","","","","","",""
"d3-animate-choice","141","809883","0.0-76.0-0.2","2856","5009","11","Female","true","false","false","false","""event"",""trial"",""time""
""fullscreenenter"",""5"",""31372""
","
","
","""event"",""trial"",""time""
""fullscreenenter"",""5"",""31372""
","
","444.90000009536743","","49","","","3000","1","","","images/earth.jpg","images/rocket2","images/rocket1","null","images/rocket1","","1","real","null","1","","",""
"d3-animate-choice","142","812115","0.0-76.0-1.2","2856","5009","11","Female","true","false","false","false","""event"",""trial"",""time""
""fullscreenenter"",""5"",""31372""
","
","
","""event"",""trial"",""time""
""fullscreenenter"",""5"",""31372""
","
","226.39999997615814","","48","","","3000","1","","","images/purpleplanet.jpg","images/alien4","images/alien3","images/rocket1","images/alien4","images/t.png","2","real","true","2","common","1","2022-12-06 15:24:52.411"
"two-step-fixation","143","813123","0.0-76.0-2.2","2856","5009","11","Female","true","false","false","false","""event"",""trial"",""time""
""fullscreenenter"",""5"",""31372""
","
","
","""event"",""trial"",""time""
""fullscreenenter"",""5"",""31372""
","
","","images/earth.jpg","","","","","","","","","","","","","","fixation","","","","","",""
"d3-animate-choice","144","815420","0.0-76.0-0.3","2856","5009","11","Female","true","false","false","false","""event"",""trial"",""time""
""fullscreenenter"",""5"",""31372""
","
","
","""event"",""trial"",""time""
""fullscreenenter"",""5"",""31372""
","
","285.89999997615814","","49","","","3000","1","","","images/earth.jpg","images/rocket2","images/rocket1","null","images/rocket1","","1","real","null","1","","",""
"d3-animate-choice","145","817883","0.0-76.0-1.3","2856","5009","11","Female","true","false","false","false","""event"",""trial"",""time""
""fullscreenenter"",""5"",""31372""
","
","
","""event"",""trial"",""time""
""fullscreenenter"",""5"",""31372""
","
","460.60000002384186","","48","","","3000","1","","","images/purpleplanet.jpg","images/alien4","images/alien3","images/rocket1","images/alien4","images/t.png","2","real","true","2","common","1","2022-12-06 15:24:58.179"
"two-step-fixation","146","818887","0.0-76.0-2.3","2856","5009","11","Female","true","false","false","false","""event"",""trial"",""time""
""fullscreenenter"",""5"",""31372""
","
","
","""event"",""trial"",""time""
""fullscreenenter"",""5"",""31372""
","
","","images/earth.jpg","","","","","","","","","","","","","","fixation","","","","","",""
"d3-animate-choice","147","821186","0.0-76.0-0.4","2856","5009","11","Female","true","false","false","false","""event"",""trial"",""time""
""fullscreenenter"",""5"",""31372""
","
","
","""event"",""trial"",""time""
""fullscreenenter"",""5"",""31372""
","
","290.7000000476837","","49","","","3000","1","","","images/earth.jpg","images/rocket2","images/rocket1","null","images/rocket1","","1","real","null","1","","",""
"d3-animate-choice","148","823532","0.0-76.0-1.4","2856","5009","11","Female","true","false","false","false","""event"",""trial"",""time""
""fullscreenenter"",""5"",""31372""
","
","
","""event"",""trial"",""time""
""fullscreenenter"",""5"",""31372""
","
","335.59999990463257","","48","","","3000","1","","","images/redplanet1.jpg","images/alien2","images/alien1","images/rocket1","images/alien2","images/t.png","2","real","false","2","rare","1","2022-12-06 15:25:03.828"
"two-step-fixation","149","824536","0.0-76.0-2.4","2856","5009","11","Female","true","false","false","false","""event"",""trial"",""time""
""fullscreenenter"",""5"",""31372""
","
","
","""event"",""trial"",""time""
""fullscreenenter"",""5"",""31372""
","
","","images/earth.jpg","","","","","","","","","","","","","","fixation","","","","","",""
"d3-animate-choice","150","826940","0.0-76.0-0.5","2856","5009","11","Female","true","false","false","false","""event"",""trial"",""time""
""fullscreenenter"",""5"",""31372""
","
","
","""event"",""trial"",""time""
""fullscreenenter"",""5"",""31372""
","
","399.89999997615814","","49","","","3000","1","","","images/earth.jpg","images/rocket2","images/rocket1","null","images/rocket1","","1","real","null","1","","",""
"d3-animate-choice","151","829220","0.0-76.0-1.5","2856","5009","11","Female","true","false","false","false","""event"",""trial"",""time""
""fullscreenenter"",""5"",""31372""
","
","
","""event"",""trial"",""time""
""fullscreenenter"",""5"",""31372""
","
","275.6999999284744","","48","","","3000","1","","","images/purpleplanet.jpg","images/alien4","images/alien3","images/rocket1","images/alien4","images/t.png","2","real","true","2","common","1","2022-12-06 15:25:09.516"
"two-step-fixation","152","830227","0.0-76.0-2.5","2856","5009","11","Female","true","false","false","false","""event"",""trial"",""time""
""fullscreenenter"",""5"",""31372""
","
","
","""event"",""trial"",""time""
""fullscreenenter"",""5"",""31372""
","
","","images/earth.jpg","","","","","","","","","","","","","","fixation","","","","","",""
"d3-animate-choice","153","832645","0.0-76.0-0.6","2856","5009","11","Female","true","false","false","false","""event"",""trial"",""time""
""fullscreenenter"",""5"",""31372""
","
","
","""event"",""trial"",""time""
""fullscreenenter"",""5"",""31372""
","
","405.10000002384186","","49","","","3000","1","","","images/earth.jpg","images/rocket2","images/rocket1","null","images/rocket1","","1","real","null","1","","",""
"d3-animate-choice","154","834885","0.0-76.0-1.6","2856","5009","11","Female","true","false","false","false","""event"",""trial"",""time""
""fullscreenenter"",""5"",""31372""
","
","
","""event"",""trial"",""time""
""fullscreenenter"",""5"",""31372""
","
","236.59999990463257","","48","","","3000","1","","","images/purpleplanet.jpg","images/alien4","images/alien3","images/rocket1","images/alien4","images/t.png","2","real","true","2","common","1","2022-12-06 15:25:15.181"
"two-step-fixation","155","835887","0.0-76.0-2.6","2856","5009","11","Female","true","false","false","false","""event"",""trial"",""time""
""fullscreenenter"",""5"",""31372""
","
","
","""event"",""trial"",""time""
""fullscreenenter"",""5"",""31372""
","
","","images/earth.jpg","","","","","","","","","","","","","","fixation","","","","","",""
"d3-animate-choice","156","838220","0.0-76.0-0.7","2856","5009","11","Female","true","false","false","false","""event"",""trial"",""time""
""fullscreenenter"",""5"",""31372""
","
","
","""event"",""trial"",""time""
""fullscreenenter"",""5"",""31372""
","
","327","","49","","","3000","1","","","images/earth.jpg","images/rocket2","images/rocket1","null","images/rocket1","","1","real","null","1","","",""
"d3-animate-choice","157","840501","0.0-76.0-1.7","2856","5009","11","Female","true","false","false","false","""event"",""trial"",""time""
""fullscreenenter"",""5"",""31372""
","
","
","""event"",""trial"",""time""
""fullscreenenter"",""5"",""31372""
","
","270.2000000476837","","48","","","3000","1","","","images/purpleplanet.jpg","images/alien4","images/alien3","images/rocket1","images/alien4","images/t.png","2","real","true","2","common","1","2022-12-06 15:25:20.797"
"two-step-fixation","158","841508","0.0-76.0-2.7","2856","5009","11","Female","true","false","false","false","""event"",""trial"",""time""
""fullscreenenter"",""5"",""31372""
","
","
","""event"",""trial"",""time""
""fullscreenenter"",""5"",""31372""
","
","","images/earth.jpg","","","","","","","","","","","","","","fixation","","","","","",""
"d3-animate-choice","159","843779","0.0-76.0-0.8","2856","5009","11","Female","true","false","false","false","""event"",""trial"",""time""
""fullscreenenter"",""5"",""31372""
","
","
","""event"",""trial"",""time""
""fullscreenenter"",""5"",""31372""
","
","264.39999997615814","","49","","","3000","1","","","images/earth.jpg","images/rocket2","images/rocket1","null","images/rocket1","","1","real","null","1","","",""
"d3-animate-choice","160","846140","0.0-76.0-1.8","2856","5009","11","Female","true","false","false","false","""event"",""trial"",""time""
""fullscreenenter"",""5"",""31372""
","
","
","""event"",""trial"",""time""
""fullscreenenter"",""5"",""31372""
","
","355.8000000715256","","48","","","3000","1","","","images/redplanet1.jpg","images/alien2","images/alien1","images/rocket1","images/alien2","images/t.png","2","real","false","2","rare","1","2022-12-06 15:25:26.436"
"two-step-fixation","161","847149","0.0-76.0-2.8","2856","5009","11","Female","true","false","false","false","""event"",""trial"",""time""
""fullscreenenter"",""5"",""31372""
","
","
","""event"",""trial"",""time""
""fullscreenenter"",""5"",""31372""
","
","","images/earth.jpg","","","","","","","","","","","","","","fixation","","","","","",""
"d3-animate-choice","162","849412","0.0-76.0-0.9","2856","5009","11","Female","true","false","false","false","""event"",""trial"",""time""
""fullscreenenter"",""5"",""31372""
","
","
","""event"",""trial"",""time""
""fullscreenenter"",""5"",""31372""
","
","252","","49","","","3000","1","","","images/earth.jpg","images/rocket2","images/rocket1","null","images/rocket1","","1","real","null","1","","",""
"d3-animate-choice","163","851715","0.0-76.0-1.9","2856","5009","11","Female","true","false","false","false","""event"",""trial"",""time""
""fullscreenenter"",""5"",""31372""
","
","
","""event"",""trial"",""time""
""fullscreenenter"",""5"",""31372""
","
","299.1999999284744","","48","","","3000","1","","","images/purpleplanet.jpg","images/alien4","images/alien3","images/rocket1","images/alien4","images/t.png","2","real","true","2","common","1","2022-12-06 15:25:32.011"
"two-step-fixation","164","852723","0.0-76.0-2.9","2856","5009","11","Female","true","false","false","false","""event"",""trial"",""time""
""fullscreenenter"",""5"",""31372""
","
","
","""event"",""trial"",""time""
""fullscreenenter"",""5"",""31372""
","
","","images/earth.jpg","","","","","","","","","","","","","","fixation","","","","","",""
"d3-animate-choice","165","854979","0.0-76.0-0.10","2856","5009","11","Female","true","false","false","false","""event"",""trial"",""time""
""fullscreenenter"",""5"",""31372""
","
","
","""event"",""trial"",""time""
""fullscreenenter"",""5"",""31372""
","
","249.60000002384186","","49","","","3000","1","","","images/earth.jpg","images/rocket2","images/rocket1","null","images/rocket1","","1","real","null","1","","",""
"d3-animate-choice","166","857300","0.0-76.0-1.10","2856","5009","11","Female","true","false","false","false","""event"",""trial"",""time""
""fullscreenenter"",""5"",""31372""
","
","
","""event"",""trial"",""time""
""fullscreenenter"",""5"",""31372""
","
","314.2000000476837","","48","","","3000","1","","","images/purpleplanet.jpg","images/alien4","images/alien3","images/rocket1","images/alien4","images/t.png","2","real","true","2","common","1","2022-12-06 15:25:37.596"
"two-step-fixation","167","858307","0.0-76.0-2.10","2856","5009","11","Female","true","false","false","false","""event"",""trial"",""time""
""fullscreenenter"",""5"",""31372""
","
","
","""event"",""trial"",""time""
""fullscreenenter"",""5"",""31372""
","
","","images/earth.jpg","","","","","","","","","","","","","","fixation","","","","","",""
"d3-animate-choice","168","860580","0.0-76.0-0.11","2856","5009","11","Female","true","false","false","false","""event"",""trial"",""time""
""fullscreenenter"",""5"",""31372""
","
","
","""event"",""trial"",""time""
""fullscreenenter"",""5"",""31372""
","
","262","","49","","","3000","1","","","images/earth.jpg","images/rocket2","images/rocket1","null","images/rocket1","","1","real","null","1","","",""
"d3-animate-choice","169","862867","0.0-76.0-1.11","2856","5009","11","Female","true","false","false","false","""event"",""trial"",""time""
""fullscreenenter"",""5"",""31372""
","
","
","""event"",""trial"",""time""
""fullscreenenter"",""5"",""31372""
","
","282.40000009536743","","48","","","3000","1","","","images/redplanet1.jpg","images/alien2","images/alien1","images/rocket1","images/alien2","images/t.png","2","real","false","2","rare","1","2022-12-06 15:25:43.163"
"two-step-fixation","170","863875","0.0-76.0-2.11","2856","5009","11","Female","true","false","false","false","""event"",""trial"",""time""
""fullscreenenter"",""5"",""31372""
","
","
","""event"",""trial"",""time""
""fullscreenenter"",""5"",""31372""
","
","","images/earth.jpg","","","","","","","","","","","","","","fixation","","","","","",""
"d3-animate-choice","171","866612","0.0-76.0-0.12","2856","5009","11","Female","true","false","false","false","""event"",""trial"",""time""
""fullscreenenter"",""5"",""31372""
","
","
","""event"",""trial"",""time""
""fullscreenenter"",""5"",""31372""
","
","733.6000000238419","","49","","","3000","1","","","images/earth.jpg","images/rocket2","images/rocket1","null","images/rocket1","","1","real","null","1","","",""
"d3-animate-choice","172","868972","0.0-76.0-1.12","2856","5009","11","Female","true","false","false","false","""event"",""trial"",""time""
""fullscreenenter"",""5"",""31372""
","
","
","""event"",""trial"",""time""
""fullscreenenter"",""5"",""31372""
","
","354.6999999284744","","48","","","3000","1","","","images/purpleplanet.jpg","images/alien4","images/alien3","images/rocket1","images/alien4","images/t.png","2","real","true","2","common","1","2022-12-06 15:25:49.269"
"two-step-fixation","173","869980","0.0-76.0-2.12","2856","5009","11","Female","true","false","false","false","""event"",""trial"",""time""
""fullscreenenter"",""5"",""31372""
","
","
","""event"",""trial"",""time""
""fullscreenenter"",""5"",""31372""
","
","","images/earth.jpg","","","","","","","","","","","","","","fixation","","","","","",""
"d3-animate-choice","174","872427","0.0-76.0-0.13","2856","5009","11","Female","true","false","false","false","""event"",""trial"",""time""
""fullscreenenter"",""5"",""31372""
","
","
","""event"",""trial"",""time""
""fullscreenenter"",""5"",""31372""
","
","442.39999997615814","","49","","","3000","1","","","images/earth.jpg","images/rocket2","images/rocket1","null","images/rocket1","","1","real","null","1","","",""
"d3-animate-choice","175","874956","0.0-76.0-1.13","2856","5009","11","Female","true","false","false","false","""event"",""trial"",""time""
""fullscreenenter"",""5"",""31372""
","
","
","""event"",""trial"",""time""
""fullscreenenter"",""5"",""31372""
","
","517.7000000476837","","48","","","3000","1","","","images/purpleplanet.jpg","images/alien4","images/alien3","images/rocket1","images/alien4","images/t.png","2","real","true","2","common","1","2022-12-06 15:25:55.253"
"two-step-fixation","176","875965","0.0-76.0-2.13","2856","5009","11","Female","true","false","false","false","""event"",""trial"",""time""
""fullscreenenter"",""5"",""31372""
","
","
","""event"",""trial"",""time""
""fullscreenenter"",""5"",""31372""
","
","","images/earth.jpg","","","","","","","","","","","","","","fixation","","","","","",""
"d3-animate-choice","177","878383","0.0-76.0-0.14","2856","5009","11","Female","true","false","false","false","""event"",""trial"",""time""
""fullscreenenter"",""5"",""31372""
","
","
","""event"",""trial"",""time""
""fullscreenenter"",""5"",""31372""
","
","414.2999999523163","","49","","","3000","1","","","images/earth.jpg","images/rocket2","images/rocket1","null","images/rocket1","","1","real","null","1","","",""
"d3-animate-choice","178","880836","0.0-76.0-1.14","2856","5009","11","Female","true","false","false","false","""event"",""trial"",""time""
""fullscreenenter"",""5"",""31372""
","
","
","""event"",""trial"",""time""
""fullscreenenter"",""5"",""31372""
","
","444.2999999523163","","48","","","3000","1","","","images/redplanet1.jpg","images/alien2","images/alien1","images/rocket1","images/alien2","images/t.png","2","real","false","2","rare","1","2022-12-06 15:26:01.132"
"two-step-fixation","179","881843","0.0-76.0-2.14","2856","5009","11","Female","true","false","false","false","""event"",""trial"",""time""
""fullscreenenter"",""5"",""31372""
","
","
","""event"",""trial"",""time""
""fullscreenenter"",""5"",""31372""
","
","","images/earth.jpg","","","","","","","","","","","","","","fixation","","","","","",""
"d3-animate-choice","180","884199","0.0-76.0-0.15","2856","5009","11","Female","true","false","false","false","""event"",""trial"",""time""
""fullscreenenter"",""5"",""31372""
","
","
","""event"",""trial"",""time""
""fullscreenenter"",""5"",""31372""
","
","349.39999997615814","","49","","","3000","1","","","images/earth.jpg","images/rocket2","images/rocket1","null","images/rocket1","","1","real","null","1","","",""
"d3-animate-choice","181","886667","0.0-76.0-1.15","2856","5009","11","Female","true","false","false","false","""event"",""trial"",""time""
""fullscreenenter"",""5"",""31372""
","
","
","""event"",""trial"",""time""
""fullscreenenter"",""5"",""31372""
","
","461","","48","","","3000","1","","","images/redplanet1.jpg","images/alien2","images/alien1","images/rocket1","images/alien2","images/nothing.png","2","real","false","2","rare","0","2022-12-06 15:26:06.963"
"two-step-fixation","182","887675","0.0-76.0-2.15","2856","5009","11","Female","true","false","false","false","""event"",""trial"",""time""
""fullscreenenter"",""5"",""31372""
","
","
","""event"",""trial"",""time""
""fullscreenenter"",""5"",""31372""
","
","","images/earth.jpg","","","","","","","","","","","","","","fixation","","","","","",""
"d3-animate-choice","183","890323","0.0-76.0-0.16","2856","5009","11","Female","true","false","false","false","""event"",""trial"",""time""
""fullscreenenter"",""5"",""31372""
","
","
","""event"",""trial"",""time""
""fullscreenenter"",""5"",""31372""
","
","643.2999999523163","","48","","","3000","1","","","images/earth.jpg","images/rocket2","images/rocket1","null","images/rocket2","","1","real","null","2","","",""
"d3-animate-choice","184","892651","0.0-76.0-1.16","2856","5009","11","Female","true","false","false","false","""event"",""trial"",""time""
""fullscreenenter"",""5"",""31372""
","
","
","""event"",""trial"",""time""
""fullscreenenter"",""5"",""31372""
","
","324.5","","48","","","3000","1","","","images/purpleplanet.jpg","images/alien4","images/alien3","images/rocket2","images/alien4","images/t.png","2","real","false","2","rare","1","2022-12-06 15:26:12.947"
"two-step-fixation","185","893660","0.0-76.0-2.16","2856","5009","11","Female","true","false","false","false","""event"",""trial"",""time""
""fullscreenenter"",""5"",""31372""
","
","
","""event"",""trial"",""time""
""fullscreenenter"",""5"",""31372""
","
","","images/earth.jpg","","","","","","","","","","","","","","fixation","","","","","",""
"d3-animate-choice","186","895972","0.0-76.0-0.17","2856","5009","11","Female","true","false","false","false","""event"",""trial"",""time""
""fullscreenenter"",""5"",""31372""
","
","
","""event"",""trial"",""time""
""fullscreenenter"",""5"",""31372""
","
","307.6999999284744","","48","","","3000","1","","","images/earth.jpg","images/rocket2","images/rocket1","null","images/rocket2","","1","real","null","2","","",""
"d3-animate-choice","187","898539","0.0-76.0-1.17","2856","5009","11","Female","true","false","false","false","""event"",""trial"",""time""
""fullscreenenter"",""5"",""31372""
","
","
","""event"",""trial"",""time""
""fullscreenenter"",""5"",""31372""
","
","561","","48","","","3000","1","","","images/redplanet1.jpg","images/alien2","images/alien1","images/rocket2","images/alien2","images/t.png","2","real","true","2","common","1","2022-12-06 15:26:18.835"
"two-step-fixation","188","899548","0.0-76.0-2.17","2856","5009","11","Female","true","false","false","false","""event"",""trial"",""time""
""fullscreenenter"",""5"",""31372""
","
","
","""event"",""trial"",""time""
""fullscreenenter"",""5"",""31372""
","
","","images/earth.jpg","","","","","","","","","","","","","","fixation","","","","","",""
"d3-animate-choice","189","901892","0.0-76.0-0.18","2856","5009","11","Female","true","false","false","false","""event"",""trial"",""time""
""fullscreenenter"",""5"",""31372""
","
","
","""event"",""trial"",""time""
""fullscreenenter"",""5"",""31372""
","
","334.8000000715256","","48","","","3000","1","","","images/earth.jpg","images/rocket2","images/rocket1","null","images/rocket2","","1","real","null","2","","",""
"d3-animate-choice","190","904387","0.0-76.0-1.18","2856","5009","11","Female","true","false","false","false","""event"",""trial"",""time""
""fullscreenenter"",""5"",""31372""
","
","
","""event"",""trial"",""time""
""fullscreenenter"",""5"",""31372""
","
","488.60000002384186","","48","","","3000","1","","","images/purpleplanet.jpg","images/alien4","images/alien3","images/rocket2","images/alien4","images/t.png","2","real","false","2","rare","1","2022-12-06 15:26:24.683"
"two-step-fixation","191","905395","0.0-76.0-2.18","2856","5009","11","Female","true","false","false","false","""event"",""trial"",""time""
""fullscreenenter"",""5"",""31372""
","
","
","""event"",""trial"",""time""
""fullscreenenter"",""5"",""31372""
","
","","images/earth.jpg","","","","","","","","","","","","","","fixation","","","","","",""
"d3-animate-choice","192","908155","0.0-76.0-0.19","2856","5009","11","Female","true","false","false","false","""event"",""trial"",""time""
""fullscreenenter"",""5"",""31372""
","
","
","""event"",""trial"",""time""
""fullscreenenter"",""5"",""31372""
","
","756.3000000715256","","49","","","3000","1","","","images/earth.jpg","images/rocket2","images/rocket1","null","images/rocket1","","1","real","null","1","","",""
"d3-animate-choice","193","910668","0.0-76.0-1.19","2856","5009","11","Female","true","false","false","false","""event"",""trial"",""time""
""fullscreenenter"",""5"",""31372""
","
","
","""event"",""trial"",""time""
""fullscreenenter"",""5"",""31372""
","
","508.10000002384186","","49","","","3000","1","","","images/purpleplanet.jpg","images/alien4","images/alien3","images/rocket1","images/alien3","images/t.png","2","real","true","1","common","1","2022-12-06 15:26:30.964"
"two-step-fixation","194","911675","0.0-76.0-2.19","2856","5009","11","Female","true","false","false","false","""event"",""trial"",""time""
""fullscreenenter"",""5"",""31372""
","
","
","""event"",""trial"",""time""
""fullscreenenter"",""5"",""31372""
","
","","images/earth.jpg","","","","","","","","","","","","","","fixation","","","","","",""
"d3-animate-choice","195","914043","0.0-76.0-0.20","2856","5009","11","Female","true","false","false","false","""event"",""trial"",""time""
""fullscreenenter"",""5"",""31372""
","
","
","""event"",""trial"",""time""
""fullscreenenter"",""5"",""31372""
","
","359.2000000476837","","49","","","3000","1","","","images/earth.jpg","images/rocket2","images/rocket1","null","images/rocket1","","1","real","null","1","","",""
"d3-animate-choice","196","916480","0.0-76.0-1.20","2856","5009","11","Female","true","false","false","false","""event"",""trial"",""time""
""fullscreenenter"",""5"",""31372""
","
","
","""event"",""trial"",""time""
""fullscreenenter"",""5"",""31372""
","
","433.3000000715256","","49","","","3000","1","","","images/purpleplanet.jpg","images/alien4","images/alien3","images/rocket1","images/alien3","images/nothing.png","2","real","true","1","common","0","2022-12-06 15:26:36.776"
"two-step-fixation","197","917483","0.0-76.0-2.20","2856","5009","11","Female","true","false","false","false","""event"",""trial"",""time""
""fullscreenenter"",""5"",""31372""
","
","
","""event"",""trial"",""time""
""fullscreenenter"",""5"",""31372""
","
","","images/earth.jpg","","","","","","","","","","","","","","fixation","","","","","",""
"d3-animate-choice","198","919740","0.0-76.0-0.21","2856","5009","11","Female","true","false","false","false","""event"",""trial"",""time""
""fullscreenenter"",""5"",""31372""
","
","
","""event"",""trial"",""time""
""fullscreenenter"",""5"",""31372""
","
","248.29999995231628","","48","","","3000","1","","","images/earth.jpg","images/rocket2","images/rocket1","null","images/rocket2","","1","real","null","2","","",""
"d3-animate-choice","199","922100","0.0-76.0-1.21","2856","5009","11","Female","true","false","false","false","""event"",""trial"",""time""
""fullscreenenter"",""5"",""31372""
","
","
","""event"",""trial"",""time""
""fullscreenenter"",""5"",""31372""
","
","350.09999990463257","","48","","","3000","1","","","images/purpleplanet.jpg","images/alien4","images/alien3","images/rocket2","images/alien4","images/t.png","2","real","false","2","rare","1","2022-12-06 15:26:42.396"
"two-step-fixation","200","923107","0.0-76.0-2.21","2856","5009","11","Female","true","false","false","false","""event"",""trial"",""time""
""fullscreenenter"",""5"",""31372""
","
","
","""event"",""trial"",""time""
""fullscreenenter"",""5"",""31372""
","
","","images/earth.jpg","","","","","","","","","","","","","","fixation","","","","","",""
"d3-animate-choice","201","925643","0.0-76.0-0.22","2856","5009","11","Female","true","false","false","false","""event"",""trial"",""time""
""fullscreenenter"",""5"",""31372""
","
","
","""event"",""trial"",""time""
""fullscreenenter"",""5"",""31372""
","
","530.8999999761581","","48","","","3000","1","","","images/earth.jpg","images/rocket2","images/rocket1","null","images/rocket2","","1","real","null","2","","",""
"d3-animate-choice","202","928299","0.0-76.0-1.22","2856","5009","11","Female","true","false","false","false","""event"",""trial"",""time""
""fullscreenenter"",""5"",""31372""
","
","
","""event"",""trial"",""time""
""fullscreenenter"",""5"",""31372""
","
","652.5","","48","","","3000","1","","","images/redplanet1.jpg","images/alien2","images/alien1","images/rocket2","images/alien2","images/t.png","2","real","true","2","common","1","2022-12-06 15:26:48.595"
"two-step-fixation","203","929300","0.0-76.0-2.22","2856","5009","11","Female","true","false","false","false","""event"",""trial"",""time""
""fullscreenenter"",""5"",""31372""
","
","
","""event"",""trial"",""time""
""fullscreenenter"",""5"",""31372""
","
","","images/earth.jpg","","","","","","","","","","","","","","fixation","","","","","",""
"d3-animate-choice","204","931683","0.0-76.0-0.23","2856","5009","11","Female","true","false","false","false","""event"",""trial"",""time""
""fullscreenenter"",""5"",""31372""
","
","
","""event"",""trial"",""time""
""fullscreenenter"",""5"",""31372""
","
","380.40000009536743","","48","","","3000","1","","","images/earth.jpg","images/rocket2","images/rocket1","null","images/rocket2","","1","real","null","2","","",""
"d3-animate-choice","205","934123","0.0-76.0-1.23","2856","5009","11","Female","true","false","false","false","""event"",""trial"",""time""
""fullscreenenter"",""5"",""31372""
","
","
","""event"",""trial"",""time""
""fullscreenenter"",""5"",""31372""
","
","436.8000000715256","","48","","","3000","1","","","images/redplanet1.jpg","images/alien2","images/alien1","images/rocket2","images/alien2","images/nothing.png","2","real","true","2","common","0","2022-12-06 15:26:54.419"
"two-step-fixation","206","935131","0.0-76.0-2.23","2856","5009","11","Female","true","false","false","false","""event"",""trial"",""time""
""fullscreenenter"",""5"",""31372""
","
","
","""event"",""trial"",""time""
""fullscreenenter"",""5"",""31372""
","
","","images/earth.jpg","","","","","","","","","","","","","","fixation","","","","","",""
"d3-animate-choice","207","937484","0.0-76.0-0.24","2856","5009","11","Female","true","false","false","false","""event"",""trial"",""time""
""fullscreenenter"",""5"",""31372""
","
","
","""event"",""trial"",""time""
""fullscreenenter"",""5"",""31372""
","
","348.90000009536743","","49","","","3000","1","","","images/earth.jpg","images/rocket2","images/rocket1","null","images/rocket1","","1","real","null","1","","",""
"d3-animate-choice","208","940291","0.0-76.0-1.24","2856","5009","11","Female","true","false","false","false","""event"",""trial"",""time""
""fullscreenenter"",""5"",""31372""
","
","
","""event"",""trial"",""time""
""fullscreenenter"",""5"",""31372""
","
","804.3999999761581","","49","","","3000","1","","","images/purpleplanet.jpg","images/alien4","images/alien3","images/rocket1","images/alien3","images/nothing.png","2","real","true","1","common","0","2022-12-06 15:27:00.587"
"two-step-fixation","209","941300","0.0-76.0-2.24","2856","5009","11","Female","true","false","false","false","""event"",""trial"",""time""
""fullscreenenter"",""5"",""31372""
","
","
","""event"",""trial"",""time""
""fullscreenenter"",""5"",""31372""
","
","","images/earth.jpg","","","","","","","","","","","","","","fixation","","","","","",""
"d3-animate-choice","210","943556","0.0-76.0-0.25","2856","5009","11","Female","true","false","false","false","""event"",""trial"",""time""
""fullscreenenter"",""5"",""31372""
","
","
","""event"",""trial"",""time""
""fullscreenenter"",""5"",""31372""
","
","252.19999992847443","","48","","","3000","1","","","images/earth.jpg","images/rocket2","images/rocket1","null","images/rocket2","","1","real","null","2","","",""
"d3-animate-choice","211","945995","0.0-76.0-1.25","2856","5009","11","Female","true","false","false","false","""event"",""trial"",""time""
""fullscreenenter"",""5"",""31372""
","
","
","""event"",""trial"",""time""
""fullscreenenter"",""5"",""31372""
","
","432.60000002384186","","48","","","3000","1","","","images/purpleplanet.jpg","images/alien4","images/alien3","images/rocket2","images/alien4","images/nothing.png","2","real","false","2","rare","0","2022-12-06 15:27:06.291"
"two-step-fixation","212","947003","0.0-76.0-2.25","2856","5009","11","Female","true","false","false","false","""event"",""trial"",""time""
""fullscreenenter"",""5"",""31372""
","
","
","""event"",""trial"",""time""
""fullscreenenter"",""5"",""31372""
","
","","images/earth.jpg","","","","","","","","","","","","","","fixation","","","","","",""
"d3-animate-choice","213","949244","0.0-76.0-0.26","2856","5009","11","Female","true","false","false","false","""event"",""trial"",""time""
""fullscreenenter"",""5"",""31372""
","
","
","""event"",""trial"",""time""
""fullscreenenter"",""5"",""31372""
","
","237.10000002384186","","49","","","3000","1","","","images/earth.jpg","images/rocket2","images/rocket1","null","images/rocket1","","1","real","null","1","","",""
"d3-animate-choice","214","951803","0.0-76.0-1.26","2856","5009","11","Female","true","false","false","false","""event"",""trial"",""time""
""fullscreenenter"",""5"",""31372""
","
","
","""event"",""trial"",""time""
""fullscreenenter"",""5"",""31372""
","
","554.2000000476837","","49","","","3000","1","","","images/purpleplanet.jpg","images/alien4","images/alien3","images/rocket1","images/alien3","images/nothing.png","2","real","true","1","common","0","2022-12-06 15:27:12.099"
"two-step-fixation","215","952812","0.0-76.0-2.26","2856","5009","11","Female","true","false","false","false","""event"",""trial"",""time""
""fullscreenenter"",""5"",""31372""
","
","
","""event"",""trial"",""time""
""fullscreenenter"",""5"",""31372""
","
","","images/earth.jpg","","","","","","","","","","","","","","fixation","","","","","",""
"d3-animate-choice","216","955107","0.0-76.0-0.27","2856","5009","11","Female","true","false","false","false","""event"",""trial"",""time""
""fullscreenenter"",""5"",""31372""
","
","
","""event"",""trial"",""time""
""fullscreenenter"",""5"",""31372""
","
","284.89999997615814","","48","","","3000","1","","","images/earth.jpg","images/rocket2","images/rocket1","null","images/rocket2","","1","real","null","2","","",""
"d3-animate-choice","217","957355","0.0-76.0-1.27","2856","5009","11","Female","true","false","false","false","""event"",""trial"",""time""
""fullscreenenter"",""5"",""31372""
","
","
","""event"",""trial"",""time""
""fullscreenenter"",""5"",""31372""
","
","239.19999992847443","","48","","","3000","1","","","images/redplanet1.jpg","images/alien2","images/alien1","images/rocket2","images/alien2","images/nothing.png","2","real","true","2","common","0","2022-12-06 15:27:17.651"
"two-step-fixation","218","958363","0.0-76.0-2.27","2856","5009","11","Female","true","false","false","false","""event"",""trial"",""time""
""fullscreenenter"",""5"",""31372""
","
","
","""event"",""trial"",""time""
""fullscreenenter"",""5"",""31372""
","
","","images/earth.jpg","","","","","","","","","","","","","","fixation","","","","","",""
"d3-animate-choice","219","960755","0.0-76.0-0.28","2856","5009","11","Female","true","false","false","false","""event"",""trial"",""time""
""fullscreenenter"",""5"",""31372""
","
","
","""event"",""trial"",""time""
""fullscreenenter"",""5"",""31372""
","
","385.40000009536743","","48","","","3000","1","","","images/earth.jpg","images/rocket2","images/rocket1","null","images/rocket2","","1","real","null","2","","",""
"d3-animate-choice","220","963019","0.0-76.0-1.28","2856","5009","11","Female","true","false","false","false","""event"",""trial"",""time""
""fullscreenenter"",""5"",""31372""
","
","
","""event"",""trial"",""time""
""fullscreenenter"",""5"",""31372""
","
","257.7000000476837","","49","","","3000","1","","","images/purpleplanet.jpg","images/alien4","images/alien3","images/rocket2","images/alien3","images/t.png","2","real","false","1","rare","1","2022-12-06 15:27:23.315"
"two-step-fixation","221","964027","0.0-76.0-2.28","2856","5009","11","Female","true","false","false","false","""event"",""trial"",""time""
""fullscreenenter"",""5"",""31372""
","
","
","""event"",""trial"",""time""
""fullscreenenter"",""5"",""31372""
","
","","images/earth.jpg","","","","","","","","","","","","","","fixation","","","","","",""
"d3-animate-choice","222","966267","0.0-76.0-0.29","2856","5009","11","Female","true","false","false","false","""event"",""trial"",""time""
""fullscreenenter"",""5"",""31372""
","
","
","""event"",""trial"",""time""
""fullscreenenter"",""5"",""31372""
","
","232.69999992847443","","48","","","3000","1","","","images/earth.jpg","images/rocket2","images/rocket1","null","images/rocket2","","1","real","null","2","","",""
"d3-animate-choice","223","968651","0.0-76.0-1.29","2856","5009","11","Female","true","false","false","false","""event"",""trial"",""time""
""fullscreenenter"",""5"",""31372""
","
","
","""event"",""trial"",""time""
""fullscreenenter"",""5"",""31372""
","
","376.3000000715256","","49","","","3000","1","","","images/purpleplanet.jpg","images/alien4","images/alien3","images/rocket2","images/alien3","images/nothing.png","2","real","false","1","rare","0","2022-12-06 15:27:28.947"
"two-step-fixation","224","969660","0.0-76.0-2.29","2856","5009","11","Female","true","false","false","false","""event"",""trial"",""time""
""fullscreenenter"",""5"",""31372""
","
","
","""event"",""trial"",""time""
""fullscreenenter"",""5"",""31372""
","
","","images/earth.jpg","","","","","","","","","","","","","","fixation","","","","","",""
"d3-animate-choice","225","972011","0.0-76.0-0.30","2856","5009","11","Female","true","false","false","false","""event"",""trial"",""time""
""fullscreenenter"",""5"",""31372""
","
","
","""event"",""trial"",""time""
""fullscreenenter"",""5"",""31372""
","
","343","","48","","","3000","1","","","images/earth.jpg","images/rocket2","images/rocket1","null","images/rocket2","","1","real","null","2","","",""
"d3-animate-choice","226","974475","0.0-76.0-1.30","2856","5009","11","Female","true","false","false","false","""event"",""trial"",""time""
""fullscreenenter"",""5"",""31372""
","
","
","""event"",""trial"",""time""
""fullscreenenter"",""5"",""31372""
","
","454.5","","48","","","3000","1","","","images/redplanet1.jpg","images/alien2","images/alien1","images/rocket2","images/alien2","images/t.png","2","real","true","2","common","1","2022-12-06 15:27:34.771"
"two-step-fixation","227","975483","0.0-76.0-2.30","2856","5009","11","Female","true","false","false","false","""event"",""trial"",""time""
""fullscreenenter"",""5"",""31372""
","
","
","""event"",""trial"",""time""
""fullscreenenter"",""5"",""31372""
","
","","images/earth.jpg","","","","","","","","","","","","","","fixation","","","","","",""
"d3-animate-choice","228","977826","0.0-76.0-0.31","2856","5009","11","Female","true","false","false","false","""event"",""trial"",""time""
""fullscreenenter"",""5"",""31372""
","
","
","""event"",""trial"",""time""
""fullscreenenter"",""5"",""31372""
","
","340.39999997615814","","48","","","3000","1","","","images/earth.jpg","images/rocket2","images/rocket1","null","images/rocket2","","1","real","null","2","","",""
"d3-animate-choice","229","980211","0.0-76.0-1.31","2856","5009","11","Female","true","false","false","false","""event"",""trial"",""time""
""fullscreenenter"",""5"",""31372""
","
","
","""event"",""trial"",""time""
""fullscreenenter"",""5"",""31372""
","
","379.7000000476837","","48","","","3000","1","","","images/redplanet1.jpg","images/alien2","images/alien1","images/rocket2","images/alien2","images/t.png","2","real","true","2","common","1","2022-12-06 15:27:40.507"
"two-step-fixation","230","981219","0.0-76.0-2.31","2856","5009","11","Female","true","false","false","false","""event"",""trial"",""time""
""fullscreenenter"",""5"",""31372""
","
","
","""event"",""trial"",""time""
""fullscreenenter"",""5"",""31372""
","
","","images/earth.jpg","","","","","","","","","","","","","","fixation","","","","","",""
"d3-animate-choice","231","983477","0.0-76.0-0.32","2856","5009","11","Female","true","false","false","false","""event"",""trial"",""time""
""fullscreenenter"",""5"",""31372""
","
","
","""event"",""trial"",""time""
""fullscreenenter"",""5"",""31372""
","
","254.89999997615814","","49","","","3000","1","","","images/earth.jpg","images/rocket2","images/rocket1","null","images/rocket1","","1","real","null","1","","",""
"d3-animate-choice","232","985739","0.0-76.0-1.32","2856","5009","11","Female","true","false","false","false","""event"",""trial"",""time""
""fullscreenenter"",""5"",""31372""
","
","
","""event"",""trial"",""time""
""fullscreenenter"",""5"",""31372""
","
","256.7999999523163","","49","","","3000","1","","","images/purpleplanet.jpg","images/alien4","images/alien3","images/rocket1","images/alien3","images/t.png","2","real","true","1","common","1","2022-12-06 15:27:46.035"
"two-step-fixation","233","986747","0.0-76.0-2.32","2856","5009","11","Female","true","false","false","false","""event"",""trial"",""time""
""fullscreenenter"",""5"",""31372""
","
","
","""event"",""trial"",""time""
""fullscreenenter"",""5"",""31372""
","
","","images/earth.jpg","","","","","","","","","","","","","","fixation","","","","","",""
"d3-animate-choice","234","989172","0.0-76.0-0.33","2856","5009","11","Female","true","false","false","false","""event"",""trial"",""time""
""fullscreenenter"",""5"",""31372""
","
","
","""event"",""trial"",""time""
""fullscreenenter"",""5"",""31372""
","
","416.10000002384186","","49","","","3000","1","","","images/earth.jpg","images/rocket2","images/rocket1","null","images/rocket1","","1","real","null","1","","",""
"d3-animate-choice","235","991636","0.0-76.0-1.33","2856","5009","11","Female","true","false","false","false","""event"",""trial"",""time""
""fullscreenenter"",""5"",""31372""
","
","
","""event"",""trial"",""time""
""fullscreenenter"",""5"",""31372""
","
","454","","49","","","3000","1","","","images/purpleplanet.jpg","images/alien4","images/alien3","images/rocket1","images/alien3","images/nothing.png","2","real","true","1","common","0","2022-12-06 15:27:51.932"
"two-step-fixation","236","992644","0.0-76.0-2.33","2856","5009","11","Female","true","false","false","false","""event"",""trial"",""time""
""fullscreenenter"",""5"",""31372""
","
","
","""event"",""trial"",""time""
""fullscreenenter"",""5"",""31372""
","
","","images/earth.jpg","","","","","","","","","","","","","","fixation","","","","","",""
"d3-animate-choice","237","994875","0.0-76.0-0.34","2856","5009","11","Female","true","false","false","false","""event"",""trial"",""time""
""fullscreenenter"",""5"",""31372""
","
","
","""event"",""trial"",""time""
""fullscreenenter"",""5"",""31372""
","
","225.60000002384186","","49","","","3000","1","","","images/earth.jpg","images/rocket2","images/rocket1","null","images/rocket1","","1","real","null","1","","",""
"d3-animate-choice","238","997555","0.0-76.0-1.34","2856","5009","11","Female","true","false","false","false","""event"",""trial"",""time""
""fullscreenenter"",""5"",""31372""
","
","
","""event"",""trial"",""time""
""fullscreenenter"",""5"",""31372""
","
","676.9000000953674","","49","","","3000","1","","","images/purpleplanet.jpg","images/alien4","images/alien3","images/rocket1","images/alien3","images/nothing.png","2","real","true","1","common","0","2022-12-06 15:27:57.851"
"two-step-fixation","239","998558","0.0-76.0-2.34","2856","5009","11","Female","true","false","false","false","""event"",""trial"",""time""
""fullscreenenter"",""5"",""31372""
","
","
","""event"",""trial"",""time""
""fullscreenenter"",""5"",""31372""
","
","","images/earth.jpg","","","","","","","","","","","","","","fixation","","","","","",""
"d3-animate-choice","240","1000819","0.0-76.0-0.35","2856","5009","11","Female","true","false","false","false","""event"",""trial"",""time""
""fullscreenenter"",""5"",""31372""
","
","
","""event"",""trial"",""time""
""fullscreenenter"",""5"",""31372""
","
","257","","49","","","3000","1","","","images/earth.jpg","images/rocket2","images/rocket1","null","images/rocket1","","1","real","null","1","","",""
"d3-animate-choice","241","1003355","0.0-76.0-1.35","2856","5009","11","Female","true","false","false","false","""event"",""trial"",""time""
""fullscreenenter"",""5"",""31372""
","
","
","""event"",""trial"",""time""
""fullscreenenter"",""5"",""31372""
","
","529.8999999761581","","49","","","3000","1","","","images/purpleplanet.jpg","images/alien4","images/alien3","images/rocket1","images/alien3","images/nothing.png","2","real","true","1","common","0","2022-12-06 15:28:03.651"
"two-step-fixation","242","1004358","0.0-76.0-2.35","2856","5009","11","Female","true","false","false","false","""event"",""trial"",""time""
""fullscreenenter"",""5"",""31372""
","
","
","""event"",""trial"",""time""
""fullscreenenter"",""5"",""31372""
","
","","images/earth.jpg","","","","","","","","","","","","","","fixation","","","","","",""
"d3-animate-choice","243","1006804","0.0-76.0-0.36","2856","5009","11","Female","true","false","false","false","""event"",""trial"",""time""
""fullscreenenter"",""5"",""31372""
","
","
","""event"",""trial"",""time""
""fullscreenenter"",""5"",""31372""
","
","437.8000000715256","","48","","","3000","1","","","images/earth.jpg","images/rocket2","images/rocket1","null","images/rocket2","","1","real","null","2","","",""
"d3-animate-choice","244","1009283","0.0-76.0-1.36","2856","5009","11","Female","true","false","false","false","""event"",""trial"",""time""
""fullscreenenter"",""5"",""31372""
","
","
","""event"",""trial"",""time""
""fullscreenenter"",""5"",""31372""
","
