"trial_type","trial_index","time_elapsed","internal_node_id","participant_id","subject_id","age","gender","rocket_sides","red_planet_first_rocket","red_display_order","purple_display_order","interactions","blur_events","focus_events","fullscreenenter_events","fullscreenexit_events","rt","stimulus","key_press","button_pressed","success","duration","valid_pressed","rts","keys","planet_text","right_text","left_text","center_text","chosen_text","reward_text","trial_stage","practice_trial","transition_type","choice","transition","reward","timestamp"
"pavlovia","0","2","0.0-0.0","198","5354","12","Male","true","true","true","false","
","
","
","
","
","","","","","","","","","","","","","","","","","","","","","",""
"html-keyboard-response","1","2146","0.0-1.0","198","5354","12","Male","true","true","true","false","
","
","
","
","
","2142.7999999523163","Welcome! Press the space bar to begin.","32","","","","","","","","","","","","","","","","","","",""
"audio-keyboard-response","2","5850","0.0-2.0","198","5354","12","Male","true","true","true","false","
","
","
","
","
","3686","audio/beep_loop.wav","32","","","","","","","","","","","","","","","","","","",""
"audio-button-response","3","10046","0.0-3.0","198","5354","12","Male","true","true","true","false","
","
","
","
","
","NaN","audio/fish.mp3","","1","","","","","","","","","","","","","","","","","",""
"audio-button-response","4","12996","0.0-4.0","198","5354","12","Male","true","true","true","false","""event"",""trial"",""time""
""fullscreenenter"",""5"",""18422""
","
","
","""event"",""trial"",""time""
""fullscreenenter"",""5"",""18422""
","
","NaN","audio/tiger.mp3","","4","","","","","","","","","","","","","","","","","",""
"fullscreen","5","19415","0.0-5.0","198","5354","12","Male","true","true","true","false","""event"",""trial"",""time""
""fullscreenenter"",""5"",""18422""
","
","
","""event"",""trial"",""time""
""fullscreenenter"",""5"",""18422""
","
","","","","","true","","","","","","","","","","","","","","","","",""
"d3-instructions","6","39965","0.0-6.0","198","5354","12","Male","true","true","true","false","""event"",""trial"",""time""
""fullscreenenter"",""5"",""18422""
","
","
","""event"",""trial"",""time""
""fullscreenenter"",""5"",""18422""
","
","","","","","","","","","","","","","","","","","","","","","",""
"d3-instructions","7","51695","0.0-7.0","198","5354","12","Male","true","true","true","false","""event"",""trial"",""time""
""fullscreenenter"",""5"",""18422""
","
","
","""event"",""trial"",""time""
""fullscreenenter"",""5"",""18422""
","
","","","","","","","","","","","","","","","","","","","","","",""
"d3-instructions","8","65984","0.0-8.0","198","5354","12","Male","true","true","true","false","""event"",""trial"",""time""
""fullscreenenter"",""5"",""18422""
","
","
","""event"",""trial"",""time""
""fullscreenenter"",""5"",""18422""
","
","","","","","","","","","","","","","","","","","","","","","",""
"d3-instructions","9","79165","0.0-9.0","198","5354","12","Male","true","true","true","false","""event"",""trial"",""time""
""fullscreenenter"",""5"",""18422""
","
","
","""event"",""trial"",""time""
""fullscreenenter"",""5"",""18422""
","
","","","","","","","","","","","","","","","","","","","","","",""
"d3-instructions","10","114339","0.0-10.0","198","5354","12","Male","true","true","true","false","""event"",""trial"",""time""
""fullscreenenter"",""5"",""18422""
","
","
","""event"",""trial"",""time""
""fullscreenenter"",""5"",""18422""
","
","","","","","","","","","","","","","","","","","","","","","",""
"d3-animate-choice","11","118099","0.0-11.0","198","5354","12","Male","true","true","true","false","""event"",""trial"",""time""
""fullscreenenter"",""5"",""18422""
","
","
","""event"",""trial"",""time""
""fullscreenenter"",""5"",""18422""
","
","1751.3999999761581","","49","","","3000","1","","","images/tutgreenplanet.jpg","images/tutalien1","images/tutalien2","null","images/tutalien2","","NA","practice","null","","","",""
"d3-animate-choice","12","120815","0.0-12.0","198","5354","12","Male","true","true","true","false","""event"",""trial"",""time""
""fullscreenenter"",""5"",""18422""
","
","
","""event"",""trial"",""time""
""fullscreenenter"",""5"",""18422""
","
","711.5","","48","","","3000","1","","","images/tutgreenplanet.jpg","images/tutalien1","images/tutalien2","null","images/tutalien1","","NA","practice","null","","","",""
"d3-animate-choice","13","123892","0.0-13.0","198","5354","12","Male","true","true","true","false","""event"",""trial"",""time""
""fullscreenenter"",""5"",""18422""
","
","
","""event"",""trial"",""time""
""fullscreenenter"",""5"",""18422""
","
","1072.2000000476837","","48","","","3000","1","","","images/tutgreenplanet.jpg","images/tutalien1","images/tutalien2","null","images/tutalien1","","NA","practice","null","","","",""
"d3-animate-choice","14","126428","0.0-14.0","198","5354","12","Male","true","true","true","false","""event"",""trial"",""time""
""fullscreenenter"",""5"",""18422""
","
","
","""event"",""trial"",""time""
""fullscreenenter"",""5"",""18422""
","
","531.2999999523163","","49","","","3000","1","","","images/tutgreenplanet.jpg","images/tutalien1","images/tutalien2","null","images/tutalien2","","NA","practice","null","","","",""
"d3-instructions","15","137043","0.0-15.0","198","5354","12","Male","true","true","true","false","""event"",""trial"",""time""
""fullscreenenter"",""5"",""18422""
","
","
","""event"",""trial"",""time""
""fullscreenenter"",""5"",""18422""
","
","","","","","","","","","","","","","","","","","","","","","",""
"d3-instructions","16","145498","0.0-16.0","198","5354","12","Male","true","true","true","false","""event"",""trial"",""time""
""fullscreenenter"",""5"",""18422""
","
","
","""event"",""trial"",""time""
""fullscreenenter"",""5"",""18422""
","
","","","","","","","","","","","","","","","","","","","","","",""
"d3-instructions","17","156828","0.0-17.0","198","5354","12","Male","true","true","true","false","""event"",""trial"",""time""
""fullscreenenter"",""5"",""18422""
","
","
","""event"",""trial"",""time""
""fullscreenenter"",""5"",""18422""
","
","","","","","","","","","","","","","","","","","","","","","",""
"d3-instructions","18","170262","0.0-18.0","198","5354","12","Male","true","true","true","false","""event"",""trial"",""time""
""fullscreenenter"",""5"",""18422""
","
","
","""event"",""trial"",""time""
""fullscreenenter"",""5"",""18422""
","
","","","","","","","","","","","","","","","","","","","","","",""
"d3-instructions","19","187691","0.0-19.0","198","5354","12","Male","true","true","true","false","""event"",""trial"",""time""
""fullscreenenter"",""5"",""18422""
","
","
","""event"",""trial"",""time""
""fullscreenenter"",""5"",""18422""
","
","","","","","","","","","","","","","","","","","","","","","",""
"d3-animate-choice","20","191797","0.0-20.0","198","5354","12","Male","true","true","true","false","""event"",""trial"",""time""
""fullscreenenter"",""5"",""18422""
","
","
","""event"",""trial"",""time""
""fullscreenenter"",""5"",""18422""
","
","2101.899999976158","","49","","","3000","1","","","images/tutyellowplanet.jpg","null","images/tutalien3","null","images/tutalien3","images/t.png","NA","practice","null","","","",""
"d3-animate-choice","21","194287","0.0-21.0","198","5354","12","Male","true","true","true","false","""event"",""trial"",""time""
""fullscreenenter"",""5"",""18422""
","
","
","""event"",""trial"",""time""
""fullscreenenter"",""5"",""18422""
","
","483.10000002384186","","49","","","3000","1","","","images/tutyellowplanet.jpg","null","images/tutalien3","null","images/tutalien3","images/t.png","NA","practice","null","","","",""
"d3-animate-choice","22","197062","0.0-22.0","198","5354","12","Male","true","true","true","false","""event"",""trial"",""time""
""fullscreenenter"",""5"",""18422""
","
","
","""event"",""trial"",""time""
""fullscreenenter"",""5"",""18422""
","
","769.8999999761581","","49","","","3000","1","","","images/tutyellowplanet.jpg","null","images/tutalien3","null","images/tutalien3","images/t.png","NA","practice","null","","","",""
"d3-animate-choice","23","199520","0.0-23.0","198","5354","12","Male","true","true","true","false","""event"",""trial"",""time""
""fullscreenenter"",""5"",""18422""
","
","
","""event"",""trial"",""time""
""fullscreenenter"",""5"",""18422""
","
","451.60000002384186","","49","","","3000","1","","","images/tutyellowplanet.jpg","null","images/tutalien3","null","images/tutalien3","images/t.png","NA","practice","null","","","",""
"d3-animate-choice","24","202743","0.0-24.0","198","5354","12","Male","true","true","true","false","""event"",""trial"",""time""
""fullscreenenter"",""5"",""18422""
","
","
","""event"",""trial"",""time""
""fullscreenenter"",""5"",""18422""
","
","1215","","49","","","3000","1","","","images/tutyellowplanet.jpg","null","images/tutalien3","null","images/tutalien3","images/t.png","NA","practice","null","","","",""
"d3-animate-choice","25","205177","0.0-25.0","198","5354","12","Male","true","true","true","false","""event"",""trial"",""time""
""fullscreenenter"",""5"",""18422""
","
","
","""event"",""trial"",""time""
""fullscreenenter"",""5"",""18422""
","
","429.5","","49","","","3000","1","","","images/tutyellowplanet.jpg","null","images/tutalien3","null","images/tutalien3","images/nothing.png","NA","practice","null","","","",""
"d3-animate-choice","26","209008","0.0-26.0","198","5354","12","Male","true","true","true","false","""event"",""trial"",""time""
""fullscreenenter"",""5"",""18422""
","
","
","""event"",""trial"",""time""
""fullscreenenter"",""5"",""18422""
","
","1823.7000000476837","","49","","","3000","1","","","images/tutyellowplanet.jpg","null","images/tutalien3","null","images/tutalien3","images/t.png","NA","practice","null","","","",""
"d3-animate-choice","27","211533","0.0-27.0","198","5354","12","Male","true","true","true","false","""event"",""trial"",""time""
""fullscreenenter"",""5"",""18422""
","
","
","""event"",""trial"",""time""
""fullscreenenter"",""5"",""18422""
","
","517.6000000238419","","49","","","3000","1","","","images/tutyellowplanet.jpg","null","images/tutalien3","null","images/tutalien3","images/t.png","NA","practice","null","","","",""
"d3-animate-choice","28","214080","0.0-28.0","198","5354","12","Male","true","true","true","false","""event"",""trial"",""time""
""fullscreenenter"",""5"",""18422""
","
","
","""event"",""trial"",""time""
""fullscreenenter"",""5"",""18422""
","
","540.6000000238419","","49","","","3000","1","","","images/tutyellowplanet.jpg","null","images/tutalien3","null","images/tutalien3","images/nothing.png","NA","practice","null","","","",""
"d3-animate-choice","29","217245","0.0-29.0","198","5354","12","Male","true","true","true","false","""event"",""trial"",""time""
""fullscreenenter"",""5"",""18422""
","
","
","""event"",""trial"",""time""
""fullscreenenter"",""5"",""18422""
","
","1159.6000000238419","","49","","","3000","1","","","images/tutyellowplanet.jpg","null","images/tutalien3","null","images/tutalien3","images/nothing.png","NA","practice","null","","","",""
"d3-instructions","30","224839","0.0-30.0","198","5354","12","Male","true","true","true","false","""event"",""trial"",""time""
""fullscreenenter"",""5"",""18422""
","
","
","""event"",""trial"",""time""
""fullscreenenter"",""5"",""18422""
","
","","","","","","","","","","","","","","","","","","","","","",""
"d3-instructions","31","237531","0.0-31.0","198","5354","12","Male","true","true","true","false","""event"",""trial"",""time""
""fullscreenenter"",""5"",""18422""
","
","
","""event"",""trial"",""time""
""fullscreenenter"",""5"",""18422""
","
","","","","","","","","","","","","","","","","","","","","","",""
"d3-instructions","32","249346","0.0-32.0","198","5354","12","Male","true","true","true","false","""event"",""trial"",""time""
""fullscreenenter"",""5"",""18422""
","
","
","""event"",""trial"",""time""
""fullscreenenter"",""5"",""18422""
","
","","","","","","","","","","","","","","","","","","","","","",""
"d3-instructions","33","263664","0.0-33.0","198","5354","12","Male","true","true","true","false","""event"",""trial"",""time""
""fullscreenenter"",""5"",""18422""
","
","
","""event"",""trial"",""time""
""fullscreenenter"",""5"",""18422""
","
","","","","","","","","","","","","","","","","","","","","","",""
"d3-animate-choice","34","268014","0.0-34.0","198","5354","12","Male","true","true","true","false","""event"",""trial"",""time""
""fullscreenenter"",""5"",""18422""
","
","
","""event"",""trial"",""time""
""fullscreenenter"",""5"",""18422""
","
","2343.600000023842","","49","","","3000","1","","","images/tutgreenplanet.jpg","images/tutalien1","images/tutalien2","null","images/tutalien2","images/t.png","NA","practice","null","","","",""
"d3-animate-choice","35","270936","0.0-35.0","198","5354","12","Male","true","true","true","false","""event"",""trial"",""time""
""fullscreenenter"",""5"",""18422""
","
","
","""event"",""trial"",""time""
""fullscreenenter"",""5"",""18422""
","
","916.3999999761581","","49","","","3000","1","","","images/tutgreenplanet.jpg","images/tutalien1","images/tutalien2","null","images/tutalien2","images/t.png","NA","practice","null","","","",""
"d3-animate-choice","36","273955","0.0-36.0","198","5354","12","Male","true","true","true","false","""event"",""trial"",""time""
""fullscreenenter"",""5"",""18422""
","
","
","""event"",""trial"",""time""
""fullscreenenter"",""5"",""18422""
","
","1012","","49","","","3000","1","","","images/tutgreenplanet.jpg","images/tutalien1","images/tutalien2","null","images/tutalien2","images/t.png","NA","practice","null","","","",""
"d3-animate-choice","37","276941","0.0-37.0","198","5354","12","Male","true","true","true","false","""event"",""trial"",""time""
""fullscreenenter"",""5"",""18422""
","
","
","""event"",""trial"",""time""
""fullscreenenter"",""5"",""18422""
","
","978.6000000238419","","49","","","3000","1","","","images/tutgreenplanet.jpg","images/tutalien1","images/tutalien2","null","images/tutalien2","images/nothing.png","NA","practice","null","","","",""
"d3-animate-choice","38","279428","0.0-38.0","198","5354","12","Male","true","true","true","false","""event"",""trial"",""time""
""fullscreenenter"",""5"",""18422""
","
","
","""event"",""trial"",""time""
""fullscreenenter"",""5"",""18422""
","
","480.3000000715256","","49","","","3000","1","","","images/tutgreenplanet.jpg","images/tutalien1","images/tutalien2","null","images/tutalien2","images/t.png","NA","practice","null","","","",""
"d3-animate-choice","39","282156","0.0-39.0","198","5354","12","Male","true","true","true","false","""event"",""trial"",""time""
""fullscreenenter"",""5"",""18422""
","
","
","""event"",""trial"",""time""
""fullscreenenter"",""5"",""18422""
","
","724.4000000953674","","49","","","3000","1","","","images/tutgreenplanet.jpg","images/tutalien1","images/tutalien2","null","images/tutalien2","images/t.png","NA","practice","null","","","",""
"d3-animate-choice","40","284981","0.0-40.0","198","5354","12","Male","true","true","true","false","""event"",""trial"",""time""
""fullscreenenter"",""5"",""18422""
","
","
","""event"",""trial"",""time""
""fullscreenenter"",""5"",""18422""
","
","820.7000000476837","","49","","","3000","1","","","images/tutgreenplanet.jpg","images/tutalien1","images/tutalien2","null","images/tutalien2","images/t.png","NA","practice","null","","","",""
"d3-animate-choice","41","287530","0.0-41.0","198","5354","12","Male","true","true","true","false","""event"",""trial"",""time""
""fullscreenenter"",""5"",""18422""
","
","
","""event"",""trial"",""time""
""fullscreenenter"",""5"",""18422""
","
","544.7000000476837","","49","","","3000","1","","","images/tutgreenplanet.jpg","images/tutalien1","images/tutalien2","null","images/tutalien2","images/t.png","NA","practice","null","","","",""
"d3-animate-choice","42","290143","0.0-42.0","198","5354","12","Male","true","true","true","false","""event"",""trial"",""time""
""fullscreenenter"",""5"",""18422""
","
","
","""event"",""trial"",""time""
""fullscreenenter"",""5"",""18422""
","
","607.6000000238419","","49","","","3000","1","","","images/tutgreenplanet.jpg","images/tutalien1","images/tutalien2","null","images/tutalien2","images/t.png","NA","practice","null","","","",""
"d3-animate-choice","43","292975","0.0-43.0","198","5354","12","Male","true","true","true","false","""event"",""trial"",""time""
""fullscreenenter"",""5"",""18422""
","
","
","""event"",""trial"",""time""
""fullscreenenter"",""5"",""18422""
","
","826","","49","","","3000","1","","","images/tutgreenplanet.jpg","images/tutalien1","images/tutalien2","null","images/tutalien2","images/t.png","NA","practice","null","","","",""
"d3-instructions","44","308093","0.0-44.0","198","5354","12","Male","true","true","true","false","""event"",""trial"",""time""
""fullscreenenter"",""5"",""18422""
","
","
","""event"",""trial"",""time""
""fullscreenenter"",""5"",""18422""
","
","","","","","","","","","","","","","","","","","","","","","",""
"d3-instructions","45","315206","0.0-45.0","198","5354","12","Male","true","true","true","false","""event"",""trial"",""time""
""fullscreenenter"",""5"",""18422""
","
","
","""event"",""trial"",""time""
""fullscreenenter"",""5"",""18422""
","
","","","","","","","","","","","","","","","","","","","","","",""
"d3-instructions","46","321445","0.0-46.0","198","5354","12","Male","true","true","true","false","""event"",""trial"",""time""
""fullscreenenter"",""5"",""18422""
","
","
","""event"",""trial"",""time""
""fullscreenenter"",""5"",""18422""
","
","","","","","","","","","","","","","","","","","","","","","",""
"d3-instructions","47","338909","0.0-47.0","198","5354","12","Male","true","true","true","false","""event"",""trial"",""time""
""fullscreenenter"",""5"",""18422""
","
","
","""event"",""trial"",""time""
""fullscreenenter"",""5"",""18422""
","
","","","","","","","","","","","","","","","","","","","","","",""
"d3-instructions","48","347769","0.0-48.0","198","5354","12","Male","true","true","true","false","""event"",""trial"",""time""
""fullscreenenter"",""5"",""18422""
","
","
","""event"",""trial"",""time""
""fullscreenenter"",""5"",""18422""
","
","","","","","","","","","","","","","","","","","","","","","",""
"d3-instructions","49","359621","0.0-49.0","198","5354","12","Male","true","true","true","false","""event"",""trial"",""time""
""fullscreenenter"",""5"",""18422""
","
","
","""event"",""trial"",""time""
""fullscreenenter"",""5"",""18422""
","
","","","","","","","","","","","","","","","","","","","","","",""
"d3-instructions","50","368401","0.0-50.0","198","5354","12","Male","true","true","true","false","""event"",""trial"",""time""
""fullscreenenter"",""5"",""18422""
","
","
","""event"",""trial"",""time""
""fullscreenenter"",""5"",""18422""
","
","","","","","","","","","","","","","","","","","","","","","",""
"d3-instructions","51","370946","0.0-51.0","198","5354","12","Male","true","true","true","false","""event"",""trial"",""time""
""fullscreenenter"",""5"",""18422""
","
","
","""event"",""trial"",""time""
""fullscreenenter"",""5"",""18422""
","
","","","","","","","","","","","","","","","","","","","","","",""
"d3-instructions","52","375480","0.0-52.0","198","5354","12","Male","true","true","true","false","""event"",""trial"",""time""
""fullscreenenter"",""5"",""18422""
","
","
","""event"",""trial"",""time""
""fullscreenenter"",""5"",""18422""
","
","","","","","","","","","","","","","","","","","","","","","",""
"d3-instructions","53","389610","0.0-53.0","198","5354","12","Male","true","true","true","false","""event"",""trial"",""time""
""fullscreenenter"",""5"",""18422""
","
","
","""event"",""trial"",""time""
""fullscreenenter"",""5"",""18422""
","
","","","","","","","","","","","","","","","","","","","","","",""
"d3-instructions","54","402640","0.0-54.0","198","5354","12","Male","true","true","true","false","""event"",""trial"",""time""
""fullscreenenter"",""5"",""18422""
","
","
","""event"",""trial"",""time""
""fullscreenenter"",""5"",""18422""
","
","","","","","","","","","","","","","","","","","","","","","",""
"d3-instructions","55","412726","0.0-55.0","198","5354","12","Male","true","true","true","false","""event"",""trial"",""time""
""fullscreenenter"",""5"",""18422""
","
","
","""event"",""trial"",""time""
""fullscreenenter"",""5"",""18422""
","
","","","","","","","","","","","","","","","","","","","","","",""
"d3-instructions","56","422013","0.0-56.0","198","5354","12","Male","true","true","true","false","""event"",""trial"",""time""
""fullscreenenter"",""5"",""18422""
","
","
","""event"",""trial"",""time""
""fullscreenenter"",""5"",""18422""
","
","","","","","","","","","","","","","","","","","","","","","",""
"d3-instructions","57","433150","0.0-57.0","198","5354","12","Male","true","true","true","false","""event"",""trial"",""time""
""fullscreenenter"",""5"",""18422""
","
","
","""event"",""trial"",""time""
""fullscreenenter"",""5"",""18422""
","
","","","","","","","","","","","","","","","","","","","","","",""
"d3-instructions","58","444324","0.0-58.0","198","5354","12","Male","true","true","true","false","""event"",""trial"",""time""
""fullscreenenter"",""5"",""18422""
","
","
","""event"",""trial"",""time""
""fullscreenenter"",""5"",""18422""
","
","","","","","","","","","","","","","","","","","","","","","",""
"d3-instructions","59","450947","0.0-59.0","198","5354","12","Male","true","true","true","false","""event"",""trial"",""time""
""fullscreenenter"",""5"",""18422""
","
","
","""event"",""trial"",""time""
""fullscreenenter"",""5"",""18422""
","
","","","","","","","","","","","","","","","","","","","","","",""
"d3-instructions","60","458601","0.0-60.0","198","5354","12","Male","true","true","true","false","""event"",""trial"",""time""
""fullscreenenter"",""5"",""18422""
","
","
","""event"",""trial"",""time""
""fullscreenenter"",""5"",""18422""
","
","","","","","","","","","","","","","","","","","","","","","",""
"d3-animate-choice","61","461409","0.0-61.0-0.0","198","5354","12","Male","true","true","true","false","""event"",""trial"",""time""
""fullscreenenter"",""5"",""18422""
","
","
","""event"",""trial"",""time""
""fullscreenenter"",""5"",""18422""
","
","800.1999999284744","","49","","","3000","1","","","images/earth.jpg","images/tutrocket2","images/tutrocket1","null","images/tutrocket1","","1","practice","null","1","","",""
"d3-animate-choice","62","465422","0.0-61.0-1.0","198","5354","12","Male","true","true","true","false","""event"",""trial"",""time""
""fullscreenenter"",""5"",""18422""
","
","
","""event"",""trial"",""time""
""fullscreenenter"",""5"",""18422""
","
","2355.8000000715256","","48","","","3000","1","","","images/tutyellowplanet.jpg","images/tutalien4","images/tutalien3","images/tutrocket1","images/tutalien4","images/nothing.png","2","practice","false","2","rare","0","2022-12-28 21:36:27.366"
"two-step-fixation","63","466430","0.0-61.0-2.0","198","5354","12","Male","true","true","true","false","""event"",""trial"",""time""
""fullscreenenter"",""5"",""18422""
","
","
","""event"",""trial"",""time""
""fullscreenenter"",""5"",""18422""
","
","","images/earth.jpg","","","","","","","","","","","","","","fixation","","","","","",""
"d3-animate-choice","64","470164","0.0-61.0-0.1","198","5354","12","Male","true","true","true","false","""event"",""trial"",""time""
""fullscreenenter"",""5"",""18422""
","
","
","""event"",""trial"",""time""
""fullscreenenter"",""5"",""18422""
","
","1727.8999999761581","","49","","","3000","1","","","images/earth.jpg","images/tutrocket2","images/tutrocket1","null","images/tutrocket1","","1","practice","null","1","","",""
"d3-animate-choice","65","474169","0.0-61.0-1.1","198","5354","12","Male","true","true","true","false","""event"",""trial"",""time""
""fullscreenenter"",""5"",""18422""
","
","
","""event"",""trial"",""time""
""fullscreenenter"",""5"",""18422""
","
","2451.3000000715256","","48","","","3000","1","","","images/tutgreenplanet.jpg","images/tutalien2","images/tutalien1","images/tutrocket1","images/tutalien2","images/t.png","2","practice","true","2","common","1","2022-12-28 21:36:36.113"
"two-step-fixation","66","475175","0.0-61.0-2.1","198","5354","12","Male","true","true","true","false","""event"",""trial"",""time""
""fullscreenenter"",""5"",""18422""
","
","
","""event"",""trial"",""time""
""fullscreenenter"",""5"",""18422""
","
","","images/earth.jpg","","","","","","","","","","","","","","fixation","","","","","",""
"d3-animate-choice","67","479183","0.0-61.0-0.2","198","5354","12","Male","true","true","true","false","""event"",""trial"",""time""
""fullscreenenter"",""5"",""18422""
","
","
","""event"",""trial"",""time""
""fullscreenenter"",""5"",""18422""
","
","2396.600000023842","","49","","","3000","1","","","images/earth.jpg","images/tutrocket2","images/tutrocket1","null","images/tutrocket1","","1","practice","null","1","","",""
"d3-animate-choice","68","482450","0.0-61.0-1.2","198","5354","12","Male","true","true","true","false","""event"",""trial"",""time""
""fullscreenenter"",""5"",""18422""
","
","
","""event"",""trial"",""time""
""fullscreenenter"",""5"",""18422""
","
","1258.8999999761581","","49","","","3000","1","","","images/tutyellowplanet.jpg","images/tutalien4","images/tutalien3","images/tutrocket1","images/tutalien3","images/t.png","2","practice","false","1","rare","1","2022-12-28 21:36:44.394"
"two-step-fixation","69","483456","0.0-61.0-2.2","198","5354","12","Male","true","true","true","false","""event"",""trial"",""time""
""fullscreenenter"",""5"",""18422""
","
","
","""event"",""trial"",""time""
""fullscreenenter"",""5"",""18422""
","
","","images/earth.jpg","","","","","","","","","","","","","","fixation","","","","","",""
"d3-animate-choice","70","486951","0.0-61.0-0.3","198","5354","12","Male","true","true","true","false","""event"",""trial"",""time""
""fullscreenenter"",""5"",""18422""
","
","
","""event"",""trial"",""time""
""fullscreenenter"",""5"",""18422""
","
","1477.7000000476837","","49","","","3000","1","","","images/earth.jpg","images/tutrocket2","images/tutrocket1","null","images/tutrocket1","","1","practice","null","1","","",""
"d3-animate-choice","71","489837","0.0-61.0-1.3","198","5354","12","Male","true","true","true","false","""event"",""trial"",""time""
""fullscreenenter"",""5"",""18422""
","
","
","""event"",""trial"",""time""
""fullscreenenter"",""5"",""18422""
","
","874.6000000238419","","49","","","3000","1","","","images/tutyellowplanet.jpg","images/tutalien4","images/tutalien3","images/tutrocket1","images/tutalien3","images/t.png","2","practice","false","1","rare","1","2022-12-28 21:36:51.781"
"two-step-fixation","72","490845","0.0-61.0-2.3","198","5354","12","Male","true","true","true","false","""event"",""trial"",""time""
""fullscreenenter"",""5"",""18422""
","
","
","""event"",""trial"",""time""
""fullscreenenter"",""5"",""18422""
","
","","images/earth.jpg","","","","","","","","","","","","","","fixation","","","","","",""
"d3-animate-choice","73","493198","0.0-61.0-0.4","198","5354","12","Male","true","true","true","false","""event"",""trial"",""time""
""fullscreenenter"",""5"",""18422""
","
","
","""event"",""trial"",""time""
""fullscreenenter"",""5"",""18422""
","
","344.1999999284744","","49","","","3000","1","","","images/earth.jpg","images/tutrocket2","images/tutrocket1","null","images/tutrocket1","","1","practice","null","1","","",""
"d3-animate-choice","74","495746","0.0-61.0-1.4","198","5354","12","Male","true","true","true","false","""event"",""trial"",""time""
""fullscreenenter"",""5"",""18422""
","
","
","""event"",""trial"",""time""
""fullscreenenter"",""5"",""18422""
","
","541.7999999523163","","49","","","3000","1","","","images/tutyellowplanet.jpg","images/tutalien4","images/tutalien3","images/tutrocket1","images/tutalien3","images/t.png","2","practice","false","1","rare","1","2022-12-28 21:36:57.690"
"two-step-fixation","75","496755","0.0-61.0-2.4","198","5354","12","Male","true","true","true","false","""event"",""trial"",""time""
""fullscreenenter"",""5"",""18422""
","
","
","""event"",""trial"",""time""
""fullscreenenter"",""5"",""18422""
","
","","images/earth.jpg","","","","","","","","","","","","","","fixation","","","","","",""
"d3-animate-choice","76","498994","0.0-61.0-0.5","198","5354","12","Male","true","true","true","false","""event"",""trial"",""time""
""fullscreenenter"",""5"",""18422""
","
","
","""event"",""trial"",""time""
""fullscreenenter"",""5"",""18422""
","
","235.39999997615814","","49","","","3000","1","","","images/earth.jpg","images/tutrocket2","images/tutrocket1","null","images/tutrocket1","","1","practice","null","1","","",""
"d3-animate-choice","77","501574","0.0-61.0-1.5","198","5354","12","Male","true","true","true","false","""event"",""trial"",""time""
""fullscreenenter"",""5"",""18422""
","
","
","""event"",""trial"",""time""
""fullscreenenter"",""5"",""18422""
","
","573.4000000953674","","49","","","3000","1","","","images/tutyellowplanet.jpg","images/tutalien4","images/tutalien3","images/tutrocket1","images/tutalien3","images/t.png","2","practice","false","1","rare","1","2022-12-28 21:37:03.518"
"two-step-fixation","78","502581","0.0-61.0-2.5","198","5354","12","Male","true","true","true","false","""event"",""trial"",""time""
""fullscreenenter"",""5"",""18422""
","
","
","""event"",""trial"",""time""
""fullscreenenter"",""5"",""18422""
","
","","images/earth.jpg","","","","","","","","","","","","","","fixation","","","","","",""
"d3-animate-choice","79","505317","0.0-61.0-0.6","198","5354","12","Male","true","true","true","false","""event"",""trial"",""time""
""fullscreenenter"",""5"",""18422""
","
","
","""event"",""trial"",""time""
""fullscreenenter"",""5"",""18422""
","
","727.5","","49","","","3000","1","","","images/earth.jpg","images/tutrocket2","images/tutrocket1","null","images/tutrocket1","","1","practice","null","1","","",""
"d3-animate-choice","80","508064","0.0-61.0-1.6","198","5354","12","Male","true","true","true","false","""event"",""trial"",""time""
""fullscreenenter"",""5"",""18422""
","
","
","""event"",""trial"",""time""
""fullscreenenter"",""5"",""18422""
","
","740.7999999523163","","49","","","3000","1","","","images/tutyellowplanet.jpg","images/tutalien4","images/tutalien3","images/tutrocket1","images/tutalien3","images/t.png","2","practice","false","1","rare","1","2022-12-28 21:37:10.008"
"two-step-fixation","81","509068","0.0-61.0-2.6","198","5354","12","Male","true","true","true","false","""event"",""trial"",""time""
""fullscreenenter"",""5"",""18422""
","
","
","""event"",""trial"",""time""
""fullscreenenter"",""5"",""18422""
","
","","images/earth.jpg","","","","","","","","","","","","","","fixation","","","","","",""
"d3-animate-choice","82","511524","0.0-61.0-0.7","198","5354","12","Male","true","true","true","false","""event"",""trial"",""time""
""fullscreenenter"",""5"",""18422""
","
","
","""event"",""trial"",""time""
""fullscreenenter"",""5"",""18422""
","
","452.7999999523163","","49","","","3000","1","","","images/earth.jpg","images/tutrocket2","images/tutrocket1","null","images/tutrocket1","","1","practice","null","1","","",""
"d3-animate-choice","83","514786","0.0-61.0-1.7","198","5354","12","Male","true","true","true","false","""event"",""trial"",""time""
""fullscreenenter"",""5"",""18422""
","
","
","""event"",""trial"",""time""
""fullscreenenter"",""5"",""18422""
","
","1256.1000000238419","","48","","","3000","1","","","images/tutgreenplanet.jpg","images/tutalien2","images/tutalien1","images/tutrocket1","images/tutalien2","images/nothing.png","2","practice","true","2","common","0","2022-12-28 21:37:16.730"
"two-step-fixation","84","515790","0.0-61.0-2.7","198","5354","12","Male","true","true","true","false","""event"",""trial"",""time""
""fullscreenenter"",""5"",""18422""
","
","
","""event"",""trial"",""time""
""fullscreenenter"",""5"",""18422""
","
","","images/earth.jpg","","","","","","","","","","","","","","fixation","","","","","",""
"d3-animate-choice","85","518298","0.0-61.0-0.8","198","5354","12","Male","true","true","true","false","""event"",""trial"",""time""
""fullscreenenter"",""5"",""18422""
","
","
","""event"",""trial"",""time""
""fullscreenenter"",""5"",""18422""
","
","500.7000000476837","","49","","","3000","1","","","images/earth.jpg","images/tutrocket2","images/tutrocket1","null","images/tutrocket1","","1","practice","null","1","","",""
"d3-animate-choice","86","521147","0.0-61.0-1.8","198","5354","12","Male","true","true","true","false","""event"",""trial"",""time""
""fullscreenenter"",""5"",""18422""
","
","
","""event"",""trial"",""time""
""fullscreenenter"",""5"",""18422""
","
","840.8999999761581","","49","","","3000","1","","","images/tutyellowplanet.jpg","images/tutalien4","images/tutalien3","images/tutrocket1","images/tutalien3","images/nothing.png","2","practice","false","1","rare","0","2022-12-28 21:37:23.091"
"two-step-fixation","87","522152","0.0-61.0-2.8","198","5354","12","Male","true","true","true","false","""event"",""trial"",""time""
""fullscreenenter"",""5"",""18422""
","
","
","""event"",""trial"",""time""
""fullscreenenter"",""5"",""18422""
","
","","images/earth.jpg","","","","","","","","","","","","","","fixation","","","","","",""
"d3-animate-choice","88","524643","0.0-61.0-0.9","198","5354","12","Male","true","true","true","false","""event"",""trial"",""time""
""fullscreenenter"",""5"",""18422""
","
","
","""event"",""trial"",""time""
""fullscreenenter"",""5"",""18422""
","
","486.2999999523163","","49","","","3000","1","","","images/earth.jpg","images/tutrocket2","images/tutrocket1","null","images/tutrocket1","","1","practice","null","1","","",""
"d3-animate-choice","89","528039","0.0-61.0-1.9","198","5354","12","Male","true","true","true","false","""event"",""trial"",""time""
""fullscreenenter"",""5"",""18422""
","
","
","""event"",""trial"",""time""
""fullscreenenter"",""5"",""18422""
","
","1392.3000000715256","","49","","","3000","1","","","images/tutgreenplanet.jpg","images/tutalien2","images/tutalien1","images/tutrocket1","images/tutalien1","images/nothing.png","2","practice","true","1","common","0","2022-12-28 21:37:29.984"
"two-step-fixation","90","529043","0.0-61.0-2.9","198","5354","12","Male","true","true","true","false","""event"",""trial"",""time""
""fullscreenenter"",""5"",""18422""
","
","
","""event"",""trial"",""time""
""fullscreenenter"",""5"",""18422""
","
","","images/earth.jpg","","","","","","","","","","","","","","fixation","","","","","",""
"d3-animate-choice","91","532222","0.0-61.0-0.10","198","5354","12","Male","true","true","true","false","""event"",""trial"",""time""
""fullscreenenter"",""5"",""18422""
","
","
","""event"",""trial"",""time""
""fullscreenenter"",""5"",""18422""
","
","1172.2000000476837","","48","","","3000","1","","","images/earth.jpg","images/tutrocket2","images/tutrocket1","null","images/tutrocket2","","1","practice","null","2","","",""
"d3-animate-choice","92","535521","0.0-61.0-1.10","198","5354","12","Male","true","true","true","false","""event"",""trial"",""time""
""fullscreenenter"",""5"",""18422""
","
","
","""event"",""trial"",""time""
""fullscreenenter"",""5"",""18422""
","
","1295.3999999761581","","49","","","3000","1","","","images/tutyellowplanet.jpg","images/tutalien4","images/tutalien3","images/tutrocket2","images/tutalien3","images/nothing.png","2","practice","true","1","common","0","2022-12-28 21:37:37.465"
"two-step-fixation","93","536530","0.0-61.0-2.10","198","5354","12","Male","true","true","true","false","""event"",""trial"",""time""
""fullscreenenter"",""5"",""18422""
","
","
","""event"",""trial"",""time""
""fullscreenenter"",""5"",""18422""
","
","","images/earth.jpg","","","","","","","","","","","","","","fixation","","","","","",""
"d3-animate-choice","94","540540","0.0-61.0-0.11","198","5354","12","Male","true","true","true","false","""event"",""trial"",""time""
""fullscreenenter"",""5"",""18422""
","
","
","""event"",""trial"",""time""
""fullscreenenter"",""5"",""18422""
","
","2070.899999976158","","48","","","3000","1","","","images/earth.jpg","images/tutrocket2","images/tutrocket1","null","images/tutrocket2","","1","practice","null","2","","",""
"d3-animate-choice","95","543857","0.0-61.0-1.11","198","5354","12","Male","true","true","true","false","""event"",""trial"",""time""
""fullscreenenter"",""5"",""18422""
","
","
","""event"",""trial"",""time""
""fullscreenenter"",""5"",""18422""
","
","1311.8000000715256","","48","","","3000","1","","","images/tutyellowplanet.jpg","images/tutalien4","images/tutalien3","images/tutrocket2","images/tutalien4","images/t.png","2","practice","true","2","common","1","2022-12-28 21:37:45.801"
"two-step-fixation","96","544863","0.0-61.0-2.11","198","5354","12","Male","true","true","true","false","""event"",""trial"",""time""
""fullscreenenter"",""5"",""18422""
","
","
","""event"",""trial"",""time""
""fullscreenenter"",""5"",""18422""
","
","","images/earth.jpg","","","","","","","","","","","","","","fixation","","","","","",""
"d3-animate-choice","97","547715","0.0-61.0-0.12","198","5354","12","Male","true","true","true","false","""event"",""trial"",""time""
""fullscreenenter"",""5"",""18422""
","
","
","""event"",""trial"",""time""
""fullscreenenter"",""5"",""18422""
","
","845.3999999761581","","49","","","3000","1","","","images/earth.jpg","images/tutrocket2","images/tutrocket1","null","images/tutrocket1","","1","practice","null","1","","",""
"d3-animate-choice","98","551171","0.0-61.0-1.12","198","5354","12","Male","true","true","true","false","""event"",""trial"",""time""
""fullscreenenter"",""5"",""18422""
","
","
","""event"",""trial"",""time""
""fullscreenenter"",""5"",""18422""
","
","1451","","48","","","3000","1","","","images/tutgreenplanet.jpg","images/tutalien2","images/tutalien1","images/tutrocket1","images/tutalien2","images/t.png","2","practice","true","2","common","1","2022-12-28 21:37:53.115"
"two-step-fixation","99","552175","0.0-61.0-2.12","198","5354","12","Male","true","true","true","false","""event"",""trial"",""time""
""fullscreenenter"",""5"",""18422""
","
","
","""event"",""trial"",""time""
""fullscreenenter"",""5"",""18422""
","
","","images/earth.jpg","","","","","","","","","","","","","","fixation","","","","","",""
"d3-animate-choice","100","555047","0.0-61.0-0.13","198","5354","12","Male","true","true","true","false","""event"",""trial"",""time""
""fullscreenenter"",""5"",""18422""
","
","
","""event"",""trial"",""time""
""fullscreenenter"",""5"",""18422""
","
","865.8999999761581","","49","","","3000","1","","","images/earth.jpg","images/tutrocket2","images/tutrocket1","null","images/tutrocket1","","1","practice","null","1","","",""
"d3-animate-choice","101","557609","0.0-61.0-1.13","198","5354","12","Male","true","true","true","false","""event"",""trial"",""time""
""fullscreenenter"",""5"",""18422""
","
","
","""event"",""trial"",""time""
""fullscreenenter"",""5"",""18422""
","
","555.3999999761581","","48","","","3000","1","","","images/tutyellowplanet.jpg","images/tutalien4","images/tutalien3","images/tutrocket1","images/tutalien4","images/nothing.png","2","practice","false","2","rare","0","2022-12-28 21:37:59.554"
"two-step-fixation","102","558617","0.0-61.0-2.13","198","5354","12","Male","true","true","true","false","""event"",""trial"",""time""
""fullscreenenter"",""5"",""18422""
","
","
","""event"",""trial"",""time""
""fullscreenenter"",""5"",""18422""
","
","","images/earth.jpg","","","","","","","","","","","","","","fixation","","","","","",""
"d3-animate-choice","103","561179","0.0-61.0-0.14","198","5354","12","Male","true","true","true","false","""event"",""trial"",""time""
""fullscreenenter"",""5"",""18422""
","
","
","""event"",""trial"",""time""
""fullscreenenter"",""5"",""18422""
","
","553.3000000715256","","49","","","3000","1","","","images/earth.jpg","images/tutrocket2","images/tutrocket1","null","images/tutrocket1","","1","practice","null","1","","",""
"d3-animate-choice","104","564125","0.0-61.0-1.14","198","5354","12","Male","true","true","true","false","""event"",""trial"",""time""
""fullscreenenter"",""5"",""18422""
","
","
","""event"",""trial"",""time""
""fullscreenenter"",""5"",""18422""
","
","938.5","","48","","","3000","1","","","images/tutyellowplanet.jpg","images/tutalien4","images/tutalien3","images/tutrocket1","images/tutalien4","images/nothing.png","2","practice","false","2","rare","0","2022-12-28 21:38:06.069"
"two-step-fixation","105","565132","0.0-61.0-2.14","198","5354","12","Male","true","true","true","false","""event"",""trial"",""time""
""fullscreenenter"",""5"",""18422""
","
","
","""event"",""trial"",""time""
""fullscreenenter"",""5"",""18422""
","
","","images/earth.jpg","","","","","","","","","","","","","","fixation","","","","","",""
"d3-animate-choice","106","568324","0.0-61.0-0.15","198","5354","12","Male","true","true","true","false","""event"",""trial"",""time""
""fullscreenenter"",""5"",""18422""
","
","
","""event"",""trial"",""time""
""fullscreenenter"",""5"",""18422""
","
","1185.3999999761581","","48","","","3000","1","","","images/earth.jpg","images/tutrocket2","images/tutrocket1","null","images/tutrocket2","","1","practice","null","2","","",""
"d3-animate-choice","107","571239","0.0-61.0-1.15","198","5354","12","Male","true","true","true","false","""event"",""trial"",""time""
""fullscreenenter"",""5"",""18422""
","
","
","""event"",""trial"",""time""
""fullscreenenter"",""5"",""18422""
","
","910.5999999046326","","49","","","3000","1","","","images/tutyellowplanet.jpg","images/tutalien4","images/tutalien3","images/tutrocket2","images/tutalien3","images/nothing.png","2","practice","true","1","common","0","2022-12-28 21:38:13.183"
"two-step-fixation","108","572243","0.0-61.0-2.15","198","5354","12","Male","true","true","true","false","""event"",""trial"",""time""
""fullscreenenter"",""5"",""18422""
","
","
","""event"",""trial"",""time""
""fullscreenenter"",""5"",""18422""
","
","","images/earth.jpg","","","","","","","","","","","","","","fixation","","","","","",""
"d3-animate-choice","109","574913","0.0-61.0-0.16","198","5354","12","Male","true","true","true","false","""event"",""trial"",""time""
""fullscreenenter"",""5"",""18422""
","
","
","""event"",""trial"",""time""
""fullscreenenter"",""5"",""18422""
","
","662.6000000238419","","49","","","3000","1","","","images/earth.jpg","images/tutrocket2","images/tutrocket1","null","images/tutrocket1","","1","practice","null","1","","",""
"d3-animate-choice","110","578359","0.0-61.0-1.16","198","5354","12","Male","true","true","true","false","""event"",""trial"",""time""
""fullscreenenter"",""5"",""18422""
","
","
","""event"",""trial"",""time""
""fullscreenenter"",""5"",""18422""
","
","1438.6000000238419","","48","","","3000","1","","","images/tutgreenplanet.jpg","images/tutalien2","images/tutalien1","images/tutrocket1","images/tutalien2","images/t.png","2","practice","true","2","common","1","2022-12-28 21:38:20.303"
"two-step-fixation","111","579366","0.0-61.0-2.16","198","5354","12","Male","true","true","true","false","""event"",""trial"",""time""
""fullscreenenter"",""5"",""18422""
","
","
","""event"",""trial"",""time""
""fullscreenenter"",""5"",""18422""
","
","","images/earth.jpg","","","","","","","","","","","","","","fixation","","","","","",""
"d3-animate-choice","112","582244","0.0-61.0-0.17","198","5354","12","Male","true","true","true","false","""event"",""trial"",""time""
""fullscreenenter"",""5"",""18422""
","
","
","""event"",""trial"",""time""
""fullscreenenter"",""5"",""18422""
","
","873.7000000476837","","49","","","3000","1","","","images/earth.jpg","images/tutrocket2","images/tutrocket1","null","images/tutrocket1","","1","practice","null","1","","",""
"d3-animate-choice","113","584762","0.0-61.0-1.17","198","5354","12","Male","true","true","true","false","""event"",""trial"",""time""
""fullscreenenter"",""5"",""18422""
","
","
","""event"",""trial"",""time""
""fullscreenenter"",""5"",""18422""
","
","510.10000002384186","","48","","","3000","1","","","images/tutyellowplanet.jpg","images/tutalien4","images/tutalien3","images/tutrocket1","images/tutalien4","images/nothing.png","2","practice","false","2","rare","0","2022-12-28 21:38:26.706"
"two-step-fixation","114","585768","0.0-61.0-2.17","198","5354","12","Male","true","true","true","false","""event"",""trial"",""time""
""fullscreenenter"",""5"",""18422""
","
","
","""event"",""trial"",""time""
""fullscreenenter"",""5"",""18422""
","
","","images/earth.jpg","","","","","","","","","","","","","","fixation","","","","","",""
"d3-animate-choice","115","588467","0.0-61.0-0.18","198","5354","12","Male","true","true","true","false","""event"",""trial"",""time""
""fullscreenenter"",""5"",""18422""
","
","
","""event"",""trial"",""time""
""fullscreenenter"",""5"",""18422""
","
","692.5","","48","","","3000","1","","","images/earth.jpg","images/tutrocket2","images/tutrocket1","null","images/tutrocket2","","1","practice","null","2","","",""
"d3-animate-choice","116","591633","0.0-61.0-1.18","198","5354","12","Male","true","true","true","false","""event"",""trial"",""time""
""fullscreenenter"",""5"",""18422""
","
","
","""event"",""trial"",""time""
""fullscreenenter"",""5"",""18422""
","
","1159.0999999046326","","49","","","3000","1","","","images/tutgreenplanet.jpg","images/tutalien2","images/tutalien1","images/tutrocket2","images/tutalien1","images/t.png","2","practice","false","1","rare","1","2022-12-28 21:38:33.577"
"two-step-fixation","117","592641","0.0-61.0-2.18","198","5354","12","Male","true","true","true","false","""event"",""trial"",""time""
""fullscreenenter"",""5"",""18422""
","
","
","""event"",""trial"",""time""
""fullscreenenter"",""5"",""18422""
","
","","images/earth.jpg","","","","","","","","","","","","","","fixation","","","","","",""
"d3-animate-choice","118","595642","0.0-61.0-0.19","198","5354","12","Male","true","true","true","false","""event"",""trial"",""time""
""fullscreenenter"",""5"",""18422""
","
","
","""event"",""trial"",""time""
""fullscreenenter"",""5"",""18422""
","
","994.2000000476837","","48","","","3000","1","","","images/earth.jpg","images/tutrocket2","images/tutrocket1","null","images/tutrocket2","","1","practice","null","2","","",""
"d3-animate-choice","119","599268","0.0-61.0-1.19","198","5354","12","Male","true","true","true","false","""event"",""trial"",""time""
""fullscreenenter"",""5"",""18422""
","
","
","""event"",""trial"",""time""
""fullscreenenter"",""5"",""18422""
","
","1619","","49","","","3000","1","","","images/tutyellowplanet.jpg","images/tutalien4","images/tutalien3","images/tutrocket2","images/tutalien3","images/nothing.png","2","practice","true","1","common","0","2022-12-28 21:38:41.212"
"two-step-fixation","120","600274","0.0-61.0-2.19","198","5354","12","Male","true","true","true","false","""event"",""trial"",""time""
""fullscreenenter"",""5"",""18422""
","
","
","""event"",""trial"",""time""
""fullscreenenter"",""5"",""18422""
","
","","images/earth.jpg","","","","","","","","","","","","","","fixation","","","","","",""
"d3-instructions","121","618178","0.0-62.0","198","5354","12","Male","true","true","true","false","""event"",""trial"",""time""
""fullscreenenter"",""5"",""18422""
","
","
","""event"",""trial"",""time""
""fullscreenenter"",""5"",""18422""
","
","","","","","","","","","","","","","","","","","","","","","",""
"audio-keyboard-response","122","624687","0.0-63.0","198","5354","12","Male","true","true","true","false","""event"",""trial"",""time""
""fullscreenenter"",""5"",""18422""
","
","
","""event"",""trial"",""time""
""fullscreenenter"",""5"",""18422""
","
","6507","audio/instructions/treasure_feedback.wav","32","","","","","","","","","","","","","","","","","","",""
"d3-instructions","123","646663","0.0-64.0","198","5354","12","Male","true","true","true","false","""event"",""trial"",""time""
""fullscreenenter"",""5"",""18422""
","
","
","""event"",""trial"",""time""
""fullscreenenter"",""5"",""18422""
","
","","","","","","","","","","","","","","","","","","","","","",""
"d3-instructions","124","661631","0.0-65.0","198","5354","12","Male","true","true","true","false","""event"",""trial"",""time""
""fullscreenenter"",""5"",""18422""
","
","
","""event"",""trial"",""time""
""fullscreenenter"",""5"",""18422""
","
","","","","","","","","","","","","","","","","","","","","","",""
"d3-instructions","125","697514","0.0-66.0","198","5354","12","Male","true","true","true","false","""event"",""trial"",""time""
""fullscreenenter"",""5"",""18422""
","
","
","""event"",""trial"",""time""
""fullscreenenter"",""5"",""18422""
","
","","","","","","","","","","","","","","","","","","","","","",""
"d3-instructions","126","716940","0.0-67.0","198","5354","12","Male","true","true","true","false","""event"",""trial"",""time""
""fullscreenenter"",""5"",""18422""
","
","
","""event"",""trial"",""time""
""fullscreenenter"",""5"",""18422""
","
","","","","","","","","","","","","","","","","","","","","","",""
"d3-instructions","127","726495","0.0-68.0","198","5354","12","Male","true","true","true","false","""event"",""trial"",""time""
""fullscreenenter"",""5"",""18422""
","
","
","""event"",""trial"",""time""
""fullscreenenter"",""5"",""18422""
","
","","","","","","","","","","","","","","","","","","","","","",""
"instructions-quiz","128","734489","0.0-69.0","198","5354","12","Male","true","true","true","false","""event"",""trial"",""time""
""fullscreenenter"",""5"",""18422""
","
","
","""event"",""trial"",""time""
""fullscreenenter"",""5"",""18422""
","
","7990.5","audio/quiz/Q1_Prompt.wav","","1","","","","","","","","","","","","","","","","","",""
"audio-keyboard-response","129","743665","0.0-70.0","198","5354","12","Male","true","true","true","false","""event"",""trial"",""time""
""fullscreenenter"",""5"",""18422""
","
","
","""event"",""trial"",""time""
""fullscreenenter"",""5"",""18422""
","
","null","audio/quiz/Q1_Correct.wav","null","","","","","","","","","","","","","","","","","","",""
"instructions-quiz","130","752938","0.0-71.0","198","5354","12","Male","true","true","true","false","""event"",""trial"",""time""
""fullscreenenter"",""5"",""18422""
","
","
","""event"",""trial"",""time""
""fullscreenenter"",""5"",""18422""
","
","9270.800000071526","audio/quiz/Q2_Prompt.wav","","0","","","","","","","","","","","","","","","","","",""
"audio-keyboard-response","131","765805","0.0-72.0","198","5354","12","Male","true","true","true","false","""event"",""trial"",""time""
""fullscreenenter"",""5"",""18422""
","
","
","""event"",""trial"",""time""
""fullscreenenter"",""5"",""18422""
","
","null","audio/quiz/Q2_Correct.wav","null","","","","","","","","","","","","","","","","","","",""
"instructions-quiz","132","771688","0.0-73.0","198","5354","12","Male","true","true","true","false","""event"",""trial"",""time""
""fullscreenenter"",""5"",""18422""
","
","
","""event"",""trial"",""time""
""fullscreenenter"",""5"",""18422""
","
","5880.400000095367","audio/quiz/Q3_Prompt.wav","","1","","","","","","","","","","","","","","","","","",""
"audio-keyboard-response","133","777484","0.0-74.0","198","5354","12","Male","true","true","true","false","""event"",""trial"",""time""
""fullscreenenter"",""5"",""18422""
","
","
","""event"",""trial"",""time""
""fullscreenenter"",""5"",""18422""
","
","null","audio/quiz/Q3_Correct.wav","null","","","","","","","","","","","","","","","","","","",""
"d3-instructions","134","798320","0.0-75.0","198","5354","12","Male","true","true","true","false","""event"",""trial"",""time""
""fullscreenenter"",""5"",""18422""
","
","
","""event"",""trial"",""time""
""fullscreenenter"",""5"",""18422""
","
","","","","","","","","","","","","","","","","","","","","","",""
"d3-animate-choice","135","802329","0.0-76.0-0.0","198","5354","12","Male","true","true","true","false","""event"",""trial"",""time""
""fullscreenenter"",""5"",""18422""
","
","
","""event"",""trial"",""time""
""fullscreenenter"",""5"",""18422""
","
","2172.5999999046326","","49","","","3000","1","","","images/earth.jpg","images/rocket2","images/rocket1","null","images/rocket1","","1","real","null","1","","",""
"d3-animate-choice","136","805970","0.0-76.0-1.0","198","5354","12","Male","true","true","true","false","""event"",""trial"",""time""
""fullscreenenter"",""5"",""18422""
","
","
","""event"",""trial"",""time""
""fullscreenenter"",""5"",""18422""
","
","1635.1000000238419","","49","","","3000","1","","","images/redplanet1.jpg","images/alien2","images/alien1","images/rocket1","images/alien1","images/nothing.png","2","real","true","1","common","0","2022-12-28 21:42:07.914"
"two-step-fixation","137","806976","0.0-76.0-2.0","198","5354","12","Male","true","true","true","false","""event"",""trial"",""time""
""fullscreenenter"",""5"",""18422""
","
","
","""event"",""trial"",""time""
""fullscreenenter"",""5"",""18422""
","
","","images/earth.jpg","","","","","","","","","","","","","","fixation","","","","","",""
"d3-animate-choice","138","809677","0.0-76.0-0.1","198","5354","12","Male","true","true","true","false","""event"",""trial"",""time""
""fullscreenenter"",""5"",""18422""
","
","
","""event"",""trial"",""time""
""fullscreenenter"",""5"",""18422""
","
","694.2999999523163","","49","","","3000","1","","","images/earth.jpg","images/rocket2","images/rocket1","null","images/rocket1","","1","real","null","1","","",""
"d3-animate-choice","139","812482","0.0-76.0-1.1","198","5354","12","Male","true","true","true","false","""event"",""trial"",""time""
""fullscreenenter"",""5"",""18422""
","
","
","""event"",""trial"",""time""
""fullscreenenter"",""5"",""18422""
","
","794.8999999761581","","48","","","3000","1","","","images/redplanet1.jpg","images/alien2","images/alien1","images/rocket1","images/alien2","images/t.png","2","real","true","2","common","1","2022-12-28 21:42:14.426"
"two-step-fixation","140","813485","0.0-76.0-2.1","198","5354","12","Male","true","true","true","false","""event"",""trial"",""time""
""fullscreenenter"",""5"",""18422""
","
","
","""event"",""trial"",""time""
""fullscreenenter"",""5"",""18422""
","
","","images/earth.jpg","","","","","","","","","","","","","","fixation","","","","","",""
"d3-animate-choice","141","816326","0.0-76.0-0.2","198","5354","12","Male","true","true","true","false","""event"",""trial"",""time""
""fullscreenenter"",""5"",""18422""
","
","
","""event"",""trial"",""time""
""fullscreenenter"",""5"",""18422""
","
","834.3999999761581","","49","","","3000","1","","","images/earth.jpg","images/rocket2","images/rocket1","null","images/rocket1","","1","real","null","1","","",""
"d3-animate-choice","142","818976","0.0-76.0-1.2","198","5354","12","Male","true","true","true","false","""event"",""trial"",""time""
""fullscreenenter"",""5"",""18422""
","
","
","""event"",""trial"",""time""
""fullscreenenter"",""5"",""18422""
","
","643.5999999046326","","48","","","3000","1","","","images/redplanet1.jpg","images/alien2","images/alien1","images/rocket1","images/alien2","images/t.png","2","real","true","2","common","1","2022-12-28 21:42:20.921"
"two-step-fixation","143","819981","0.0-76.0-2.2","198","5354","12","Male","true","true","true","false","""event"",""trial"",""time""
""fullscreenenter"",""5"",""18422""
","
","
","""event"",""trial"",""time""
""fullscreenenter"",""5"",""18422""
","
","","images/earth.jpg","","","","","","","","","","","","","","fixation","","","","","",""
"d3-animate-choice","144","822665","0.0-76.0-0.3","198","5354","12","Male","true","true","true","false","""event"",""trial"",""time""
""fullscreenenter"",""5"",""18422""
","
","
","""event"",""trial"",""time""
""fullscreenenter"",""5"",""18422""
","
","679","","49","","","3000","1","","","images/earth.jpg","images/rocket2","images/rocket1","null","images/rocket1","","1","real","null","1","","",""
"d3-animate-choice","145","825403","0.0-76.0-1.3","198","5354","12","Male","true","true","true","false","""event"",""trial"",""time""
""fullscreenenter"",""5"",""18422""
","
","
","""event"",""trial"",""time""
""fullscreenenter"",""5"",""18422""
","
","728.6000000238419","","48","","","3000","1","","","images/redplanet1.jpg","images/alien2","images/alien1","images/rocket1","images/alien2","images/t.png","2","real","true","2","common","1","2022-12-28 21:42:27.347"
"two-step-fixation","146","826409","0.0-76.0-2.3","198","5354","12","Male","true","true","true","false","""event"",""trial"",""time""
""fullscreenenter"",""5"",""18422""
","
","
","""event"",""trial"",""time""
""fullscreenenter"",""5"",""18422""
","
","","images/earth.jpg","","","","","","","","","","","","","","fixation","","","","","",""
"d3-animate-choice","147","829207","0.0-76.0-0.4","198","5354","12","Male","true","true","true","false","""event"",""trial"",""time""
""fullscreenenter"",""5"",""18422""
","
","
","""event"",""trial"",""time""
""fullscreenenter"",""5"",""18422""
","
","791.7000000476837","","49","","","3000","1","","","images/earth.jpg","images/rocket2","images/rocket1","null","images/rocket1","","1","real","null","1","","",""
"d3-animate-choice","148","831721","0.0-76.0-1.4","198","5354","12","Male","true","true","true","false","""event"",""trial"",""time""
""fullscreenenter"",""5"",""18422""
","
","
","""event"",""trial"",""time""
""fullscreenenter"",""5"",""18422""
","
","508.89999997615814","","48","","","3000","1","","","images/redplanet1.jpg","images/alien2","images/alien1","images/rocket1","images/alien2","images/t.png","2","real","true","2","common","1","2022-12-28 21:42:33.665"
"two-step-fixation","149","832726","0.0-76.0-2.4","198","5354","12","Male","true","true","true","false","""event"",""trial"",""time""
""fullscreenenter"",""5"",""18422""
","
","
","""event"",""trial"",""time""
""fullscreenenter"",""5"",""18422""
","
","","images/earth.jpg","","","","","","","","","","","","","","fixation","","","","","",""
"d3-animate-choice","150","835416","0.0-76.0-0.5","198","5354","12","Male","true","true","true","false","""event"",""trial"",""time""
""fullscreenenter"",""5"",""18422""
","
","
","""event"",""trial"",""time""
""fullscreenenter"",""5"",""18422""
","
","684.3999999761581","","49","","","3000","1","","","images/earth.jpg","images/rocket2","images/rocket1","null","images/rocket1","","1","real","null","1","","",""
"d3-animate-choice","151","839235","0.0-76.0-1.5","198","5354","12","Male","true","true","true","false","""event"",""trial"",""time""
""fullscreenenter"",""5"",""18422""
","
","
","""event"",""trial"",""time""
""fullscreenenter"",""5"",""18422""
","
","1815.8000000715256","","49","","","3000","1","","","images/purpleplanet.jpg","images/alien4","images/alien3","images/rocket1","images/alien3","images/t.png","2","real","false","1","rare","1","2022-12-28 21:42:41.179"
"two-step-fixation","152","840240","0.0-76.0-2.5","198","5354","12","Male","true","true","true","false","""event"",""trial"",""time""
""fullscreenenter"",""5"",""18422""
","
","
","""event"",""trial"",""time""
""fullscreenenter"",""5"",""18422""
","
","","images/earth.jpg","","","","","","","","","","","","","","fixation","","","","","",""
"d3-animate-choice","153","842806","0.0-76.0-0.6","198","5354","12","Male","true","true","true","false","""event"",""trial"",""time""
""fullscreenenter"",""5"",""18422""
","
","
","""event"",""trial"",""time""
""fullscreenenter"",""5"",""18422""
","
","560.2999999523163","","49","","","3000","1","","","images/earth.jpg","images/rocket2","images/rocket1","null","images/rocket1","","1","real","null","1","","",""
"d3-animate-choice","154","845589","0.0-76.0-1.6","198","5354","12","Male","true","true","true","false","""event"",""trial"",""time""
""fullscreenenter"",""5"",""18422""
","
","
","""event"",""trial"",""time""
""fullscreenenter"",""5"",""18422""
","
","775.3999999761581","","48","","","3000","1","","","images/redplanet1.jpg","images/alien2","images/alien1","images/rocket1","images/alien2","images/t.png","2","real","true","2","common","1","2022-12-28 21:42:47.533"
"two-step-fixation","155","846595","0.0-76.0-2.6","198","5354","12","Male","true","true","true","false","""event"",""trial"",""time""
""fullscreenenter"",""5"",""18422""
","
","
","""event"",""trial"",""time""
""fullscreenenter"",""5"",""18422""
","
","","images/earth.jpg","","","","","","","","","","","","","","fixation","","","","","",""
"d3-animate-choice","156","849416","0.0-76.0-0.7","198","5354","12","Male","true","true","true","false","""event"",""trial"",""time""
""fullscreenenter"",""5"",""18422""
","
","
","""event"",""trial"",""time""
""fullscreenenter"",""5"",""18422""
","
","814.8999999761581","","49","","","3000","1","","","images/earth.jpg","images/rocket2","images/rocket1","null","images/rocket1","","1","real","null","1","","",""
"d3-animate-choice","157","852487","0.0-76.0-1.7","198","5354","12","Male","true","true","true","false","""event"",""trial"",""time""
""fullscreenenter"",""5"",""18422""
","
","
","""event"",""trial"",""time""
""fullscreenenter"",""5"",""18422""
","
","1066.6000000238419","","49","","","3000","1","","","images/purpleplanet.jpg","images/alien4","images/alien3","images/rocket1","images/alien3","images/nothing.png","2","real","false","1","rare","0","2022-12-28 21:42:54.431"
"two-step-fixation","158","853491","0.0-76.0-2.7","198","5354","12","Male","true","true","true","false","""event"",""trial"",""time""
""fullscreenenter"",""5"",""18422""
","
","
","""event"",""trial"",""time""
""fullscreenenter"",""5"",""18422""
","
","","images/earth.jpg","","","","","","","","","","","","","","fixation","","","","","",""
"d3-animate-choice","159","855631","0.0-76.0-0.8","198","5354","12","Male","true","true","true","false","""event"",""trial"",""time""
""fullscreenenter"",""5"",""18422""
","
","
","""event"",""trial"",""time""
""fullscreenenter"",""5"",""18422""
","
","133.79999995231628","","49","","","3000","1","","","images/earth.jpg","images/rocket2","images/rocket1","null","images/rocket1","","1","real","null","1","","",""
"d3-animate-choice","160","858580","0.0-76.0-1.8","198","5354","12","Male","true","true","true","false","""event"",""trial"",""time""
""fullscreenenter"",""5"",""18422""
","
","
","""event"",""trial"",""time""
""fullscreenenter"",""5"",""18422""
","
","942.3999999761581","","48","","","3000","1","","","images/purpleplanet.jpg","images/alien4","images/alien3","images/rocket1","images/alien4","images/nothing.png","2","real","false","2","rare","0","2022-12-28 21:43:00.524"
"two-step-fixation","161","859586","0.0-76.0-2.8","198","5354","12","Male","true","true","true","false","""event"",""trial"",""time""
""fullscreenenter"",""5"",""18422""
","
","
","""event"",""trial"",""time""
""fullscreenenter"",""5"",""18422""
","
","","images/earth.jpg","","","","","","","","","","","","","","fixation","","","","","",""
"d3-animate-choice","162","862169","0.0-76.0-0.9","198","5354","12","Male","true","true","true","false","""event"",""trial"",""time""
""fullscreenenter"",""5"",""18422""
","
","
","""event"",""trial"",""time""
""fullscreenenter"",""5"",""18422""
","
","576.7000000476837","","49","","","3000","1","","","images/earth.jpg","images/rocket2","images/rocket1","null","images/rocket1","","1","real","null","1","","",""
"d3-animate-choice","163","865247","0.0-76.0-1.9","198","5354","12","Male","true","true","true","false","""event"",""trial"",""time""
""fullscreenenter"",""5"",""18422""
","
","
","""event"",""trial"",""time""
""fullscreenenter"",""5"",""18422""
","
","1074.5","","48","","","3000","1","","","images/redplanet1.jpg","images/alien2","images/alien1","images/rocket1","images/alien2","images/nothing.png","2","real","true","2","common","0","2022-12-28 21:43:07.191"
"two-step-fixation","164","866252","0.0-76.0-2.9","198","5354","12","Male","true","true","true","false","""event"",""trial"",""time""
""fullscreenenter"",""5"",""18422""
","
","
","""event"",""trial"",""time""
""fullscreenenter"",""5"",""18422""
","
","","images/earth.jpg","","","","","","","","","","","","","","fixation","","","","","",""
"d3-animate-choice","165","868629","0.0-76.0-0.10","198","5354","12","Male","true","true","true","false","""event"",""trial"",""time""
""fullscreenenter"",""5"",""18422""
","
","
","""event"",""trial"",""time""
""fullscreenenter"",""5"",""18422""
","
","369.1999999284744","","49","","","3000","1","","","images/earth.jpg","images/rocket2","images/rocket1","null","images/rocket1","","1","real","null","1","","",""
"d3-animate-choice","166","871309","0.0-76.0-1.10","198","5354","12","Male","true","true","true","false","""event"",""trial"",""time""
""fullscreenenter"",""5"",""18422""
","
","
","""event"",""trial"",""time""
""fullscreenenter"",""5"",""18422""
","
","674","","48","","","3000","1","","","images/redplanet1.jpg","images/alien2","images/alien1","images/rocket1","images/alien2","images/nothing.png","2","real","true","2","common","0","2022-12-28 21:43:13.254"
"two-step-fixation","167","872316","0.0-76.0-2.10","198","5354","12","Male","true","true","true","false","""event"",""trial"",""time""
""fullscreenenter"",""5"",""18422""
","
","
","""event"",""trial"",""time""
""fullscreenenter"",""5"",""18422""
","
","","images/earth.jpg","","","","","","","","","","","","","","fixation","","","","","",""
"d3-animate-choice","168","874791","0.0-76.0-0.11","198","5354","12","Male","true","true","true","false","""event"",""trial"",""time""
""fullscreenenter"",""5"",""18422""
","
","
","""event"",""trial"",""time""
""fullscreenenter"",""5"",""18422""
","
","468.09999990463257","","49","","","3000","1","","","images/earth.jpg","images/rocket2","images/rocket1","null","images/rocket1","","1","real","null","1","","",""
"d3-animate-choice","169","877427","0.0-76.0-1.11","198","5354","12","Male","true","true","true","false","""event"",""trial"",""time""
""fullscreenenter"",""5"",""18422""
","
","
","""event"",""trial"",""time""
""fullscreenenter"",""5"",""18422""
","
","631.3000000715256","","49","","","3000","1","","","images/redplanet1.jpg","images/alien2","images/alien1","images/rocket1","images/alien1","images/nothing.png","2","real","true","1","common","0","2022-12-28 21:43:19.371"
"two-step-fixation","170","878431","0.0-76.0-2.11","198","5354","12","Male","true","true","true","false","""event"",""trial"",""time""
""fullscreenenter"",""5"",""18422""
","
","
","""event"",""trial"",""time""
""fullscreenenter"",""5"",""18422""
","
","","images/earth.jpg","","","","","","","","","","","","","","fixation","","","","","",""
"d3-animate-choice","171","881275","0.0-76.0-0.12","198","5354","12","Male","true","true","true","false","""event"",""trial"",""time""
""fullscreenenter"",""5"",""18422""
","
","
","""event"",""trial"",""time""
""fullscreenenter"",""5"",""18422""
","
","840","","48","","","3000","1","","","images/earth.jpg","images/rocket2","images/rocket1","null","images/rocket2","","1","real","null","2","","",""
"d3-animate-choice","172","884358","0.0-76.0-1.12","198","5354","12","Male","true","true","true","false","""event"",""trial"",""time""
""fullscreenenter"",""5"",""18422""
","
","
","""event"",""trial"",""time""
""fullscreenenter"",""5"",""18422""
","
","1079.5","","49","","","3000","1","","","images/purpleplanet.jpg","images/alien4","images/alien3","images/rocket2","images/alien3","images/nothing.png","2","real","true","1","common","0","2022-12-28 21:43:26.302"
"two-step-fixation","173","885363","0.0-76.0-2.12","198","5354","12","Male","true","true","true","false","""event"",""trial"",""time""
""fullscreenenter"",""5"",""18422""
","
","
","""event"",""trial"",""time""
""fullscreenenter"",""5"",""18422""
","
","","images/earth.jpg","","","","","","","","","","","","","","fixation","","","","","",""
"d3-animate-choice","174","887620","0.0-76.0-0.13","198","5354","12","Male","true","true","true","false","""event"",""trial"",""time""
""fullscreenenter"",""5"",""18422""
","
","
","""event"",""trial"",""time""
""fullscreenenter"",""5"",""18422""
","
","252","","48","","","3000","1","","","images/earth.jpg","images/rocket2","images/rocket1","null","images/rocket2","","1","real","null","2","","",""
"d3-animate-choice","175","890163","0.0-76.0-1.13","198","5354","12","Male","true","true","true","false","""event"",""trial"",""time""
""fullscreenenter"",""5"",""18422""
","
","
","""event"",""trial"",""time""
""fullscreenenter"",""5"",""18422""
","
","534.5999999046326","","48","","","3000","1","","","images/redplanet1.jpg","images/alien2","images/alien1","images/rocket2","images/alien2","images/t.png","2","real","false","2","rare","1","2022-12-28 21:43:32.107"
"two-step-fixation","176","891167","0.0-76.0-2.13","198","5354","12","Male","true","true","true","false","""event"",""trial"",""time""
""fullscreenenter"",""5"",""18422""
","
","
","""event"",""trial"",""time""
""fullscreenenter"",""5"",""18422""
","
","","images/earth.jpg","","","","","","","","","","","","","","fixation","","","","","",""
"d3-animate-choice","177","893719","0.0-76.0-0.14","198","5354","12","Male","true","true","true","false","""event"",""trial"",""time""
""fullscreenenter"",""5"",""18422""
","
","
","""event"",""trial"",""time""
""fullscreenenter"",""5"",""18422""
","
","546.7999999523163","","48","","","3000","1","","","images/earth.jpg","images/rocket2","images/rocket1","null","images/rocket2","","1","real","null","2","","",""
"d3-animate-choice","178","896409","0.0-76.0-1.14","198","5354","12","Male","true","true","true","false","""event"",""trial"",""time""
""fullscreenenter"",""5"",""18422""
","
","
","""event"",""trial"",""time""
""fullscreenenter"",""5"",""18422""
","
","687.2000000476837","","48","","","3000","1","","","images/redplanet1.jpg","images/alien2","images/alien1","images/rocket2","images/alien2","images/nothing.png","2","real","false","2","rare","0","2022-12-28 21:43:38.353"
"two-step-fixation","179","897413","0.0-76.0-2.14","198","5354","12","Male","true","true","true","false","""event"",""trial"",""time""
""fullscreenenter"",""5"",""18422""
","
","
","""event"",""trial"",""time""
""fullscreenenter"",""5"",""18422""
","
","","images/earth.jpg","","","","","","","","","","","","","","fixation","","","","","",""
"d3-animate-choice","180","899804","0.0-76.0-0.15","198","5354","12","Male","true","true","true","false","""event"",""trial"",""time""
""fullscreenenter"",""5"",""18422""
","
","
","""event"",""trial"",""time""
""fullscreenenter"",""5"",""18422""
","
","384.5","","48","","","3000","1","","","images/earth.jpg","images/rocket2","images/rocket1","null","images/rocket2","","1","real","null","2","","",""
"d3-animate-choice","181","902747","0.0-76.0-1.15","198","5354","12","Male","true","true","true","false","""event"",""trial"",""time""
""fullscreenenter"",""5"",""18422""
","
","
","""event"",""trial"",""time""
""fullscreenenter"",""5"",""18422""
","
","937","","48","","","3000","1","","","images/purpleplanet.jpg","images/alien4","images/alien3","images/rocket2","images/alien4","images/t.png","2","real","true","2","common","1","2022-12-28 21:43:44.691"
"two-step-fixation","182","903754","0.0-76.0-2.15","198","5354","12","Male","true","true","true","false","""event"",""trial"",""time""
""fullscreenenter"",""5"",""18422""
","
","
","""event"",""trial"",""time""
""fullscreenenter"",""5"",""18422""
","
","","images/earth.jpg","","","","","","","","","","","","","","fixation","","","","","",""
"d3-animate-choice","183","906522","0.0-76.0-0.16","198","5354","12","Male","true","true","true","false","""event"",""trial"",""time""
""fullscreenenter"",""5"",""18422""
","
","
","""event"",""trial"",""time""
""fullscreenenter"",""5"",""18422""
","
","760.7000000476837","","48","","","3000","1","","","images/earth.jpg","images/rocket2","images/rocket1","null","images/rocket2","","1","real","null","2","","",""
"d3-animate-choice","184","909351","0.0-76.0-1.16","198","5354","12","Male","true","true","true","false","""event"",""trial"",""time""
""fullscreenenter"",""5"",""18422""
","
","
","""event"",""trial"",""time""
""fullscreenenter"",""5"",""18422""
","
","822","","48","","","3000","1","","","images/purpleplanet.jpg","images/alien4","images/alien3","images/rocket2","images/alien4","images/t.png","2","real","true","2","common","1","2022-12-28 21:43:51.295"
"two-step-fixation","185","910358","0.0-76.0-2.16","198","5354","12","Male","true","true","true","false","""event"",""trial"",""time""
""fullscreenenter"",""5"",""18422""
","
","
","""event"",""trial"",""time""
""fullscreenenter"",""5"",""18422""
","
","","images/earth.jpg","","","","","","","","","","","","","","fixation","","","","","",""
"d3-animate-choice","186","912779","0.0-76.0-0.17","198","5354","12","Male","true","true","true","false","""event"",""trial"",""time""
""fullscreenenter"",""5"",""18422""
","
","
","""event"",""trial"",""time""
""fullscreenenter"",""5"",""18422""
","
","414","","48","","","3000","1","","","images/earth.jpg","images/rocket2","images/rocket1","null","images/rocket2","","1","real","null","2","","",""
"d3-animate-choice","187","915387","0.0-76.0-1.17","198","5354","12","Male","true","true","true","false","""event"",""trial"",""time""
""fullscreenenter"",""5"",""18422""
","
","
","""event"",""trial"",""time""
""fullscreenenter"",""5"",""18422""
","
","603.7000000476837","","49","","","3000","1","","","images/redplanet1.jpg","images/alien2","images/alien1","images/rocket2","images/alien1","images/t.png","2","real","false","1","rare","1","2022-12-28 21:43:57.332"
"two-step-fixation","188","916393","0.0-76.0-2.17","198","5354","12","Male","true","true","true","false","""event"",""trial"",""time""
""fullscreenenter"",""5"",""18422""
","
","
","""event"",""trial"",""time""
""fullscreenenter"",""5"",""18422""
","
","","images/earth.jpg","","","","","","","","","","","","","","fixation","","","","","",""
"d3-animate-choice","189","918825","0.0-76.0-0.18","198","5354","12","Male","true","true","true","false","""event"",""trial"",""time""
""fullscreenenter"",""5"",""18422""
","
","
","""event"",""trial"",""time""
""fullscreenenter"",""5"",""18422""
","
","427.7999999523163","","48","","","3000","1","","","images/earth.jpg","images/rocket2","images/rocket1","null","images/rocket2","","1","real","null","2","","",""
"d3-animate-choice","190","921733","0.0-76.0-1.18","198","5354","12","Male","true","true","true","false","""event"",""trial"",""time""
""fullscreenenter"",""5"",""18422""
","
","
","""event"",""trial"",""time""
""fullscreenenter"",""5"",""18422""
","
","902.3000000715256","","48","","","3000","1","","","images/purpleplanet.jpg","images/alien4","images/alien3","images/rocket2","images/alien4","images/t.png","2","real","true","2","common","1","2022-12-28 21:44:03.677"
"two-step-fixation","191","922739","0.0-76.0-2.18","198","5354","12","Male","true","true","true","false","""event"",""trial"",""time""
""fullscreenenter"",""5"",""18422""
","
","
","""event"",""trial"",""time""
""fullscreenenter"",""5"",""18422""
","
","","images/earth.jpg","","","","","","","","","","","","","","fixation","","","","","",""
"d3-animate-choice","192","925280","0.0-76.0-0.19","198","5354","12","Male","true","true","true","false","""event"",""trial"",""time""
""fullscreenenter"",""5"",""18422""
","
","
","""event"",""trial"",""time""
""fullscreenenter"",""5"",""18422""
","
","532.3999999761581","","48","","","3000","1","","","images/earth.jpg","images/rocket2","images/rocket1","null","images/rocket2","","1","real","null","2","","",""
"d3-animate-choice","193","928263","0.0-76.0-1.19","198","5354","12","Male","true","true","true","false","""event"",""trial"",""time""
""fullscreenenter"",""5"",""18422""
","
","
","""event"",""trial"",""time""
""fullscreenenter"",""5"",""18422""
","
","976.6000000238419","","48","","","3000","1","","","images/purpleplanet.jpg","images/alien4","images/alien3","images/rocket2","images/alien4","images/t.png","2","real","true","2","common","1","2022-12-28 21:44:10.207"
"two-step-fixation","194","929270","0.0-76.0-2.19","198","5354","12","Male","true","true","true","false","""event"",""trial"",""time""
""fullscreenenter"",""5"",""18422""
","
","
","""event"",""trial"",""time""
""fullscreenenter"",""5"",""18422""
","
","","images/earth.jpg","","","","","","","","","","","","","","fixation","","","","","",""
"d3-animate-choice","195","931685","0.0-76.0-0.20","198","5354","12","Male","true","true","true","false","""event"",""trial"",""time""
""fullscreenenter"",""5"",""18422""
","
","
","""event"",""trial"",""time""
""fullscreenenter"",""5"",""18422""
","
","408","","48","","","3000","1","","","images/earth.jpg","images/rocket2","images/rocket1","null","images/rocket2","","1","real","null","2","","",""
"d3-animate-choice","196","934233","0.0-76.0-1.20","198","5354","12","Male","true","true","true","false","""event"",""trial"",""time""
""fullscreenenter"",""5"",""18422""
","
","
","""event"",""trial"",""time""
""fullscreenenter"",""5"",""18422""
","
","545","","49","","","3000","1","","","images/redplanet1.jpg","images/alien2","images/alien1","images/rocket2","images/alien1","images/t.png","2","real","false","1","rare","1","2022-12-28 21:44:16.177"
"two-step-fixation","197","935237","0.0-76.0-2.20","198","5354","12","Male","true","true","true","false","""event"",""trial"",""time""
""fullscreenenter"",""5"",""18422""
","
","
","""event"",""trial"",""time""
""fullscreenenter"",""5"",""18422""
","
","","images/earth.jpg","","","","","","","","","","","","","","fixation","","","","","",""
"d3-animate-choice","198","937679","0.0-76.0-0.21","198","5354","12","Male","true","true","true","false","""event"",""trial"",""time""
""fullscreenenter"",""5"",""18422""
","
","
","""event"",""trial"",""time""
""fullscreenenter"",""5"",""18422""
","
","437.60000002384186","","48","","","3000","1","","","images/earth.jpg","images/rocket2","images/rocket1","null","images/rocket2","","1","real","null","2","","",""
"d3-animate-choice","199","940438","0.0-76.0-1.21","198","5354","12","Male","true","true","true","false","""event"",""trial"",""time""
""fullscreenenter"",""5"",""18422""
","
","
","""event"",""trial"",""time""
""fullscreenenter"",""5"",""18422""
","
","755.3000000715256","","48","","","3000","1","","","images/purpleplanet.jpg","images/alien4","images/alien3","images/rocket2","images/alien4","images/nothing.png","2","real","true","2","common","0","2022-12-28 21:44:22.383"
"two-step-fixation","200","941446","0.0-76.0-2.21","198","5354","12","Male","true","true","true","false","""event"",""trial"",""time""
""fullscreenenter"",""5"",""18422""
","
","
","""event"",""trial"",""time""
""fullscreenenter"",""5"",""18422""
","
","","images/earth.jpg","","","","","","","","","","","","","","fixation","","","","","",""
"d3-animate-choice","201","944414","0.0-76.0-0.22","198","5354","12","Male","true","true","true","false","""event"",""trial"",""time""
""fullscreenenter"",""5"",""18422""
","
","
","""event"",""trial"",""time""
""fullscreenenter"",""5"",""18422""
","
","965.2000000476837","","48","","","3000","1","","","images/earth.jpg","images/rocket2","images/rocket1","null","images/rocket2","","1","real","null","2","","",""
"d3-animate-choice","202","947183","0.0-76.0-1.22","198","5354","12","Male","true","true","true","false","""event"",""trial"",""time""
""fullscreenenter"",""5"",""18422""
","
","
","""event"",""trial"",""time""
""fullscreenenter"",""5"",""18422""
","
","762.6000000238419","","48","","","3000","1","","","images/purpleplanet.jpg","images/alien4","images/alien3","images/rocket2","images/alien4","images/nothing.png","2","real","true","2","common","0","2022-12-28 21:44:29.128"
"two-step-fixation","203","948189","0.0-76.0-2.22","198","5354","12","Male","true","true","true","false","""event"",""trial"",""time""
""fullscreenenter"",""5"",""18422""
","
","
","""event"",""trial"",""time""
""fullscreenenter"",""5"",""18422""
","
","","images/earth.jpg","","","","","","","","","","","","","","fixation","","","","","",""
"d3-animate-choice","204","950920","0.0-76.0-0.23","198","5354","12","Male","true","true","true","false","""event"",""trial"",""time""
""fullscreenenter"",""5"",""18422""
","
","
","""event"",""trial"",""time""
""fullscreenenter"",""5"",""18422""
","
","724.4000000953674","","48","","","3000","1","","","images/earth.jpg","images/rocket2","images/rocket1","null","images/rocket2","","1","real","null","2","","",""
"d3-animate-choice","205","953668","0.0-76.0-1.23","198","5354","12","Male","true","true","true","false","""event"",""trial"",""time""
""fullscreenenter"",""5"",""18422""
","
","
","""event"",""trial"",""time""
""fullscreenenter"",""5"",""18422""
","
","738.7999999523163","","49","","","3000","1","","","images/purpleplanet.jpg","images/alien4","images/alien3","images/rocket2","images/alien3","images/nothing.png","2","real","true","1","common","0","2022-12-28 21:44:35.612"
"two-step-fixation","206","954671","0.0-76.0-2.23","198","5354","12","Male","true","true","true","false","""event"",""trial"",""time""
""fullscreenenter"",""5"",""18422""
","
","
","""event"",""trial"",""time""
""fullscreenenter"",""5"",""18422""
","
","","images/earth.jpg","","","","","","","","","","","","","","fixation","","","","","",""
"d3-animate-choice","207","957102","0.0-76.0-0.24","198","5354","12","Male","true","true","true","false","""event"",""trial"",""time""
""fullscreenenter"",""5"",""18422""
","
","
","""event"",""trial"",""time""
""fullscreenenter"",""5"",""18422""
","
","422.5","","49","","","3000","1","","","images/earth.jpg","images/rocket2","images/rocket1","null","images/rocket1","","1","real","null","1","","",""
"d3-animate-choice","208","959630","0.0-76.0-1.24","198","5354","12","Male","true","true","true","false","""event"",""trial"",""time""
""fullscreenenter"",""5"",""18422""
","
","
","""event"",""trial"",""time""
""fullscreenenter"",""5"",""18422""
","
","521.6000000238419","","49","","","3000","1","","","images/redplanet1.jpg","images/alien2","images/alien1","images/rocket1","images/alien1","images/t.png","2","real","true","1","common","1","2022-12-28 21:44:41.574"
"two-step-fixation","209","960633","0.0-76.0-2.24","198","5354","12","Male","true","true","true","false","""event"",""trial"",""time""
""fullscreenenter"",""5"",""18422""
","
","
","""event"",""trial"",""time""
""fullscreenenter"",""5"",""18422""
","
","","images/earth.jpg","","","","","","","","","","","","","","fixation","","","","","",""
"d3-animate-choice","210","963101","0.0-76.0-0.25","198","5354","12","Male","true","true","true","false","""event"",""trial"",""time""
""fullscreenenter"",""5"",""18422""
","
","
","""event"",""trial"",""time""
""fullscreenenter"",""5"",""18422""
","
","462.10000002384186","","49","","","3000","1","","","images/earth.jpg","images/rocket2","images/rocket1","null","images/rocket1","","1","real","null","1","","",""
"d3-animate-choice","211","966262","0.0-76.0-1.25","198","5354","12","Male","true","true","true","false","""event"",""trial"",""time""
""fullscreenenter"",""5"",""18422""
","
","
","""event"",""trial"",""time""
""fullscreenenter"",""5"",""18422""
","
","1152.6999999284744","","48","","","3000","1","","","images/purpleplanet.jpg","images/alien4","images/alien3","images/rocket1","images/alien4","images/t.png","2","real","false","2","rare","1","2022-12-28 21:44:48.206"
"two-step-fixation","212","967269","0.0-76.0-2.25","198","5354","12","Male","true","true","true","false","""event"",""trial"",""time""
""fullscreenenter"",""5"",""18422""
","
","
","""event"",""trial"",""time""
""fullscreenenter"",""5"",""18422""
","
","","images/earth.jpg","","","","","","","","","","","","","","fixation","","","","","",""
"d3-animate-choice","213","970163","0.0-76.0-0.26","198","5354","12","Male","true","true","true","false","""event"",""trial"",""time""
""fullscreenenter"",""5"",""18422""
","
","
","""event"",""trial"",""time""
""fullscreenenter"",""5"",""18422""
","
","889.2000000476837","","49","","","3000","1","","","images/earth.jpg","images/rocket2","images/rocket1","null","images/rocket1","","1","real","null","1","","",""
"d3-animate-choice","214","972880","0.0-76.0-1.26","198","5354","12","Male","true","true","true","false","""event"",""trial"",""time""
""fullscreenenter"",""5"",""18422""
","
","
","""event"",""trial"",""time""
""fullscreenenter"",""5"",""18422""
","
","710.5999999046326","","49","","","3000","1","","","images/redplanet1.jpg","images/alien2","images/alien1","images/rocket1","images/alien1","images/nothing.png","2","real","true","1","common","0","2022-12-28 21:44:54.824"
"two-step-fixation","215","973886","0.0-76.0-2.26","198","5354","12","Male","true","true","true","false","""event"",""trial"",""time""
""fullscreenenter"",""5"",""18422""
","
","
","""event"",""trial"",""time""
""fullscreenenter"",""5"",""18422""
","
","","images/earth.jpg","","","","","","","","","","","","","","fixation","","","","","",""
"d3-animate-choice","216","976873","0.0-76.0-0.27","198","5354","12","Male","true","true","true","false","""event"",""trial"",""time""
""fullscreenenter"",""5"",""18422""
","
","
","""event"",""trial"",""time""
""fullscreenenter"",""5"",""18422""
","
","980.3999999761581","","49","","","3000","1","","","images/earth.jpg","images/rocket2","images/rocket1","null","images/rocket1","","1","real","null","1","","",""
"d3-animate-choice","217","979656","0.0-76.0-1.27","198","5354","12","Male","true","true","true","false","""event"",""trial"",""time""
""fullscreenenter"",""5"",""18422""
","
","
","""event"",""trial"",""time""
""fullscreenenter"",""5"",""18422""
","
","774.2000000476837","","49","","","3000","1","","","images/redplanet1.jpg","images/alien2","images/alien1","images/rocket1","images/alien1","images/t.png","2","real","true","1","common","1","2022-12-28 21:45:01.600"
"two-step-fixation","218","980664","0.0-76.0-2.27","198","5354","12","Male","true","true","true","false","""event"",""trial"",""time""
""fullscreenenter"",""5"",""18422""
","
","
","""event"",""trial"",""time""
""fullscreenenter"",""5"",""18422""
","
","","images/earth.jpg","","","","","","","","","","","","","","fixation","","","","","",""
"d3-animate-choice","219","984170","0.0-76.0-0.28","198","5354","12","Male","true","true","true","false","""event"",""trial"",""time""
""fullscreenenter"",""5"",""18422""
","
","
","""event"",""trial"",""time""
""fullscreenenter"",""5"",""18422""
","
","1499.2999999523163","","49","","","3000","1","","","images/earth.jpg","images/rocket2","images/rocket1","null","images/rocket1","","1","real","null","1","","",""
"d3-animate-choice","220","987885","0.0-76.0-1.28","198","5354","12","Male","true","true","true","false","""event"",""trial"",""time""
""fullscreenenter"",""5"",""18422""
","
","
","""event"",""trial"",""time""
""fullscreenenter"",""5"",""18422""
","
","1708.2999999523163","","48","","","3000","1","","","images/purpleplanet.jpg","images/alien4","images/alien3","images/rocket1","images/alien4","images/t.png","2","real","false","2","rare","1","2022-12-28 21:45:09.830"
"two-step-fixation","221","988892","0.0-76.0-2.28","198","5354","12","Male","true","true","true","false","""event"",""trial"",""time""
""fullscreenenter"",""5"",""18422""
","
","
","""event"",""trial"",""time""
""fullscreenenter"",""5"",""18422""
","
","","images/earth.jpg","","","","","","","","","","","","","","fixation","","","","","",""
"d3-animate-choice","222","991540","0.0-76.0-0.29","198","5354","12","Male","true","true","true","false","""event"",""trial"",""time""
""fullscreenenter"",""5"",""18422""
","
","
","""event"",""trial"",""time""
""fullscreenenter"",""5"",""18422""
","
","641.2000000476837","","49","","","3000","1","","","images/earth.jpg","images/rocket2","images/rocket1","null","images/rocket1","","1","real","null","1","","",""
"d3-animate-choice","223","994364","0.0-76.0-1.29","198","5354","12","Male","true","true","true","false","""event"",""trial"",""time""
""fullscreenenter"",""5"",""18422""
","
","
","""event"",""trial"",""time""
""fullscreenenter"",""5"",""18422""
","
","816.1000000238419","","49","","","3000","1","","","images/redplanet1.jpg","images/alien2","images/alien1","images/rocket1","images/alien1","images/t.png","2","real","true","1","common","1","2022-12-28 21:45:16.308"
"two-step-fixation","224","995371","0.0-76.0-2.29","198","5354","12","Male","true","true","true","false","""event"",""trial"",""time""
""fullscreenenter"",""5"",""18422""
","
","
","""event"",""trial"",""time""
""fullscreenenter"",""5"",""18422""
","
","","images/earth.jpg","","","","","","","","","","","","","","fixation","","","","","",""
"d3-animate-choice","225","998080","0.0-76.0-0.30","198","5354","12","Male","true","true","true","false","""event"",""trial"",""time""
""fullscreenenter"",""5"",""18422""
","
","
","""event"",""trial"",""time""
""fullscreenenter"",""5"",""18422""
","
","703.8999999761581","","49","","","3000","1","","","images/earth.jpg","images/rocket2","images/rocket1","null","images/rocket1","","1","real","null","1","","",""
"d3-animate-choice","226","1001099","0.0-76.0-1.30","198","5354","12","Male","true","true","true","false","""event"",""trial"",""time""
""fullscreenenter"",""5"",""18422""
","
","
","""event"",""trial"",""time""
""fullscreenenter"",""5"",""18422""
","
","1014.1000000238419","","49","","","3000","1","","","images/redplanet1.jpg","images/alien2","images/alien1","images/rocket1","images/alien1","images/t.png","2","real","true","1","common","1","2022-12-28 21:45:23.044"
"two-step-fixation","227","1002107","0.0-76.0-2.30","198","5354","12","Male","true","true","true","false","""event"",""trial"",""time""
""fullscreenenter"",""5"",""18422""
","
","
","""event"",""trial"",""time""
""fullscreenenter"",""5"",""18422""
","
","","images/earth.jpg","","","","","","","","","","","","","","fixation","","","","","",""
"d3-animate-choice","228","1004613","0.0-76.0-0.31","198","5354","12","Male","true","true","true","false","""event"",""trial"",""time""
""fullscreenenter"",""5"",""18422""
","
","
","""event"",""trial"",""time""
""fullscreenenter"",""5"",""18422""
","
","501.1999999284744","","49","","","3000","1","","","images/earth.jpg","images/rocket2","images/rocket1","null","images/rocket1","","1","real","null","1","","",""
"d3-animate-choice","229","1007410","0.0-76.0-1.31","198","5354","12","Male","true","true","true","false","""event"",""trial"",""time""
""fullscreenenter"",""5"",""18422""
","
","
","""event"",""trial"",""time""
""fullscreenenter"",""5"",""18422""
","
","794.6999999284744","","49","","","3000","1","","","images/redplanet1.jpg","images/alien2","images/alien1","images/rocket1","images/alien1","images/t.png","2","real","true","1","common","1","2022-12-28 21:45:29.355"
"two-step-fixation","230","1008413","0.0-76.0-2.31","198","5354","12","Male","true","true","true","false","""event"",""trial"",""time""
""fullscreenenter"",""5"",""18422""
","
","
","""event"",""trial"",""time""
""fullscreenenter"",""5"",""18422""
","
","","images/earth.jpg","","","","","","","","","","","","","","fixation","","","","","",""
"d3-animate-choice","231","1011342","0.0-76.0-0.32","198","5354","12","Male","true","true","true","false","""event"",""trial"",""time""
""fullscreenenter"",""5"",""18422""
","
","
","""event"",""trial"",""time""
""fullscreenenter"",""5"",""18422""
","
","924.8999999761581","","49","","","3000","1","","","images/earth.jpg","images/rocket2","images/rocket1","null","images/rocket1","","1","real","null","1","","",""
"d3-animate-choice","232","1014466","0.0-76.0-1.32","198","5354","12","Male","true","true","true","false","""event"",""trial"",""time""
""fullscreenenter"",""5"",""18422""
","
","
","""event"",""trial"",""time""
""fullscreenenter"",""5"",""18422""
","
","1115.3000000715256","","48","","","3000","1","","","images/purpleplanet.jpg","images/alien4","images/alien3","images/rocket1","images/alien4","images/t.png","2","real","false","2","rare","1","2022-12-28 21:45:36.410"
"two-step-fixation","233","1015470","0.0-76.0-2.32","198","5354","12","Male","true","true","true","false","""event"",""trial"",""time""
""fullscreenenter"",""5"",""18422""
","
","
","""event"",""trial"",""time""
""fullscreenenter"",""5"",""18422""
","
","","images/earth.jpg","","","","","","","","","","","","","","fixation","","","","","",""
"d3-animate-choice","234","1018227","0.0-76.0-0.33","198","5354","12","Male","true","true","true","false","""event"",""trial"",""time""
""fullscreenenter"",""5"",""18422""
","
","
","""event"",""trial"",""time""
""fullscreenenter"",""5"",""18422""
","
","750.8000000715256","","49","","","3000","1","","","images/earth.jpg","images/rocket2","images/rocket1","null","images/rocket1","","1","real","null","1","","",""
"d3-animate-choice","235","1021792","0.0-76.0-1.33","198","5354","12","Male","true","true","true","false","""event"",""trial"",""time""
""fullscreenenter"",""5"",""18422""
","
","
","""event"",""trial"",""time""
""fullscreenenter"",""5"",""18422""
","
","1555.7000000476837","","49","","","3000","1","","","images/redplanet1.jpg","images/alien2","images/alien1","images/rocket1","images/alien1","images/t.png","2","real","true","1","common","1","2022-12-28 21:45:43.736"
"two-step-fixation","236","1022796","0.0-76.0-2.33","198","5354","12","Male","true","true","true","false","""event"",""trial"",""time""
""fullscreenenter"",""5"",""18422""
","
","
","""event"",""trial"",""time""
""fullscreenenter"",""5"",""18422""
","
","","images/earth.jpg","","","","","","","","","","","","","","fixation","","","","","",""
"d3-animate-choice","237","1025398","0.0-76.0-0.34","198","5354","12","Male","true","true","true","false","""event"",""trial"",""time""
""fullscreenenter"",""5"",""18422""
","
","
","""event"",""trial"",""time""
""fullscreenenter"",""5"",""18422""
","
","595.8999999761581","","49","","","3000","1","","","images/earth.jpg","images/rocket2","images/rocket1","null","images/rocket1","","1","real","null","1","","",""
"d3-animate-choice","238","1029059","0.0-76.0-1.34","198","5354","12","Male","true","true","true","false","""event"",""trial"",""time""
""fullscreenenter"",""5"",""18422""
","
","
","""event"",""trial"",""time""
""fullscreenenter"",""5"",""18422""
","
","1653.8999999761581","","49","","","3000","1","","","images/redplanet1.jpg","images/alien2","images/alien1","images/rocket1","images/alien1","images/t.png","2","real","true","1","common","1","2022-12-28 21:45:51.003"
"two-step-fixation","239","1030062","0.0-76.0-2.34","198","5354","12","Male","true","true","true","false","""event"",""trial"",""time""
""fullscreenenter"",""5"",""18422""
","
","
","""event"",""trial"",""time""
""fullscreenenter"",""5"",""18422""
","
","","images/earth.jpg","","","","","","","","","","","","","","fixation","","","","","",""
"d3-animate-choice","240","1032480","0.0-76.0-0.35","198","5354","12","Male","true","true","true","false","""event"",""trial"",""time""
""fullscreenenter"",""5"",""18422""
","
","
","""event"",""trial"",""time""
""fullscreenenter"",""5"",""18422""
","
","414.2999999523163","","49","","","3000","1","","","images/earth.jpg","images/rocket2","images/rocket1","null","images/rocket1","","1","real","null","1","","",""
"d3-animate-choice","241","1035240","0.0-76.0-1.35","198","5354","12","Male","true","true","true","false","""event"",""trial"",""time""
""fullscreenenter"",""5"",""18422""
","
","
","""event"",""trial"",""time""
""fullscreenenter"",""5"",""18422""
","
","755.1999999284744","","49","","","3000","1","","","images/redplanet1.jpg","images/alien2","images/alien1","images/rocket1","images/alien1","images/t.png","2","real","true","1","common","1","2022-12-28 21:45:57.184"
"two-step-fixation","242","1036245","0.0-76.0-2.35","198","5354","12","Male","true","true","true","false","""event"",""trial"",""time""
""fullscreenenter"",""5"",""18422""
","
","
","""event"",""trial"",""time""
""fullscreenenter"",""5"",""18422""
","
","","images/earth.jpg","","","","","","","","","","","","","","fixation","","","","","",""
"d3-animate-choice","243","1038790","0.0-76.0-0.36","198","5354","12","Male","true","true","true","false","""event"",""trial"",""time""
""fullscreenenter"",""5"",""18422""
","
","
","""event"",""trial"",""time""
""fullscreenenter"",""5"",""18422""
","
","539.1999999284744","","49","","","3000","1","","","images/earth.jpg","images/rocket2","images/rocket1","null","images/rocket1","","1","real","null","1","","",""
"d3-animate-choice","244","1041409","0.0-76.0-1.36","198","5354","12","Male","true","true","true","false","""event"",""trial"",""time""
""fullscreenenter"",""5"",""18422""
","
","
","""event"",""trial"",""time""
""fullscreenenter"",""5"",""18422""
","
","611.7000000476837","","49","","","3000","1","","","images/redplanet1.jpg","images/alien2","images/alien1","images/rocket1","images/alien1","images/t.png","2","real","true","1","common","1","2022-12-28 21:46:03.353"
"two-step-fixation","245","1042412","0.0-76.0-2.36","198","5354","12","Male","true","true","true","false","""event"",""trial"",""time""
""fullscreenenter"",""5"",""18422""
","
","
","""event"",""trial"",""time""
""fullscreenenter"",""5"",""18422""
","
","","images/earth.jpg","","","","","","","","","","","","","","fixation","","","","","",""
"d3-animate-choice","246","1045030","0.0-76.0-0.37","198","5354","12","Male","true","true","true","false","""event"",""trial"",""time""
""fullscreenenter"",""5"",""18422""
","
","
","""event"",""trial"",""time""
""fullscreenenter"",""5"",""18422""
","
","614.5","","49","","","3000","1","","","images/earth.jpg","images/rocket2","images/rocket1","null","images/rocket1","","1","real","null","1","","",""
"d3-animate-choice","247","1048086","0.0-76.0-1.37","198","5354","12","Male","true","true","true","false","""event"",""trial"",""time""
""fullscreenenter"",""5"",""18422""
","
","
","""event"",""trial"",""time""
""fullscreenenter"",""5"",""18422""
","
","1049","","48","","","3000","1","","","images/purpleplanet.jpg","images/alien4","images/alien3","images/rocket1","images/alien4","images/nothing.png","2","real","false","2","rare","0","2022-12-28 21:46:10.030"
