"trial_type","trial_index","time_elapsed","internal_node_id","participant_id","subject_id","age","gender","rocket_sides","red_planet_first_rocket","red_display_order","purple_display_order","interactions","blur_events","focus_events","fullscreenenter_events","fullscreenexit_events","rt","stimulus","key_press","button_pressed","success","duration","valid_pressed","rts","keys","planet_text","right_text","left_text","center_text","chosen_text","reward_text","trial_stage","practice_trial","transition_type","choice","transition","reward","timestamp"
"pavlovia","0","5","0.0-0.0","837","6113","24","Male","false","true","true","true","
","
","
","
","
","","","","","","","","","","","","","","","","","","","","","",""
"html-keyboard-response","1","6552","0.0-1.0","837","6113","24","Male","false","true","true","true","
","
","
","
","
","6545","Welcome! Press the space bar to begin.","32","","","","","","","","","","","","","","","","","","",""
"audio-keyboard-response","2","8598","0.0-2.0","837","6113","24","Male","false","true","true","true","""event"",""trial"",""time""
""blur"",""3"",""16021""
""focus"",""3"",""16021""
","""event"",""trial"",""time""
""blur"",""3"",""16021""
","""event"",""trial"",""time""
""focus"",""3"",""16021""
","
","
","1927","audio/beep_loop.wav","32","","","","","","","","","","","","","","","","","","",""
"audio-button-response","3","19002","0.0-3.0","837","6113","24","Male","false","true","true","true","""event"",""trial"",""time""
""blur"",""3"",""16021""
""focus"",""3"",""16021""
","""event"",""trial"",""time""
""blur"",""3"",""16021""
","""event"",""trial"",""time""
""focus"",""3"",""16021""
","
","
","NaN","audio/fish.mp3","","1","","","","","","","","","","","","","","","","","",""
"audio-button-response","4","21488","0.0-4.0","837","6113","24","Male","false","true","true","true","""event"",""trial"",""time""
""blur"",""3"",""16021""
""focus"",""3"",""16021""
""fullscreenenter"",""5"",""24244""
","""event"",""trial"",""time""
""blur"",""3"",""16021""
","""event"",""trial"",""time""
""focus"",""3"",""16021""
","""event"",""trial"",""time""
""fullscreenenter"",""5"",""24244""
","
","NaN","audio/tiger.mp3","","4","","","","","","","","","","","","","","","","","",""
"fullscreen","5","25029","0.0-5.0","837","6113","24","Male","false","true","true","true","""event"",""trial"",""time""
""blur"",""3"",""16021""
""focus"",""3"",""16021""
""fullscreenenter"",""5"",""24244""
","""event"",""trial"",""time""
""blur"",""3"",""16021""
","""event"",""trial"",""time""
""focus"",""3"",""16021""
","""event"",""trial"",""time""
""fullscreenenter"",""5"",""24244""
","
","","","","","true","","","","","","","","","","","","","","","","",""
"d3-instructions","6","38418","0.0-6.0","837","6113","24","Male","false","true","true","true","""event"",""trial"",""time""
""blur"",""3"",""16021""
""focus"",""3"",""16021""
""fullscreenenter"",""5"",""24244""
","""event"",""trial"",""time""
""blur"",""3"",""16021""
","""event"",""trial"",""time""
""focus"",""3"",""16021""
","""event"",""trial"",""time""
""fullscreenenter"",""5"",""24244""
","
","","","","","","","","","","","","","","","","","","","","","",""
"d3-instructions","7","45184","0.0-7.0","837","6113","24","Male","false","true","true","true","""event"",""trial"",""time""
""blur"",""3"",""16021""
""focus"",""3"",""16021""
""fullscreenenter"",""5"",""24244""
","""event"",""trial"",""time""
""blur"",""3"",""16021""
","""event"",""trial"",""time""
""focus"",""3"",""16021""
","""event"",""trial"",""time""
""fullscreenenter"",""5"",""24244""
","
","","","","","","","","","","","","","","","","","","","","","",""
"d3-instructions","8","50988","0.0-8.0","837","6113","24","Male","false","true","true","true","""event"",""trial"",""time""
""blur"",""3"",""16021""
""focus"",""3"",""16021""
""fullscreenenter"",""5"",""24244""
","""event"",""trial"",""time""
""blur"",""3"",""16021""
","""event"",""trial"",""time""
""focus"",""3"",""16021""
","""event"",""trial"",""time""
""fullscreenenter"",""5"",""24244""
","
","","","","","","","","","","","","","","","","","","","","","",""
"d3-instructions","9","61826","0.0-9.0","837","6113","24","Male","false","true","true","true","""event"",""trial"",""time""
""blur"",""3"",""16021""
""focus"",""3"",""16021""
""fullscreenenter"",""5"",""24244""
","""event"",""trial"",""time""
""blur"",""3"",""16021""
","""event"",""trial"",""time""
""focus"",""3"",""16021""
","""event"",""trial"",""time""
""fullscreenenter"",""5"",""24244""
","
","","","","","","","","","","","","","","","","","","","","","",""
"d3-instructions","10","83657","0.0-10.0","837","6113","24","Male","false","true","true","true","""event"",""trial"",""time""
""blur"",""3"",""16021""
""focus"",""3"",""16021""
""fullscreenenter"",""5"",""24244""
","""event"",""trial"",""time""
""blur"",""3"",""16021""
","""event"",""trial"",""time""
""focus"",""3"",""16021""
","""event"",""trial"",""time""
""fullscreenenter"",""5"",""24244""
","
","","","","","","","","","","","","","","","","","","","","","",""
"d3-animate-choice","11","86577","0.0-11.0","837","6113","24","Male","false","true","true","true","""event"",""trial"",""time""
""blur"",""3"",""16021""
""focus"",""3"",""16021""
""fullscreenenter"",""5"",""24244""
","""event"",""trial"",""time""
""blur"",""3"",""16021""
","""event"",""trial"",""time""
""focus"",""3"",""16021""
","""event"",""trial"",""time""
""fullscreenenter"",""5"",""24244""
","
","910","","48","","","3000","1","2659","49","images/tutgreenplanet.jpg","images/tutalien1","images/tutalien2","null","images/tutalien1","","NA","practice","null","","","",""
"d3-animate-choice","12","89346","0.0-12.0","837","6113","24","Male","false","true","true","true","""event"",""trial"",""time""
""blur"",""3"",""16021""
""focus"",""3"",""16021""
""fullscreenenter"",""5"",""24244""
","""event"",""trial"",""time""
""blur"",""3"",""16021""
","""event"",""trial"",""time""
""focus"",""3"",""16021""
","""event"",""trial"",""time""
""fullscreenenter"",""5"",""24244""
","
","760","","49","","","3000","1","","","images/tutgreenplanet.jpg","images/tutalien1","images/tutalien2","null","images/tutalien2","","NA","practice","null","","","",""
"d3-animate-choice","13","92104","0.0-13.0","837","6113","24","Male","false","true","true","true","""event"",""trial"",""time""
""blur"",""3"",""16021""
""focus"",""3"",""16021""
""fullscreenenter"",""5"",""24244""
","""event"",""trial"",""time""
""blur"",""3"",""16021""
","""event"",""trial"",""time""
""focus"",""3"",""16021""
","""event"",""trial"",""time""
""fullscreenenter"",""5"",""24244""
","
","749","","49","","","3000","1","","","images/tutgreenplanet.jpg","images/tutalien1","images/tutalien2","null","images/tutalien2","","NA","practice","null","","","",""
"d3-animate-choice","14","94455","0.0-14.0","837","6113","24","Male","false","true","true","true","""event"",""trial"",""time""
""blur"",""3"",""16021""
""focus"",""3"",""16021""
""fullscreenenter"",""5"",""24244""
","""event"",""trial"",""time""
""blur"",""3"",""16021""
","""event"",""trial"",""time""
""focus"",""3"",""16021""
","""event"",""trial"",""time""
""fullscreenenter"",""5"",""24244""
","
","341","","48","","","3000","1","","","images/tutgreenplanet.jpg","images/tutalien1","images/tutalien2","null","images/tutalien1","","NA","practice","null","","","",""
"d3-instructions","15","99340","0.0-15.0","837","6113","24","Male","false","true","true","true","""event"",""trial"",""time""
""blur"",""3"",""16021""
""focus"",""3"",""16021""
""fullscreenenter"",""5"",""24244""
","""event"",""trial"",""time""
""blur"",""3"",""16021""
","""event"",""trial"",""time""
""focus"",""3"",""16021""
","""event"",""trial"",""time""
""fullscreenenter"",""5"",""24244""
","
","","","","","","","","","","","","","","","","","","","","","",""
"d3-instructions","16","102513","0.0-16.0","837","6113","24","Male","false","true","true","true","""event"",""trial"",""time""
""blur"",""3"",""16021""
""focus"",""3"",""16021""
""fullscreenenter"",""5"",""24244""
","""event"",""trial"",""time""
""blur"",""3"",""16021""
","""event"",""trial"",""time""
""focus"",""3"",""16021""
","""event"",""trial"",""time""
""fullscreenenter"",""5"",""24244""
","
","","","","","","","","","","","","","","","","","","","","","",""
"d3-instructions","17","107889","0.0-17.0","837","6113","24","Male","false","true","true","true","""event"",""trial"",""time""
""blur"",""3"",""16021""
""focus"",""3"",""16021""
""fullscreenenter"",""5"",""24244""
","""event"",""trial"",""time""
""blur"",""3"",""16021""
","""event"",""trial"",""time""
""focus"",""3"",""16021""
","""event"",""trial"",""time""
""fullscreenenter"",""5"",""24244""
","
","","","","","","","","","","","","","","","","","","","","","",""
"d3-instructions","18","118663","0.0-18.0","837","6113","24","Male","false","true","true","true","""event"",""trial"",""time""
""blur"",""3"",""16021""
""focus"",""3"",""16021""
""fullscreenenter"",""5"",""24244""
","""event"",""trial"",""time""
""blur"",""3"",""16021""
","""event"",""trial"",""time""
""focus"",""3"",""16021""
","""event"",""trial"",""time""
""fullscreenenter"",""5"",""24244""
","
","","","","","","","","","","","","","","","","","","","","","",""
"d3-instructions","19","129069","0.0-19.0","837","6113","24","Male","false","true","true","true","""event"",""trial"",""time""
""blur"",""3"",""16021""
""focus"",""3"",""16021""
""fullscreenenter"",""5"",""24244""
","""event"",""trial"",""time""
""blur"",""3"",""16021""
","""event"",""trial"",""time""
""focus"",""3"",""16021""
","""event"",""trial"",""time""
""fullscreenenter"",""5"",""24244""
","
","","","","","","","","","","","","","","","","","","","","","",""
"d3-animate-choice","20","131828","0.0-20.0","837","6113","24","Male","false","true","true","true","""event"",""trial"",""time""
""blur"",""3"",""16021""
""focus"",""3"",""16021""
""fullscreenenter"",""5"",""24244""
","""event"",""trial"",""time""
""blur"",""3"",""16021""
","""event"",""trial"",""time""
""focus"",""3"",""16021""
","""event"",""trial"",""time""
""fullscreenenter"",""5"",""24244""
","
","750","","49","","","3000","1","","","images/tutyellowplanet.jpg","null","images/tutalien3","null","images/tutalien3","images/t.png","NA","practice","null","","","",""
"d3-animate-choice","21","134129","0.0-21.0","837","6113","24","Male","false","true","true","true","""event"",""trial"",""time""
""blur"",""3"",""16021""
""focus"",""3"",""16021""
""fullscreenenter"",""5"",""24244""
","""event"",""trial"",""time""
""blur"",""3"",""16021""
","""event"",""trial"",""time""
""focus"",""3"",""16021""
","""event"",""trial"",""time""
""fullscreenenter"",""5"",""24244""
","
","290","","49","","","3000","1","","","images/tutyellowplanet.jpg","null","images/tutalien3","null","images/tutalien3","images/t.png","NA","practice","null","","","",""
"d3-animate-choice","22","136362","0.0-22.0","837","6113","24","Male","false","true","true","true","""event"",""trial"",""time""
""blur"",""3"",""16021""
""focus"",""3"",""16021""
""fullscreenenter"",""5"",""24244""
","""event"",""trial"",""time""
""blur"",""3"",""16021""
","""event"",""trial"",""time""
""focus"",""3"",""16021""
","""event"",""trial"",""time""
""fullscreenenter"",""5"",""24244""
","
","227","","49","","","3000","1","","","images/tutyellowplanet.jpg","null","images/tutalien3","null","images/tutalien3","images/t.png","NA","practice","null","","","",""
"d3-animate-choice","23","138586","0.0-23.0","837","6113","24","Male","false","true","true","true","""event"",""trial"",""time""
""blur"",""3"",""16021""
""focus"",""3"",""16021""
""fullscreenenter"",""5"",""24244""
","""event"",""trial"",""time""
""blur"",""3"",""16021""
","""event"",""trial"",""time""
""focus"",""3"",""16021""
","""event"",""trial"",""time""
""fullscreenenter"",""5"",""24244""
","
","216","","49","","","3000","1","","","images/tutyellowplanet.jpg","null","images/tutalien3","null","images/tutalien3","images/nothing.png","NA","practice","null","","","",""
"d3-animate-choice","24","140799","0.0-24.0","837","6113","24","Male","false","true","true","true","""event"",""trial"",""time""
""blur"",""3"",""16021""
""focus"",""3"",""16021""
""fullscreenenter"",""5"",""24244""
","""event"",""trial"",""time""
""blur"",""3"",""16021""
","""event"",""trial"",""time""
""focus"",""3"",""16021""
","""event"",""trial"",""time""
""fullscreenenter"",""5"",""24244""
","
","202","","49","","","3000","1","1583","49","images/tutyellowplanet.jpg","null","images/tutalien3","null","images/tutalien3","images/t.png","NA","practice","null","","","",""
"d3-animate-choice","25","144745","0.0-25.0","837","6113","24","Male","false","true","true","true","""event"",""trial"",""time""
""blur"",""3"",""16021""
""focus"",""3"",""16021""
""fullscreenenter"",""5"",""24244""
","""event"",""trial"",""time""
""blur"",""3"",""16021""
","""event"",""trial"",""time""
""focus"",""3"",""16021""
","""event"",""trial"",""time""
""fullscreenenter"",""5"",""24244""
","
","1935","","49","","","3000","1","","","images/tutyellowplanet.jpg","null","images/tutalien3","null","images/tutalien3","images/t.png","NA","practice","null","","","",""
"d3-animate-choice","26","147828","0.0-26.0","837","6113","24","Male","false","true","true","true","""event"",""trial"",""time""
""blur"",""3"",""16021""
""focus"",""3"",""16021""
""fullscreenenter"",""5"",""24244""
","""event"",""trial"",""time""
""blur"",""3"",""16021""
","""event"",""trial"",""time""
""focus"",""3"",""16021""
","""event"",""trial"",""time""
""fullscreenenter"",""5"",""24244""
","
","1073","","49","","","3000","1","","","images/tutyellowplanet.jpg","null","images/tutalien3","null","images/tutalien3","images/nothing.png","NA","practice","null","","","",""
"d3-animate-choice","27","150788","0.0-27.0","837","6113","24","Male","false","true","true","true","""event"",""trial"",""time""
""blur"",""3"",""16021""
""focus"",""3"",""16021""
""fullscreenenter"",""5"",""24244""
","""event"",""trial"",""time""
""blur"",""3"",""16021""
","""event"",""trial"",""time""
""focus"",""3"",""16021""
","""event"",""trial"",""time""
""fullscreenenter"",""5"",""24244""
","
","949","","49","","","3000","1","","","images/tutyellowplanet.jpg","null","images/tutalien3","null","images/tutalien3","images/nothing.png","NA","practice","null","","","",""
"d3-animate-choice","28","153987","0.0-28.0","837","6113","24","Male","false","true","true","true","""event"",""trial"",""time""
""blur"",""3"",""16021""
""focus"",""3"",""16021""
""fullscreenenter"",""5"",""24244""
","""event"",""trial"",""time""
""blur"",""3"",""16021""
","""event"",""trial"",""time""
""focus"",""3"",""16021""
","""event"",""trial"",""time""
""fullscreenenter"",""5"",""24244""
","
","1188","","49","","","3000","1","","","images/tutyellowplanet.jpg","null","images/tutalien3","null","images/tutalien3","images/nothing.png","NA","practice","null","","","",""
"d3-animate-choice","29","157535","0.0-29.0","837","6113","24","Male","false","true","true","true","""event"",""trial"",""time""
""blur"",""3"",""16021""
""focus"",""3"",""16021""
""fullscreenenter"",""5"",""24244""
","""event"",""trial"",""time""
""blur"",""3"",""16021""
","""event"",""trial"",""time""
""focus"",""3"",""16021""
","""event"",""trial"",""time""
""fullscreenenter"",""5"",""24244""
","
","1542","","49","","","3000","1","","","images/tutyellowplanet.jpg","null","images/tutalien3","null","images/tutalien3","images/t.png","NA","practice","null","","","",""
"d3-instructions","30","165281","0.0-30.0","837","6113","24","Male","false","true","true","true","""event"",""trial"",""time""
""blur"",""3"",""16021""
""focus"",""3"",""16021""
""fullscreenenter"",""5"",""24244""
","""event"",""trial"",""time""
""blur"",""3"",""16021""
","""event"",""trial"",""time""
""focus"",""3"",""16021""
","""event"",""trial"",""time""
""fullscreenenter"",""5"",""24244""
","
","","","","","","","","","","","","","","","","","","","","","",""
"d3-instructions","31","173391","0.0-31.0","837","6113","24","Male","false","true","true","true","""event"",""trial"",""time""
""blur"",""3"",""16021""
""focus"",""3"",""16021""
""fullscreenenter"",""5"",""24244""
","""event"",""trial"",""time""
""blur"",""3"",""16021""
","""event"",""trial"",""time""
""focus"",""3"",""16021""
","""event"",""trial"",""time""
""fullscreenenter"",""5"",""24244""
","
","","","","","","","","","","","","","","","","","","","","","",""
"d3-instructions","32","176074","0.0-32.0","837","6113","24","Male","false","true","true","true","""event"",""trial"",""time""
""blur"",""3"",""16021""
""focus"",""3"",""16021""
""fullscreenenter"",""5"",""24244""
","""event"",""trial"",""time""
""blur"",""3"",""16021""
","""event"",""trial"",""time""
""focus"",""3"",""16021""
","""event"",""trial"",""time""
""fullscreenenter"",""5"",""24244""
","
","","","","","","","","","","","","","","","","","","","","","",""
"d3-instructions","33","178338","0.0-33.0","837","6113","24","Male","false","true","true","true","""event"",""trial"",""time""
""blur"",""3"",""16021""
""focus"",""3"",""16021""
""fullscreenenter"",""5"",""24244""
","""event"",""trial"",""time""
""blur"",""3"",""16021""
","""event"",""trial"",""time""
""focus"",""3"",""16021""
","""event"",""trial"",""time""
""fullscreenenter"",""5"",""24244""
","
","","","","","","","","","","","","","","","","","","","","","",""
"d3-animate-choice","34","181111","0.0-34.0","837","6113","24","Male","false","true","true","true","""event"",""trial"",""time""
""blur"",""3"",""16021""
""focus"",""3"",""16021""
""fullscreenenter"",""5"",""24244""
","""event"",""trial"",""time""
""blur"",""3"",""16021""
","""event"",""trial"",""time""
""focus"",""3"",""16021""
","""event"",""trial"",""time""
""fullscreenenter"",""5"",""24244""
","
","764","","48","","","3000","1","","","images/tutgreenplanet.jpg","images/tutalien1","images/tutalien2","null","images/tutalien1","images/nothing.png","NA","practice","null","","","",""
"d3-animate-choice","35","183392","0.0-35.0","837","6113","24","Male","false","true","true","true","""event"",""trial"",""time""
""blur"",""3"",""16021""
""focus"",""3"",""16021""
""fullscreenenter"",""5"",""24244""
","""event"",""trial"",""time""
""blur"",""3"",""16021""
","""event"",""trial"",""time""
""focus"",""3"",""16021""
","""event"",""trial"",""time""
""fullscreenenter"",""5"",""24244""
","
","271","","49","","","3000","1","","","images/tutgreenplanet.jpg","images/tutalien1","images/tutalien2","null","images/tutalien2","images/t.png","NA","practice","null","","","",""
"d3-animate-choice","36","185626","0.0-36.0","837","6113","24","Male","false","true","true","true","""event"",""trial"",""time""
""blur"",""3"",""16021""
""focus"",""3"",""16021""
""fullscreenenter"",""5"",""24244""
","""event"",""trial"",""time""
""blur"",""3"",""16021""
","""event"",""trial"",""time""
""focus"",""3"",""16021""
","""event"",""trial"",""time""
""fullscreenenter"",""5"",""24244""
","
","230","","49","","","3000","1","","","images/tutgreenplanet.jpg","images/tutalien1","images/tutalien2","null","images/tutalien2","images/t.png","NA","practice","null","","","",""
"d3-animate-choice","37","188055","0.0-37.0","837","6113","24","Male","false","true","true","true","""event"",""trial"",""time""
""blur"",""3"",""16021""
""focus"",""3"",""16021""
""fullscreenenter"",""5"",""24244""
","""event"",""trial"",""time""
""blur"",""3"",""16021""
","""event"",""trial"",""time""
""focus"",""3"",""16021""
","""event"",""trial"",""time""
""fullscreenenter"",""5"",""24244""
","
","423","","49","","","3000","1","1791","49","images/tutgreenplanet.jpg","images/tutalien1","images/tutalien2","null","images/tutalien2","images/t.png","NA","practice","null","","","",""
"d3-animate-choice","38","190270","0.0-38.0","837","6113","24","Male","false","true","true","true","""event"",""trial"",""time""
""blur"",""3"",""16021""
""focus"",""3"",""16021""
""fullscreenenter"",""5"",""24244""
","""event"",""trial"",""time""
""blur"",""3"",""16021""
","""event"",""trial"",""time""
""focus"",""3"",""16021""
","""event"",""trial"",""time""
""fullscreenenter"",""5"",""24244""
","
","206","","49","","","3000","1","","","images/tutgreenplanet.jpg","images/tutalien1","images/tutalien2","null","images/tutalien2","images/t.png","NA","practice","null","","","",""
"d3-animate-choice","39","192712","0.0-39.0","837","6113","24","Male","false","true","true","true","""event"",""trial"",""time""
""blur"",""3"",""16021""
""focus"",""3"",""16021""
""fullscreenenter"",""5"",""24244""
","""event"",""trial"",""time""
""blur"",""3"",""16021""
","""event"",""trial"",""time""
""focus"",""3"",""16021""
","""event"",""trial"",""time""
""fullscreenenter"",""5"",""24244""
","
","435","","49","","","3000","1","","","images/tutgreenplanet.jpg","images/tutalien1","images/tutalien2","null","images/tutalien2","images/t.png","NA","practice","null","","","",""
"d3-animate-choice","40","194963","0.0-40.0","837","6113","24","Male","false","true","true","true","""event"",""trial"",""time""
""blur"",""3"",""16021""
""focus"",""3"",""16021""
""fullscreenenter"",""5"",""24244""
","""event"",""trial"",""time""
""blur"",""3"",""16021""
","""event"",""trial"",""time""
""focus"",""3"",""16021""
","""event"",""trial"",""time""
""fullscreenenter"",""5"",""24244""
","
","243","","49","","","3000","1","","","images/tutgreenplanet.jpg","images/tutalien1","images/tutalien2","null","images/tutalien2","images/t.png","NA","practice","null","","","",""
"d3-animate-choice","41","197211","0.0-41.0","837","6113","24","Male","false","true","true","true","""event"",""trial"",""time""
""blur"",""3"",""16021""
""focus"",""3"",""16021""
""fullscreenenter"",""5"",""24244""
","""event"",""trial"",""time""
""blur"",""3"",""16021""
","""event"",""trial"",""time""
""focus"",""3"",""16021""
","""event"",""trial"",""time""
""fullscreenenter"",""5"",""24244""
","
","243","","49","","","3000","1","","","images/tutgreenplanet.jpg","images/tutalien1","images/tutalien2","null","images/tutalien2","images/t.png","NA","practice","null","","","",""
"d3-animate-choice","42","199422","0.0-42.0","837","6113","24","Male","false","true","true","true","""event"",""trial"",""time""
""blur"",""3"",""16021""
""focus"",""3"",""16021""
""fullscreenenter"",""5"",""24244""
","""event"",""trial"",""time""
""blur"",""3"",""16021""
","""event"",""trial"",""time""
""focus"",""3"",""16021""
","""event"",""trial"",""time""
""fullscreenenter"",""5"",""24244""
","
","201","","49","","","3000","1","","","images/tutgreenplanet.jpg","images/tutalien1","images/tutalien2","null","images/tutalien2","images/t.png","NA","practice","null","","","",""
"d3-animate-choice","43","201885","0.0-43.0","837","6113","24","Male","false","true","true","true","""event"",""trial"",""time""
""blur"",""3"",""16021""
""focus"",""3"",""16021""
""fullscreenenter"",""5"",""24244""
","""event"",""trial"",""time""
""blur"",""3"",""16021""
","""event"",""trial"",""time""
""focus"",""3"",""16021""
","""event"",""trial"",""time""
""fullscreenenter"",""5"",""24244""
","
","455","","49","","","3000","1","","","images/tutgreenplanet.jpg","images/tutalien1","images/tutalien2","null","images/tutalien2","images/t.png","NA","practice","null","","","",""
"d3-instructions","44","213467","0.0-44.0","837","6113","24","Male","false","true","true","true","""event"",""trial"",""time""
""blur"",""3"",""16021""
""focus"",""3"",""16021""
""fullscreenenter"",""5"",""24244""
","""event"",""trial"",""time""
""blur"",""3"",""16021""
","""event"",""trial"",""time""
""focus"",""3"",""16021""
","""event"",""trial"",""time""
""fullscreenenter"",""5"",""24244""
","
","","","","","","","","","","","","","","","","","","","","","",""
"d3-instructions","45","217865","0.0-45.0","837","6113","24","Male","false","true","true","true","""event"",""trial"",""time""
""blur"",""3"",""16021""
""focus"",""3"",""16021""
""fullscreenenter"",""5"",""24244""
","""event"",""trial"",""time""
""blur"",""3"",""16021""
","""event"",""trial"",""time""
""focus"",""3"",""16021""
","""event"",""trial"",""time""
""fullscreenenter"",""5"",""24244""
","
","","","","","","","","","","","","","","","","","","","","","",""
"d3-instructions","46","221865","0.0-46.0","837","6113","24","Male","false","true","true","true","""event"",""trial"",""time""
""blur"",""3"",""16021""
""focus"",""3"",""16021""
""fullscreenenter"",""5"",""24244""
","""event"",""trial"",""time""
""blur"",""3"",""16021""
","""event"",""trial"",""time""
""focus"",""3"",""16021""
","""event"",""trial"",""time""
""fullscreenenter"",""5"",""24244""
","
","","","","","","","","","","","","","","","","","","","","","",""
"d3-instructions","47","238719","0.0-47.0","837","6113","24","Male","false","true","true","true","""event"",""trial"",""time""
""blur"",""3"",""16021""
""focus"",""3"",""16021""
""fullscreenenter"",""5"",""24244""
","""event"",""trial"",""time""
""blur"",""3"",""16021""
","""event"",""trial"",""time""
""focus"",""3"",""16021""
","""event"",""trial"",""time""
""fullscreenenter"",""5"",""24244""
","
","","","","","","","","","","","","","","","","","","","","","",""
"d3-instructions","48","244359","0.0-48.0","837","6113","24","Male","false","true","true","true","""event"",""trial"",""time""
""blur"",""3"",""16021""
""focus"",""3"",""16021""
""fullscreenenter"",""5"",""24244""
","""event"",""trial"",""time""
""blur"",""3"",""16021""
","""event"",""trial"",""time""
""focus"",""3"",""16021""
","""event"",""trial"",""time""
""fullscreenenter"",""5"",""24244""
","
","","","","","","","","","","","","","","","","","","","","","",""
"d3-instructions","49","254841","0.0-49.0","837","6113","24","Male","false","true","true","true","""event"",""trial"",""time""
""blur"",""3"",""16021""
""focus"",""3"",""16021""
""fullscreenenter"",""5"",""24244""
","""event"",""trial"",""time""
""blur"",""3"",""16021""
","""event"",""trial"",""time""
""focus"",""3"",""16021""
","""event"",""trial"",""time""
""fullscreenenter"",""5"",""24244""
","
","","","","","","","","","","","","","","","","","","","","","",""
"d3-instructions","50","281000","0.0-50.0","837","6113","24","Male","false","true","true","true","""event"",""trial"",""time""
""blur"",""3"",""16021""
""focus"",""3"",""16021""
""fullscreenenter"",""5"",""24244""
","""event"",""trial"",""time""
""blur"",""3"",""16021""
","""event"",""trial"",""time""
""focus"",""3"",""16021""
","""event"",""trial"",""time""
""fullscreenenter"",""5"",""24244""
","
","","","","","","","","","","","","","","","","","","","","","",""
"d3-instructions","51","283162","0.0-51.0","837","6113","24","Male","false","true","true","true","""event"",""trial"",""time""
""blur"",""3"",""16021""
""focus"",""3"",""16021""
""fullscreenenter"",""5"",""24244""
","""event"",""trial"",""time""
""blur"",""3"",""16021""
","""event"",""trial"",""time""
""focus"",""3"",""16021""
","""event"",""trial"",""time""
""fullscreenenter"",""5"",""24244""
","
","","","","","","","","","","","","","","","","","","","","","",""
"d3-instructions","52","284941","0.0-52.0","837","6113","24","Male","false","true","true","true","""event"",""trial"",""time""
""blur"",""3"",""16021""
""focus"",""3"",""16021""
""fullscreenenter"",""5"",""24244""
","""event"",""trial"",""time""
""blur"",""3"",""16021""
","""event"",""trial"",""time""
""focus"",""3"",""16021""
","""event"",""trial"",""time""
""fullscreenenter"",""5"",""24244""
","
","","","","","","","","","","","","","","","","","","","","","",""
"d3-instructions","53","296644","0.0-53.0","837","6113","24","Male","false","true","true","true","""event"",""trial"",""time""
""blur"",""3"",""16021""
""focus"",""3"",""16021""
""fullscreenenter"",""5"",""24244""
","""event"",""trial"",""time""
""blur"",""3"",""16021""
","""event"",""trial"",""time""
""focus"",""3"",""16021""
","""event"",""trial"",""time""
""fullscreenenter"",""5"",""24244""
","
","","","","","","","","","","","","","","","","","","","","","",""
"d3-instructions","54","308497","0.0-54.0","837","6113","24","Male","false","true","true","true","""event"",""trial"",""time""
""blur"",""3"",""16021""
""focus"",""3"",""16021""
""fullscreenenter"",""5"",""24244""
","""event"",""trial"",""time""
""blur"",""3"",""16021""
","""event"",""trial"",""time""
""focus"",""3"",""16021""
","""event"",""trial"",""time""
""fullscreenenter"",""5"",""24244""
","
","","","","","","","","","","","","","","","","","","","","","",""
"d3-instructions","55","313374","0.0-55.0","837","6113","24","Male","false","true","true","true","""event"",""trial"",""time""
""blur"",""3"",""16021""
""focus"",""3"",""16021""
""fullscreenenter"",""5"",""24244""
","""event"",""trial"",""time""
""blur"",""3"",""16021""
","""event"",""trial"",""time""
""focus"",""3"",""16021""
","""event"",""trial"",""time""
""fullscreenenter"",""5"",""24244""
","
","","","","","","","","","","","","","","","","","","","","","",""
"d3-instructions","56","321823","0.0-56.0","837","6113","24","Male","false","true","true","true","""event"",""trial"",""time""
""blur"",""3"",""16021""
""focus"",""3"",""16021""
""fullscreenenter"",""5"",""24244""
","""event"",""trial"",""time""
""blur"",""3"",""16021""
","""event"",""trial"",""time""
""focus"",""3"",""16021""
","""event"",""trial"",""time""
""fullscreenenter"",""5"",""24244""
","
","","","","","","","","","","","","","","","","","","","","","",""
"d3-instructions","57","326642","0.0-57.0","837","6113","24","Male","false","true","true","true","""event"",""trial"",""time""
""blur"",""3"",""16021""
""focus"",""3"",""16021""
""fullscreenenter"",""5"",""24244""
","""event"",""trial"",""time""
""blur"",""3"",""16021""
","""event"",""trial"",""time""
""focus"",""3"",""16021""
","""event"",""trial"",""time""
""fullscreenenter"",""5"",""24244""
","
","","","","","","","","","","","","","","","","","","","","","",""
"d3-instructions","58","330891","0.0-58.0","837","6113","24","Male","false","true","true","true","""event"",""trial"",""time""
""blur"",""3"",""16021""
""focus"",""3"",""16021""
""fullscreenenter"",""5"",""24244""
","""event"",""trial"",""time""
""blur"",""3"",""16021""
","""event"",""trial"",""time""
""focus"",""3"",""16021""
","""event"",""trial"",""time""
""fullscreenenter"",""5"",""24244""
","
","","","","","","","","","","","","","","","","","","","","","",""
"d3-instructions","59","336432","0.0-59.0","837","6113","24","Male","false","true","true","true","""event"",""trial"",""time""
""blur"",""3"",""16021""
""focus"",""3"",""16021""
""fullscreenenter"",""5"",""24244""
","""event"",""trial"",""time""
""blur"",""3"",""16021""
","""event"",""trial"",""time""
""focus"",""3"",""16021""
","""event"",""trial"",""time""
""fullscreenenter"",""5"",""24244""
","
","","","","","","","","","","","","","","","","","","","","","",""
"d3-instructions","60","339928","0.0-60.0","837","6113","24","Male","false","true","true","true","""event"",""trial"",""time""
""blur"",""3"",""16021""
""focus"",""3"",""16021""
""fullscreenenter"",""5"",""24244""
","""event"",""trial"",""time""
""blur"",""3"",""16021""
","""event"",""trial"",""time""
""focus"",""3"",""16021""
","""event"",""trial"",""time""
""fullscreenenter"",""5"",""24244""
","
","","","","","","","","","","","","","","","","","","","","","",""
"d3-animate-choice","61","342337","0.0-61.0-0.0","837","6113","24","Male","false","true","true","true","""event"",""trial"",""time""
""blur"",""3"",""16021""
""focus"",""3"",""16021""
""fullscreenenter"",""5"",""24244""
","""event"",""trial"",""time""
""blur"",""3"",""16021""
","""event"",""trial"",""time""
""focus"",""3"",""16021""
","""event"",""trial"",""time""
""fullscreenenter"",""5"",""24244""
","
","404","","48","","","3000","1","","","images/earth.jpg","images/tutrocket1","images/tutrocket2","null","images/tutrocket1","","1","practice","null","2","","",""
"d3-animate-choice","62","345337","0.0-61.0-1.0","837","6113","24","Male","false","true","true","true","""event"",""trial"",""time""
""blur"",""3"",""16021""
""focus"",""3"",""16021""
""fullscreenenter"",""5"",""24244""
","""event"",""trial"",""time""
""blur"",""3"",""16021""
","""event"",""trial"",""time""
""focus"",""3"",""16021""
","""event"",""trial"",""time""
""fullscreenenter"",""5"",""24244""
","
","991","","48","","","3000","1","","","images/tutgreenplanet.jpg","images/tutalien2","images/tutalien1","images/tutrocket1","images/tutalien2","images/t.png","2","practice","true","2","common","1","2023-02-03 19:49:53.986"
"two-step-fixation","63","346343","0.0-61.0-2.0","837","6113","24","Male","false","true","true","true","""event"",""trial"",""time""
""blur"",""3"",""16021""
""focus"",""3"",""16021""
""fullscreenenter"",""5"",""24244""
","""event"",""trial"",""time""
""blur"",""3"",""16021""
","""event"",""trial"",""time""
""focus"",""3"",""16021""
","""event"",""trial"",""time""
""fullscreenenter"",""5"",""24244""
","
","","images/earth.jpg","","","","","","","","","","","","","","fixation","","","","","",""
"d3-animate-choice","64","349321","0.0-61.0-0.1","837","6113","24","Male","false","true","true","true","""event"",""trial"",""time""
""blur"",""3"",""16021""
""focus"",""3"",""16021""
""fullscreenenter"",""5"",""24244""
","""event"",""trial"",""time""
""blur"",""3"",""16021""
","""event"",""trial"",""time""
""focus"",""3"",""16021""
","""event"",""trial"",""time""
""fullscreenenter"",""5"",""24244""
","
","969","","48","","","3000","1","","","images/earth.jpg","images/tutrocket1","images/tutrocket2","null","images/tutrocket1","","1","practice","null","2","","",""
"d3-animate-choice","65","351789","0.0-61.0-1.1","837","6113","24","Male","false","true","true","true","""event"",""trial"",""time""
""blur"",""3"",""16021""
""focus"",""3"",""16021""
""fullscreenenter"",""5"",""24244""
","""event"",""trial"",""time""
""blur"",""3"",""16021""
","""event"",""trial"",""time""
""focus"",""3"",""16021""
","""event"",""trial"",""time""
""fullscreenenter"",""5"",""24244""
","
","460","","48","","","3000","1","","","images/tutgreenplanet.jpg","images/tutalien2","images/tutalien1","images/tutrocket1","images/tutalien2","images/t.png","2","practice","true","2","common","1","2023-02-03 19:50:00.437"
"two-step-fixation","66","352795","0.0-61.0-2.1","837","6113","24","Male","false","true","true","true","""event"",""trial"",""time""
""blur"",""3"",""16021""
""focus"",""3"",""16021""
""fullscreenenter"",""5"",""24244""
","""event"",""trial"",""time""
""blur"",""3"",""16021""
","""event"",""trial"",""time""
""focus"",""3"",""16021""
","""event"",""trial"",""time""
""fullscreenenter"",""5"",""24244""
","
","","images/earth.jpg","","","","","","","","","","","","","","fixation","","","","","",""
"d3-animate-choice","67","355073","0.0-61.0-0.2","837","6113","24","Male","false","true","true","true","""event"",""trial"",""time""
""blur"",""3"",""16021""
""focus"",""3"",""16021""
""fullscreenenter"",""5"",""24244""
","""event"",""trial"",""time""
""blur"",""3"",""16021""
","""event"",""trial"",""time""
""focus"",""3"",""16021""
","""event"",""trial"",""time""
""fullscreenenter"",""5"",""24244""
","
","274","","48","","","3000","1","","","images/earth.jpg","images/tutrocket1","images/tutrocket2","null","images/tutrocket1","","1","practice","null","2","","",""
"d3-animate-choice","68","357524","0.0-61.0-1.2","837","6113","24","Male","false","true","true","true","""event"",""trial"",""time""
""blur"",""3"",""16021""
""focus"",""3"",""16021""
""fullscreenenter"",""5"",""24244""
","""event"",""trial"",""time""
""blur"",""3"",""16021""
","""event"",""trial"",""time""
""focus"",""3"",""16021""
","""event"",""trial"",""time""
""fullscreenenter"",""5"",""24244""
","
","444","","48","","","3000","1","","","images/tutgreenplanet.jpg","images/tutalien2","images/tutalien1","images/tutrocket1","images/tutalien2","images/t.png","2","practice","true","2","common","1","2023-02-03 19:50:06.173"
"two-step-fixation","69","358528","0.0-61.0-2.2","837","6113","24","Male","false","true","true","true","""event"",""trial"",""time""
""blur"",""3"",""16021""
""focus"",""3"",""16021""
""fullscreenenter"",""5"",""24244""
","""event"",""trial"",""time""
""blur"",""3"",""16021""
","""event"",""trial"",""time""
""focus"",""3"",""16021""
","""event"",""trial"",""time""
""fullscreenenter"",""5"",""24244""
","
","","images/earth.jpg","","","","","","","","","","","","","","fixation","","","","","",""
"d3-animate-choice","70","360866","0.0-61.0-0.3","837","6113","24","Male","false","true","true","true","""event"",""trial"",""time""
""blur"",""3"",""16021""
""focus"",""3"",""16021""
""fullscreenenter"",""5"",""24244""
","""event"",""trial"",""time""
""blur"",""3"",""16021""
","""event"",""trial"",""time""
""focus"",""3"",""16021""
","""event"",""trial"",""time""
""fullscreenenter"",""5"",""24244""
","
","330","","48","","","3000","1","","","images/earth.jpg","images/tutrocket1","images/tutrocket2","null","images/tutrocket1","","1","practice","null","2","","",""
"d3-animate-choice","71","363371","0.0-61.0-1.3","837","6113","24","Male","false","true","true","true","""event"",""trial"",""time""
""blur"",""3"",""16021""
""focus"",""3"",""16021""
""fullscreenenter"",""5"",""24244""
","""event"",""trial"",""time""
""blur"",""3"",""16021""
","""event"",""trial"",""time""
""focus"",""3"",""16021""
","""event"",""trial"",""time""
""fullscreenenter"",""5"",""24244""
","
","500","","48","","","3000","1","","","images/tutgreenplanet.jpg","images/tutalien2","images/tutalien1","images/tutrocket1","images/tutalien2","images/t.png","2","practice","true","2","common","1","2023-02-03 19:50:12.020"
"two-step-fixation","72","364375","0.0-61.0-2.3","837","6113","24","Male","false","true","true","true","""event"",""trial"",""time""
""blur"",""3"",""16021""
""focus"",""3"",""16021""
""fullscreenenter"",""5"",""24244""
","""event"",""trial"",""time""
""blur"",""3"",""16021""
","""event"",""trial"",""time""
""focus"",""3"",""16021""
","""event"",""trial"",""time""
""fullscreenenter"",""5"",""24244""
","
","","images/earth.jpg","","","","","","","","","","","","","","fixation","","","","","",""
"d3-animate-choice","73","366734","0.0-61.0-0.4","837","6113","24","Male","false","true","true","true","""event"",""trial"",""time""
""blur"",""3"",""16021""
""focus"",""3"",""16021""
""fullscreenenter"",""5"",""24244""
","""event"",""trial"",""time""
""blur"",""3"",""16021""
","""event"",""trial"",""time""
""focus"",""3"",""16021""
","""event"",""trial"",""time""
""fullscreenenter"",""5"",""24244""
","
","352","","48","","","3000","1","","","images/earth.jpg","images/tutrocket1","images/tutrocket2","null","images/tutrocket1","","1","practice","null","2","","",""
"d3-animate-choice","74","370277","0.0-61.0-1.4","837","6113","24","Male","false","true","true","true","""event"",""trial"",""time""
""blur"",""3"",""16021""
""focus"",""3"",""16021""
""fullscreenenter"",""5"",""24244""
","""event"",""trial"",""time""
""blur"",""3"",""16021""
","""event"",""trial"",""time""
""focus"",""3"",""16021""
","""event"",""trial"",""time""
""fullscreenenter"",""5"",""24244""
","
","1533","","48","","","3000","1","","","images/tutyellowplanet.jpg","images/tutalien4","images/tutalien3","images/tutrocket1","images/tutalien4","images/t.png","2","practice","false","2","rare","1","2023-02-03 19:50:18.926"
"two-step-fixation","75","371281","0.0-61.0-2.4","837","6113","24","Male","false","true","true","true","""event"",""trial"",""time""
""blur"",""3"",""16021""
""focus"",""3"",""16021""
""fullscreenenter"",""5"",""24244""
","""event"",""trial"",""time""
""blur"",""3"",""16021""
","""event"",""trial"",""time""
""focus"",""3"",""16021""
","""event"",""trial"",""time""
""fullscreenenter"",""5"",""24244""
","
","","images/earth.jpg","","","","","","","","","","","","","","fixation","","","","","",""
"d3-animate-choice","76","373718","0.0-61.0-0.5","837","6113","24","Male","false","true","true","true","""event"",""trial"",""time""
""blur"",""3"",""16021""
""focus"",""3"",""16021""
""fullscreenenter"",""5"",""24244""
","""event"",""trial"",""time""
""blur"",""3"",""16021""
","""event"",""trial"",""time""
""focus"",""3"",""16021""
","""event"",""trial"",""time""
""fullscreenenter"",""5"",""24244""
","
","432","","48","","","3000","1","","","images/earth.jpg","images/tutrocket1","images/tutrocket2","null","images/tutrocket1","","1","practice","null","2","","",""
"d3-animate-choice","77","376267","0.0-61.0-1.5","837","6113","24","Male","false","true","true","true","""event"",""trial"",""time""
""blur"",""3"",""16021""
""focus"",""3"",""16021""
""fullscreenenter"",""5"",""24244""
","""event"",""trial"",""time""
""blur"",""3"",""16021""
","""event"",""trial"",""time""
""focus"",""3"",""16021""
","""event"",""trial"",""time""
""fullscreenenter"",""5"",""24244""
","
","539","","48","","","3000","1","","","images/tutgreenplanet.jpg","images/tutalien2","images/tutalien1","images/tutrocket1","images/tutalien2","images/nothing.png","2","practice","true","2","common","0","2023-02-03 19:50:24.915"
"two-step-fixation","78","377272","0.0-61.0-2.5","837","6113","24","Male","false","true","true","true","""event"",""trial"",""time""
""blur"",""3"",""16021""
""focus"",""3"",""16021""
""fullscreenenter"",""5"",""24244""
","""event"",""trial"",""time""
""blur"",""3"",""16021""
","""event"",""trial"",""time""
""focus"",""3"",""16021""
","""event"",""trial"",""time""
""fullscreenenter"",""5"",""24244""
","
","","images/earth.jpg","","","","","","","","","","","","","","fixation","","","","","",""
"d3-animate-choice","79","379700","0.0-61.0-0.6","837","6113","24","Male","false","true","true","true","""event"",""trial"",""time""
""blur"",""3"",""16021""
""focus"",""3"",""16021""
""fullscreenenter"",""5"",""24244""
","""event"",""trial"",""time""
""blur"",""3"",""16021""
","""event"",""trial"",""time""
""focus"",""3"",""16021""
","""event"",""trial"",""time""
""fullscreenenter"",""5"",""24244""
","
","421","","48","","","3000","1","","","images/earth.jpg","images/tutrocket1","images/tutrocket2","null","images/tutrocket1","","1","practice","null","2","","",""
"d3-animate-choice","80","382012","0.0-61.0-1.6","837","6113","24","Male","false","true","true","true","""event"",""trial"",""time""
""blur"",""3"",""16021""
""focus"",""3"",""16021""
""fullscreenenter"",""5"",""24244""
","""event"",""trial"",""time""
""blur"",""3"",""16021""
","""event"",""trial"",""time""
""focus"",""3"",""16021""
","""event"",""trial"",""time""
""fullscreenenter"",""5"",""24244""
","
","303","","48","","","3000","1","","","images/tutgreenplanet.jpg","images/tutalien2","images/tutalien1","images/tutrocket1","images/tutalien2","images/t.png","2","practice","true","2","common","1","2023-02-03 19:50:30.660"
"two-step-fixation","81","383021","0.0-61.0-2.6","837","6113","24","Male","false","true","true","true","""event"",""trial"",""time""
""blur"",""3"",""16021""
""focus"",""3"",""16021""
""fullscreenenter"",""5"",""24244""
","""event"",""trial"",""time""
""blur"",""3"",""16021""
","""event"",""trial"",""time""
""focus"",""3"",""16021""
","""event"",""trial"",""time""
""fullscreenenter"",""5"",""24244""
","
","","images/earth.jpg","","","","","","","","","","","","","","fixation","","","","","",""
"d3-animate-choice","82","385279","0.0-61.0-0.7","837","6113","24","Male","false","true","true","true","""event"",""trial"",""time""
""blur"",""3"",""16021""
""focus"",""3"",""16021""
""fullscreenenter"",""5"",""24244""
","""event"",""trial"",""time""
""blur"",""3"",""16021""
","""event"",""trial"",""time""
""focus"",""3"",""16021""
","""event"",""trial"",""time""
""fullscreenenter"",""5"",""24244""
","
","252","","48","","","3000","1","","","images/earth.jpg","images/tutrocket1","images/tutrocket2","null","images/tutrocket1","","1","practice","null","2","","",""
"d3-animate-choice","83","387654","0.0-61.0-1.7","837","6113","24","Male","false","true","true","true","""event"",""trial"",""time""
""blur"",""3"",""16021""
""focus"",""3"",""16021""
""fullscreenenter"",""5"",""24244""
","""event"",""trial"",""time""
""blur"",""3"",""16021""
","""event"",""trial"",""time""
""focus"",""3"",""16021""
","""event"",""trial"",""time""
""fullscreenenter"",""5"",""24244""
","
","365","","48","","","3000","1","","","images/tutgreenplanet.jpg","images/tutalien2","images/tutalien1","images/tutrocket1","images/tutalien2","images/nothing.png","2","practice","true","2","common","0","2023-02-03 19:50:36.302"
"two-step-fixation","84","388657","0.0-61.0-2.7","837","6113","24","Male","false","true","true","true","""event"",""trial"",""time""
""blur"",""3"",""16021""
""focus"",""3"",""16021""
""fullscreenenter"",""5"",""24244""
","""event"",""trial"",""time""
""blur"",""3"",""16021""
","""event"",""trial"",""time""
""focus"",""3"",""16021""
","""event"",""trial"",""time""
""fullscreenenter"",""5"",""24244""
","
","","images/earth.jpg","","","","","","","","","","","","","","fixation","","","","","",""
"d3-animate-choice","85","390776","0.0-61.0-0.8","837","6113","24","Male","false","true","true","true","""event"",""trial"",""time""
""blur"",""3"",""16021""
""focus"",""3"",""16021""
""fullscreenenter"",""5"",""24244""
","""event"",""trial"",""time""
""blur"",""3"",""16021""
","""event"",""trial"",""time""
""focus"",""3"",""16021""
","""event"",""trial"",""time""
""fullscreenenter"",""5"",""24244""
","
","111","","48","","","3000","1","","","images/earth.jpg","images/tutrocket1","images/tutrocket2","null","images/tutrocket1","","1","practice","null","2","","",""
"d3-animate-choice","86","393103","0.0-61.0-1.8","837","6113","24","Male","false","true","true","true","""event"",""trial"",""time""
""blur"",""3"",""16021""
""focus"",""3"",""16021""
""fullscreenenter"",""5"",""24244""
","""event"",""trial"",""time""
""blur"",""3"",""16021""
","""event"",""trial"",""time""
""focus"",""3"",""16021""
","""event"",""trial"",""time""
""fullscreenenter"",""5"",""24244""
","
","316","","48","","","3000","1","","","images/tutgreenplanet.jpg","images/tutalien2","images/tutalien1","images/tutrocket1","images/tutalien2","images/nothing.png","2","practice","true","2","common","0","2023-02-03 19:50:41.752"
"two-step-fixation","87","394110","0.0-61.0-2.8","837","6113","24","Male","false","true","true","true","""event"",""trial"",""time""
""blur"",""3"",""16021""
""focus"",""3"",""16021""
""fullscreenenter"",""5"",""24244""
","""event"",""trial"",""time""
""blur"",""3"",""16021""
","""event"",""trial"",""time""
""focus"",""3"",""16021""
","""event"",""trial"",""time""
""fullscreenenter"",""5"",""24244""
","
","","images/earth.jpg","","","","","","","","","","","","","","fixation","","","","","",""
"d3-animate-choice","88","396448","0.0-61.0-0.9","837","6113","24","Male","false","true","true","true","""event"",""trial"",""time""
""blur"",""3"",""16021""
""focus"",""3"",""16021""
""fullscreenenter"",""5"",""24244""
","""event"",""trial"",""time""
""blur"",""3"",""16021""
","""event"",""trial"",""time""
""focus"",""3"",""16021""
","""event"",""trial"",""time""
""fullscreenenter"",""5"",""24244""
","
","333","","48","","","3000","1","","","images/earth.jpg","images/tutrocket1","images/tutrocket2","null","images/tutrocket1","","1","practice","null","2","","",""
"d3-animate-choice","89","398880","0.0-61.0-1.9","837","6113","24","Male","false","true","true","true","""event"",""trial"",""time""
""blur"",""3"",""16021""
""focus"",""3"",""16021""
""fullscreenenter"",""5"",""24244""
","""event"",""trial"",""time""
""blur"",""3"",""16021""
","""event"",""trial"",""time""
""focus"",""3"",""16021""
","""event"",""trial"",""time""
""fullscreenenter"",""5"",""24244""
","
","426","","49","","","3000","1","","","images/tutgreenplanet.jpg","images/tutalien2","images/tutalien1","images/tutrocket1","images/tutalien1","images/t.png","2","practice","true","1","common","1","2023-02-03 19:50:47.528"
"two-step-fixation","90","399888","0.0-61.0-2.9","837","6113","24","Male","false","true","true","true","""event"",""trial"",""time""
""blur"",""3"",""16021""
""focus"",""3"",""16021""
""fullscreenenter"",""5"",""24244""
","""event"",""trial"",""time""
""blur"",""3"",""16021""
","""event"",""trial"",""time""
""focus"",""3"",""16021""
","""event"",""trial"",""time""
""fullscreenenter"",""5"",""24244""
","
","","images/earth.jpg","","","","","","","","","","","","","","fixation","","","","","",""
"d3-animate-choice","91","402118","0.0-61.0-0.10","837","6113","24","Male","false","true","true","true","""event"",""trial"",""time""
""blur"",""3"",""16021""
""focus"",""3"",""16021""
""fullscreenenter"",""5"",""24244""
","""event"",""trial"",""time""
""blur"",""3"",""16021""
","""event"",""trial"",""time""
""focus"",""3"",""16021""
","""event"",""trial"",""time""
""fullscreenenter"",""5"",""24244""
","
","224","","48","","","3000","1","","","images/earth.jpg","images/tutrocket1","images/tutrocket2","null","images/tutrocket1","","1","practice","null","2","","",""
"d3-animate-choice","92","404623","0.0-61.0-1.10","837","6113","24","Male","false","true","true","true","""event"",""trial"",""time""
""blur"",""3"",""16021""
""focus"",""3"",""16021""
""fullscreenenter"",""5"",""24244""
","""event"",""trial"",""time""
""blur"",""3"",""16021""
","""event"",""trial"",""time""
""focus"",""3"",""16021""
","""event"",""trial"",""time""
""fullscreenenter"",""5"",""24244""
","
","497","","49","","","3000","1","","","images/tutgreenplanet.jpg","images/tutalien2","images/tutalien1","images/tutrocket1","images/tutalien1","images/t.png","2","practice","true","1","common","1","2023-02-03 19:50:53.271"
"two-step-fixation","93","405627","0.0-61.0-2.10","837","6113","24","Male","false","true","true","true","""event"",""trial"",""time""
""blur"",""3"",""16021""
""focus"",""3"",""16021""
""fullscreenenter"",""5"",""24244""
","""event"",""trial"",""time""
""blur"",""3"",""16021""
","""event"",""trial"",""time""
""focus"",""3"",""16021""
","""event"",""trial"",""time""
""fullscreenenter"",""5"",""24244""
","
","","images/earth.jpg","","","","","","","","","","","","","","fixation","","","","","",""
"d3-animate-choice","94","407909","0.0-61.0-0.11","837","6113","24","Male","false","true","true","true","""event"",""trial"",""time""
""blur"",""3"",""16021""
""focus"",""3"",""16021""
""fullscreenenter"",""5"",""24244""
","""event"",""trial"",""time""
""blur"",""3"",""16021""
","""event"",""trial"",""time""
""focus"",""3"",""16021""
","""event"",""trial"",""time""
""fullscreenenter"",""5"",""24244""
","
","278","","48","","","3000","1","","","images/earth.jpg","images/tutrocket1","images/tutrocket2","null","images/tutrocket1","","1","practice","null","2","","",""
"d3-animate-choice","95","410456","0.0-61.0-1.11","837","6113","24","Male","false","true","true","true","""event"",""trial"",""time""
""blur"",""3"",""16021""
""focus"",""3"",""16021""
""fullscreenenter"",""5"",""24244""
","""event"",""trial"",""time""
""blur"",""3"",""16021""
","""event"",""trial"",""time""
""focus"",""3"",""16021""
","""event"",""trial"",""time""
""fullscreenenter"",""5"",""24244""
","
","538","","49","","","3000","1","","","images/tutgreenplanet.jpg","images/tutalien2","images/tutalien1","images/tutrocket1","images/tutalien1","images/t.png","2","practice","true","1","common","1","2023-02-03 19:50:59.104"
"two-step-fixation","96","411460","0.0-61.0-2.11","837","6113","24","Male","false","true","true","true","""event"",""trial"",""time""
""blur"",""3"",""16021""
""focus"",""3"",""16021""
""fullscreenenter"",""5"",""24244""
","""event"",""trial"",""time""
""blur"",""3"",""16021""
","""event"",""trial"",""time""
""focus"",""3"",""16021""
","""event"",""trial"",""time""
""fullscreenenter"",""5"",""24244""
","
","","images/earth.jpg","","","","","","","","","","","","","","fixation","","","","","",""
"d3-animate-choice","97","414045","0.0-61.0-0.12","837","6113","24","Male","false","true","true","true","""event"",""trial"",""time""
""blur"",""3"",""16021""
""focus"",""3"",""16021""
""fullscreenenter"",""5"",""24244""
","""event"",""trial"",""time""
""blur"",""3"",""16021""
","""event"",""trial"",""time""
""focus"",""3"",""16021""
","""event"",""trial"",""time""
""fullscreenenter"",""5"",""24244""
","
","576","","48","","","3000","1","","","images/earth.jpg","images/tutrocket1","images/tutrocket2","null","images/tutrocket1","","1","practice","null","2","","",""
"d3-animate-choice","98","416668","0.0-61.0-1.12","837","6113","24","Male","false","true","true","true","""event"",""trial"",""time""
""blur"",""3"",""16021""
""focus"",""3"",""16021""
""fullscreenenter"",""5"",""24244""
","""event"",""trial"",""time""
""blur"",""3"",""16021""
","""event"",""trial"",""time""
""focus"",""3"",""16021""
","""event"",""trial"",""time""
""fullscreenenter"",""5"",""24244""
","
","614","","49","","","3000","1","","","images/tutgreenplanet.jpg","images/tutalien2","images/tutalien1","images/tutrocket1","images/tutalien1","images/t.png","2","practice","true","1","common","1","2023-02-03 19:51:05.317"
"two-step-fixation","99","417673","0.0-61.0-2.12","837","6113","24","Male","false","true","true","true","""event"",""trial"",""time""
""blur"",""3"",""16021""
""focus"",""3"",""16021""
""fullscreenenter"",""5"",""24244""
","""event"",""trial"",""time""
""blur"",""3"",""16021""
","""event"",""trial"",""time""
""focus"",""3"",""16021""
","""event"",""trial"",""time""
""fullscreenenter"",""5"",""24244""
","
","","images/earth.jpg","","","","","","","","","","","","","","fixation","","","","","",""
"d3-animate-choice","100","419836","0.0-61.0-0.13","837","6113","24","Male","false","true","true","true","""event"",""trial"",""time""
""blur"",""3"",""16021""
""focus"",""3"",""16021""
""fullscreenenter"",""5"",""24244""
","""event"",""trial"",""time""
""blur"",""3"",""16021""
","""event"",""trial"",""time""
""focus"",""3"",""16021""
","""event"",""trial"",""time""
""fullscreenenter"",""5"",""24244""
","
","154","","48","","","3000","1","","","images/earth.jpg","images/tutrocket1","images/tutrocket2","null","images/tutrocket1","","1","practice","null","2","","",""
"d3-animate-choice","101","421889","0.0-61.0-1.13","837","6113","24","Male","false","true","true","true","""event"",""trial"",""time""
""blur"",""3"",""16021""
""focus"",""3"",""16021""
""fullscreenenter"",""5"",""24244""
","""event"",""trial"",""time""
""blur"",""3"",""16021""
","""event"",""trial"",""time""
""focus"",""3"",""16021""
","""event"",""trial"",""time""
""fullscreenenter"",""5"",""24244""
","
","46","","49","","","3000","1","476","49","images/tutgreenplanet.jpg","images/tutalien2","images/tutalien1","images/tutrocket1","images/tutalien1","images/nothing.png","2","practice","true","1","common","0","2023-02-03 19:51:10.538"
"two-step-fixation","102","422893","0.0-61.0-2.13","837","6113","24","Male","false","true","true","true","""event"",""trial"",""time""
""blur"",""3"",""16021""
""focus"",""3"",""16021""
""fullscreenenter"",""5"",""24244""
","""event"",""trial"",""time""
""blur"",""3"",""16021""
","""event"",""trial"",""time""
""focus"",""3"",""16021""
","""event"",""trial"",""time""
""fullscreenenter"",""5"",""24244""
","
","","images/earth.jpg","","","","","","","","","","","","","","fixation","","","","","",""
"d3-animate-choice","103","425471","0.0-61.0-0.14","837","6113","24","Male","false","true","true","true","""event"",""trial"",""time""
""blur"",""3"",""16021""
""focus"",""3"",""16021""
""fullscreenenter"",""5"",""24244""
","""event"",""trial"",""time""
""blur"",""3"",""16021""
","""event"",""trial"",""time""
""focus"",""3"",""16021""
","""event"",""trial"",""time""
""fullscreenenter"",""5"",""24244""
","
","572","","49","","","3000","1","","","images/earth.jpg","images/tutrocket1","images/tutrocket2","null","images/tutrocket2","","1","practice","null","1","","",""
"d3-animate-choice","104","427885","0.0-61.0-1.14","837","6113","24","Male","false","true","true","true","""event"",""trial"",""time""
""blur"",""3"",""16021""
""focus"",""3"",""16021""
""fullscreenenter"",""5"",""24244""
","""event"",""trial"",""time""
""blur"",""3"",""16021""
","""event"",""trial"",""time""
""focus"",""3"",""16021""
","""event"",""trial"",""time""
""fullscreenenter"",""5"",""24244""
","
","403","","49","","","3000","1","","","images/tutyellowplanet.jpg","images/tutalien4","images/tutalien3","images/tutrocket2","images/tutalien3","images/t.png","2","practice","true","1","common","1","2023-02-03 19:51:16.533"
"two-step-fixation","105","428892","0.0-61.0-2.14","837","6113","24","Male","false","true","true","true","""event"",""trial"",""time""
""blur"",""3"",""16021""
""focus"",""3"",""16021""
""fullscreenenter"",""5"",""24244""
","""event"",""trial"",""time""
""blur"",""3"",""16021""
","""event"",""trial"",""time""
""focus"",""3"",""16021""
","""event"",""trial"",""time""
""fullscreenenter"",""5"",""24244""
","
","","images/earth.jpg","","","","","","","","","","","","","","fixation","","","","","",""
"d3-animate-choice","106","431201","0.0-61.0-0.15","837","6113","24","Male","false","true","true","true","""event"",""trial"",""time""
""blur"",""3"",""16021""
""focus"",""3"",""16021""
""fullscreenenter"",""5"",""24244""
","""event"",""trial"",""time""
""blur"",""3"",""16021""
","""event"",""trial"",""time""
""focus"",""3"",""16021""
","""event"",""trial"",""time""
""fullscreenenter"",""5"",""24244""
","
","301","","49","","","3000","1","","","images/earth.jpg","images/tutrocket1","images/tutrocket2","null","images/tutrocket2","","1","practice","null","1","","",""
"d3-animate-choice","107","433525","0.0-61.0-1.15","837","6113","24","Male","false","true","true","true","""event"",""trial"",""time""
""blur"",""3"",""16021""
""focus"",""3"",""16021""
""fullscreenenter"",""5"",""24244""
","""event"",""trial"",""time""
""blur"",""3"",""16021""
","""event"",""trial"",""time""
""focus"",""3"",""16021""
","""event"",""trial"",""time""
""fullscreenenter"",""5"",""24244""
","
","315","","49","","","3000","1","","","images/tutgreenplanet.jpg","images/tutalien2","images/tutalien1","images/tutrocket2","images/tutalien1","images/nothing.png","2","practice","false","1","rare","0","2023-02-03 19:51:22.173"
"two-step-fixation","108","434531","0.0-61.0-2.15","837","6113","24","Male","false","true","true","true","""event"",""trial"",""time""
""blur"",""3"",""16021""
""focus"",""3"",""16021""
""fullscreenenter"",""5"",""24244""
","""event"",""trial"",""time""
""blur"",""3"",""16021""
","""event"",""trial"",""time""
""focus"",""3"",""16021""
","""event"",""trial"",""time""
""fullscreenenter"",""5"",""24244""
","
","","images/earth.jpg","","","","","","","","","","","","","","fixation","","","","","",""
"d3-animate-choice","109","436905","0.0-61.0-0.16","837","6113","24","Male","false","true","true","true","""event"",""trial"",""time""
""blur"",""3"",""16021""
""focus"",""3"",""16021""
""fullscreenenter"",""5"",""24244""
","""event"",""trial"",""time""
""blur"",""3"",""16021""
","""event"",""trial"",""time""
""focus"",""3"",""16021""
","""event"",""trial"",""time""
""fullscreenenter"",""5"",""24244""
","
","368","","49","","","3000","1","","","images/earth.jpg","images/tutrocket1","images/tutrocket2","null","images/tutrocket2","","1","practice","null","1","","",""
"d3-animate-choice","110","439445","0.0-61.0-1.16","837","6113","24","Male","false","true","true","true","""event"",""trial"",""time""
""blur"",""3"",""16021""
""focus"",""3"",""16021""
""fullscreenenter"",""5"",""24244""
","""event"",""trial"",""time""
""blur"",""3"",""16021""
","""event"",""trial"",""time""
""focus"",""3"",""16021""
","""event"",""trial"",""time""
""fullscreenenter"",""5"",""24244""
","
","535","","48","","","3000","1","","","images/tutgreenplanet.jpg","images/tutalien2","images/tutalien1","images/tutrocket2","images/tutalien2","images/t.png","2","practice","false","2","rare","1","2023-02-03 19:51:28.094"
"two-step-fixation","111","440453","0.0-61.0-2.16","837","6113","24","Male","false","true","true","true","""event"",""trial"",""time""
""blur"",""3"",""16021""
""focus"",""3"",""16021""
""fullscreenenter"",""5"",""24244""
","""event"",""trial"",""time""
""blur"",""3"",""16021""
","""event"",""trial"",""time""
""focus"",""3"",""16021""
","""event"",""trial"",""time""
""fullscreenenter"",""5"",""24244""
","
","","images/earth.jpg","","","","","","","","","","","","","","fixation","","","","","",""
"d3-animate-choice","112","442771","0.0-61.0-0.17","837","6113","24","Male","false","true","true","true","""event"",""trial"",""time""
""blur"",""3"",""16021""
""focus"",""3"",""16021""
""fullscreenenter"",""5"",""24244""
","""event"",""trial"",""time""
""blur"",""3"",""16021""
","""event"",""trial"",""time""
""focus"",""3"",""16021""
","""event"",""trial"",""time""
""fullscreenenter"",""5"",""24244""
","
","312","","49","","","3000","1","","","images/earth.jpg","images/tutrocket1","images/tutrocket2","null","images/tutrocket2","","1","practice","null","1","","",""
"d3-animate-choice","113","445229","0.0-61.0-1.17","837","6113","24","Male","false","true","true","true","""event"",""trial"",""time""
""blur"",""3"",""16021""
""focus"",""3"",""16021""
""fullscreenenter"",""5"",""24244""
","""event"",""trial"",""time""
""blur"",""3"",""16021""
","""event"",""trial"",""time""
""focus"",""3"",""16021""
","""event"",""trial"",""time""
""fullscreenenter"",""5"",""24244""
","
","452","","49","","","3000","1","","","images/tutyellowplanet.jpg","images/tutalien4","images/tutalien3","images/tutrocket2","images/tutalien3","images/t.png","2","practice","true","1","common","1","2023-02-03 19:51:33.877"
"two-step-fixation","114","446234","0.0-61.0-2.17","837","6113","24","Male","false","true","true","true","""event"",""trial"",""time""
""blur"",""3"",""16021""
""focus"",""3"",""16021""
""fullscreenenter"",""5"",""24244""
","""event"",""trial"",""time""
""blur"",""3"",""16021""
","""event"",""trial"",""time""
""focus"",""3"",""16021""
","""event"",""trial"",""time""
""fullscreenenter"",""5"",""24244""
","
","","images/earth.jpg","","","","","","","","","","","","","","fixation","","","","","",""
"d3-animate-choice","115","448534","0.0-61.0-0.18","837","6113","24","Male","false","true","true","true","""event"",""trial"",""time""
""blur"",""3"",""16021""
""focus"",""3"",""16021""
""fullscreenenter"",""5"",""24244""
","""event"",""trial"",""time""
""blur"",""3"",""16021""
","""event"",""trial"",""time""
""focus"",""3"",""16021""
","""event"",""trial"",""time""
""fullscreenenter"",""5"",""24244""
","
","295","","49","","","3000","1","","","images/earth.jpg","images/tutrocket1","images/tutrocket2","null","images/tutrocket2","","1","practice","null","1","","",""
"d3-animate-choice","116","451167","0.0-61.0-1.18","837","6113","24","Male","false","true","true","true","""event"",""trial"",""time""
""blur"",""3"",""16021""
""focus"",""3"",""16021""
""fullscreenenter"",""5"",""24244""
","""event"",""trial"",""time""
""blur"",""3"",""16021""
","""event"",""trial"",""time""
""focus"",""3"",""16021""
","""event"",""trial"",""time""
""fullscreenenter"",""5"",""24244""
","
","625","","49","","","3000","1","","","images/tutyellowplanet.jpg","images/tutalien4","images/tutalien3","images/tutrocket2","images/tutalien3","images/nothing.png","2","practice","true","1","common","0","2023-02-03 19:51:39.815"
"two-step-fixation","117","452173","0.0-61.0-2.18","837","6113","24","Male","false","true","true","true","""event"",""trial"",""time""
""blur"",""3"",""16021""
""focus"",""3"",""16021""
""fullscreenenter"",""5"",""24244""
","""event"",""trial"",""time""
""blur"",""3"",""16021""
","""event"",""trial"",""time""
""focus"",""3"",""16021""
","""event"",""trial"",""time""
""fullscreenenter"",""5"",""24244""
","
","","images/earth.jpg","","","","","","","","","","","","","","fixation","","","","","",""
"d3-animate-choice","118","454491","0.0-61.0-0.19","837","6113","24","Male","false","true","true","true","""event"",""trial"",""time""
""blur"",""3"",""16021""
""focus"",""3"",""16021""
""fullscreenenter"",""5"",""24244""
","""event"",""trial"",""time""
""blur"",""3"",""16021""
","""event"",""trial"",""time""
""focus"",""3"",""16021""
","""event"",""trial"",""time""
""fullscreenenter"",""5"",""24244""
","
","309","","49","","","3000","1","","","images/earth.jpg","images/tutrocket1","images/tutrocket2","null","images/tutrocket2","","1","practice","null","1","","",""
"d3-animate-choice","119","457142","0.0-61.0-1.19","837","6113","24","Male","false","true","true","true","""event"",""trial"",""time""
""blur"",""3"",""16021""
""focus"",""3"",""16021""
""fullscreenenter"",""5"",""24244""
","""event"",""trial"",""time""
""blur"",""3"",""16021""
","""event"",""trial"",""time""
""focus"",""3"",""16021""
","""event"",""trial"",""time""
""fullscreenenter"",""5"",""24244""
","
","642","","49","","","3000","1","","","images/tutyellowplanet.jpg","images/tutalien4","images/tutalien3","images/tutrocket2","images/tutalien3","images/t.png","2","practice","true","1","common","1","2023-02-03 19:51:45.790"
"two-step-fixation","120","458147","0.0-61.0-2.19","837","6113","24","Male","false","true","true","true","""event"",""trial"",""time""
""blur"",""3"",""16021""
""focus"",""3"",""16021""
""fullscreenenter"",""5"",""24244""
","""event"",""trial"",""time""
""blur"",""3"",""16021""
","""event"",""trial"",""time""
""focus"",""3"",""16021""
","""event"",""trial"",""time""
""fullscreenenter"",""5"",""24244""
","
","","images/earth.jpg","","","","","","","","","","","","","","fixation","","","","","",""
"d3-instructions","121","462124","0.0-62.0","837","6113","24","Male","false","true","true","true","""event"",""trial"",""time""
""blur"",""3"",""16021""
""focus"",""3"",""16021""
""fullscreenenter"",""5"",""24244""
","""event"",""trial"",""time""
""blur"",""3"",""16021""
","""event"",""trial"",""time""
""focus"",""3"",""16021""
","""event"",""trial"",""time""
""fullscreenenter"",""5"",""24244""
","
","","","","","","","","","","","","","","","","","","","","","",""
"audio-keyboard-response","122","465506","0.0-63.0","837","6113","24","Male","false","true","true","true","""event"",""trial"",""time""
""blur"",""3"",""16021""
""focus"",""3"",""16021""
""fullscreenenter"",""5"",""24244""
","""event"",""trial"",""time""
""blur"",""3"",""16021""
","""event"",""trial"",""time""
""focus"",""3"",""16021""
","""event"",""trial"",""time""
""fullscreenenter"",""5"",""24244""
","
","3381","audio/instructions/treasure_feedback.wav","32","","","","","","","","","","","","","","","","","","",""
"d3-instructions","123","473772","0.0-64.0","837","6113","24","Male","false","true","true","true","""event"",""trial"",""time""
""blur"",""3"",""16021""
""focus"",""3"",""16021""
""fullscreenenter"",""5"",""24244""
","""event"",""trial"",""time""
""blur"",""3"",""16021""
","""event"",""trial"",""time""
""focus"",""3"",""16021""
","""event"",""trial"",""time""
""fullscreenenter"",""5"",""24244""
","
","","","","","","","","","","","","","","","","","","","","","",""
"d3-instructions","124","483851","0.0-65.0","837","6113","24","Male","false","true","true","true","""event"",""trial"",""time""
""blur"",""3"",""16021""
""focus"",""3"",""16021""
""fullscreenenter"",""5"",""24244""
","""event"",""trial"",""time""
""blur"",""3"",""16021""
","""event"",""trial"",""time""
""focus"",""3"",""16021""
","""event"",""trial"",""time""
""fullscreenenter"",""5"",""24244""
","
","","","","","","","","","","","","","","","","","","","","","",""
"d3-instructions","125","511388","0.0-66.0","837","6113","24","Male","false","true","true","true","""event"",""trial"",""time""
""blur"",""3"",""16021""
""focus"",""3"",""16021""
""fullscreenenter"",""5"",""24244""
","""event"",""trial"",""time""
""blur"",""3"",""16021""
","""event"",""trial"",""time""
""focus"",""3"",""16021""
","""event"",""trial"",""time""
""fullscreenenter"",""5"",""24244""
","
","","","","","","","","","","","","","","","","","","","","","",""
"d3-instructions","126","528285","0.0-67.0","837","6113","24","Male","false","true","true","true","""event"",""trial"",""time""
""blur"",""3"",""16021""
""focus"",""3"",""16021""
""fullscreenenter"",""5"",""24244""
","""event"",""trial"",""time""
""blur"",""3"",""16021""
","""event"",""trial"",""time""
""focus"",""3"",""16021""
","""event"",""trial"",""time""
""fullscreenenter"",""5"",""24244""
","
","","","","","","","","","","","","","","","","","","","","","",""
"d3-instructions","127","530983","0.0-68.0","837","6113","24","Male","false","true","true","true","""event"",""trial"",""time""
""blur"",""3"",""16021""
""focus"",""3"",""16021""
""fullscreenenter"",""5"",""24244""
","""event"",""trial"",""time""
""blur"",""3"",""16021""
","""event"",""trial"",""time""
""focus"",""3"",""16021""
","""event"",""trial"",""time""
""fullscreenenter"",""5"",""24244""
","
","","","","","","","","","","","","","","","","","","","","","",""
"instructions-quiz","128","533037","0.0-69.0","837","6113","24","Male","false","true","true","true","""event"",""trial"",""time""
""blur"",""3"",""16021""
""focus"",""3"",""16021""
""fullscreenenter"",""5"",""24244""
","""event"",""trial"",""time""
""blur"",""3"",""16021""
","""event"",""trial"",""time""
""focus"",""3"",""16021""
","""event"",""trial"",""time""
""fullscreenenter"",""5"",""24244""
","
","2051","audio/quiz/Q1_Prompt.wav","","1","","","","","","","","","","","","","","","","","",""
"audio-keyboard-response","129","542209","0.0-70.0","837","6113","24","Male","false","true","true","true","""event"",""trial"",""time""
""blur"",""3"",""16021""
""focus"",""3"",""16021""
""fullscreenenter"",""5"",""24244""
","""event"",""trial"",""time""
""blur"",""3"",""16021""
","""event"",""trial"",""time""
""focus"",""3"",""16021""
","""event"",""trial"",""time""
""fullscreenenter"",""5"",""24244""
","
","null","audio/quiz/Q1_Correct.wav","null","","","","","","","","","","","","","","","","","","",""
"instructions-quiz","130","546149","0.0-71.0","837","6113","24","Male","false","true","true","true","""event"",""trial"",""time""
""blur"",""3"",""16021""
""focus"",""3"",""16021""
""fullscreenenter"",""5"",""24244""
","""event"",""trial"",""time""
""blur"",""3"",""16021""
","""event"",""trial"",""time""
""focus"",""3"",""16021""
","""event"",""trial"",""time""
""fullscreenenter"",""5"",""24244""
","
","3937","audio/quiz/Q2_Prompt.wav","","1","","","","","","","","","","","","","","","","","",""
"audio-keyboard-response","131","560232","0.0-72.0","837","6113","24","Male","false","true","true","true","""event"",""trial"",""time""
""blur"",""3"",""16021""
""focus"",""3"",""16021""
""fullscreenenter"",""5"",""24244""
","""event"",""trial"",""time""
""blur"",""3"",""16021""
","""event"",""trial"",""time""
""focus"",""3"",""16021""
","""event"",""trial"",""time""
""fullscreenenter"",""5"",""24244""
","
","null","audio/quiz/Q2_Incorrect.wav","null","","","","","","","","","","","","","","","","","","",""
"instructions-quiz","132","575257","0.0-73.0","837","6113","24","Male","false","true","true","true","""event"",""trial"",""time""
""blur"",""3"",""16021""
""focus"",""3"",""16021""
""fullscreenenter"",""5"",""24244""
","""event"",""trial"",""time""
""blur"",""3"",""16021""
","""event"",""trial"",""time""
""focus"",""3"",""16021""
","""event"",""trial"",""time""
""fullscreenenter"",""5"",""24244""
","
","15023","audio/quiz/Q3_Prompt.wav","","1","","","","","","","","","","","","","","","","","",""
"audio-keyboard-response","133","581059","0.0-74.0","837","6113","24","Male","false","true","true","true","""event"",""trial"",""time""
""blur"",""3"",""16021""
""focus"",""3"",""16021""
""fullscreenenter"",""5"",""24244""
","""event"",""trial"",""time""
""blur"",""3"",""16021""
","""event"",""trial"",""time""
""focus"",""3"",""16021""
","""event"",""trial"",""time""
""fullscreenenter"",""5"",""24244""
","
","null","audio/quiz/Q3_Correct.wav","null","","","","","","","","","","","","","","","","","","",""
"d3-instructions","134","612968","0.0-75.0","837","6113","24","Male","false","true","true","true","""event"",""trial"",""time""
""blur"",""3"",""16021""
""focus"",""3"",""16021""
""fullscreenenter"",""5"",""24244""
","""event"",""trial"",""time""
""blur"",""3"",""16021""
","""event"",""trial"",""time""
""focus"",""3"",""16021""
","""event"",""trial"",""time""
""fullscreenenter"",""5"",""24244""
","
","","","","","","","","","","","","","","","","","","","","","",""
"pavlovia","135","612969","0.0-76.0","837","6113","24","Male","false","true","true","true","""event"",""trial"",""time""
""blur"",""3"",""16021""
""focus"",""3"",""16021""
""fullscreenenter"",""5"",""24244""
","""event"",""trial"",""time""
""blur"",""3"",""16021""
","""event"",""trial"",""time""
""focus"",""3"",""16021""
","""event"",""trial"",""time""
""fullscreenenter"",""5"",""24244""
","
","","","","","","","","","","","","","","","","","","","","","",""
"d3-animate-choice","136","616981","0.0-77.0-0.0","837","6113","24","Male","false","true","true","true","""event"",""trial"",""time""
""blur"",""3"",""16021""
""focus"",""3"",""16021""
""fullscreenenter"",""5"",""24244""
","""event"",""trial"",""time""
""blur"",""3"",""16021""
","""event"",""trial"",""time""
""focus"",""3"",""16021""
","""event"",""trial"",""time""
""fullscreenenter"",""5"",""24244""
","
","null","","null","","","3000","0","","","images/earth.jpg","images/rocket1","images/rocket2","null","","","1","real","null","","","",""
"d3-animate-choice","137","617985","0.0-77.0-1.0","837","6113","24","Male","false","true","true","true","""event"",""trial"",""time""
""blur"",""3"",""16021""
""focus"",""3"",""16021""
""fullscreenenter"",""5"",""24244""
","""event"",""trial"",""time""
""blur"",""3"",""16021""
","""event"",""trial"",""time""
""focus"",""3"",""16021""
","""event"",""trial"",""time""
""fullscreenenter"",""5"",""24244""
","
","null","","null","","","0","0","","","images/earth.jpg","images/rocket1","images/rocket2","null","","","2","real","null","","","0","2023-02-03 19:54:26.633"
"two-step-fixation","138","618989","0.0-77.0-2.0","837","6113","24","Male","false","true","true","true","""event"",""trial"",""time""
""blur"",""3"",""16021""
""focus"",""3"",""16021""
""fullscreenenter"",""5"",""24244""
","""event"",""trial"",""time""
""blur"",""3"",""16021""
","""event"",""trial"",""time""
""focus"",""3"",""16021""
","""event"",""trial"",""time""
""fullscreenenter"",""5"",""24244""
","
","","images/earth.jpg","","","","","","","","","","","","","","fixation","","","","","",""
"d3-animate-choice","139","622183","0.0-77.0-0.1","837","6113","24","Male","false","true","true","true","""event"",""trial"",""time""
""blur"",""3"",""16021""
""focus"",""3"",""16021""
""fullscreenenter"",""5"",""24244""
","""event"",""trial"",""time""
""blur"",""3"",""16021""
","""event"",""trial"",""time""
""focus"",""3"",""16021""
","""event"",""trial"",""time""
""fullscreenenter"",""5"",""24244""
","
","1189","","49","","","3000","1","","","images/earth.jpg","images/rocket1","images/rocket2","null","images/rocket2","","1","real","null","1","","",""
"d3-animate-choice","140","625084","0.0-77.0-1.1","837","6113","24","Male","false","true","true","true","""event"",""trial"",""time""
""blur"",""3"",""16021""
""focus"",""3"",""16021""
""fullscreenenter"",""5"",""24244""
","""event"",""trial"",""time""
""blur"",""3"",""16021""
","""event"",""trial"",""time""
""focus"",""3"",""16021""
","""event"",""trial"",""time""
""fullscreenenter"",""5"",""24244""
","
","894","","49","","","3000","1","","","images/purpleplanet.jpg","images/alien4","images/alien3","images/rocket2","images/alien3","images/nothing.png","2","real","true","1","common","0","2023-02-03 19:54:33.732"
"two-step-fixation","141","626091","0.0-77.0-2.1","837","6113","24","Male","false","true","true","true","""event"",""trial"",""time""
""blur"",""3"",""16021""
""focus"",""3"",""16021""
""fullscreenenter"",""5"",""24244""
","""event"",""trial"",""time""
""blur"",""3"",""16021""
","""event"",""trial"",""time""
""focus"",""3"",""16021""
","""event"",""trial"",""time""
""fullscreenenter"",""5"",""24244""
","
","","images/earth.jpg","","","","","","","","","","","","","","fixation","","","","","",""
"d3-animate-choice","142","628450","0.0-77.0-0.2","837","6113","24","Male","false","true","true","true","""event"",""trial"",""time""
""blur"",""3"",""16021""
""focus"",""3"",""16021""
""fullscreenenter"",""5"",""24244""
","""event"",""trial"",""time""
""blur"",""3"",""16021""
","""event"",""trial"",""time""
""focus"",""3"",""16021""
","""event"",""trial"",""time""
""fullscreenenter"",""5"",""24244""
","
","349","","49","","","3000","1","","","images/earth.jpg","images/rocket1","images/rocket2","null","images/rocket2","","1","real","null","1","","",""
"d3-animate-choice","143","630782","0.0-77.0-1.2","837","6113","24","Male","false","true","true","true","""event"",""trial"",""time""
""blur"",""3"",""16021""
""focus"",""3"",""16021""
""fullscreenenter"",""5"",""24244""
","""event"",""trial"",""time""
""blur"",""3"",""16021""
","""event"",""trial"",""time""
""focus"",""3"",""16021""
","""event"",""trial"",""time""
""fullscreenenter"",""5"",""24244""
","
","323","","49","","","3000","1","","","images/purpleplanet.jpg","images/alien4","images/alien3","images/rocket2","images/alien3","images/t.png","2","real","true","1","common","1","2023-02-03 19:54:39.431"
"two-step-fixation","144","631789","0.0-77.0-2.2","837","6113","24","Male","false","true","true","true","""event"",""trial"",""time""
""blur"",""3"",""16021""
""focus"",""3"",""16021""
""fullscreenenter"",""5"",""24244""
","""event"",""trial"",""time""
""blur"",""3"",""16021""
","""event"",""trial"",""time""
""focus"",""3"",""16021""
","""event"",""trial"",""time""
""fullscreenenter"",""5"",""24244""
","
","","images/earth.jpg","","","","","","","","","","","","","","fixation","","","","","",""
"d3-animate-choice","145","634036","0.0-77.0-0.3","837","6113","24","Male","false","true","true","true","""event"",""trial"",""time""
""blur"",""3"",""16021""
""focus"",""3"",""16021""
""fullscreenenter"",""5"",""24244""
","""event"",""trial"",""time""
""blur"",""3"",""16021""
","""event"",""trial"",""time""
""focus"",""3"",""16021""
","""event"",""trial"",""time""
""fullscreenenter"",""5"",""24244""
","
","238","","49","","","3000","1","","","images/earth.jpg","images/rocket1","images/rocket2","null","images/rocket2","","1","real","null","1","","",""
"d3-animate-choice","146","636399","0.0-77.0-1.3","837","6113","24","Male","false","true","true","true","""event"",""trial"",""time""
""blur"",""3"",""16021""
""focus"",""3"",""16021""
""fullscreenenter"",""5"",""24244""
","""event"",""trial"",""time""
""blur"",""3"",""16021""
","""event"",""trial"",""time""
""focus"",""3"",""16021""
","""event"",""trial"",""time""
""fullscreenenter"",""5"",""24244""
","
","352","","49","","","3000","1","","","images/purpleplanet.jpg","images/alien4","images/alien3","images/rocket2","images/alien3","images/nothing.png","2","real","true","1","common","0","2023-02-03 19:54:45.047"
"two-step-fixation","147","637406","0.0-77.0-2.3","837","6113","24","Male","false","true","true","true","""event"",""trial"",""time""
""blur"",""3"",""16021""
""focus"",""3"",""16021""
""fullscreenenter"",""5"",""24244""
","""event"",""trial"",""time""
""blur"",""3"",""16021""
","""event"",""trial"",""time""
""focus"",""3"",""16021""
","""event"",""trial"",""time""
""fullscreenenter"",""5"",""24244""
","
","","images/earth.jpg","","","","","","","","","","","","","","fixation","","","","","",""
"d3-animate-choice","148","639745","0.0-77.0-0.4","837","6113","24","Male","false","true","true","true","""event"",""trial"",""time""
""blur"",""3"",""16021""
""focus"",""3"",""16021""
""fullscreenenter"",""5"",""24244""
","""event"",""trial"",""time""
""blur"",""3"",""16021""
","""event"",""trial"",""time""
""focus"",""3"",""16021""
","""event"",""trial"",""time""
""fullscreenenter"",""5"",""24244""
","
","330","","49","","","3000","1","","","images/earth.jpg","images/rocket1","images/rocket2","null","images/rocket2","","1","real","null","1","","",""
"d3-animate-choice","149","642010","0.0-77.0-1.4","837","6113","24","Male","false","true","true","true","""event"",""trial"",""time""
""blur"",""3"",""16021""
""focus"",""3"",""16021""
""fullscreenenter"",""5"",""24244""
","""event"",""trial"",""time""
""blur"",""3"",""16021""
","""event"",""trial"",""time""
""focus"",""3"",""16021""
","""event"",""trial"",""time""
""fullscreenenter"",""5"",""24244""
","
","261","","49","","","3000","1","","","images/purpleplanet.jpg","images/alien4","images/alien3","images/rocket2","images/alien3","images/nothing.png","2","real","true","1","common","0","2023-02-03 19:54:50.659"
"two-step-fixation","150","643017","0.0-77.0-2.4","837","6113","24","Male","false","true","true","true","""event"",""trial"",""time""
""blur"",""3"",""16021""
""focus"",""3"",""16021""
""fullscreenenter"",""5"",""24244""
","""event"",""trial"",""time""
""blur"",""3"",""16021""
","""event"",""trial"",""time""
""focus"",""3"",""16021""
","""event"",""trial"",""time""
""fullscreenenter"",""5"",""24244""
","
","","images/earth.jpg","","","","","","","","","","","","","","fixation","","","","","",""
"d3-animate-choice","151","645268","0.0-77.0-0.5","837","6113","24","Male","false","true","true","true","""event"",""trial"",""time""
""blur"",""3"",""16021""
""focus"",""3"",""16021""
""fullscreenenter"",""5"",""24244""
","""event"",""trial"",""time""
""blur"",""3"",""16021""
","""event"",""trial"",""time""
""focus"",""3"",""16021""
","""event"",""trial"",""time""
""fullscreenenter"",""5"",""24244""
","
","241","","49","","","3000","1","","","images/earth.jpg","images/rocket1","images/rocket2","null","images/rocket2","","1","real","null","1","","",""
"d3-animate-choice","152","647495","0.0-77.0-1.5","837","6113","24","Male","false","true","true","true","""event"",""trial"",""time""
""blur"",""3"",""16021""
""focus"",""3"",""16021""
""fullscreenenter"",""5"",""24244""
","""event"",""trial"",""time""
""blur"",""3"",""16021""
","""event"",""trial"",""time""
""focus"",""3"",""16021""
","""event"",""trial"",""time""
""fullscreenenter"",""5"",""24244""
","
","220","","48","","","3000","1","","","images/purpleplanet.jpg","images/alien4","images/alien3","images/rocket2","images/alien4","images/t.png","2","real","true","2","common","1","2023-02-03 19:54:56.143"
"two-step-fixation","153","648502","0.0-77.0-2.5","837","6113","24","Male","false","true","true","true","""event"",""trial"",""time""
""blur"",""3"",""16021""
""focus"",""3"",""16021""
""fullscreenenter"",""5"",""24244""
","""event"",""trial"",""time""
""blur"",""3"",""16021""
","""event"",""trial"",""time""
""focus"",""3"",""16021""
","""event"",""trial"",""time""
""fullscreenenter"",""5"",""24244""
","
","","images/earth.jpg","","","","","","","","","","","","","","fixation","","","","","",""
"d3-animate-choice","154","650831","0.0-77.0-0.6","837","6113","24","Male","false","true","true","true","""event"",""trial"",""time""
""blur"",""3"",""16021""
""focus"",""3"",""16021""
""fullscreenenter"",""5"",""24244""
","""event"",""trial"",""time""
""blur"",""3"",""16021""
","""event"",""trial"",""time""
""focus"",""3"",""16021""
","""event"",""trial"",""time""
""fullscreenenter"",""5"",""24244""
","
","322","","49","","","3000","1","","","images/earth.jpg","images/rocket1","images/rocket2","null","images/rocket2","","1","real","null","1","","",""
"d3-animate-choice","155","653203","0.0-77.0-1.6","837","6113","24","Male","false","true","true","true","""event"",""trial"",""time""
""blur"",""3"",""16021""
""focus"",""3"",""16021""
""fullscreenenter"",""5"",""24244""
","""event"",""trial"",""time""
""blur"",""3"",""16021""
","""event"",""trial"",""time""
""focus"",""3"",""16021""
","""event"",""trial"",""time""
""fullscreenenter"",""5"",""24244""
","
","362","","48","","","3000","1","","","images/redplanet1.jpg","images/alien2","images/alien1","images/rocket2","images/alien2","images/t.png","2","real","false","2","rare","1","2023-02-03 19:55:01.851"
"two-step-fixation","156","654209","0.0-77.0-2.6","837","6113","24","Male","false","true","true","true","""event"",""trial"",""time""
""blur"",""3"",""16021""
""focus"",""3"",""16021""
""fullscreenenter"",""5"",""24244""
","""event"",""trial"",""time""
""blur"",""3"",""16021""
","""event"",""trial"",""time""
""focus"",""3"",""16021""
","""event"",""trial"",""time""
""fullscreenenter"",""5"",""24244""
","
","","images/earth.jpg","","","","","","","","","","","","","","fixation","","","","","",""
"d3-animate-choice","157","656470","0.0-77.0-0.7","837","6113","24","Male","false","true","true","true","""event"",""trial"",""time""
""blur"",""3"",""16021""
""focus"",""3"",""16021""
""fullscreenenter"",""5"",""24244""
","""event"",""trial"",""time""
""blur"",""3"",""16021""
","""event"",""trial"",""time""
""focus"",""3"",""16021""
","""event"",""trial"",""time""
""fullscreenenter"",""5"",""24244""
","
","252","","49","","","3000","1","","","images/earth.jpg","images/rocket1","images/rocket2","null","images/rocket2","","1","real","null","1","","",""
"d3-animate-choice","158","658856","0.0-77.0-1.7","837","6113","24","Male","false","true","true","true","""event"",""trial"",""time""
""blur"",""3"",""16021""
""focus"",""3"",""16021""
""fullscreenenter"",""5"",""24244""
","""event"",""trial"",""time""
""blur"",""3"",""16021""
","""event"",""trial"",""time""
""focus"",""3"",""16021""
","""event"",""trial"",""time""
""fullscreenenter"",""5"",""24244""
","
","380","","48","","","3000","1","497","48","images/redplanet1.jpg","images/alien2","images/alien1","images/rocket2","images/alien2","images/t.png","2","real","false","2","rare","1","2023-02-03 19:55:07.504"
"two-step-fixation","159","659860","0.0-77.0-2.7","837","6113","24","Male","false","true","true","true","""event"",""trial"",""time""
""blur"",""3"",""16021""
""focus"",""3"",""16021""
""fullscreenenter"",""5"",""24244""
","""event"",""trial"",""time""
""blur"",""3"",""16021""
","""event"",""trial"",""time""
""focus"",""3"",""16021""
","""event"",""trial"",""time""
""fullscreenenter"",""5"",""24244""
","
","","images/earth.jpg","","","","","","","","","","","","","","fixation","","","","","",""
"d3-animate-choice","160","662196","0.0-77.0-0.8","837","6113","24","Male","false","true","true","true","""event"",""trial"",""time""
""blur"",""3"",""16021""
""focus"",""3"",""16021""
""fullscreenenter"",""5"",""24244""
","""event"",""trial"",""time""
""blur"",""3"",""16021""
","""event"",""trial"",""time""
""focus"",""3"",""16021""
","""event"",""trial"",""time""
""fullscreenenter"",""5"",""24244""
","
","327","","49","","","3000","1","","","images/earth.jpg","images/rocket1","images/rocket2","null","images/rocket2","","1","real","null","1","","",""
"d3-animate-choice","161","664677","0.0-77.0-1.8","837","6113","24","Male","false","true","true","true","""event"",""trial"",""time""
""blur"",""3"",""16021""
""focus"",""3"",""16021""
""fullscreenenter"",""5"",""24244""
","""event"",""trial"",""time""
""blur"",""3"",""16021""
","""event"",""trial"",""time""
""focus"",""3"",""16021""
","""event"",""trial"",""time""
""fullscreenenter"",""5"",""24244""
","
","470","","48","","","3000","1","","","images/purpleplanet.jpg","images/alien4","images/alien3","images/rocket2","images/alien4","images/nothing.png","2","real","true","2","common","0","2023-02-03 19:55:13.326"
"two-step-fixation","162","665685","0.0-77.0-2.8","837","6113","24","Male","false","true","true","true","""event"",""trial"",""time""
""blur"",""3"",""16021""
""focus"",""3"",""16021""
""fullscreenenter"",""5"",""24244""
","""event"",""trial"",""time""
""blur"",""3"",""16021""
","""event"",""trial"",""time""
""focus"",""3"",""16021""
","""event"",""trial"",""time""
""fullscreenenter"",""5"",""24244""
","
","","images/earth.jpg","","","","","","","","","","","","","","fixation","","","","","",""
"d3-animate-choice","163","668018","0.0-77.0-0.9","837","6113","24","Male","false","true","true","true","""event"",""trial"",""time""
""blur"",""3"",""16021""
""focus"",""3"",""16021""
""fullscreenenter"",""5"",""24244""
","""event"",""trial"",""time""
""blur"",""3"",""16021""
","""event"",""trial"",""time""
""focus"",""3"",""16021""
","""event"",""trial"",""time""
""fullscreenenter"",""5"",""24244""
","
","323","","48","","","3000","1","","","images/earth.jpg","images/rocket1","images/rocket2","null","images/rocket1","","1","real","null","2","","",""
"d3-animate-choice","164","670397","0.0-77.0-1.9","837","6113","24","Male","false","true","true","true","""event"",""trial"",""time""
""blur"",""3"",""16021""
""focus"",""3"",""16021""
""fullscreenenter"",""5"",""24244""
","""event"",""trial"",""time""
""blur"",""3"",""16021""
","""event"",""trial"",""time""
""focus"",""3"",""16021""
","""event"",""trial"",""time""
""fullscreenenter"",""5"",""24244""
","
","374","","48","","","3000","1","","","images/purpleplanet.jpg","images/alien4","images/alien3","images/rocket1","images/alien4","images/nothing.png","2","real","false","2","rare","0","2023-02-03 19:55:19.045"
"two-step-fixation","165","671405","0.0-77.0-2.9","837","6113","24","Male","false","true","true","true","""event"",""trial"",""time""
""blur"",""3"",""16021""
""focus"",""3"",""16021""
""fullscreenenter"",""5"",""24244""
","""event"",""trial"",""time""
""blur"",""3"",""16021""
","""event"",""trial"",""time""
""focus"",""3"",""16021""
","""event"",""trial"",""time""
""fullscreenenter"",""5"",""24244""
","
","","images/earth.jpg","","","","","","","","","","","","","","fixation","","","","","",""
"d3-animate-choice","166","673646","0.0-77.0-0.10","837","6113","24","Male","false","true","true","true","""event"",""trial"",""time""
""blur"",""3"",""16021""
""focus"",""3"",""16021""
""fullscreenenter"",""5"",""24244""
","""event"",""trial"",""time""
""blur"",""3"",""16021""
","""event"",""trial"",""time""
""focus"",""3"",""16021""
","""event"",""trial"",""time""
""fullscreenenter"",""5"",""24244""
","
","233","","48","","","3000","1","","","images/earth.jpg","images/rocket1","images/rocket2","null","images/rocket1","","1","real","null","2","","",""
"d3-animate-choice","167","676008","0.0-77.0-1.10","837","6113","24","Male","false","true","true","true","""event"",""trial"",""time""
""blur"",""3"",""16021""
""focus"",""3"",""16021""
""fullscreenenter"",""5"",""24244""
","""event"",""trial"",""time""
""blur"",""3"",""16021""
","""event"",""trial"",""time""
""focus"",""3"",""16021""
","""event"",""trial"",""time""
""fullscreenenter"",""5"",""24244""
","
","353","","48","","","3000","1","","","images/redplanet1.jpg","images/alien2","images/alien1","images/rocket1","images/alien2","images/t.png","2","real","true","2","common","1","2023-02-03 19:55:24.656"
"two-step-fixation","168","677013","0.0-77.0-2.10","837","6113","24","Male","false","true","true","true","""event"",""trial"",""time""
""blur"",""3"",""16021""
""focus"",""3"",""16021""
""fullscreenenter"",""5"",""24244""
","""event"",""trial"",""time""
""blur"",""3"",""16021""
","""event"",""trial"",""time""
""focus"",""3"",""16021""
","""event"",""trial"",""time""
""fullscreenenter"",""5"",""24244""
","
","","images/earth.jpg","","","","","","","","","","","","","","fixation","","","","","",""
"d3-animate-choice","169","679499","0.0-77.0-0.11","837","6113","24","Male","false","true","true","true","""event"",""trial"",""time""
""blur"",""3"",""16021""
""focus"",""3"",""16021""
""fullscreenenter"",""5"",""24244""
","""event"",""trial"",""time""
""blur"",""3"",""16021""
","""event"",""trial"",""time""
""focus"",""3"",""16021""
","""event"",""trial"",""time""
""fullscreenenter"",""5"",""24244""
","
","475","","48","","","3000","1","","","images/earth.jpg","images/rocket1","images/rocket2","null","images/rocket1","","1","real","null","2","","",""
"d3-animate-choice","170","681906","0.0-77.0-1.11","837","6113","24","Male","false","true","true","true","""event"",""trial"",""time""
""blur"",""3"",""16021""
""focus"",""3"",""16021""
""fullscreenenter"",""5"",""24244""
","""event"",""trial"",""time""
""blur"",""3"",""16021""
","""event"",""trial"",""time""
""focus"",""3"",""16021""
","""event"",""trial"",""time""
""fullscreenenter"",""5"",""24244""
","
","397","","48","","","3000","1","","","images/redplanet1.jpg","images/alien2","images/alien1","images/rocket1","images/alien2","images/t.png","2","real","true","2","common","1","2023-02-03 19:55:30.554"
"two-step-fixation","171","682913","0.0-77.0-2.11","837","6113","24","Male","false","true","true","true","""event"",""trial"",""time""
""blur"",""3"",""16021""
""focus"",""3"",""16021""
""fullscreenenter"",""5"",""24244""
","""event"",""trial"",""time""
""blur"",""3"",""16021""
","""event"",""trial"",""time""
""focus"",""3"",""16021""
","""event"",""trial"",""time""
""fullscreenenter"",""5"",""24244""
","
","","images/earth.jpg","","","","","","","","","","","","","","fixation","","","","","",""
"d3-animate-choice","172","685263","0.0-77.0-0.12","837","6113","24","Male","false","true","true","true","""event"",""trial"",""time""
""blur"",""3"",""16021""
""focus"",""3"",""16021""
""fullscreenenter"",""5"",""24244""
","""event"",""trial"",""time""
""blur"",""3"",""16021""
","""event"",""trial"",""time""
""focus"",""3"",""16021""
","""event"",""trial"",""time""
""fullscreenenter"",""5"",""24244""
","
","339","","48","","","3000","1","","","images/earth.jpg","images/rocket1","images/rocket2","null","images/rocket1","","1","real","null","2","","",""
"d3-animate-choice","173","687685","0.0-77.0-1.12","837","6113","24","Male","false","true","true","true","""event"",""trial"",""time""
""blur"",""3"",""16021""
""focus"",""3"",""16021""
""fullscreenenter"",""5"",""24244""
","""event"",""trial"",""time""
""blur"",""3"",""16021""
","""event"",""trial"",""time""
""focus"",""3"",""16021""
","""event"",""trial"",""time""
""fullscreenenter"",""5"",""24244""
","
","411","","48","","","3000","1","","","images/redplanet1.jpg","images/alien2","images/alien1","images/rocket1","images/alien2","images/nothing.png","2","real","true","2","common","0","2023-02-03 19:55:36.333"
"two-step-fixation","174","688687","0.0-77.0-2.12","837","6113","24","Male","false","true","true","true","""event"",""trial"",""time""
""blur"",""3"",""16021""
""focus"",""3"",""16021""
""fullscreenenter"",""5"",""24244""
","""event"",""trial"",""time""
""blur"",""3"",""16021""
","""event"",""trial"",""time""
""focus"",""3"",""16021""
","""event"",""trial"",""time""
""fullscreenenter"",""5"",""24244""
","
","","images/earth.jpg","","","","","","","","","","","","","","fixation","","","","","",""
"d3-animate-choice","175","690960","0.0-77.0-0.13","837","6113","24","Male","false","true","true","true","""event"",""trial"",""time""
""blur"",""3"",""16021""
""focus"",""3"",""16021""
""fullscreenenter"",""5"",""24244""
","""event"",""trial"",""time""
""blur"",""3"",""16021""
","""event"",""trial"",""time""
""focus"",""3"",""16021""
","""event"",""trial"",""time""
""fullscreenenter"",""5"",""24244""
","
","264","","48","","","3000","1","","","images/earth.jpg","images/rocket1","images/rocket2","null","images/rocket1","","1","real","null","2","","",""
"d3-animate-choice","176","693375","0.0-77.0-1.13","837","6113","24","Male","false","true","true","true","""event"",""trial"",""time""
""blur"",""3"",""16021""
""focus"",""3"",""16021""
""fullscreenenter"",""5"",""24244""
","""event"",""trial"",""time""
""blur"",""3"",""16021""
","""event"",""trial"",""time""
""focus"",""3"",""16021""
","""event"",""trial"",""time""
""fullscreenenter"",""5"",""24244""
","
","411","","48","","","3000","1","","","images/redplanet1.jpg","images/alien2","images/alien1","images/rocket1","images/alien2","images/t.png","2","real","true","2","common","1","2023-02-03 19:55:42.023"
"two-step-fixation","177","694379","0.0-77.0-2.13","837","6113","24","Male","false","true","true","true","""event"",""trial"",""time""
""blur"",""3"",""16021""
""focus"",""3"",""16021""
""fullscreenenter"",""5"",""24244""
","""event"",""trial"",""time""
""blur"",""3"",""16021""
","""event"",""trial"",""time""
""focus"",""3"",""16021""
","""event"",""trial"",""time""
""fullscreenenter"",""5"",""24244""
","
","","images/earth.jpg","","","","","","","","","","","","","","fixation","","","","","",""
"d3-animate-choice","178","696630","0.0-77.0-0.14","837","6113","24","Male","false","true","true","true","""event"",""trial"",""time""
""blur"",""3"",""16021""
""focus"",""3"",""16021""
""fullscreenenter"",""5"",""24244""
","""event"",""trial"",""time""
""blur"",""3"",""16021""
","""event"",""trial"",""time""
""focus"",""3"",""16021""
","""event"",""trial"",""time""
""fullscreenenter"",""5"",""24244""
","
","245","","48","","","3000","1","","","images/earth.jpg","images/rocket1","images/rocket2","null","images/rocket1","","1","real","null","2","","",""
"d3-animate-choice","179","699128","0.0-77.0-1.14","837","6113","24","Male","false","true","true","true","""event"",""trial"",""time""
""blur"",""3"",""16021""
""focus"",""3"",""16021""
""fullscreenenter"",""5"",""24244""
","""event"",""trial"",""time""
""blur"",""3"",""16021""
","""event"",""trial"",""time""
""focus"",""3"",""16021""
","""event"",""trial"",""time""
""fullscreenenter"",""5"",""24244""
","
","488","","48","","","3000","1","","","images/redplanet1.jpg","images/alien2","images/alien1","images/rocket1","images/alien2","images/t.png","2","real","true","2","common","1","2023-02-03 19:55:47.776"
"two-step-fixation","180","700136","0.0-77.0-2.14","837","6113","24","Male","false","true","true","true","""event"",""trial"",""time""
""blur"",""3"",""16021""
""focus"",""3"",""16021""
""fullscreenenter"",""5"",""24244""
","""event"",""trial"",""time""
""blur"",""3"",""16021""
","""event"",""trial"",""time""
""focus"",""3"",""16021""
","""event"",""trial"",""time""
""fullscreenenter"",""5"",""24244""
","
","","images/earth.jpg","","","","","","","","","","","","","","fixation","","","","","",""
"d3-animate-choice","181","702375","0.0-77.0-0.15","837","6113","24","Male","false","true","true","true","""event"",""trial"",""time""
""blur"",""3"",""16021""
""focus"",""3"",""16021""
""fullscreenenter"",""5"",""24244""
