"trial_type","trial_index","time_elapsed","internal_node_id","participant_id","subject_id","age","gender","rocket_sides","red_planet_first_rocket","red_display_order","purple_display_order","interactions","blur_events","focus_events","fullscreenenter_events","fullscreenexit_events","rt","stimulus","key_press","button_pressed","success","duration","valid_pressed","rts","keys","planet_text","right_text","left_text","center_text","chosen_text","reward_text","trial_stage","practice_trial","transition_type","choice","transition","reward","timestamp"
"pavlovia","0","13","0.0-0.0","189","737","14","Male","true","true","false","false","
","
","
","
","
","","","","","","","","","","","","","","","","","","","","","",""
"html-keyboard-response","1","1285","0.0-1.0","189","737","14","Male","true","true","false","false","
","
","
","
","
","1268.7000000001863","Welcome! Press the space bar to begin.","32","","","","","","","","","","","","","","","","","","",""
"audio-keyboard-response","2","2332","0.0-2.0","189","737","14","Male","true","true","false","false","
","
","
","
","
","928","audio/beep_loop.wav","32","","","","","","","","","","","","","","","","","","",""
"audio-button-response","3","7392","0.0-3.0","189","737","14","Male","true","true","false","false","
","
","
","
","
","NaN","audio/fish.mp3","","1","","","","","","","","","","","","","","","","","",""
"audio-button-response","4","9872","0.0-4.0","189","737","14","Male","true","true","false","false","""event"",""trial"",""time""
""fullscreenenter"",""5"",""12116""
","
","
","""event"",""trial"",""time""
""fullscreenenter"",""5"",""12116""
","
","NaN","audio/tiger.mp3","","4","","","","","","","","","","","","","","","","","",""
"fullscreen","5","13099","0.0-5.0","189","737","14","Male","true","true","false","false","""event"",""trial"",""time""
""fullscreenenter"",""5"",""12116""
","
","
","""event"",""trial"",""time""
""fullscreenenter"",""5"",""12116""
","
","","","","","true","","","","","","","","","","","","","","","","",""
"d3-instructions","6","17868","0.0-6.0","189","737","14","Male","true","true","false","false","""event"",""trial"",""time""
""fullscreenenter"",""5"",""12116""
","
","
","""event"",""trial"",""time""
""fullscreenenter"",""5"",""12116""
","
","","","","","","","","","","","","","","","","","","","","","",""
"d3-instructions","7","19891","0.0-7.0","189","737","14","Male","true","true","false","false","""event"",""trial"",""time""
""fullscreenenter"",""5"",""12116""
","
","
","""event"",""trial"",""time""
""fullscreenenter"",""5"",""12116""
","
","","","","","","","","","","","","","","","","","","","","","",""
"d3-instructions","8","28125","0.0-8.0","189","737","14","Male","true","true","false","false","""event"",""trial"",""time""
""fullscreenenter"",""5"",""12116""
","
","
","""event"",""trial"",""time""
""fullscreenenter"",""5"",""12116""
","
","","","","","","","","","","","","","","","","","","","","","",""
"d3-instructions","9","38656","0.0-9.0","189","737","14","Male","true","true","false","false","""event"",""trial"",""time""
""fullscreenenter"",""5"",""12116""
","
","
","""event"",""trial"",""time""
""fullscreenenter"",""5"",""12116""
","
","","","","","","","","","","","","","","","","","","","","","",""
"d3-instructions","10","55959","0.0-10.0","189","737","14","Male","true","true","false","false","""event"",""trial"",""time""
""fullscreenenter"",""5"",""12116""
","
","
","""event"",""trial"",""time""
""fullscreenenter"",""5"",""12116""
","
","","","","","","","","","","","","","","","","","","","","","",""
"d3-animate-choice","11","59290","0.0-11.0","189","737","14","Male","true","true","false","false","""event"",""trial"",""time""
""fullscreenenter"",""5"",""12116""
","
","
","""event"",""trial"",""time""
""fullscreenenter"",""5"",""12116""
","
","1318.7000000001863","","49","","","3000","1","3171.7000000001863","48","images/tutgreenplanet.jpg","images/tutalien1","images/tutalien2","null","images/tutalien2","","NA","practice","null","","","",""
"d3-animate-choice","12","61736","0.0-12.0","189","737","14","Male","true","true","false","false","""event"",""trial"",""time""
""fullscreenenter"",""5"",""12116""
","
","
","""event"",""trial"",""time""
""fullscreenenter"",""5"",""12116""
","
","439","","48","","","3000","1","1867.5,2432.7000000001863","48,49","images/tutgreenplanet.jpg","images/tutalien1","images/tutalien2","null","images/tutalien1","","NA","practice","null","","","",""
"d3-animate-choice","13","64275","0.0-13.0","189","737","14","Male","true","true","false","false","""event"",""trial"",""time""
""fullscreenenter"",""5"",""12116""
","
","
","""event"",""trial"",""time""
""fullscreenenter"",""5"",""12116""
","
","533.2000000001863","","49","","","3000","1","","","images/tutgreenplanet.jpg","images/tutalien1","images/tutalien2","null","images/tutalien2","","NA","practice","null","","","",""
"d3-animate-choice","14","66315","0.0-14.0","189","737","14","Male","true","true","false","false","""event"",""trial"",""time""
""fullscreenenter"",""5"",""12116""
","
","
","""event"",""trial"",""time""
""fullscreenenter"",""5"",""12116""
","
","33.90000000037253","","48","","","3000","1","","","images/tutgreenplanet.jpg","images/tutalien1","images/tutalien2","null","images/tutalien1","","NA","practice","null","","","",""
"d3-instructions","15","76416","0.0-15.0","189","737","14","Male","true","true","false","false","""event"",""trial"",""time""
""fullscreenenter"",""5"",""12116""
","
","
","""event"",""trial"",""time""
""fullscreenenter"",""5"",""12116""
","
","","","","","","","","","","","","","","","","","","","","","",""
"d3-instructions","16","81166","0.0-16.0","189","737","14","Male","true","true","false","false","""event"",""trial"",""time""
""fullscreenenter"",""5"",""12116""
","
","
","""event"",""trial"",""time""
""fullscreenenter"",""5"",""12116""
","
","","","","","","","","","","","","","","","","","","","","","",""
"d3-instructions","17","93758","0.0-17.0","189","737","14","Male","true","true","false","false","""event"",""trial"",""time""
""fullscreenenter"",""5"",""12116""
","
","
","""event"",""trial"",""time""
""fullscreenenter"",""5"",""12116""
","
","","","","","","","","","","","","","","","","","","","","","",""
"d3-instructions","18","104589","0.0-18.0","189","737","14","Male","true","true","false","false","""event"",""trial"",""time""
""fullscreenenter"",""5"",""12116""
","
","
","""event"",""trial"",""time""
""fullscreenenter"",""5"",""12116""
","
","","","","","","","","","","","","","","","","","","","","","",""
"d3-instructions","19","112680","0.0-19.0","189","737","14","Male","true","true","false","false","""event"",""trial"",""time""
""fullscreenenter"",""5"",""12116""
","
","
","""event"",""trial"",""time""
""fullscreenenter"",""5"",""12116""
","
","","","","","","","","","","","","","","","","","","","","","",""
"d3-animate-choice","20","115781","0.0-20.0","189","737","14","Male","true","true","false","false","""event"",""trial"",""time""
""fullscreenenter"",""5"",""12116""
","
","
","""event"",""trial"",""time""
""fullscreenenter"",""5"",""12116""
","
","1094.800000000745","","49","","","3000","1","1404.6000000005588,2501","49,49","images/tutyellowplanet.jpg","null","images/tutalien3","null","images/tutalien3","images/t.png","NA","practice","null","","","",""
"d3-animate-choice","21","118058","0.0-21.0","189","737","14","Male","true","true","false","false","""event"",""trial"",""time""
""fullscreenenter"",""5"",""12116""
","
","
","""event"",""trial"",""time""
""fullscreenenter"",""5"",""12116""
","
","271.79999999981374","","49","","","3000","1","1721.5999999996275","49","images/tutyellowplanet.jpg","null","images/tutalien3","null","images/tutalien3","images/t.png","NA","practice","null","","","",""
"d3-animate-choice","22","120310","0.0-22.0","189","737","14","Male","true","true","false","false","""event"",""trial"",""time""
""fullscreenenter"",""5"",""12116""
","
","
","""event"",""trial"",""time""
""fullscreenenter"",""5"",""12116""
","
","246.90000000037253","","49","","","3000","1","","","images/tutyellowplanet.jpg","null","images/tutalien3","null","images/tutalien3","images/t.png","NA","practice","null","","","",""
"d3-animate-choice","23","122546","0.0-23.0","189","737","14","Male","true","true","false","false","""event"",""trial"",""time""
""fullscreenenter"",""5"",""12116""
","
","
","""event"",""trial"",""time""
""fullscreenenter"",""5"",""12116""
","
","230.79999999981374","","49","","","3000","1","","","images/tutyellowplanet.jpg","null","images/tutalien3","null","images/tutalien3","images/t.png","NA","practice","null","","","",""
"d3-animate-choice","24","124799","0.0-24.0","189","737","14","Male","true","true","false","false","""event"",""trial"",""time""
""fullscreenenter"",""5"",""12116""
","
","
","""event"",""trial"",""time""
""fullscreenenter"",""5"",""12116""
","
","246.8999999994412","","49","","","3000","1","","","images/tutyellowplanet.jpg","null","images/tutalien3","null","images/tutalien3","images/t.png","NA","practice","null","","","",""
"d3-animate-choice","25","127049","0.0-25.0","189","737","14","Male","true","true","false","false","""event"",""trial"",""time""
""fullscreenenter"",""5"",""12116""
","
","
","""event"",""trial"",""time""
""fullscreenenter"",""5"",""12116""
","
","243.79999999981374","","49","","","3000","1","","","images/tutyellowplanet.jpg","null","images/tutalien3","null","images/tutalien3","images/t.png","NA","practice","null","","","",""
"d3-animate-choice","26","129284","0.0-26.0","189","737","14","Male","true","true","false","false","""event"",""trial"",""time""
""fullscreenenter"",""5"",""12116""
","
","
","""event"",""trial"",""time""
""fullscreenenter"",""5"",""12116""
","
","228.79999999981374","","49","","","3000","1","","","images/tutyellowplanet.jpg","null","images/tutalien3","null","images/tutalien3","images/nothing.png","NA","practice","null","","","",""
"d3-animate-choice","27","131528","0.0-27.0","189","737","14","Male","true","true","false","false","""event"",""trial"",""time""
""fullscreenenter"",""5"",""12116""
","
","
","""event"",""trial"",""time""
""fullscreenenter"",""5"",""12116""
","
","236.70000000018626","","49","","","3000","1","","","images/tutyellowplanet.jpg","null","images/tutalien3","null","images/tutalien3","images/nothing.png","NA","practice","null","","","",""
"d3-animate-choice","28","133777","0.0-28.0","189","737","14","Male","true","true","false","false","""event"",""trial"",""time""
""fullscreenenter"",""5"",""12116""
","
","
","""event"",""trial"",""time""
""fullscreenenter"",""5"",""12116""
","
","238.79999999981374","","49","","","3000","1","","","images/tutyellowplanet.jpg","null","images/tutalien3","null","images/tutalien3","images/t.png","NA","practice","null","","","",""
"d3-animate-choice","29","136068","0.0-29.0","189","737","14","Male","true","true","false","false","""event"",""trial"",""time""
""fullscreenenter"",""5"",""12116""
","
","
","""event"",""trial"",""time""
""fullscreenenter"",""5"",""12116""
","
","285.70000000018626","","49","","","3000","1","","","images/tutyellowplanet.jpg","null","images/tutalien3","null","images/tutalien3","images/t.png","NA","practice","null","","","",""
"d3-instructions","30","139844","0.0-30.0","189","737","14","Male","true","true","false","false","""event"",""trial"",""time""
""fullscreenenter"",""5"",""12116""
","
","
","""event"",""trial"",""time""
""fullscreenenter"",""5"",""12116""
","
","","","","","","","","","","","","","","","","","","","","","",""
"d3-instructions","31","144848","0.0-31.0","189","737","14","Male","true","true","false","false","""event"",""trial"",""time""
""fullscreenenter"",""5"",""12116""
","
","
","""event"",""trial"",""time""
""fullscreenenter"",""5"",""12116""
","
","","","","","","","","","","","","","","","","","","","","","",""
"d3-instructions","32","149640","0.0-32.0","189","737","14","Male","true","true","false","false","""event"",""trial"",""time""
""fullscreenenter"",""5"",""12116""
","
","
","""event"",""trial"",""time""
""fullscreenenter"",""5"",""12116""
","
","","","","","","","","","","","","","","","","","","","","","",""
"d3-instructions","33","155975","0.0-33.0","189","737","14","Male","true","true","false","false","""event"",""trial"",""time""
""fullscreenenter"",""5"",""12116""
","
","
","""event"",""trial"",""time""
""fullscreenenter"",""5"",""12116""
","
","","","","","","","","","","","","","","","","","","","","","",""
"d3-animate-choice","34","160620","0.0-34.0","189","737","14","Male","true","true","false","false","""event"",""trial"",""time""
""fullscreenenter"",""5"",""12116""
","
","
","""event"",""trial"",""time""
""fullscreenenter"",""5"",""12116""
","
","2637.2000000001863","","49","","","3000","1","","","images/tutgreenplanet.jpg","images/tutalien1","images/tutalien2","null","images/tutalien2","images/t.png","NA","practice","null","","","",""
"d3-animate-choice","35","163483","0.0-35.0","189","737","14","Male","true","true","false","false","""event"",""trial"",""time""
""fullscreenenter"",""5"",""12116""
","
","
","""event"",""trial"",""time""
""fullscreenenter"",""5"",""12116""
","
","858.3999999994412","","49","","","3000","1","","","images/tutgreenplanet.jpg","images/tutalien1","images/tutalien2","null","images/tutalien2","images/t.png","NA","practice","null","","","",""
"d3-animate-choice","36","165914","0.0-36.0","189","737","14","Male","true","true","false","false","""event"",""trial"",""time""
""fullscreenenter"",""5"",""12116""
","
","
","""event"",""trial"",""time""
""fullscreenenter"",""5"",""12116""
","
","425.70000000018626","","49","","","3000","1","","","images/tutgreenplanet.jpg","images/tutalien1","images/tutalien2","null","images/tutalien2","images/t.png","NA","practice","null","","","",""
"d3-animate-choice","37","167948","0.0-37.0","189","737","14","Male","true","true","false","false","""event"",""trial"",""time""
""fullscreenenter"",""5"",""12116""
","
","
","""event"",""trial"",""time""
""fullscreenenter"",""5"",""12116""
","
","28.90000000037253","","49","","","3000","1","1578.0999999996275","49","images/tutgreenplanet.jpg","images/tutalien1","images/tutalien2","null","images/tutalien2","images/t.png","NA","practice","null","","","",""
"d3-animate-choice","38","170165","0.0-38.0","189","737","14","Male","true","true","false","false","""event"",""trial"",""time""
""fullscreenenter"",""5"",""12116""
","
","
","""event"",""trial"",""time""
""fullscreenenter"",""5"",""12116""
","
","212.1000000005588","","49","","","3000","1","1712.2999999998137","49","images/tutgreenplanet.jpg","images/tutalien1","images/tutalien2","null","images/tutalien2","images/t.png","NA","practice","null","","","",""
"d3-animate-choice","39","172394","0.0-39.0","189","737","14","Male","true","true","false","false","""event"",""trial"",""time""
""fullscreenenter"",""5"",""12116""
","
","
","""event"",""trial"",""time""
""fullscreenenter"",""5"",""12116""
","
","223.59999999962747","","49","","","3000","1","","","images/tutgreenplanet.jpg","images/tutalien1","images/tutalien2","null","images/tutalien2","images/nothing.png","NA","practice","null","","","",""
"d3-animate-choice","40","174603","0.0-40.0","189","737","14","Male","true","true","false","false","""event"",""trial"",""time""
""fullscreenenter"",""5"",""12116""
","
","
","""event"",""trial"",""time""
""fullscreenenter"",""5"",""12116""
","
","201.6000000005588","","49","","","3000","1","","","images/tutgreenplanet.jpg","images/tutalien1","images/tutalien2","null","images/tutalien2","images/t.png","NA","practice","null","","","",""
"d3-animate-choice","41","176829","0.0-41.0","189","737","14","Male","true","true","false","false","""event"",""trial"",""time""
""fullscreenenter"",""5"",""12116""
","
","
","""event"",""trial"",""time""
""fullscreenenter"",""5"",""12116""
","
","221.80000000074506","","49","","","3000","1","","","images/tutgreenplanet.jpg","images/tutalien1","images/tutalien2","null","images/tutalien2","images/nothing.png","NA","practice","null","","","",""
"d3-animate-choice","42","179069","0.0-42.0","189","737","14","Male","true","true","false","false","""event"",""trial"",""time""
""fullscreenenter"",""5"",""12116""
","
","
","""event"",""trial"",""time""
""fullscreenenter"",""5"",""12116""
","
","231.5","","49","","","3000","1","","","images/tutgreenplanet.jpg","images/tutalien1","images/tutalien2","null","images/tutalien2","images/t.png","NA","practice","null","","","",""
"d3-animate-choice","43","181288","0.0-43.0","189","737","14","Male","true","true","false","false","""event"",""trial"",""time""
""fullscreenenter"",""5"",""12116""
","
","
","""event"",""trial"",""time""
""fullscreenenter"",""5"",""12116""
","
","212.1000000005588","","49","","","3000","1","","","images/tutgreenplanet.jpg","images/tutalien1","images/tutalien2","null","images/tutalien2","images/t.png","NA","practice","null","","","",""
"d3-instructions","44","192965","0.0-44.0","189","737","14","Male","true","true","false","false","""event"",""trial"",""time""
""fullscreenenter"",""5"",""12116""
","
","
","""event"",""trial"",""time""
""fullscreenenter"",""5"",""12116""
","
","","","","","","","","","","","","","","","","","","","","","",""
"d3-instructions","45","196337","0.0-45.0","189","737","14","Male","true","true","false","false","""event"",""trial"",""time""
""fullscreenenter"",""5"",""12116""
","
","
","""event"",""trial"",""time""
""fullscreenenter"",""5"",""12116""
","
","","","","","","","","","","","","","","","","","","","","","",""
"d3-instructions","46","199293","0.0-46.0","189","737","14","Male","true","true","false","false","""event"",""trial"",""time""
""fullscreenenter"",""5"",""12116""
","
","
","""event"",""trial"",""time""
""fullscreenenter"",""5"",""12116""
","
","","","","","","","","","","","","","","","","","","","","","",""
"d3-instructions","47","206416","0.0-47.0","189","737","14","Male","true","true","false","false","""event"",""trial"",""time""
""fullscreenenter"",""5"",""12116""
","
","
","""event"",""trial"",""time""
""fullscreenenter"",""5"",""12116""
","
","","","","","","","","","","","","","","","","","","","","","",""
"d3-instructions","48","209157","0.0-48.0","189","737","14","Male","true","true","false","false","""event"",""trial"",""time""
""fullscreenenter"",""5"",""12116""
","
","
","""event"",""trial"",""time""
""fullscreenenter"",""5"",""12116""
","
","","","","","","","","","","","","","","","","","","","","","",""
"d3-instructions","49","213222","0.0-49.0","189","737","14","Male","true","true","false","false","""event"",""trial"",""time""
""fullscreenenter"",""5"",""12116""
","
","
","""event"",""trial"",""time""
""fullscreenenter"",""5"",""12116""
","
","","","","","","","","","","","","","","","","","","","","","",""
"d3-instructions","50","216888","0.0-50.0","189","737","14","Male","true","true","false","false","""event"",""trial"",""time""
""fullscreenenter"",""5"",""12116""
","
","
","""event"",""trial"",""time""
""fullscreenenter"",""5"",""12116""
","
","","","","","","","","","","","","","","","","","","","","","",""
"d3-instructions","51","219072","0.0-51.0","189","737","14","Male","true","true","false","false","""event"",""trial"",""time""
""fullscreenenter"",""5"",""12116""
","
","
","""event"",""trial"",""time""
""fullscreenenter"",""5"",""12116""
","
","","","","","","","","","","","","","","","","","","","","","",""
"d3-instructions","52","220865","0.0-52.0","189","737","14","Male","true","true","false","false","""event"",""trial"",""time""
""fullscreenenter"",""5"",""12116""
","
","
","""event"",""trial"",""time""
""fullscreenenter"",""5"",""12116""
","
","","","","","","","","","","","","","","","","","","","","","",""
"d3-instructions","53","233437","0.0-53.0","189","737","14","Male","true","true","false","false","""event"",""trial"",""time""
""fullscreenenter"",""5"",""12116""
","
","
","""event"",""trial"",""time""
""fullscreenenter"",""5"",""12116""
","
","","","","","","","","","","","","","","","","","","","","","",""
"d3-instructions","54","241084","0.0-54.0","189","737","14","Male","true","true","false","false","""event"",""trial"",""time""
""fullscreenenter"",""5"",""12116""
","
","
","""event"",""trial"",""time""
""fullscreenenter"",""5"",""12116""
","
","","","","","","","","","","","","","","","","","","","","","",""
"d3-instructions","55","243517","0.0-55.0","189","737","14","Male","true","true","false","false","""event"",""trial"",""time""
""fullscreenenter"",""5"",""12116""
","
","
","""event"",""trial"",""time""
""fullscreenenter"",""5"",""12116""
","
","","","","","","","","","","","","","","","","","","","","","",""
"d3-instructions","56","250443","0.0-56.0","189","737","14","Male","true","true","false","false","""event"",""trial"",""time""
""fullscreenenter"",""5"",""12116""
","
","
","""event"",""trial"",""time""
""fullscreenenter"",""5"",""12116""
","
","","","","","","","","","","","","","","","","","","","","","",""
"d3-instructions","57","254214","0.0-57.0","189","737","14","Male","true","true","false","false","""event"",""trial"",""time""
""fullscreenenter"",""5"",""12116""
","
","
","""event"",""trial"",""time""
""fullscreenenter"",""5"",""12116""
","
","","","","","","","","","","","","","","","","","","","","","",""
"d3-instructions","58","265560","0.0-58.0","189","737","14","Male","true","true","false","false","""event"",""trial"",""time""
""fullscreenenter"",""5"",""12116""
","
","
","""event"",""trial"",""time""
""fullscreenenter"",""5"",""12116""
","
","","","","","","","","","","","","","","","","","","","","","",""
"d3-instructions","59","270152","0.0-59.0","189","737","14","Male","true","true","false","false","""event"",""trial"",""time""
""fullscreenenter"",""5"",""12116""
","
","
","""event"",""trial"",""time""
""fullscreenenter"",""5"",""12116""
","
","","","","","","","","","","","","","","","","","","","","","",""
"d3-instructions","60","275988","0.0-60.0","189","737","14","Male","true","true","false","false","""event"",""trial"",""time""
""fullscreenenter"",""5"",""12116""
","
","
","""event"",""trial"",""time""
""fullscreenenter"",""5"",""12116""
","
","","","","","","","","","","","","","","","","","","","","","",""
"d3-animate-choice","61","278425","0.0-61.0-0.0","189","737","14","Male","true","true","false","false","""event"",""trial"",""time""
""fullscreenenter"",""5"",""12116""
","
","
","""event"",""trial"",""time""
""fullscreenenter"",""5"",""12116""
","
","429.29999999981374","","49","","","3000","1","","","images/earth.jpg","images/tutrocket2","images/tutrocket1","null","images/tutrocket1","","1","practice","null","1","","",""
"d3-animate-choice","62","282005","0.0-61.0-1.0","189","737","14","Male","true","true","false","false","""event"",""trial"",""time""
""fullscreenenter"",""5"",""12116""
","
","
","""event"",""trial"",""time""
""fullscreenenter"",""5"",""12116""
","
","1568.6000000005588","","49","","","3000","1","","","images/tutgreenplanet.jpg","images/tutalien2","images/tutalien1","images/tutrocket1","images/tutalien1","images/nothing.png","2","practice","true","1","common","0","2022-02-14 00:40:35.177"
"two-step-fixation","63","283011","0.0-61.0-2.0","189","737","14","Male","true","true","false","false","""event"",""trial"",""time""
""fullscreenenter"",""5"",""12116""
","
","
","""event"",""trial"",""time""
""fullscreenenter"",""5"",""12116""
","
","","images/earth.jpg","","","","","","","","","","","","","","fixation","","","","","",""
"d3-animate-choice","64","285265","0.0-61.0-0.1","189","737","14","Male","true","true","false","false","""event"",""trial"",""time""
""fullscreenenter"",""5"",""12116""
","
","
","""event"",""trial"",""time""
""fullscreenenter"",""5"",""12116""
","
","232.8999999994412","","49","","","3000","1","","","images/earth.jpg","images/tutrocket2","images/tutrocket1","null","images/tutrocket1","","1","practice","null","1","","",""
"d3-animate-choice","65","288298","0.0-61.0-1.1","189","737","14","Male","true","true","false","false","""event"",""trial"",""time""
""fullscreenenter"",""5"",""12116""
","
","
","""event"",""trial"",""time""
""fullscreenenter"",""5"",""12116""
","
","1019.8000000007451","","49","","","3000","1","","","images/tutyellowplanet.jpg","images/tutalien4","images/tutalien3","images/tutrocket1","images/tutalien3","images/t.png","2","practice","false","1","rare","1","2022-02-14 00:40:41.470"
"two-step-fixation","66","289304","0.0-61.0-2.1","189","737","14","Male","true","true","false","false","""event"",""trial"",""time""
""fullscreenenter"",""5"",""12116""
","
","
","""event"",""trial"",""time""
""fullscreenenter"",""5"",""12116""
","
","","images/earth.jpg","","","","","","","","","","","","","","fixation","","","","","",""
"d3-animate-choice","67","291480","0.0-61.0-0.2","189","737","14","Male","true","true","false","false","""event"",""trial"",""time""
""fullscreenenter"",""5"",""12116""
","
","
","""event"",""trial"",""time""
""fullscreenenter"",""5"",""12116""
","
","166.90000000037253","","49","","","3000","1","","","images/earth.jpg","images/tutrocket2","images/tutrocket1","null","images/tutrocket1","","1","practice","null","1","","",""
"d3-animate-choice","68","294713","0.0-61.0-1.2","189","737","14","Male","true","true","false","false","""event"",""trial"",""time""
""fullscreenenter"",""5"",""12116""
","
","
","""event"",""trial"",""time""
""fullscreenenter"",""5"",""12116""
","
","1223.800000000745","","49","","","3000","1","","","images/tutyellowplanet.jpg","images/tutalien4","images/tutalien3","images/tutrocket1","images/tutalien3","images/t.png","2","practice","false","1","rare","1","2022-02-14 00:40:47.885"
"two-step-fixation","69","295719","0.0-61.0-2.2","189","737","14","Male","true","true","false","false","""event"",""trial"",""time""
""fullscreenenter"",""5"",""12116""
","
","
","""event"",""trial"",""time""
""fullscreenenter"",""5"",""12116""
","
","","images/earth.jpg","","","","","","","","","","","","","","fixation","","","","","",""
"d3-animate-choice","70","297770","0.0-61.0-0.3","189","737","14","Male","true","true","false","false","""event"",""trial"",""time""
""fullscreenenter"",""5"",""12116""
","
","
","""event"",""trial"",""time""
""fullscreenenter"",""5"",""12116""
","
","43.09999999962747","","48","","","3000","1","","","images/earth.jpg","images/tutrocket2","images/tutrocket1","null","images/tutrocket2","","1","practice","null","2","","",""
"d3-animate-choice","71","300599","0.0-61.0-1.3","189","737","14","Male","true","true","false","false","""event"",""trial"",""time""
""fullscreenenter"",""5"",""12116""
","
","
","""event"",""trial"",""time""
""fullscreenenter"",""5"",""12116""
","
","819.7000000001863","","48","","","3000","1","","","images/tutyellowplanet.jpg","images/tutalien4","images/tutalien3","images/tutrocket2","images/tutalien4","images/t.png","2","practice","true","2","common","1","2022-02-14 00:40:53.772"
"two-step-fixation","72","301605","0.0-61.0-2.3","189","737","14","Male","true","true","false","false","""event"",""trial"",""time""
""fullscreenenter"",""5"",""12116""
","
","
","""event"",""trial"",""time""
""fullscreenenter"",""5"",""12116""
","
","","images/earth.jpg","","","","","","","","","","","","","","fixation","","","","","",""
"d3-animate-choice","73","303938","0.0-61.0-0.4","189","737","14","Male","true","true","false","false","""event"",""trial"",""time""
""fullscreenenter"",""5"",""12116""
","
","
","""event"",""trial"",""time""
""fullscreenenter"",""5"",""12116""
","
","325.09999999962747","","48","","","3000","1","","","images/earth.jpg","images/tutrocket2","images/tutrocket1","null","images/tutrocket2","","1","practice","null","2","","",""
"d3-animate-choice","74","306501","0.0-61.0-1.4","189","737","14","Male","true","true","false","false","""event"",""trial"",""time""
""fullscreenenter"",""5"",""12116""
","
","
","""event"",""trial"",""time""
""fullscreenenter"",""5"",""12116""
","
","553.7999999998137","","48","","","3000","1","","","images/tutgreenplanet.jpg","images/tutalien2","images/tutalien1","images/tutrocket2","images/tutalien2","images/nothing.png","2","practice","false","2","rare","0","2022-02-14 00:40:59.673"
"two-step-fixation","75","307507","0.0-61.0-2.4","189","737","14","Male","true","true","false","false","""event"",""trial"",""time""
""fullscreenenter"",""5"",""12116""
","
","
","""event"",""trial"",""time""
""fullscreenenter"",""5"",""12116""
","
","","images/earth.jpg","","","","","","","","","","","","","","fixation","","","","","",""
"d3-animate-choice","76","310057","0.0-61.0-0.5","189","737","14","Male","true","true","false","false","""event"",""trial"",""time""
""fullscreenenter"",""5"",""12116""
","
","
","""event"",""trial"",""time""
""fullscreenenter"",""5"",""12116""
","
","543.7999999998137","","49","","","3000","1","","","images/earth.jpg","images/tutrocket2","images/tutrocket1","null","images/tutrocket1","","1","practice","null","1","","",""
"d3-animate-choice","77","312709","0.0-61.0-1.5","189","737","14","Male","true","true","false","false","""event"",""trial"",""time""
""fullscreenenter"",""5"",""12116""
","
","
","""event"",""trial"",""time""
""fullscreenenter"",""5"",""12116""
","
","643.9000000003725","","48","","","3000","1","","","images/tutyellowplanet.jpg","images/tutalien4","images/tutalien3","images/tutrocket1","images/tutalien4","images/t.png","2","practice","false","2","rare","1","2022-02-14 00:41:05.881"
"two-step-fixation","78","313713","0.0-61.0-2.5","189","737","14","Male","true","true","false","false","""event"",""trial"",""time""
""fullscreenenter"",""5"",""12116""
","
","
","""event"",""trial"",""time""
""fullscreenenter"",""5"",""12116""
","
","","images/earth.jpg","","","","","","","","","","","","","","fixation","","","","","",""
"d3-animate-choice","79","316278","0.0-61.0-0.6","189","737","14","Male","true","true","false","false","""event"",""trial"",""time""
""fullscreenenter"",""5"",""12116""
","
","
","""event"",""trial"",""time""
""fullscreenenter"",""5"",""12116""
","
","557.7000000001863","","49","","","3000","1","","","images/earth.jpg","images/tutrocket2","images/tutrocket1","null","images/tutrocket1","","1","practice","null","1","","",""
"d3-animate-choice","80","318946","0.0-61.0-1.6","189","737","14","Male","true","true","false","false","""event"",""trial"",""time""
""fullscreenenter"",""5"",""12116""
","
","
","""event"",""trial"",""time""
""fullscreenenter"",""5"",""12116""
","
","659.7999999998137","","49","","","3000","1","","","images/tutgreenplanet.jpg","images/tutalien2","images/tutalien1","images/tutrocket1","images/tutalien1","images/nothing.png","2","practice","true","1","common","0","2022-02-14 00:41:12.118"
"two-step-fixation","81","319951","0.0-61.0-2.6","189","737","14","Male","true","true","false","false","""event"",""trial"",""time""
""fullscreenenter"",""5"",""12116""
","
","
","""event"",""trial"",""time""
""fullscreenenter"",""5"",""12116""
","
","","images/earth.jpg","","","","","","","","","","","","","","fixation","","","","","",""
"d3-animate-choice","82","322068","0.0-61.0-0.7","189","737","14","Male","true","true","false","false","""event"",""trial"",""time""
""fullscreenenter"",""5"",""12116""
","
","
","""event"",""trial"",""time""
""fullscreenenter"",""5"",""12116""
","
","111.29999999981374","","48","","","3000","1","","","images/earth.jpg","images/tutrocket2","images/tutrocket1","null","images/tutrocket2","","1","practice","null","2","","",""
"d3-animate-choice","83","324714","0.0-61.0-1.7","189","737","14","Male","true","true","false","false","""event"",""trial"",""time""
""fullscreenenter"",""5"",""12116""
","
","
","""event"",""trial"",""time""
""fullscreenenter"",""5"",""12116""
","
","637","","49","","","3000","1","","","images/tutyellowplanet.jpg","images/tutalien4","images/tutalien3","images/tutrocket2","images/tutalien3","images/t.png","2","practice","true","1","common","1","2022-02-14 00:41:17.886"
"two-step-fixation","84","325719","0.0-61.0-2.7","189","737","14","Male","true","true","false","false","""event"",""trial"",""time""
""fullscreenenter"",""5"",""12116""
","
","
","""event"",""trial"",""time""
""fullscreenenter"",""5"",""12116""
","
","","images/earth.jpg","","","","","","","","","","","","","","fixation","","","","","",""
"d3-animate-choice","85","328296","0.0-61.0-0.8","189","737","14","Male","true","true","false","false","""event"",""trial"",""time""
""fullscreenenter"",""5"",""12116""
","
","
","""event"",""trial"",""time""
""fullscreenenter"",""5"",""12116""
","
","569.7999999998137","","48","","","3000","1","","","images/earth.jpg","images/tutrocket2","images/tutrocket1","null","images/tutrocket2","","1","practice","null","2","","",""
"d3-animate-choice","86","330711","0.0-61.0-1.8","189","737","14","Male","true","true","false","false","""event"",""trial"",""time""
""fullscreenenter"",""5"",""12116""
","
","
","""event"",""trial"",""time""
""fullscreenenter"",""5"",""12116""
","
","405.5","","49","","","3000","1","","","images/tutyellowplanet.jpg","images/tutalien4","images/tutalien3","images/tutrocket2","images/tutalien3","images/t.png","2","practice","true","1","common","1","2022-02-14 00:41:23.883"
"two-step-fixation","87","331716","0.0-61.0-2.8","189","737","14","Male","true","true","false","false","""event"",""trial"",""time""
""fullscreenenter"",""5"",""12116""
","
","
","""event"",""trial"",""time""
""fullscreenenter"",""5"",""12116""
","
","","images/earth.jpg","","","","","","","","","","","","","","fixation","","","","","",""
"d3-animate-choice","88","334080","0.0-61.0-0.9","189","737","14","Male","true","true","false","false","""event"",""trial"",""time""
""fullscreenenter"",""5"",""12116""
","
","
","""event"",""trial"",""time""
""fullscreenenter"",""5"",""12116""
","
","357.79999999981374","","48","","","3000","1","","","images/earth.jpg","images/tutrocket2","images/tutrocket1","null","images/tutrocket2","","1","practice","null","2","","",""
"d3-animate-choice","89","336812","0.0-61.0-1.9","189","737","14","Male","true","true","false","false","""event"",""trial"",""time""
""fullscreenenter"",""5"",""12116""
","
","
","""event"",""trial"",""time""
""fullscreenenter"",""5"",""12116""
","
","722.3999999994412","","48","","","3000","1","","","images/tutyellowplanet.jpg","images/tutalien4","images/tutalien3","images/tutrocket2","images/tutalien4","images/t.png","2","practice","true","2","common","1","2022-02-14 00:41:29.984"
"two-step-fixation","90","337820","0.0-61.0-2.9","189","737","14","Male","true","true","false","false","""event"",""trial"",""time""
""fullscreenenter"",""5"",""12116""
","
","
","""event"",""trial"",""time""
""fullscreenenter"",""5"",""12116""
","
","","images/earth.jpg","","","","","","","","","","","","","","fixation","","","","","",""
"d3-animate-choice","91","339877","0.0-61.0-0.10","189","737","14","Male","true","true","false","false","""event"",""trial"",""time""
""fullscreenenter"",""5"",""12116""
","
","
","""event"",""trial"",""time""
""fullscreenenter"",""5"",""12116""
","
","48.09999999962747","","49","","","3000","1","","","images/earth.jpg","images/tutrocket2","images/tutrocket1","null","images/tutrocket1","","1","practice","null","1","","",""
"d3-animate-choice","92","342577","0.0-61.0-1.10","189","737","14","Male","true","true","false","false","""event"",""trial"",""time""
""fullscreenenter"",""5"",""12116""
","
","
","""event"",""trial"",""time""
""fullscreenenter"",""5"",""12116""
","
","687.9000000003725","","48","","","3000","1","","","images/tutyellowplanet.jpg","images/tutalien4","images/tutalien3","images/tutrocket1","images/tutalien4","images/t.png","2","practice","false","2","rare","1","2022-02-14 00:41:35.749"
"two-step-fixation","93","343585","0.0-61.0-2.10","189","737","14","Male","true","true","false","false","""event"",""trial"",""time""
""fullscreenenter"",""5"",""12116""
","
","
","""event"",""trial"",""time""
""fullscreenenter"",""5"",""12116""
","
","","images/earth.jpg","","","","","","","","","","","","","","fixation","","","","","",""
"d3-animate-choice","94","345872","0.0-61.0-0.11","189","737","14","Male","true","true","false","false","""event"",""trial"",""time""
""fullscreenenter"",""5"",""12116""
","
","
","""event"",""trial"",""time""
""fullscreenenter"",""5"",""12116""
","
","279.1000000005588","","49","","","3000","1","","","images/earth.jpg","images/tutrocket2","images/tutrocket1","null","images/tutrocket1","","1","practice","null","1","","",""
"d3-animate-choice","95","348440","0.0-61.0-1.11","189","737","14","Male","true","true","false","false","""event"",""trial"",""time""
""fullscreenenter"",""5"",""12116""
","
","
","""event"",""trial"",""time""
""fullscreenenter"",""5"",""12116""
","
","559.7999999998137","","49","","","3000","1","","","images/tutyellowplanet.jpg","images/tutalien4","images/tutalien3","images/tutrocket1","images/tutalien3","images/t.png","2","practice","false","1","rare","1","2022-02-14 00:41:41.612"
"two-step-fixation","96","349445","0.0-61.0-2.11","189","737","14","Male","true","true","false","false","""event"",""trial"",""time""
""fullscreenenter"",""5"",""12116""
","
","
","""event"",""trial"",""time""
""fullscreenenter"",""5"",""12116""
","
","","images/earth.jpg","","","","","","","","","","","","","","fixation","","","","","",""
"d3-animate-choice","97","351729","0.0-61.0-0.12","189","737","14","Male","true","true","false","false","""event"",""trial"",""time""
""fullscreenenter"",""5"",""12116""
","
","
","""event"",""trial"",""time""
""fullscreenenter"",""5"",""12116""
","
","273.20000000018626","","48","","","3000","1","","","images/earth.jpg","images/tutrocket2","images/tutrocket1","null","images/tutrocket2","","1","practice","null","2","","",""
"d3-animate-choice","98","354390","0.0-61.0-1.12","189","737","14","Male","true","true","false","false","""event"",""trial"",""time""
""fullscreenenter"",""5"",""12116""
","
","
","""event"",""trial"",""time""
""fullscreenenter"",""5"",""12116""
","
","653.8000000007451","","48","","","3000","1","","","images/tutyellowplanet.jpg","images/tutalien4","images/tutalien3","images/tutrocket2","images/tutalien4","images/t.png","2","practice","true","2","common","1","2022-02-14 00:41:47.562"
"two-step-fixation","99","355396","0.0-61.0-2.12","189","737","14","Male","true","true","false","false","""event"",""trial"",""time""
""fullscreenenter"",""5"",""12116""
","
","
","""event"",""trial"",""time""
""fullscreenenter"",""5"",""12116""
","
","","images/earth.jpg","","","","","","","","","","","","","","fixation","","","","","",""
"d3-animate-choice","100","357735","0.0-61.0-0.13","189","737","14","Male","true","true","false","false","""event"",""trial"",""time""
""fullscreenenter"",""5"",""12116""
","
","
","""event"",""trial"",""time""
""fullscreenenter"",""5"",""12116""
","
","331.5","","49","","","3000","1","","","images/earth.jpg","images/tutrocket2","images/tutrocket1","null","images/tutrocket1","","1","practice","null","1","","",""
"d3-animate-choice","101","360201","0.0-61.0-1.13","189","737","14","Male","true","true","false","false","""event"",""trial"",""time""
""fullscreenenter"",""5"",""12116""
","
","
","""event"",""trial"",""time""
""fullscreenenter"",""5"",""12116""
","
","457.79999999981374","","49","","","3000","1","","","images/tutgreenplanet.jpg","images/tutalien2","images/tutalien1","images/tutrocket1","images/tutalien1","images/nothing.png","2","practice","true","1","common","0","2022-02-14 00:41:53.373"
"two-step-fixation","102","361206","0.0-61.0-2.13","189","737","14","Male","true","true","false","false","""event"",""trial"",""time""
""fullscreenenter"",""5"",""12116""
","
","
","""event"",""trial"",""time""
""fullscreenenter"",""5"",""12116""
","
","","images/earth.jpg","","","","","","","","","","","","","","fixation","","","","","",""
"d3-animate-choice","103","363229","0.0-61.0-0.14","189","737","14","Male","true","true","false","false","""event"",""trial"",""time""
""fullscreenenter"",""5"",""12116""
","
","
","""event"",""trial"",""time""
""fullscreenenter"",""5"",""12116""
","
","15.900000000372529","","49","","","3000","1","","","images/earth.jpg","images/tutrocket2","images/tutrocket1","null","images/tutrocket1","","1","practice","null","1","","",""
"d3-animate-choice","104","365701","0.0-61.0-1.14","189","737","14","Male","true","true","false","false","""event"",""trial"",""time""
""fullscreenenter"",""5"",""12116""
","
","
","""event"",""trial"",""time""
""fullscreenenter"",""5"",""12116""
","
","463.40000000037253","","49","","","3000","1","","","images/tutgreenplanet.jpg","images/tutalien2","images/tutalien1","images/tutrocket1","images/tutalien1","images/nothing.png","2","practice","true","1","common","0","2022-02-14 00:41:58.874"
"two-step-fixation","105","366708","0.0-61.0-2.14","189","737","14","Male","true","true","false","false","""event"",""trial"",""time""
""fullscreenenter"",""5"",""12116""
","
","
","""event"",""trial"",""time""
""fullscreenenter"",""5"",""12116""
","
","","images/earth.jpg","","","","","","","","","","","","","","fixation","","","","","",""
"d3-animate-choice","106","369181","0.0-61.0-0.15","189","737","14","Male","true","true","false","false","""event"",""trial"",""time""
""fullscreenenter"",""5"",""12116""
","
","
","""event"",""trial"",""time""
""fullscreenenter"",""5"",""12116""
","
","465.90000000037253","","48","","","3000","1","","","images/earth.jpg","images/tutrocket2","images/tutrocket1","null","images/tutrocket2","","1","practice","null","2","","",""
"d3-animate-choice","107","371775","0.0-61.0-1.15","189","737","14","Male","true","true","false","false","""event"",""trial"",""time""
""fullscreenenter"",""5"",""12116""
","
","
","""event"",""trial"",""time""
""fullscreenenter"",""5"",""12116""
","
","586.5999999996275","","48","","","3000","1","","","images/tutyellowplanet.jpg","images/tutalien4","images/tutalien3","images/tutrocket2","images/tutalien4","images/nothing.png","2","practice","true","2","common","0","2022-02-14 00:42:04.947"
"two-step-fixation","108","372782","0.0-61.0-2.15","189","737","14","Male","true","true","false","false","""event"",""trial"",""time""
""fullscreenenter"",""5"",""12116""
","
","
","""event"",""trial"",""time""
""fullscreenenter"",""5"",""12116""
","
","","images/earth.jpg","","","","","","","","","","","","","","fixation","","","","","",""
"d3-animate-choice","109","374802","0.0-61.0-0.16","189","737","14","Male","true","true","false","false","""event"",""trial"",""time""
""fullscreenenter"",""5"",""12116""
","
","
","""event"",""trial"",""time""
""fullscreenenter"",""5"",""12116""
","
","10.5","","49","","","3000","1","","","images/earth.jpg","images/tutrocket2","images/tutrocket1","null","images/tutrocket1","","1","practice","null","1","","",""
"d3-animate-choice","110","377368","0.0-61.0-1.16","189","737","14","Male","true","true","false","false","""event"",""trial"",""time""
""fullscreenenter"",""5"",""12116""
","
","
","""event"",""trial"",""time""
""fullscreenenter"",""5"",""12116""
","
","558.5","","49","","","3000","1","","","images/tutgreenplanet.jpg","images/tutalien2","images/tutalien1","images/tutrocket1","images/tutalien1","images/t.png","2","practice","true","1","common","1","2022-02-14 00:42:10.540"
"two-step-fixation","111","378375","0.0-61.0-2.16","189","737","14","Male","true","true","false","false","""event"",""trial"",""time""
""fullscreenenter"",""5"",""12116""
","
","
","""event"",""trial"",""time""
""fullscreenenter"",""5"",""12116""
","
","","images/earth.jpg","","","","","","","","","","","","","","fixation","","","","","",""
"d3-animate-choice","112","380457","0.0-61.0-0.17","189","737","14","Male","true","true","false","false","""event"",""trial"",""time""
""fullscreenenter"",""5"",""12116""
","
","
","""event"",""trial"",""time""
""fullscreenenter"",""5"",""12116""
","
","74.8999999994412","","49","","","3000","1","","","images/earth.jpg","images/tutrocket2","images/tutrocket1","null","images/tutrocket1","","1","practice","null","1","","",""
"d3-animate-choice","113","383039","0.0-61.0-1.17","189","737","14","Male","true","true","false","false","""event"",""trial"",""time""
""fullscreenenter"",""5"",""12116""
","
","
","""event"",""trial"",""time""
""fullscreenenter"",""5"",""12116""
","
","572.5999999996275","","49","","","3000","1","","","images/tutgreenplanet.jpg","images/tutalien2","images/tutalien1","images/tutrocket1","images/tutalien1","images/nothing.png","2","practice","true","1","common","0","2022-02-14 00:42:16.212"
"two-step-fixation","114","384047","0.0-61.0-2.17","189","737","14","Male","true","true","false","false","""event"",""trial"",""time""
""fullscreenenter"",""5"",""12116""
","
","
","""event"",""trial"",""time""
""fullscreenenter"",""5"",""12116""
","
","","images/earth.jpg","","","","","","","","","","","","","","fixation","","","","","",""
"d3-animate-choice","115","386055","0.0-61.0-0.18","189","737","14","Male","true","true","false","false","""event"",""trial"",""time""
""fullscreenenter"",""5"",""12116""
","
","
","""event"",""trial"",""time""
""fullscreenenter"",""5"",""12116""
","
","0.5","","48","","","3000","1","","","images/earth.jpg","images/tutrocket2","images/tutrocket1","null","images/tutrocket2","","1","practice","null","2","","",""
"d3-animate-choice","116","388905","0.0-61.0-1.18","189","737","14","Male","true","true","false","false","""event"",""trial"",""time""
""fullscreenenter"",""5"",""12116""
","
","
","""event"",""trial"",""time""
""fullscreenenter"",""5"",""12116""
","
","841.7999999998137","","49","","","3000","1","","","images/tutyellowplanet.jpg","images/tutalien4","images/tutalien3","images/tutrocket2","images/tutalien3","images/nothing.png","2","practice","true","1","common","0","2022-02-14 00:42:22.078"
"two-step-fixation","117","389910","0.0-61.0-2.18","189","737","14","Male","true","true","false","false","""event"",""trial"",""time""
""fullscreenenter"",""5"",""12116""
","
","
","""event"",""trial"",""time""
""fullscreenenter"",""5"",""12116""
","
","","images/earth.jpg","","","","","","","","","","","","","","fixation","","","","","",""
"d3-animate-choice","118","392220","0.0-61.0-0.19","189","737","14","Male","true","true","false","false","""event"",""trial"",""time""
""fullscreenenter"",""5"",""12116""
","
","
","""event"",""trial"",""time""
""fullscreenenter"",""5"",""12116""
","
","302.79999999981374","","48","","","3000","1","","","images/earth.jpg","images/tutrocket2","images/tutrocket1","null","images/tutrocket2","","1","practice","null","2","","",""
"d3-animate-choice","119","394770","0.0-61.0-1.19","189","737","14","Male","true","true","false","false","""event"",""trial"",""time""
""fullscreenenter"",""5"",""12116""
","
","
","""event"",""trial"",""time""
""fullscreenenter"",""5"",""12116""
","
","541.2000000001863","","49","","","3000","1","","","images/tutyellowplanet.jpg","images/tutalien4","images/tutalien3","images/tutrocket2","images/tutalien3","images/nothing.png","2","practice","true","1","common","0","2022-02-14 00:42:27.942"
"two-step-fixation","120","395775","0.0-61.0-2.19","189","737","14","Male","true","true","false","false","""event"",""trial"",""time""
""fullscreenenter"",""5"",""12116""
","
","
","""event"",""trial"",""time""
""fullscreenenter"",""5"",""12116""
","
","","images/earth.jpg","","","","","","","","","","","","","","fixation","","","","","",""
"d3-instructions","121","401726","0.0-62.0","189","737","14","Male","true","true","false","false","""event"",""trial"",""time""
""fullscreenenter"",""5"",""12116""
","
","
","""event"",""trial"",""time""
""fullscreenenter"",""5"",""12116""
","
","","","","","","","","","","","","","","","","","","","","","",""
"audio-keyboard-response","122","405099","0.0-63.0","189","737","14","Male","true","true","false","false","""event"",""trial"",""time""
""fullscreenenter"",""5"",""12116""
","
","
","""event"",""trial"",""time""
""fullscreenenter"",""5"",""12116""
","
","3360","audio/instructions/treasure_feedback.wav","32","","","","","","","","","","","","","","","","","","",""
"d3-instructions","123","415385","0.0-64.0","189","737","14","Male","true","true","false","false","""event"",""trial"",""time""
""fullscreenenter"",""5"",""12116""
","
","
","""event"",""trial"",""time""
""fullscreenenter"",""5"",""12116""
","
","","","","","","","","","","","","","","","","","","","","","",""
"d3-instructions","124","421722","0.0-65.0","189","737","14","Male","true","true","false","false","""event"",""trial"",""time""
""fullscreenenter"",""5"",""12116""
","
","
","""event"",""trial"",""time""
""fullscreenenter"",""5"",""12116""
","
","","","","","","","","","","","","","","","","","","","","","",""
"d3-instructions","125","432845","0.0-66.0","189","737","14","Male","true","true","false","false","""event"",""trial"",""time""
""fullscreenenter"",""5"",""12116""
","
","
","""event"",""trial"",""time""
""fullscreenenter"",""5"",""12116""
","
","","","","","","","","","","","","","","","","","","","","","",""
"d3-instructions","126","445033","0.0-67.0","189","737","14","Male","true","true","false","false","""event"",""trial"",""time""
""fullscreenenter"",""5"",""12116""
","
","
","""event"",""trial"",""time""
""fullscreenenter"",""5"",""12116""
","
","","","","","","","","","","","","","","","","","","","","","",""
"d3-instructions","127","448136","0.0-68.0","189","737","14","Male","true","true","false","false","""event"",""trial"",""time""
""fullscreenenter"",""5"",""12116""
","
","
","""event"",""trial"",""time""
""fullscreenenter"",""5"",""12116""
","
","","","","","","","","","","","","","","","","","","","","","",""
"instructions-quiz","128","453072","0.0-69.0","189","737","14","Male","true","true","false","false","""event"",""trial"",""time""
""fullscreenenter"",""5"",""12116""
","
","
","""event"",""trial"",""time""
""fullscreenenter"",""5"",""12116""
","
","4932.4000000003725","audio/quiz/Q1_Prompt.wav","","1","","","","","","","","","","","","","","","","","",""
"audio-keyboard-response","129","454277","0.0-70.0","189","737","14","Male","true","true","false","false","""event"",""trial"",""time""
""fullscreenenter"",""5"",""12116""
","
","
","""event"",""trial"",""time""
""fullscreenenter"",""5"",""12116""
","
","1205","audio/quiz/Q1_Correct.wav","32","","","","","","","","","","","","","","","","","","",""
"instructions-quiz","130","458018","0.0-71.0","189","737","14","Male","true","true","false","false","""event"",""trial"",""time""
""fullscreenenter"",""5"",""12116""
","
","
","""event"",""trial"",""time""
""fullscreenenter"",""5"",""12116""
","
","3737.699999999255","audio/quiz/Q2_Prompt.wav","","0","","","","","","","","","","","","","","","","","",""
"audio-keyboard-response","131","458591","0.0-72.0","189","737","14","Male","true","true","false","false","""event"",""trial"",""time""
""fullscreenenter"",""5"",""12116""
","
","
","""event"",""trial"",""time""
""fullscreenenter"",""5"",""12116""
","
","565","audio/quiz/Q2_Correct.wav","32","","","","","","","","","","","","","","","","","","",""
"instructions-quiz","132","462136","0.0-73.0","189","737","14","Male","true","true","false","false","""event"",""trial"",""time""
""fullscreenenter"",""5"",""12116""
","
","
","""event"",""trial"",""time""
""fullscreenenter"",""5"",""12116""
","
","3540.2999999998137","audio/quiz/Q3_Prompt.wav","","1","","","","","","","","","","","","","","","","","",""
"audio-keyboard-response","133","462906","0.0-74.0","189","737","14","Male","true","true","false","false","""event"",""trial"",""time""
""fullscreenenter"",""5"",""12116""
","
","
","""event"",""trial"",""time""
""fullscreenenter"",""5"",""12116""
","
","768","audio/quiz/Q3_Correct.wav","32","","","","","","","","","","","","","","","","","","",""
"d3-instructions","134","467064","0.0-75.0","189","737","14","Male","true","true","false","false","""event"",""trial"",""time""
""fullscreenenter"",""5"",""12116""
","
","
","""event"",""trial"",""time""
""fullscreenenter"",""5"",""12116""
","
","","","","","","","","","","","","","","","","","","","","","",""
"d3-animate-choice","135","470667","0.0-76.0-0.0","189","737","14","Male","true","true","false","false","""event"",""trial"",""time""
""fullscreenenter"",""5"",""12116""
","
","
","""event"",""trial"",""time""
""fullscreenenter"",""5"",""12116""
","
","1596.300000000745","","49","","","3000","1","","","images/earth.jpg","images/rocket2","images/rocket1","null","images/rocket1","","1","real","null","1","","",""
"d3-animate-choice","136","473780","0.0-76.0-1.0","189","737","14","Male","true","true","false","false","""event"",""trial"",""time""
""fullscreenenter"",""5"",""12116""
","
","
","""event"",""trial"",""time""
""fullscreenenter"",""5"",""12116""
","
","1106.5999999996275","","49","","","3000","1","","","images/redplanet1.jpg","images/alien2","images/alien1","images/rocket1","images/alien1","images/nothing.png","2","real","true","1","common","0","2022-02-14 00:43:46.953"
"two-step-fixation","137","474786","0.0-76.0-2.0","189","737","14","Male","true","true","false","false","""event"",""trial"",""time""
""fullscreenenter"",""5"",""12116""
","
","
","""event"",""trial"",""time""
""fullscreenenter"",""5"",""12116""
","
","","images/earth.jpg","","","","","","","","","","","","","","fixation","","","","","",""
"d3-animate-choice","138","477033","0.0-76.0-0.1","189","737","14","Male","true","true","false","false","""event"",""trial"",""time""
""fullscreenenter"",""5"",""12116""
","
","
","""event"",""trial"",""time""
""fullscreenenter"",""5"",""12116""
","
","240.79999999981374","","49","","","3000","1","","","images/earth.jpg","images/rocket2","images/rocket1","null","images/rocket1","","1","real","null","1","","",""
"d3-animate-choice","139","479567","0.0-76.0-1.1","189","737","14","Male","true","true","false","false","""event"",""trial"",""time""
""fullscreenenter"",""5"",""12116""
","
","
","""event"",""trial"",""time""
""fullscreenenter"",""5"",""12116""
","
","527","","49","","","3000","1","","","images/redplanet1.jpg","images/alien2","images/alien1","images/rocket1","images/alien1","images/nothing.png","2","real","true","1","common","0","2022-02-14 00:43:52.739"
"two-step-fixation","140","480572","0.0-76.0-2.1","189","737","14","Male","true","true","false","false","""event"",""trial"",""time""
""fullscreenenter"",""5"",""12116""
","
","
","""event"",""trial"",""time""
""fullscreenenter"",""5"",""12116""
","
","","images/earth.jpg","","","","","","","","","","","","","","fixation","","","","","",""
"d3-animate-choice","141","482807","0.0-76.0-0.2","189","737","14","Male","true","true","false","false","""event"",""trial"",""time""
""fullscreenenter"",""5"",""12116""
","
","
","""event"",""trial"",""time""
""fullscreenenter"",""5"",""12116""
","
","229.3999999994412","","49","","","3000","1","","","images/earth.jpg","images/rocket2","images/rocket1","null","images/rocket1","","1","real","null","1","","",""
"d3-animate-choice","142","485617","0.0-76.0-1.2","189","737","14","Male","true","true","false","false","""event"",""trial"",""time""
""fullscreenenter"",""5"",""12116""
","
","
","""event"",""trial"",""time""
""fullscreenenter"",""5"",""12116""
","
","801.1000000005588","","48","","","3000","1","","","images/purpleplanet.jpg","images/alien4","images/alien3","images/rocket1","images/alien4","images/t.png","2","real","false","2","rare","1","2022-02-14 00:43:58.789"
"two-step-fixation","143","486621","0.0-76.0-2.2","189","737","14","Male","true","true","false","false","""event"",""trial"",""time""
""fullscreenenter"",""5"",""12116""
","
","
","""event"",""trial"",""time""
""fullscreenenter"",""5"",""12116""
","
","","images/earth.jpg","","","","","","","","","","","","","","fixation","","","","","",""
"d3-animate-choice","144","488986","0.0-76.0-0.3","189","737","14","Male","true","true","false","false","""event"",""trial"",""time""
""fullscreenenter"",""5"",""12116""
","
","
","""event"",""trial"",""time""
""fullscreenenter"",""5"",""12116""
","
","358.90000000037253","","49","","","3000","1","","","images/earth.jpg","images/rocket2","images/rocket1","null","images/rocket1","","1","real","null","1","","",""
"d3-animate-choice","145","491363","0.0-76.0-1.3","189","737","14","Male","true","true","false","false","""event"",""trial"",""time""
""fullscreenenter"",""5"",""12116""
","
","
","""event"",""trial"",""time""
""fullscreenenter"",""5"",""12116""
","
","368.29999999981374","","48","","","3000","1","","","images/redplanet1.jpg","images/alien2","images/alien1","images/rocket1","images/alien2","images/t.png","2","real","true","2","common","1","2022-02-14 00:44:04.535"
"two-step-fixation","146","492367","0.0-76.0-2.3","189","737","14","Male","true","true","false","false","""event"",""trial"",""time""
""fullscreenenter"",""5"",""12116""
","
","
","""event"",""trial"",""time""
""fullscreenenter"",""5"",""12116""
","
","","images/earth.jpg","","","","","","","","","","","","","","fixation","","","","","",""
"d3-animate-choice","147","494691","0.0-76.0-0.4","189","737","14","Male","true","true","false","false","""event"",""trial"",""time""
""fullscreenenter"",""5"",""12116""
","
","
","""event"",""trial"",""time""
""fullscreenenter"",""5"",""12116""
","
","315.40000000037253","","49","","","3000","1","","","images/earth.jpg","images/rocket2","images/rocket1","null","images/rocket1","","1","real","null","1","","",""
"d3-animate-choice","148","497176","0.0-76.0-1.4","189","737","14","Male","true","true","false","false","""event"",""trial"",""time""
""fullscreenenter"",""5"",""12116""
","
","
","""event"",""trial"",""time""
""fullscreenenter"",""5"",""12116""
","
","476.79999999981374","","48","","","3000","1","","","images/purpleplanet.jpg","images/alien4","images/alien3","images/rocket1","images/alien4","images/nothing.png","2","real","false","2","rare","0","2022-02-14 00:44:10.348"
"two-step-fixation","149","498180","0.0-76.0-2.4","189","737","14","Male","true","true","false","false","""event"",""trial"",""time""
""fullscreenenter"",""5"",""12116""
","
","
","""event"",""trial"",""time""
""fullscreenenter"",""5"",""12116""
","
","","images/earth.jpg","","","","","","","","","","","","","","fixation","","","","","",""
"d3-animate-choice","150","500659","0.0-76.0-0.5","189","737","14","Male","true","true","false","false","""event"",""trial"",""time""
""fullscreenenter"",""5"",""12116""
","
","
","""event"",""trial"",""time""
""fullscreenenter"",""5"",""12116""
","
","472.90000000037253","","49","","","3000","1","","","images/earth.jpg","images/rocket2","images/rocket1","null","images/rocket1","","1","real","null","1","","",""
"d3-animate-choice","151","503042","0.0-76.0-1.5","189","737","14","Male","true","true","false","false","""event"",""trial"",""time""
""fullscreenenter"",""5"",""12116""
","
","
","""event"",""trial"",""time""
""fullscreenenter"",""5"",""12116""
","
","375","","48","","","3000","1","","","images/redplanet1.jpg","images/alien2","images/alien1","images/rocket1","images/alien2","images/t.png","2","real","true","2","common","1","2022-02-14 00:44:16.214"
"two-step-fixation","152","504047","0.0-76.0-2.5","189","737","14","Male","true","true","false","false","""event"",""trial"",""time""
""fullscreenenter"",""5"",""12116""
","
","
","""event"",""trial"",""time""
""fullscreenenter"",""5"",""12116""
","
","","images/earth.jpg","","","","","","","","","","","","","","fixation","","","","","",""
"d3-animate-choice","153","506282","0.0-76.0-0.6","189","737","14","Male","true","true","false","false","""event"",""trial"",""time""
""fullscreenenter"",""5"",""12116""
","
","
","""event"",""trial"",""time""
""fullscreenenter"",""5"",""12116""
","
","229.09999999962747","","49","","","3000","1","","","images/earth.jpg","images/rocket2","images/rocket1","null","images/rocket1","","1","real","null","1","","",""
"d3-animate-choice","154","508559","0.0-76.0-1.6","189","737","14","Male","true","true","false","false","""event"",""trial"",""time""
""fullscreenenter"",""5"",""12116""
","
","
","""event"",""trial"",""time""
""fullscreenenter"",""5"",""12116""
","
","269.29999999981374","","48","","","3000","1","","","images/purpleplanet.jpg","images/alien4","images/alien3","images/rocket1","images/alien4","images/t.png","2","real","false","2","rare","1","2022-02-14 00:44:21.732"
"two-step-fixation","155","509566","0.0-76.0-2.6","189","737","14","Male","true","true","false","false","""event"",""trial"",""time""
""fullscreenenter"",""5"",""12116""
","
","
","""event"",""trial"",""time""
""fullscreenenter"",""5"",""12116""
","
","","images/earth.jpg","","","","","","","","","","","","","","fixation","","","","","",""
"d3-animate-choice","156","511626","0.0-76.0-0.7","189","737","14","Male","true","true","false","false","""event"",""trial"",""time""
""fullscreenenter"",""5"",""12116""
","
","
","""event"",""trial"",""time""
""fullscreenenter"",""5"",""12116""
","
","52.700000000186265","","49","","","3000","1","","","images/earth.jpg","images/rocket2","images/rocket1","null","images/rocket1","","1","real","null","1","","",""
"d3-animate-choice","157","514753","0.0-76.0-1.7","189","737","14","Male","true","true","false","false","""event"",""trial"",""time""
""fullscreenenter"",""5"",""12116""
","
","
","""event"",""trial"",""time""
""fullscreenenter"",""5"",""12116""
","
","1118.8999999994412","","49","","","3000","1","","","images/purpleplanet.jpg","images/alien4","images/alien3","images/rocket1","images/alien3","images/t.png","2","real","false","1","rare","1","2022-02-14 00:44:27.925"
"two-step-fixation","158","515758","0.0-76.0-2.7","189","737","14","Male","true","true","false","false","""event"",""trial"",""time""
""fullscreenenter"",""5"",""12116""
","
","
","""event"",""trial"",""time""
""fullscreenenter"",""5"",""12116""
","
","","images/earth.jpg","","","","","","","","","","","","","","fixation","","","","","",""
"d3-animate-choice","159","517830","0.0-76.0-0.8","189","737","14","Male","true","true","false","false","""event"",""trial"",""time""
""fullscreenenter"",""5"",""12116""
","
","
","""event"",""trial"",""time""
""fullscreenenter"",""5"",""12116""
","
","65","","49","","","3000","1","","","images/earth.jpg","images/rocket2","images/rocket1","null","images/rocket1","","1","real","null","1","","",""
"d3-animate-choice","160","520176","0.0-76.0-1.8","189","737","14","Male","true","true","false","false","""event"",""trial"",""time""
""fullscreenenter"",""5"",""12116""
","
","
","""event"",""trial"",""time""
""fullscreenenter"",""5"",""12116""
","
","339.59999999962747","","48","","","3000","1","","","images/redplanet1.jpg","images/alien2","images/alien1","images/rocket1","images/alien2","images/t.png","2","real","true","2","common","1","2022-02-14 00:44:33.348"
"two-step-fixation","161","521181","0.0-76.0-2.8","189","737","14","Male","true","true","false","false","""event"",""trial"",""time""
""fullscreenenter"",""5"",""12116""
","
","
","""event"",""trial"",""time""
""fullscreenenter"",""5"",""12116""
","
","","images/earth.jpg","","","","","","","","","","","","","","fixation","","","","","",""
"d3-animate-choice","162","523489","0.0-76.0-0.9","189","737","14","Male","true","true","false","false","""event"",""trial"",""time""
""fullscreenenter"",""5"",""12116""
","
","
","""event"",""trial"",""time""
""fullscreenenter"",""5"",""12116""
","
","300.59999999962747","","49","","","3000","1","","","images/earth.jpg","images/rocket2","images/rocket1","null","images/rocket1","","1","real","null","1","","",""
"d3-animate-choice","163","526817","0.0-76.0-1.9","189","737","14","Male","true","true","false","false","""event"",""trial"",""time""
""fullscreenenter"",""5"",""12116""
","
","
","""event"",""trial"",""time""
""fullscreenenter"",""5"",""12116""
","
","1319.2000000001863","","49","","","3000","1","","","images/purpleplanet.jpg","images/alien4","images/alien3","images/rocket1","images/alien3","images/t.png","2","real","false","1","rare","1","2022-02-14 00:44:39.989"
"two-step-fixation","164","527822","0.0-76.0-2.9","189","737","14","Male","true","true","false","false","""event"",""trial"",""time""
""fullscreenenter"",""5"",""12116""
","
","
","""event"",""trial"",""time""
""fullscreenenter"",""5"",""12116""
","
","","images/earth.jpg","","","","","","","","","","","","","","fixation","","","","","",""
"d3-animate-choice","165","530098","0.0-76.0-0.10","189","737","14","Male","true","true","false","false","""event"",""trial"",""time""
""fullscreenenter"",""5"",""12116""
","
","
","""event"",""trial"",""time""
""fullscreenenter"",""5"",""12116""
","
","269.6000000005588","","49","","","3000","1","","","images/earth.jpg","images/rocket2","images/rocket1","null","images/rocket1","","1","real","null","1","","",""
"d3-animate-choice","166","532427","0.0-76.0-1.10","189","737","14","Male","true","true","false","false","""event"",""trial"",""time""
""fullscreenenter"",""5"",""12116""
","
","
","""event"",""trial"",""time""
""fullscreenenter"",""5"",""12116""
","
","321.30000000074506","","48","","","3000","1","","","images/purpleplanet.jpg","images/alien4","images/alien3","images/rocket1","images/alien4","images/t.png","2","real","false","2","rare","1","2022-02-14 00:44:45.600"
"two-step-fixation","167","533432","0.0-76.0-2.10","189","737","14","Male","true","true","false","false","""event"",""trial"",""time""
""fullscreenenter"",""5"",""12116""
","
","
","""event"",""trial"",""time""
""fullscreenenter"",""5"",""12116""
","
","","images/earth.jpg","","","","","","","","","","","","","","fixation","","","","","",""
"d3-animate-choice","168","536007","0.0-76.0-0.11","189","737","14","Male","true","true","false","false","""event"",""trial"",""time""
""fullscreenenter"",""5"",""12116""
","
","
","""event"",""trial"",""time""
""fullscreenenter"",""5"",""12116""
","
","568.4000000003725","","49","","","3000","1","","","images/earth.jpg","images/rocket2","images/rocket1","null","images/rocket1","","1","real","null","1","","",""
"d3-animate-choice","169","539690","0.0-76.0-1.11","189","737","14","Male","true","true","false","false","""event"",""trial"",""time""
""fullscreenenter"",""5"",""12116""
","
","
","""event"",""trial"",""time""
""fullscreenenter"",""5"",""12116""
","
","1673.800000000745","","48","","","3000","1","","","images/redplanet1.jpg","images/alien2","images/alien1","images/rocket1","images/alien2","images/t.png","2","real","true","2","common","1","2022-02-14 00:44:52.862"
"two-step-fixation","170","540695","0.0-76.0-2.11","189","737","14","Male","true","true","false","false","""event"",""trial"",""time""
""fullscreenenter"",""5"",""12116""
","
","
","""event"",""trial"",""time""
""fullscreenenter"",""5"",""12116""
","
","","images/earth.jpg","","","","","","","","","","","","","","fixation","","","","","",""
"d3-animate-choice","171","542999","0.0-76.0-0.12","189","737","14","Male","true","true","false","false","""event"",""trial"",""time""
""fullscreenenter"",""5"",""12116""
","
","
","""event"",""trial"",""time""
""fullscreenenter"",""5"",""12116""
","
","297.59999999962747","","49","","","3000","1","","","images/earth.jpg","images/rocket2","images/rocket1","null","images/rocket1","","1","real","null","1","","",""
"d3-animate-choice","172","545539","0.0-76.0-1.12","189","737","14","Male","true","true","false","false","""event"",""trial"",""time""
""fullscreenenter"",""5"",""12116""
","
","
","""event"",""trial"",""time""
""fullscreenenter"",""5"",""12116""
","
","532.9000000003725","","49","","","3000","1","","","images/purpleplanet.jpg","images/alien4","images/alien3","images/rocket1","images/alien3","images/nothing.png","2","real","false","1","rare","0","2022-02-14 00:44:58.711"
"two-step-fixation","173","546544","0.0-76.0-2.12","189","737","14","Male","true","true","false","false","""event"",""trial"",""time""
""fullscreenenter"",""5"",""12116""
","
","
","""event"",""trial"",""time""
""fullscreenenter"",""5"",""12116""
","
","","images/earth.jpg","","","","","","","","","","","","","","fixation","","","","","",""
"d3-animate-choice","174","548777","0.0-76.0-0.13","189","737","14","Male","true","true","false","false","""event"",""trial"",""time""
""fullscreenenter"",""5"",""12116""
","
","
","""event"",""trial"",""time""
""fullscreenenter"",""5"",""12116""
","
","226.3999999994412","","49","","","3000","1","","","images/earth.jpg","images/rocket2","images/rocket1","null","images/rocket1","","1","real","null","1","","",""
"d3-animate-choice","175","551796","0.0-76.0-1.13","189","737","14","Male","true","true","false","false","""event"",""trial"",""time""
""fullscreenenter"",""5"",""12116""
","
","
","""event"",""trial"",""time""
""fullscreenenter"",""5"",""12116""
","
","1011.0999999996275","","48","","","3000","1","","","images/purpleplanet.jpg","images/alien4","images/alien3","images/rocket1","images/alien4","images/t.png","2","real","false","2","rare","1","2022-02-14 00:45:04.968"
"two-step-fixation","176","552801","0.0-76.0-2.13","189","737","14","Male","true","true","false","false","""event"",""trial"",""time""
""fullscreenenter"",""5"",""12116""
","
","
","""event"",""trial"",""time""
""fullscreenenter"",""5"",""12116""
","
","","images/earth.jpg","","","","","","","","","","","","","","fixation","","","","","",""
"d3-animate-choice","177","554865","0.0-76.0-0.14","189","737","14","Male","true","true","false","false","""event"",""trial"",""time""
""fullscreenenter"",""5"",""12116""
","
","
","""event"",""trial"",""time""
""fullscreenenter"",""5"",""12116""
","
","58.09999999962747","","49","","","3000","1","","","images/earth.jpg","images/rocket2","images/rocket1","null","images/rocket1","","1","real","null","1","","",""
"d3-animate-choice","178","557348","0.0-76.0-1.14","189","737","14","Male","true","true","false","false","""event"",""trial"",""time""
""fullscreenenter"",""5"",""12116""
","
","
","""event"",""trial"",""time""
""fullscreenenter"",""5"",""12116""
","
","475.90000000037253","","49","","","3000","1","","","images/redplanet1.jpg","images/alien2","images/alien1","images/rocket1","images/alien1","images/nothing.png","2","real","true","1","common","0","2022-02-14 00:45:10.520"
"two-step-fixation","179","558354","0.0-76.0-2.14","189","737","14","Male","true","true","false","false","""event"",""trial"",""time""
""fullscreenenter"",""5"",""12116""
","
","
","""event"",""trial"",""time""
""fullscreenenter"",""5"",""12116""
","
","","images/earth.jpg","","","","","","","","","","","","","","fixation","","","","","",""
"d3-animate-choice","180","560382","0.0-76.0-0.15","189","737","14","Male","true","true","false","false","""event"",""trial"",""time""
""fullscreenenter"",""5"",""12116""
","
","
","""event"",""trial"",""time""
""fullscreenenter"",""5"",""12116""
","
","21.199999999254942","","49","","","3000","1","","","images/earth.jpg","images/rocket2","images/rocket1","null","images/rocket1","","1","real","null","1","","",""
"d3-animate-choice","181","562827","0.0-76.0-1.15","189","737","14","Male","true","true","false","false","""event"",""trial"",""time""
""fullscreenenter"",""5"",""12116""
","
","
","""event"",""trial"",""time""
""fullscreenenter"",""5"",""12116""
","
","436.40000000037253","","48","","","3000","1","","","images/purpleplanet.jpg","images/alien4","images/alien3","images/rocket1","images/alien4","images/t.png","2","real","false","2","rare","1","2022-02-14 00:45:15.999"
"two-step-fixation","182","563834","0.0-76.0-2.15","189","737","14","Male","true","true","false","false","""event"",""trial"",""time""
""fullscreenenter"",""5"",""12116""
","
","
","""event"",""trial"",""time""
""fullscreenenter"",""5"",""12116""
","
","","images/earth.jpg","","","","","","","","","","","","","","fixation","","","","","",""
"d3-animate-choice","183","565845","0.0-76.0-0.16","189","737","14","Male","true","true","false","false","""event"",""trial"",""time""
""fullscreenenter"",""5"",""12116""
","
","
","""event"",""trial"",""time""
""fullscreenenter"",""5"",""12116""
","
","0.2999999998137355","","49","","","3000","1","","","images/earth.jpg","images/rocket2","images/rocket1","null","images/rocket1","","1","real","null","1","","",""
"d3-animate-choice","184","568196","0.0-76.0-1.16","189","737","14","Male","true","true","false","false","""event"",""trial"",""time""
""fullscreenenter"",""5"",""12116""
","
","
","""event"",""trial"",""time""
""fullscreenenter"",""5"",""12116""
","
","344.59999999962747","","48","","","3000","1","","","images/purpleplanet.jpg","images/alien4","images/alien3","images/rocket1","images/alien4","images/t.png","2","real","false","2","rare","1","2022-02-14 00:45:21.368"
"two-step-fixation","185","569201","0.0-76.0-2.16","189","737","14","Male","true","true","false","false","""event"",""trial"",""time""
""fullscreenenter"",""5"",""12116""
","
","
","""event"",""trial"",""time""
""fullscreenenter"",""5"",""12116""
","
","","images/earth.jpg","","","","","","","","","","","","","","fixation","","","","","",""
"d3-animate-choice","186","571498","0.0-76.0-0.17","189","737","14","Male","true","true","false","false","""event"",""trial"",""time""
""fullscreenenter"",""5"",""12116""
","
","
","""event"",""trial"",""time""
""fullscreenenter"",""5"",""12116""
","
","289.40000000037253","","49","","","3000","1","","","images/earth.jpg","images/rocket2","images/rocket1","null","images/rocket1","","1","real","null","1","","",""
"d3-animate-choice","187","573905","0.0-76.0-1.17","189","737","14","Male","true","true","false","false","""event"",""trial"",""time""
""fullscreenenter"",""5"",""12116""
","
","
","""event"",""trial"",""time""
""fullscreenenter"",""5"",""12116""
","
","400.69999999925494","","48","","","3000","1","","","images/redplanet1.jpg","images/alien2","images/alien1","images/rocket1","images/alien2","images/t.png","2","real","true","2","common","1","2022-02-14 00:45:27.077"
"two-step-fixation","188","574910","0.0-76.0-2.17","189","737","14","Male","true","true","false","false","""event"",""trial"",""time""
""fullscreenenter"",""5"",""12116""
","
","
","""event"",""trial"",""time""
""fullscreenenter"",""5"",""12116""
","
","","images/earth.jpg","","","","","","","","","","","","","","fixation","","","","","",""
"d3-animate-choice","189","576936","0.0-76.0-0.18","189","737","14","Male","true","true","false","false","""event"",""trial"",""time""
""fullscreenenter"",""5"",""12116""
","
","
","""event"",""trial"",""time""
""fullscreenenter"",""5"",""12116""
","
","19.59999999962747","","49","","","3000","1","","","images/earth.jpg","images/rocket2","images/rocket1","null","images/rocket1","","1","real","null","1","","",""
"d3-animate-choice","190","579412","0.0-76.0-1.18","189","737","14","Male","true","true","false","false","""event"",""trial"",""time""
""fullscreenenter"",""5"",""12116""
","
","
","""event"",""trial"",""time""
""fullscreenenter"",""5"",""12116""
","
","467.59999999962747","","48","","","3000","1","","","images/purpleplanet.jpg","images/alien4","images/alien3","images/rocket1","images/alien4","images/nothing.png","2","real","false","2","rare","0","2022-02-14 00:45:32.584"
"two-step-fixation","191","580418","0.0-76.0-2.18","189","737","14","Male","true","true","false","false","""event"",""trial"",""time""
""fullscreenenter"",""5"",""12116""
","
","
","""event"",""trial"",""time""
""fullscreenenter"",""5"",""12116""
","
","","images/earth.jpg","","","","","","","","","","","","","","fixation","","","","","",""
"d3-animate-choice","192","582769","0.0-76.0-0.19","189","737","14","Male","true","true","false","false","""event"",""trial"",""time""
""fullscreenenter"",""5"",""12116""
","
","
","""event"",""trial"",""time""
""fullscreenenter"",""5"",""12116""
","
","344.59999999962747","","49","","","3000","1","","","images/earth.jpg","images/rocket2","images/rocket1","null","images/rocket1","","1","real","null","1","","",""
"d3-animate-choice","193","585226","0.0-76.0-1.19","189","737","14","Male","true","true","false","false","""event"",""trial"",""time""
""fullscreenenter"",""5"",""12116""
","
","
","""event"",""trial"",""time""
""fullscreenenter"",""5"",""12116""
","
","448.5","","48","","","3000","1","","","images/redplanet1.jpg","images/alien2","images/alien1","images/rocket1","images/alien2","images/nothing.png","2","real","true","2","common","0","2022-02-14 00:45:38.398"
"two-step-fixation","194","586231","0.0-76.0-2.19","189","737","14","Male","true","true","false","false","""event"",""trial"",""time""
""fullscreenenter"",""5"",""12116""
","
","
","""event"",""trial"",""time""
""fullscreenenter"",""5"",""12116""
","
","","images/earth.jpg","","","","","","","","","","","","","","fixation","","","","","",""
"d3-animate-choice","195","588551","0.0-76.0-0.20","189","737","14","Male","true","true","false","false","""event"",""trial"",""time""
""fullscreenenter"",""5"",""12116""
","
","
","""event"",""trial"",""time""
""fullscreenenter"",""5"",""12116""
","
","312.80000000074506","","49","","","3000","1","","","images/earth.jpg","images/rocket2","images/rocket1","null","images/rocket1","","1","real","null","1","","",""
"d3-animate-choice","196","590817","0.0-76.0-1.20","189","737","14","Male","true","true","false","false","""event"",""trial"",""time""
""fullscreenenter"",""5"",""12116""
","
","
","""event"",""trial"",""time""
""fullscreenenter"",""5"",""12116""
","
","257.20000000018626","","49","","","3000","1","","","images/purpleplanet.jpg","images/alien4","images/alien3","images/rocket1","images/alien3","images/nothing.png","2","real","false","1","rare","0","2022-02-14 00:45:43.989"
"two-step-fixation","197","591822","0.0-76.0-2.20","189","737","14","Male","true","true","false","false","""event"",""trial"",""time""
""fullscreenenter"",""5"",""12116""
","
","
","""event"",""trial"",""time""
""fullscreenenter"",""5"",""12116""
","
","","images/earth.jpg","","","","","","","","","","","","","","fixation","","","","","",""
"d3-animate-choice","198","594448","0.0-76.0-0.21","189","737","14","Male","true","true","false","false","""event"",""trial"",""time""
""fullscreenenter"",""5"",""12116""
","
","
","""event"",""trial"",""time""
""fullscreenenter"",""5"",""12116""
","
","616.7999999998137","","49","","","3000","1","","","images/earth.jpg","images/rocket2","images/rocket1","null","images/rocket1","","1","real","null","1","","",""
"d3-animate-choice","199","597221","0.0-76.0-1.21","189","737","14","Male","true","true","false","false","""event"",""trial"",""time""
""fullscreenenter"",""5"",""12116""
","
","
","""event"",""trial"",""time""
""fullscreenenter"",""5"",""12116""
","
","764.7999999998137","","49","","","3000","1","","","images/redplanet1.jpg","images/alien2","images/alien1","images/rocket1","images/alien1","images/t.png","2","real","true","1","common","1","2022-02-14 00:45:50.393"
"two-step-fixation","200","598226","0.0-76.0-2.21","189","737","14","Male","true","true","false","false","""event"",""trial"",""time""
""fullscreenenter"",""5"",""12116""
","
","
","""event"",""trial"",""time""
""fullscreenenter"",""5"",""12116""
","
","","images/earth.jpg","","","","","","","","","","","","","","fixation","","","","","",""
"d3-animate-choice","201","600877","0.0-76.0-0.22","189","737","14","Male","true","true","false","false","""event"",""trial"",""time""
""fullscreenenter"",""5"",""12116""
","
","
","""event"",""trial"",""time""
""fullscreenenter"",""5"",""12116""
","
","645.7999999998137","","49","","","3000","1","","","images/earth.jpg","images/rocket2","images/rocket1","null","images/rocket1","","1","real","null","1","","",""
"d3-animate-choice","202","603233","0.0-76.0-1.22","189","737","14","Male","true","true","false","false","""event"",""trial"",""time""
""fullscreenenter"",""5"",""12116""
","
","
","""event"",""trial"",""time""
""fullscreenenter"",""5"",""12116""
","
","347.5","","49","","","3000","1","","","images/redplanet1.jpg","images/alien2","images/alien1","images/rocket1","images/alien1","images/nothing.png","2","real","true","1","common","0","2022-02-14 00:45:56.405"
"two-step-fixation","203","604238","0.0-76.0-2.22","189","737","14","Male","true","true","false","false","""event"",""trial"",""time""
""fullscreenenter"",""5"",""12116""
","
","
","""event"",""trial"",""time""
""fullscreenenter"",""5"",""12116""
","
","","images/earth.jpg","","","","","","","","","","","","","","fixation","","","","","",""
"d3-animate-choice","204","606637","0.0-76.0-0.23","189","737","14","Male","true","true","false","false","""event"",""trial"",""time""
""fullscreenenter"",""5"",""12116""
","
","
","""event"",""trial"",""time""
""fullscreenenter"",""5"",""12116""
","
","389.79999999981374","","49","","","3000","1","","","images/earth.jpg","images/rocket2","images/rocket1","null","images/rocket1","","1","real","null","1","","",""
"d3-animate-choice","205","608930","0.0-76.0-1.23","189","737","14","Male","true","true","false","false","""event"",""trial"",""time""
""fullscreenenter"",""5"",""12116""
","
","
","""event"",""trial"",""time""
""fullscreenenter"",""5"",""12116""
","
","284.8999999994412","","48","","","3000","1","","","images/redplanet1.jpg","images/alien2","images/alien1","images/rocket1","images/alien2","images/nothing.png","2","real","true","2","common","0","2022-02-14 00:46:02.102"
"two-step-fixation","206","609935","0.0-76.0-2.23","189","737","14","Male","true","true","false","false","""event"",""trial"",""time""
""fullscreenenter"",""5"",""12116""
","
","
","""event"",""trial"",""time""
""fullscreenenter"",""5"",""12116""
","
","","images/earth.jpg","","","","","","","","","","","","","","fixation","","","","","",""
"d3-animate-choice","207","612325","0.0-76.0-0.24","189","737","14","Male","true","true","false","false","""event"",""trial"",""time""
""fullscreenenter"",""5"",""12116""
","
","
","""event"",""trial"",""time""
""fullscreenenter"",""5"",""12116""
","
","382.6000000005588","","48","","","3000","1","","","images/earth.jpg","images/rocket2","images/rocket1","null","images/rocket2","","1","real","null","2","","",""
"d3-animate-choice","208","615457","0.0-76.0-1.24","189","737","14","Male","true","true","false","false","""event"",""trial"",""time""
""fullscreenenter"",""5"",""12116""
","
","
","""event"",""trial"",""time""
""fullscreenenter"",""5"",""12116""
","
","1122.8999999994412","","49","","","3000","1","","","images/purpleplanet.jpg","images/alien4","images/alien3","images/rocket2","images/alien3","images/nothing.png","2","real","true","1","common","0","2022-02-14 00:46:08.629"
"two-step-fixation","209","616463","0.0-76.0-2.24","189","737","14","Male","true","true","false","false","""event"",""trial"",""time""
""fullscreenenter"",""5"",""12116""
","
","
","""event"",""trial"",""time""
""fullscreenenter"",""5"",""12116""
","
","","images/earth.jpg","","","","","","","","","","","","","","fixation","","","","","",""
"d3-animate-choice","210","618785","0.0-76.0-0.25","189","737","14","Male","true","true","false","false","""event"",""trial"",""time""
""fullscreenenter"",""5"",""12116""
","
","
","""event"",""trial"",""time""
""fullscreenenter"",""5"",""12116""
","
","314.3999999994412","","49","","","3000","1","","","images/earth.jpg","images/rocket2","images/rocket1","null","images/rocket1","","1","real","null","1","","",""
"d3-animate-choice","211","621230","0.0-76.0-1.25","189","737","14","Male","true","true","false","false","""event"",""trial"",""time""
""fullscreenenter"",""5"",""12116""
","
","
","""event"",""trial"",""time""
""fullscreenenter"",""5"",""12116""
","
","436.6000000005588","","49","","","3000","1","","","images/purpleplanet.jpg","images/alien4","images/alien3","images/rocket1","images/alien3","images/t.png","2","real","false","1","rare","1","2022-02-14 00:46:14.402"
"two-step-fixation","212","622235","0.0-76.0-2.25","189","737","14","Male","true","true","false","false","""event"",""trial"",""time""
""fullscreenenter"",""5"",""12116""
","
","
","""event"",""trial"",""time""
""fullscreenenter"",""5"",""12116""
","
","","images/earth.jpg","","","","","","","","","","","","","","fixation","","","","","",""
"d3-animate-choice","213","624762","0.0-76.0-0.26","189","737","14","Male","true","true","false","false","""event"",""trial"",""time""
""fullscreenenter"",""5"",""12116""
","
","
","""event"",""trial"",""time""
""fullscreenenter"",""5"",""12116""
","
","520","","49","","","3000","1","","","images/earth.jpg","images/rocket2","images/rocket1","null","images/rocket1","","1","real","null","1","","",""
"d3-animate-choice","214","627220","0.0-76.0-1.26","189","737","14","Male","true","true","false","false","""event"",""trial"",""time""
""fullscreenenter"",""5"",""12116""
","
","
","""event"",""trial"",""time""
""fullscreenenter"",""5"",""12116""
","
","450.29999999981374","","49","","","3000","1","","","images/purpleplanet.jpg","images/alien4","images/alien3","images/rocket1","images/alien3","images/nothing.png","2","real","false","1","rare","0","2022-02-14 00:46:20.392"
"two-step-fixation","215","628225","0.0-76.0-2.26","189","737","14","Male","true","true","false","false","""event"",""trial"",""time""
""fullscreenenter"",""5"",""12116""
","
","
","""event"",""trial"",""time""
""fullscreenenter"",""5"",""12116""
","
","","images/earth.jpg","","","","","","","","","","","","","","fixation","","","","","",""
"d3-animate-choice","216","630645","0.0-76.0-0.27","189","737","14","Male","true","true","false","false","""event"",""trial"",""time""
""fullscreenenter"",""5"",""12116""
","
","
","""event"",""trial"",""time""
""fullscreenenter"",""5"",""12116""
","
","414.5","","48","","","3000","1","","","images/earth.jpg","images/rocket2","images/rocket1","null","images/rocket2","","1","real","null","2","","",""
"d3-animate-choice","217","633758","0.0-76.0-1.27","189","737","14","Male","true","true","false","false","""event"",""trial"",""time""
""fullscreenenter"",""5"",""12116""
","
","
","""event"",""trial"",""time""
""fullscreenenter"",""5"",""12116""
","
","1106","","49","","","3000","1","","","images/redplanet1.jpg","images/alien2","images/alien1","images/rocket2","images/alien1","images/nothing.png","2","real","false","1","rare","0","2022-02-14 00:46:26.930"
"two-step-fixation","218","634762","0.0-76.0-2.27","189","737","14","Male","true","true","false","false","""event"",""trial"",""time""
""fullscreenenter"",""5"",""12116""
","
","
","""event"",""trial"",""time""
""fullscreenenter"",""5"",""12116""
","
","","images/earth.jpg","","","","","","","","","","","","","","fixation","","","","","",""
"d3-animate-choice","219","637330","0.0-76.0-0.28","189","737","14","Male","true","true","false","false","""event"",""trial"",""time""
""fullscreenenter"",""5"",""12116""
","
","
","""event"",""trial"",""time""
""fullscreenenter"",""5"",""12116""
","
","561","","49","","","3000","1","1599.7000000001863","48","images/earth.jpg","images/rocket2","images/rocket1","null","images/rocket1","","1","real","null","1","","",""
"d3-animate-choice","220","639739","0.0-76.0-1.28","189","737","14","Male","true","true","false","false","""event"",""trial"",""time""
""fullscreenenter"",""5"",""12116""
","
","
","""event"",""trial"",""time""
""fullscreenenter"",""5"",""12116""
","
","401.30000000074506","","48","","","3000","1","","","images/redplanet1.jpg","images/alien2","images/alien1","images/rocket1","images/alien2","images/t.png","2","real","true","2","common","1","2022-02-14 00:46:32.911"
"two-step-fixation","221","640744","0.0-76.0-2.28","189","737","14","Male","true","true","false","false","""event"",""trial"",""time""
""fullscreenenter"",""5"",""12116""
","
","
","""event"",""trial"",""time""
""fullscreenenter"",""5"",""12116""
","
","","images/earth.jpg","","","","","","","","","","","","","","fixation","","","","","",""
"d3-animate-choice","222","642773","0.0-76.0-0.29","189","737","14","Male","true","true","false","false","""event"",""trial"",""time""
""fullscreenenter"",""5"",""12116""
","
","
","""event"",""trial"",""time""
""fullscreenenter"",""5"",""12116""
","
","23","","49","","","3000","1","","","images/earth.jpg","images/rocket2","images/rocket1","null","images/rocket1","","1","real","null","1","","",""
"d3-animate-choice","223","645691","0.0-76.0-1.29","189","737","14","Male","true","true","false","false","""event"",""trial"",""time""
""fullscreenenter"",""5"",""12116""
","
","
","""event"",""trial"",""time""
""fullscreenenter"",""5"",""12116""
","
","909.2999999998137","","48","","","3000","1","","","images/redplanet1.jpg","images/alien2","images/alien1","images/rocket1","images/alien2","images/t.png","2","real","true","2","common","1","2022-02-14 00:46:38.863"
"two-step-fixation","224","646696","0.0-76.0-2.29","189","737","14","Male","true","true","false","false","""event"",""trial"",""time""
""fullscreenenter"",""5"",""12116""
","
","
","""event"",""trial"",""time""
""fullscreenenter"",""5"",""12116""
","
","","images/earth.jpg","","","","","","","","","","","","","","fixation","","","","","",""
"d3-animate-choice","225","648782","0.0-76.0-0.30","189","737","14","Male","true","true","false","false","""event"",""trial"",""time""
""fullscreenenter"",""5"",""12116""
","
","
","""event"",""trial"",""time""
""fullscreenenter"",""5"",""12116""
","
","79.40000000037253","","49","","","3000","1","","","images/earth.jpg","images/rocket2","images/rocket1","null","images/rocket1","","1","real","null","1","","",""
"d3-animate-choice","226","651132","0.0-76.0-1.30","189","737","14","Male","true","true","false","false","""event"",""trial"",""time""
""fullscreenenter"",""5"",""12116""
","
","
","""event"",""trial"",""time""
""fullscreenenter"",""5"",""12116""
","
","341.59999999962747","","48","","","3000","1","","","images/redplanet1.jpg","images/alien2","images/alien1","images/rocket1","images/alien2","images/nothing.png","2","real","true","2","common","0","2022-02-14 00:46:44.304"
"two-step-fixation","227","652137","0.0-76.0-2.30","189","737","14","Male","true","true","false","false","""event"",""trial"",""time""
""fullscreenenter"",""5"",""12116""
","
","
","""event"",""trial"",""time""
""fullscreenenter"",""5"",""12116""
","
","","images/earth.jpg","","","","","","","","","","","","","","fixation","","","","","",""
"d3-animate-choice","228","654824","0.0-76.0-0.31","189","737","14","Male","true","true","false","false","""event"",""trial"",""time""
""fullscreenenter"",""5"",""12116""
","
","
","""event"",""trial"",""time""
""fullscreenenter"",""5"",""12116""
","
","680.7000000001863","","49","","","3000","1","","","images/earth.jpg","images/rocket2","images/rocket1","null","images/rocket1","","1","real","null","1","","",""
"d3-animate-choice","229","657439","0.0-76.0-1.31","189","737","14","Male","true","true","false","false","""event"",""trial"",""time""
""fullscreenenter"",""5"",""12116""
","
","
","""event"",""trial"",""time""
""fullscreenenter"",""5"",""12116""
","
","607","","49","","","3000","1","","","images/purpleplanet.jpg","images/alien4","images/alien3","images/rocket1","images/alien3","images/nothing.png","2","real","false","1","rare","0","2022-02-14 00:46:50.612"
"two-step-fixation","230","658444","0.0-76.0-2.31","189","737","14","Male","true","true","false","false","""event"",""trial"",""time""
""fullscreenenter"",""5"",""12116""
","
","
","""event"",""trial"",""time""
""fullscreenenter"",""5"",""12116""
","
","","images/earth.jpg","","","","","","","","","","","","","","fixation","","","","","",""
"d3-animate-choice","231","660838","0.0-76.0-0.32","189","737","14","Male","true","true","false","false","""event"",""trial"",""time""
""fullscreenenter"",""5"",""12116""
","
","
","""event"",""trial"",""time""
""fullscreenenter"",""5"",""12116""
","
","383.70000000018626","","48","","","3000","1","","","images/earth.jpg","images/rocket2","images/rocket1","null","images/rocket2","","1","real","null","2","","",""
"d3-animate-choice","232","663214","0.0-76.0-1.32","189","737","14","Male","true","true","false","false","""event"",""trial"",""time""
""fullscreenenter"",""5"",""12116""
","
","
","""event"",""trial"",""time""
""fullscreenenter"",""5"",""12116""
","
","368.29999999981374","","48","","","3000","1","","","images/redplanet1.jpg","images/alien2","images/alien1","images/rocket2","images/alien2","images/t.png","2","real","false","2","rare","1","2022-02-14 00:46:56.386"
"two-step-fixation","233","664220","0.0-76.0-2.32","189","737","14","Male","true","true","false","false","""event"",""trial"",""time""
""fullscreenenter"",""5"",""12116""
","
","
","""event"",""trial"",""time""
""fullscreenenter"",""5"",""12116""
","
","","images/earth.jpg","","","","","","","","","","","","","","fixation","","","","","",""
"d3-animate-choice","234","666400","0.0-76.0-0.33","189","737","14","Male","true","true","false","false","""event"",""trial"",""time""
""fullscreenenter"",""5"",""12116""
","
","
","""event"",""trial"",""time""
""fullscreenenter"",""5"",""12116""
","
","173.19999999925494","","48","","","3000","1","","","images/earth.jpg","images/rocket2","images/rocket1","null","images/rocket2","","1","real","null","2","","",""
"d3-animate-choice","235","668761","0.0-76.0-1.33","189","737","14","Male","true","true","false","false","""event"",""trial"",""time""
""fullscreenenter"",""5"",""12116""
","
","
","""event"",""trial"",""time""
""fullscreenenter"",""5"",""12116""
","
","353","","48","","","3000","1","","","images/redplanet1.jpg","images/alien2","images/alien1","images/rocket2","images/alien2","images/nothing.png","2","real","false","2","rare","0","2022-02-14 00:47:01.934"
"two-step-fixation","236","669766","0.0-76.0-2.33","189","737","14","Male","true","true","false","false","""event"",""trial"",""time""
""fullscreenenter"",""5"",""12116""
","
","
","""event"",""trial"",""time""
""fullscreenenter"",""5"",""12116""
","
","","images/earth.jpg","","","","","","","","","","","","","","fixation","","","","","",""
"d3-animate-choice","237","672948","0.0-76.0-0.34","189","737","14","Male","true","true","false","false","""event"",""trial"",""time""
""fullscreenenter"",""5"",""12116""
","
","
","""event"",""trial"",""time""
""fullscreenenter"",""5"",""12116""
","
","1175.2999999998137","","49","","","3000","1","","","images/earth.jpg","images/rocket2","images/rocket1","null","images/rocket1","","1","real","null","1","","",""
"d3-animate-choice","238","675236","0.0-76.0-1.34","189","737","14","Male","true","true","false","false","""event"",""trial"",""time""
""fullscreenenter"",""5"",""12116""
","
","
","""event"",""trial"",""time""
""fullscreenenter"",""5"",""12116""
","
","279.29999999981374","","48","","","3000","1","","","images/redplanet1.jpg","images/alien2","images/alien1","images/rocket1","images/alien2","images/nothing.png","2","real","true","2","common","0","2022-02-14 00:47:08.409"
"two-step-fixation","239","676250","0.0-76.0-2.34","189","737","14","Male","true","true","false","false","""event"",""trial"",""time""
""fullscreenenter"",""5"",""12116""
","
","
","""event"",""trial"",""time""
""fullscreenenter"",""5"",""12116""
","
","","images/earth.jpg","","","","","","","","","","","","","","fixation","","","","","",""
"d3-animate-choice","240","678552","0.0-76.0-0.35","189","737","14","Male","true","true","false","false","""event"",""trial"",""time""
""fullscreenenter"",""5"",""12116""
","
","
","""event"",""trial"",""time""
""fullscreenenter"",""5"",""12116""
","
","296","","49","","","3000","1","","","images/earth.jpg","images/rocket2","images/rocket1","null","images/rocket1","","1","real","null","1","","",""
"d3-animate-choice","241","680917","0.0-76.0-1.35","189","737","14","Male","true","true","false","false","""event"",""trial"",""time""
""fullscreenenter"",""5"",""12116""
","
","
","""event"",""trial"",""time""
""fullscreenenter"",""5"",""12116""
","
","355.09999999962747","","49","","","3000","1","","","images/purpleplanet.jpg","images/alien4","images/alien3","images/rocket1","images/alien3","images/nothing.png","2","real","false","1","rare","0","2022-02-14 00:47:14.090"
"two-step-fixation","242","681924","0.0-76.0-2.35","189","737","14","Male","true","true","false","false","""event"",""trial"",""time""
""fullscreenenter"",""5"",""12116""
","
","
","""event"",""trial"",""time""
""fullscreenenter"",""5"",""12116""
","
","","images/earth.jpg","","","","","","","","","","","","","","fixation","","","","","",""
"d3-animate-choice","243","684536","0.0-76.0-0.36","189","737","14","Male","true","true","false","false","""event"",""trial"",""time""
""fullscreenenter"",""5"",""12116""
","
","
","""event"",""trial"",""time""
""fullscreenenter"",""5"",""12116""
","
","604.8999999994412","","48","","","3000","1","","","images/earth.jpg","images/rocket2","images/rocket1","null","images/rocket2","","1","real","null","2","","",""
"d3-animate-choice","244","687451","0.0-76.0-1.36","189","737","14","Male","true","true","false","false","""event"",""trial"",""time""
""fullscreenenter"",""5"",""12116""
","
","
","""event"",""trial"",""time""
""fullscreenenter"",""5"",""12116""
","
","907","","48","","","3000","1","","","images/purpleplanet.jpg","images/alien4","images/alien3","images/rocket2","images/alien4","images/t.png","2","real","true","2","common","1","2022-02-14 00:47:20.623"
"two-step-fixation","245","688456","0.0-76.0-2.36","189","737","14","Male","true","true","false","false","""event"",""trial"",""time""
""fullscreenenter"",""5"",""12116""
","
","
","""event"",""trial"",""time""
""fullscreenenter"",""5"",""12116""
","
","","images/earth.jpg","","","","","","","","","","","","","","fixation","","","","","",""
"d3-animate-choice","246","690752","0.0-76.0-0.37","189","737","14","Male","true","true","false","false","""event"",""trial"",""time""
""fullscreenenter"",""5"",""12116""
","
","
","""event"",""trial"",""time""
""fullscreenenter"",""5"",""12116""
","
","289.30000000074506","","48","","","3000","1","","","images/earth.jpg","images/rocket2","images/rocket1","null","images/rocket2","","1","real","null","2","","",""
"d3-animate-choice","247","693257","0.0-76.0-1.37","189","737","14","Male","true","true","false","false","""event"",""trial"",""time""
""fullscreenenter"",""5"",""12116""
","
","
","""event"",""trial"",""time""
""fullscreenenter"",""5"",""12116""
","
