"trial_type","trial_index","time_elapsed","internal_node_id","participant_id","subject_id","age","gender","rocket_sides","red_planet_first_rocket","red_display_order","purple_display_order","interactions","blur_events","focus_events","fullscreenenter_events","fullscreenexit_events","rt","stimulus","key_press","button_pressed","success","duration","valid_pressed","rts","keys","planet_text","right_text","left_text","center_text","chosen_text","reward_text","trial_stage","practice_trial","transition_type","choice","transition","reward","timestamp"
"pavlovia","0","4","0.0-0.0","3473","6125","9","Female","false","true","false","false","
","
","
","
","
","","","","","","","","","","","","","","","","","","","","","",""
"html-keyboard-response","1","1826","0.0-1.0","3473","6125","9","Female","false","true","false","false","
","
","
","
","
","1820.0999999940395","Welcome! Press the space bar to begin.","32","","","","","","","","","","","","","","","","","","",""
"audio-keyboard-response","2","8358","0.0-2.0","3473","6125","9","Female","false","true","false","false","
","
","
","
","
","6281","audio/beep_loop.wav","32","","","","","","","","","","","","","","","","","","",""
"audio-button-response","3","11087","0.0-3.0","3473","6125","9","Female","false","true","false","false","
","
","
","
","
","NaN","audio/fish.mp3","","1","","","","","","","","","","","","","","","","","",""
"audio-button-response","4","14164","0.0-4.0","3473","6125","9","Female","false","true","false","false","""event"",""trial"",""time""
""fullscreenenter"",""5"",""18638""
","
","
","""event"",""trial"",""time""
""fullscreenenter"",""5"",""18638""
","
","NaN","audio/tiger.mp3","","4","","","","","","","","","","","","","","","","","",""
"fullscreen","5","19638","0.0-5.0","3473","6125","9","Female","false","true","false","false","""event"",""trial"",""time""
""fullscreenenter"",""5"",""18638""
","
","
","""event"",""trial"",""time""
""fullscreenenter"",""5"",""18638""
","
","","","","","true","","","","","","","","","","","","","","","","",""
"d3-instructions","6","31979","0.0-6.0","3473","6125","9","Female","false","true","false","false","""event"",""trial"",""time""
""fullscreenenter"",""5"",""18638""
","
","
","""event"",""trial"",""time""
""fullscreenenter"",""5"",""18638""
","
","","","","","","","","","","","","","","","","","","","","","",""
"d3-instructions","7","40857","0.0-7.0","3473","6125","9","Female","false","true","false","false","""event"",""trial"",""time""
""fullscreenenter"",""5"",""18638""
","
","
","""event"",""trial"",""time""
""fullscreenenter"",""5"",""18638""
","
","","","","","","","","","","","","","","","","","","","","","",""
"d3-instructions","8","48863","0.0-8.0","3473","6125","9","Female","false","true","false","false","""event"",""trial"",""time""
""fullscreenenter"",""5"",""18638""
","
","
","""event"",""trial"",""time""
""fullscreenenter"",""5"",""18638""
","
","","","","","","","","","","","","","","","","","","","","","",""
"d3-instructions","9","59993","0.0-9.0","3473","6125","9","Female","false","true","false","false","""event"",""trial"",""time""
""fullscreenenter"",""5"",""18638""
","
","
","""event"",""trial"",""time""
""fullscreenenter"",""5"",""18638""
","
","","","","","","","","","","","","","","","","","","","","","",""
"d3-instructions","10","75407","0.0-10.0","3473","6125","9","Female","false","true","false","false","""event"",""trial"",""time""
""fullscreenenter"",""5"",""18638""
","
","
","""event"",""trial"",""time""
""fullscreenenter"",""5"",""18638""
","
","","","","","","","","","","","","","","","","","","","","","",""
"d3-animate-choice","11","78489","0.0-11.0","3473","6125","9","Female","false","true","false","false","""event"",""trial"",""time""
""fullscreenenter"",""5"",""18638""
","
","
","""event"",""trial"",""time""
""fullscreenenter"",""5"",""18638""
","
","1070","","49","","","3000","1","","","images/tutgreenplanet.jpg","images/tutalien1","images/tutalien2","null","images/tutalien2","","NA","practice","null","","","",""
"d3-animate-choice","12","81530","0.0-12.0","3473","6125","9","Female","false","true","false","false","""event"",""trial"",""time""
""fullscreenenter"",""5"",""18638""
","
","
","""event"",""trial"",""time""
""fullscreenenter"",""5"",""18638""
","
","1029.3999999985099","","48","","","3000","1","","","images/tutgreenplanet.jpg","images/tutalien1","images/tutalien2","null","images/tutalien1","","NA","practice","null","","","",""
"d3-animate-choice","13","84614","0.0-13.0","3473","6125","9","Female","false","true","false","false","""event"",""trial"",""time""
""fullscreenenter"",""5"",""18638""
","
","
","""event"",""trial"",""time""
""fullscreenenter"",""5"",""18638""
","
","1076.1999999955297","","49","","","3000","1","1609.2999999970198,1865.3999999985099,2097.39999999851,2289.1999999955297,2392.89999999851,2665.5999999940395,2801,3049.2999999970198","48,48,48,49,48,49,48,49","images/tutgreenplanet.jpg","images/tutalien1","images/tutalien2","null","images/tutalien2","","NA","practice","null","","","",""
"d3-animate-choice","14","86721","0.0-14.0","3473","6125","9","Female","false","true","false","false","""event"",""trial"",""time""
""fullscreenenter"",""5"",""18638""
","
","
","""event"",""trial"",""time""
""fullscreenenter"",""5"",""18638""
","
","93.20000000298023","","48","","","3000","1","357.20000000298023,485.30000000447035,742.1000000014901,900,1149.2000000029802,1294.2000000029802,1557.6000000014901,1677.9000000059605,1933.1000000014901","49,48,49,48,49,48,49,48,49","images/tutgreenplanet.jpg","images/tutalien1","images/tutalien2","null","images/tutalien1","","NA","practice","null","","","",""
"d3-instructions","15","92910","0.0-15.0","3473","6125","9","Female","false","true","false","false","""event"",""trial"",""time""
""fullscreenenter"",""5"",""18638""
","
","
","""event"",""trial"",""time""
""fullscreenenter"",""5"",""18638""
","
","","","","","","","","","","","","","","","","","","","","","",""
"d3-instructions","16","94328","0.0-16.0","3473","6125","9","Female","false","true","false","false","""event"",""trial"",""time""
""fullscreenenter"",""5"",""18638""
","
","
","""event"",""trial"",""time""
""fullscreenenter"",""5"",""18638""
","
","","","","","","","","","","","","","","","","","","","","","",""
"d3-instructions","17","101903","0.0-17.0","3473","6125","9","Female","false","true","false","false","""event"",""trial"",""time""
""fullscreenenter"",""5"",""18638""
","
","
","""event"",""trial"",""time""
""fullscreenenter"",""5"",""18638""
","
","","","","","","","","","","","","","","","","","","","","","",""
"d3-instructions","18","115926","0.0-18.0","3473","6125","9","Female","false","true","false","false","""event"",""trial"",""time""
""fullscreenenter"",""5"",""18638""
","
","
","""event"",""trial"",""time""
""fullscreenenter"",""5"",""18638""
","
","","","","","","","","","","","","","","","","","","","","","",""
"d3-instructions","19","122964","0.0-19.0","3473","6125","9","Female","false","true","false","false","""event"",""trial"",""time""
""fullscreenenter"",""5"",""18638""
","
","
","""event"",""trial"",""time""
""fullscreenenter"",""5"",""18638""
","
","","","","","","","","","","","","","","","","","","","","","",""
"d3-animate-choice","20","126728","0.0-20.0","3473","6125","9","Female","false","true","false","false","""event"",""trial"",""time""
""fullscreenenter"",""5"",""18638""
","
","
","""event"",""trial"",""time""
""fullscreenenter"",""5"",""18638""
","
","1754.2000000029802","","49","","","3000","1","","","images/tutyellowplanet.jpg","null","images/tutalien3","null","images/tutalien3","images/t.png","NA","practice","null","","","",""
"d3-animate-choice","21","129479","0.0-21.0","3473","6125","9","Female","false","true","false","false","""event"",""trial"",""time""
""fullscreenenter"",""5"",""18638""
","
","
","""event"",""trial"",""time""
""fullscreenenter"",""5"",""18638""
","
","741.7000000029802","","49","","","3000","1","2661.89999999851","49","images/tutyellowplanet.jpg","null","images/tutalien3","null","images/tutalien3","images/t.png","NA","practice","null","","","",""
"d3-animate-choice","22","131671","0.0-22.0","3473","6125","9","Female","false","true","false","false","""event"",""trial"",""time""
""fullscreenenter"",""5"",""18638""
","
","
","""event"",""trial"",""time""
""fullscreenenter"",""5"",""18638""
","
","179.29999999701977","","49","","","3000","1","419.3999999985099,763.6000000014901,1716.1999999955297,2067.60000000149","49,49,49,49","images/tutyellowplanet.jpg","null","images/tutalien3","null","images/tutalien3","images/t.png","NA","practice","null","","","",""
"d3-animate-choice","23","133833","0.0-23.0","3473","6125","9","Female","false","true","false","false","""event"",""trial"",""time""
""fullscreenenter"",""5"",""18638""
","
","
","""event"",""trial"",""time""
""fullscreenenter"",""5"",""18638""
","
","155.60000000149012","","49","","","3000","1","","","images/tutyellowplanet.jpg","null","images/tutalien3","null","images/tutalien3","images/t.png","NA","practice","null","","","",""
"d3-animate-choice","24","135865","0.0-24.0","3473","6125","9","Female","false","true","false","false","""event"",""trial"",""time""
""fullscreenenter"",""5"",""18638""
","
","
","""event"",""trial"",""time""
""fullscreenenter"",""5"",""18638""
","
","18.700000002980232","","49","","","3000","1","","","images/tutyellowplanet.jpg","null","images/tutalien3","null","images/tutalien3","images/t.png","NA","practice","null","","","",""
"d3-animate-choice","25","138065","0.0-25.0","3473","6125","9","Female","false","true","false","false","""event"",""trial"",""time""
""fullscreenenter"",""5"",""18638""
","
","
","""event"",""trial"",""time""
""fullscreenenter"",""5"",""18638""
","
","188.20000000298023","","49","","","3000","1","1564.8999999985099","48","images/tutyellowplanet.jpg","null","images/tutalien3","null","images/tutalien3","images/t.png","NA","practice","null","","","",""
"d3-animate-choice","26","141281","0.0-26.0","3473","6125","9","Female","false","true","false","false","""event"",""trial"",""time""
""fullscreenenter"",""5"",""18638""
","
","
","""event"",""trial"",""time""
""fullscreenenter"",""5"",""18638""
","
","42.69999999552965","","48","","","3000","1","378.69999999552965,546.6999999955297,802.1999999955297,1202,2853.89999999851","48,48,48,49,49","images/tutyellowplanet.jpg","null","images/tutalien3","null","images/tutalien3","images/t.png","NA","practice","null","","","",""
"d3-animate-choice","27","143382","0.0-27.0","3473","6125","9","Female","false","true","false","false","""event"",""trial"",""time""
""fullscreenenter"",""5"",""18638""
","
","
","""event"",""trial"",""time""
""fullscreenenter"",""5"",""18638""
","
","89.89999999850988","","49","","","3000","1","417.09999999403954,801.5,1185.7999999970198,1505.8999999985099,1866","49,49,49,49,49","images/tutyellowplanet.jpg","null","images/tutalien3","null","images/tutalien3","images/t.png","NA","practice","null","","","",""
"d3-animate-choice","28","145495","0.0-28.0","3473","6125","9","Female","false","true","false","false","""event"",""trial"",""time""
""fullscreenenter"",""5"",""18638""
","
","
","""event"",""trial"",""time""
""fullscreenenter"",""5"",""18638""
","
","108.79999999701977","","49","","","3000","1","444.79999999701977,780.3999999985099,1124.7000000029802,1444.8999999985099,1828.7999999970198","49,49,49,49,49","images/tutyellowplanet.jpg","null","images/tutalien3","null","images/tutalien3","images/t.png","NA","practice","null","","","",""
"d3-animate-choice","29","147573","0.0-29.0","3473","6125","9","Female","false","true","false","false","""event"",""trial"",""time""
""fullscreenenter"",""5"",""18638""
","
","
","""event"",""trial"",""time""
""fullscreenenter"",""5"",""18638""
","
","67.60000000149012","","49","","","3000","1","394.19999999552965,755.5,1107.6999999955297,1523.8999999985099,1811.6000000014901","49,49,49,49,49","images/tutyellowplanet.jpg","null","images/tutalien3","null","images/tutalien3","images/t.png","NA","practice","null","","","",""
"d3-instructions","30","155793","0.0-30.0","3473","6125","9","Female","false","true","false","false","""event"",""trial"",""time""
""fullscreenenter"",""5"",""18638""
","
","
","""event"",""trial"",""time""
""fullscreenenter"",""5"",""18638""
","
","","","","","","","","","","","","","","","","","","","","","",""
"d3-instructions","31","165660","0.0-31.0","3473","6125","9","Female","false","true","false","false","""event"",""trial"",""time""
""fullscreenenter"",""5"",""18638""
","
","
","""event"",""trial"",""time""
""fullscreenenter"",""5"",""18638""
","
","","","","","","","","","","","","","","","","","","","","","",""
"d3-instructions","32","171975","0.0-32.0","3473","6125","9","Female","false","true","false","false","""event"",""trial"",""time""
""fullscreenenter"",""5"",""18638""
","
","
","""event"",""trial"",""time""
""fullscreenenter"",""5"",""18638""
","
","","","","","","","","","","","","","","","","","","","","","",""
"d3-instructions","33","183118","0.0-33.0","3473","6125","9","Female","false","true","false","false","""event"",""trial"",""time""
""fullscreenenter"",""5"",""18638""
","
","
","""event"",""trial"",""time""
""fullscreenenter"",""5"",""18638""
","
","","","","","","","","","","","","","","","","","","","","","",""
"d3-animate-choice","34","186553","0.0-34.0","3473","6125","9","Female","false","true","false","false","""event"",""trial"",""time""
""fullscreenenter"",""5"",""18638""
","
","
","""event"",""trial"",""time""
""fullscreenenter"",""5"",""18638""
","
","1419.6999999955297","","49","","","3000","1","","","images/tutgreenplanet.jpg","images/tutalien1","images/tutalien2","null","images/tutalien2","images/nothing.png","NA","practice","null","","","",""
"d3-animate-choice","35","188973","0.0-35.0","3473","6125","9","Female","false","true","false","false","""event"",""trial"",""time""
""fullscreenenter"",""5"",""18638""
","
","
","""event"",""trial"",""time""
""fullscreenenter"",""5"",""18638""
","
","407.30000000447035","","48","","","3000","1","","","images/tutgreenplanet.jpg","images/tutalien1","images/tutalien2","null","images/tutalien1","images/nothing.png","NA","practice","null","","","",""
"d3-animate-choice","36","191693","0.0-36.0","3473","6125","9","Female","false","true","false","false","""event"",""trial"",""time""
""fullscreenenter"",""5"",""18638""
","
","
","""event"",""trial"",""time""
""fullscreenenter"",""5"",""18638""
","
","712.3000000044703","","49","","","3000","1","","","images/tutgreenplanet.jpg","images/tutalien1","images/tutalien2","null","images/tutalien2","images/t.png","NA","practice","null","","","",""
"d3-animate-choice","37","193740","0.0-37.0","3473","6125","9","Female","false","true","false","false","""event"",""trial"",""time""
""fullscreenenter"",""5"",""18638""
","
","
","""event"",""trial"",""time""
""fullscreenenter"",""5"",""18638""
","
","39.80000000447035","","49","","","3000","1","253.80000000447035,486.1000000014901,756.5,1053,1605.1000000014901,1877.3999999985099","49,49,49,49,49,49","images/tutgreenplanet.jpg","images/tutalien1","images/tutalien2","null","images/tutalien2","images/t.png","NA","practice","null","","","",""
"d3-animate-choice","38","195842","0.0-38.0","3473","6125","9","Female","false","true","false","false","""event"",""trial"",""time""
""fullscreenenter"",""5"",""18638""
","
","
","""event"",""trial"",""time""
""fullscreenenter"",""5"",""18638""
","
","93.79999999701977","","49","","","3000","1","286.1000000014901,581.6000000014901,885.6000000014901,1181.7000000029802,1509.8999999985099,1782.6000000014901,2069.89999999851","49,49,49,49,49,49,49","images/tutgreenplanet.jpg","images/tutalien1","images/tutalien2","null","images/tutalien2","images/t.png","NA","practice","null","","","",""
"d3-animate-choice","39","198105","0.0-39.0","3473","6125","9","Female","false","true","false","false","""event"",""trial"",""time""
""fullscreenenter"",""5"",""18638""
","
","
","""event"",""trial"",""time""
""fullscreenenter"",""5"",""18638""
","
","248.79999999701977","","49","","","3000","1","544.7000000029802,920.8999999985099,1201.1000000014901,1512.7000000029802,1833,2168.89999999851","49,49,49,49,49,49","images/tutgreenplanet.jpg","images/tutalien1","images/tutalien2","null","images/tutalien2","images/t.png","NA","practice","null","","","",""
"d3-animate-choice","40","200344","0.0-40.0","3473","6125","9","Female","false","true","false","false","""event"",""trial"",""time""
""fullscreenenter"",""5"",""18638""
","
","
","""event"",""trial"",""time""
""fullscreenenter"",""5"",""18638""
","
","225.29999999701977","","49","","","3000","1","601.2999999970198,1016.8999999985099","49,49","images/tutgreenplanet.jpg","images/tutalien1","images/tutalien2","null","images/tutalien2","images/nothing.png","NA","practice","null","","","",""
"d3-animate-choice","41","203318","0.0-41.0","3473","6125","9","Female","false","true","false","false","""event"",""trial"",""time""
""fullscreenenter"",""5"",""18638""
","
","
","""event"",""trial"",""time""
""fullscreenenter"",""5"",""18638""
","
","965.1000000014901","","49","","","3000","1","1304.6999999955297,2000.6999999955297,2561.6999999955297","49,49,49","images/tutgreenplanet.jpg","images/tutalien1","images/tutalien2","null","images/tutalien2","images/t.png","NA","practice","null","","","",""
"d3-animate-choice","42","205332","0.0-42.0","3473","6125","9","Female","false","true","false","false","""event"",""trial"",""time""
""fullscreenenter"",""5"",""18638""
","
","
","""event"",""trial"",""time""
""fullscreenenter"",""5"",""18638""
","
","4.0999999940395355","","49","","","3000","1","686.5,1395.0999999940395,1999.0999999940395","49,49,49","images/tutgreenplanet.jpg","images/tutalien1","images/tutalien2","null","images/tutalien2","images/t.png","NA","practice","null","","","",""
"d3-animate-choice","43","207860","0.0-43.0","3473","6125","9","Female","false","true","false","false","""event"",""trial"",""time""
""fullscreenenter"",""5"",""18638""
","
","
","""event"",""trial"",""time""
""fullscreenenter"",""5"",""18638""
","
","517.7999999970198","","49","","","3000","1","1288.6999999955297,2428.2999999970198","49,49","images/tutgreenplanet.jpg","images/tutalien1","images/tutalien2","null","images/tutalien2","images/nothing.png","NA","practice","null","","","",""
"d3-instructions","44","221681","0.0-44.0","3473","6125","9","Female","false","true","false","false","""event"",""trial"",""time""
""fullscreenenter"",""5"",""18638""
","
","
","""event"",""trial"",""time""
""fullscreenenter"",""5"",""18638""
","
","","","","","","","","","","","","","","","","","","","","","",""
"d3-instructions","45","241079","0.0-45.0","3473","6125","9","Female","false","true","false","false","""event"",""trial"",""time""
""fullscreenenter"",""5"",""18638""
","
","
","""event"",""trial"",""time""
""fullscreenenter"",""5"",""18638""
","
","","","","","","","","","","","","","","","","","","","","","",""
"d3-instructions","46","249455","0.0-46.0","3473","6125","9","Female","false","true","false","false","""event"",""trial"",""time""
""fullscreenenter"",""5"",""18638""
","
","
","""event"",""trial"",""time""
""fullscreenenter"",""5"",""18638""
","
","","","","","","","","","","","","","","","","","","","","","",""
"d3-instructions","47","265592","0.0-47.0","3473","6125","9","Female","false","true","false","false","""event"",""trial"",""time""
""fullscreenenter"",""5"",""18638""
","
","
","""event"",""trial"",""time""
""fullscreenenter"",""5"",""18638""
","
","","","","","","","","","","","","","","","","","","","","","",""
"d3-instructions","48","271985","0.0-48.0","3473","6125","9","Female","false","true","false","false","""event"",""trial"",""time""
""fullscreenenter"",""5"",""18638""
","
","
","""event"",""trial"",""time""
""fullscreenenter"",""5"",""18638""
","
","","","","","","","","","","","","","","","","","","","","","",""
"d3-instructions","49","282430","0.0-49.0","3473","6125","9","Female","false","true","false","false","""event"",""trial"",""time""
""fullscreenenter"",""5"",""18638""
","
","
","""event"",""trial"",""time""
""fullscreenenter"",""5"",""18638""
","
","","","","","","","","","","","","","","","","","","","","","",""
"d3-instructions","50","290612","0.0-50.0","3473","6125","9","Female","false","true","false","false","""event"",""trial"",""time""
""fullscreenenter"",""5"",""18638""
","
","
","""event"",""trial"",""time""
""fullscreenenter"",""5"",""18638""
","
","","","","","","","","","","","","","","","","","","","","","",""
"d3-instructions","51","293036","0.0-51.0","3473","6125","9","Female","false","true","false","false","""event"",""trial"",""time""
""fullscreenenter"",""5"",""18638""
","
","
","""event"",""trial"",""time""
""fullscreenenter"",""5"",""18638""
","
","","","","","","","","","","","","","","","","","","","","","",""
"d3-instructions","52","295021","0.0-52.0","3473","6125","9","Female","false","true","false","false","""event"",""trial"",""time""
""fullscreenenter"",""5"",""18638""
","
","
","""event"",""trial"",""time""
""fullscreenenter"",""5"",""18638""
","
","","","","","","","","","","","","","","","","","","","","","",""
"d3-instructions","53","306071","0.0-53.0","3473","6125","9","Female","false","true","false","false","""event"",""trial"",""time""
""fullscreenenter"",""5"",""18638""
","
","
","""event"",""trial"",""time""
""fullscreenenter"",""5"",""18638""
","
","","","","","","","","","","","","","","","","","","","","","",""
"d3-instructions","54","317671","0.0-54.0","3473","6125","9","Female","false","true","false","false","""event"",""trial"",""time""
""fullscreenenter"",""5"",""18638""
","
","
","""event"",""trial"",""time""
""fullscreenenter"",""5"",""18638""
","
","","","","","","","","","","","","","","","","","","","","","",""
"d3-instructions","55","319726","0.0-55.0","3473","6125","9","Female","false","true","false","false","""event"",""trial"",""time""
""fullscreenenter"",""5"",""18638""
","
","
","""event"",""trial"",""time""
""fullscreenenter"",""5"",""18638""
","
","","","","","","","","","","","","","","","","","","","","","",""
"d3-instructions","56","322063","0.0-56.0","3473","6125","9","Female","false","true","false","false","""event"",""trial"",""time""
""fullscreenenter"",""5"",""18638""
","
","
","""event"",""trial"",""time""
""fullscreenenter"",""5"",""18638""
","
","","","","","","","","","","","","","","","","","","","","","",""
"d3-instructions","57","330434","0.0-57.0","3473","6125","9","Female","false","true","false","false","""event"",""trial"",""time""
""fullscreenenter"",""5"",""18638""
","
","
","""event"",""trial"",""time""
""fullscreenenter"",""5"",""18638""
","
","","","","","","","","","","","","","","","","","","","","","",""
"d3-instructions","58","340123","0.0-58.0","3473","6125","9","Female","false","true","false","false","""event"",""trial"",""time""
""fullscreenenter"",""5"",""18638""
","
","
","""event"",""trial"",""time""
""fullscreenenter"",""5"",""18638""
","
","","","","","","","","","","","","","","","","","","","","","",""
"d3-instructions","59","344030","0.0-59.0","3473","6125","9","Female","false","true","false","false","""event"",""trial"",""time""
""fullscreenenter"",""5"",""18638""
","
","
","""event"",""trial"",""time""
""fullscreenenter"",""5"",""18638""
","
","","","","","","","","","","","","","","","","","","","","","",""
"d3-instructions","60","346769","0.0-60.0","3473","6125","9","Female","false","true","false","false","""event"",""trial"",""time""
""fullscreenenter"",""5"",""18638""
","
","
","""event"",""trial"",""time""
""fullscreenenter"",""5"",""18638""
","
","","","","","","","","","","","","","","","","","","","","","",""
"d3-animate-choice","61","349666","0.0-61.0-0.0","3473","6125","9","Female","false","true","false","false","""event"",""trial"",""time""
""fullscreenenter"",""5"",""18638""
","
","
","""event"",""trial"",""time""
""fullscreenenter"",""5"",""18638""
","
","890.5","","49","","","3000","1","","","images/earth.jpg","images/tutrocket1","images/tutrocket2","null","images/tutrocket2","","1","practice","null","1","","",""
"d3-animate-choice","62","352103","0.0-61.0-1.0","3473","6125","9","Female","false","true","false","false","""event"",""trial"",""time""
""fullscreenenter"",""5"",""18638""
","
","
","""event"",""trial"",""time""
""fullscreenenter"",""5"",""18638""
","
","418.80000000447035","","48","","","3000","1","","","images/tutyellowplanet.jpg","images/tutalien4","images/tutalien3","images/tutrocket2","images/tutalien4","images/nothing.png","2","practice","true","2","common","0","2023-01-30 21:03:23.836"
"two-step-fixation","63","353117","0.0-61.0-2.0","3473","6125","9","Female","false","true","false","false","""event"",""trial"",""time""
""fullscreenenter"",""5"",""18638""
","
","
","""event"",""trial"",""time""
""fullscreenenter"",""5"",""18638""
","
","","images/earth.jpg","","","","","","","","","","","","","","fixation","","","","","",""
"d3-animate-choice","64","355453","0.0-61.0-0.1","3473","6125","9","Female","false","true","false","false","""event"",""trial"",""time""
""fullscreenenter"",""5"",""18638""
","
","
","""event"",""trial"",""time""
""fullscreenenter"",""5"",""18638""
","
","326.3999999985099","","49","","","3000","1","","","images/earth.jpg","images/tutrocket1","images/tutrocket2","null","images/tutrocket2","","1","practice","null","1","","",""
"d3-animate-choice","65","357989","0.0-61.0-1.1","3473","6125","9","Female","false","true","false","false","""event"",""trial"",""time""
""fullscreenenter"",""5"",""18638""
","
","
","""event"",""trial"",""time""
""fullscreenenter"",""5"",""18638""
","
","521.6000000014901","","49","","","3000","1","","","images/tutyellowplanet.jpg","images/tutalien4","images/tutalien3","images/tutrocket2","images/tutalien3","images/nothing.png","2","practice","true","1","common","0","2023-01-30 21:03:29.721"
"two-step-fixation","66","358994","0.0-61.0-2.1","3473","6125","9","Female","false","true","false","false","""event"",""trial"",""time""
""fullscreenenter"",""5"",""18638""
","
","
","""event"",""trial"",""time""
""fullscreenenter"",""5"",""18638""
","
","","images/earth.jpg","","","","","","","","","","","","","","fixation","","","","","",""
"d3-animate-choice","67","361717","0.0-61.0-0.2","3473","6125","9","Female","false","true","false","false","""event"",""trial"",""time""
""fullscreenenter"",""5"",""18638""
","
","
","""event"",""trial"",""time""
""fullscreenenter"",""5"",""18638""
","
","708.7000000029802","","48","","","3000","1","","","images/earth.jpg","images/tutrocket1","images/tutrocket2","null","images/tutrocket1","","1","practice","null","2","","",""
"d3-animate-choice","68","364660","0.0-61.0-1.2","3473","6125","9","Female","false","true","false","false","""event"",""trial"",""time""
""fullscreenenter"",""5"",""18638""
","
","
","""event"",""trial"",""time""
""fullscreenenter"",""5"",""18638""
","
","930.3999999985099","","49","","","3000","1","","","images/tutyellowplanet.jpg","images/tutalien4","images/tutalien3","images/tutrocket1","images/tutalien3","images/nothing.png","2","practice","false","1","rare","0","2023-01-30 21:03:36.392"
"two-step-fixation","69","365670","0.0-61.0-2.2","3473","6125","9","Female","false","true","false","false","""event"",""trial"",""time""
""fullscreenenter"",""5"",""18638""
","
","
","""event"",""trial"",""time""
""fullscreenenter"",""5"",""18638""
","
","","images/earth.jpg","","","","","","","","","","","","","","fixation","","","","","",""
"d3-animate-choice","70","368091","0.0-61.0-0.3","3473","6125","9","Female","false","true","false","false","""event"",""trial"",""time""
""fullscreenenter"",""5"",""18638""
","
","
","""event"",""trial"",""time""
""fullscreenenter"",""5"",""18638""
","
","408.3999999985099","","48","","","3000","1","","","images/earth.jpg","images/tutrocket1","images/tutrocket2","null","images/tutrocket1","","1","practice","null","2","","",""
"d3-animate-choice","71","370749","0.0-61.0-1.3","3473","6125","9","Female","false","true","false","false","""event"",""trial"",""time""
""fullscreenenter"",""5"",""18638""
","
","
","""event"",""trial"",""time""
""fullscreenenter"",""5"",""18638""
","
","645.5999999940395","","48","","","3000","1","","","images/tutyellowplanet.jpg","images/tutalien4","images/tutalien3","images/tutrocket1","images/tutalien4","images/t.png","2","practice","false","2","rare","1","2023-01-30 21:03:42.481"
"two-step-fixation","72","371759","0.0-61.0-2.3","3473","6125","9","Female","false","true","false","false","""event"",""trial"",""time""
""fullscreenenter"",""5"",""18638""
","
","
","""event"",""trial"",""time""
""fullscreenenter"",""5"",""18638""
","
","","images/earth.jpg","","","","","","","","","","","","","","fixation","","","","","",""
"d3-animate-choice","73","374069","0.0-61.0-0.4","3473","6125","9","Female","false","true","false","false","""event"",""trial"",""time""
""fullscreenenter"",""5"",""18638""
","
","
","""event"",""trial"",""time""
""fullscreenenter"",""5"",""18638""
","
","306.1000000014901","","49","","","3000","1","","","images/earth.jpg","images/tutrocket1","images/tutrocket2","null","images/tutrocket2","","1","practice","null","1","","",""
"d3-animate-choice","74","377978","0.0-61.0-1.4","3473","6125","9","Female","false","true","false","false","""event"",""trial"",""time""
""fullscreenenter"",""5"",""18638""
","
","
","""event"",""trial"",""time""
""fullscreenenter"",""5"",""18638""
","
","1903.1000000014901","","49","","","3000","1","","","images/tutyellowplanet.jpg","images/tutalien4","images/tutalien3","images/tutrocket2","images/tutalien3","images/nothing.png","2","practice","true","1","common","0","2023-01-30 21:03:49.710"
"two-step-fixation","75","378987","0.0-61.0-2.4","3473","6125","9","Female","false","true","false","false","""event"",""trial"",""time""
""fullscreenenter"",""5"",""18638""
","
","
","""event"",""trial"",""time""
""fullscreenenter"",""5"",""18638""
","
","","images/earth.jpg","","","","","","","","","","","","","","fixation","","","","","",""
"d3-animate-choice","76","381796","0.0-61.0-0.5","3473","6125","9","Female","false","true","false","false","""event"",""trial"",""time""
""fullscreenenter"",""5"",""18638""
","
","
","""event"",""trial"",""time""
""fullscreenenter"",""5"",""18638""
","
","795.6000000014901","","48","","","3000","1","","","images/earth.jpg","images/tutrocket1","images/tutrocket2","null","images/tutrocket1","","1","practice","null","2","","",""
"d3-animate-choice","77","384931","0.0-61.0-1.5","3473","6125","9","Female","false","true","false","false","""event"",""trial"",""time""
""fullscreenenter"",""5"",""18638""
","
","
","""event"",""trial"",""time""
""fullscreenenter"",""5"",""18638""
","
","1122.5","","49","","","3000","1","","","images/tutgreenplanet.jpg","images/tutalien2","images/tutalien1","images/tutrocket1","images/tutalien1","images/nothing.png","2","practice","true","1","common","0","2023-01-30 21:03:56.663"
"two-step-fixation","78","385939","0.0-61.0-2.5","3473","6125","9","Female","false","true","false","false","""event"",""trial"",""time""
""fullscreenenter"",""5"",""18638""
","
","
","""event"",""trial"",""time""
""fullscreenenter"",""5"",""18638""
","
","","images/earth.jpg","","","","","","","","","","","","","","fixation","","","","","",""
"d3-animate-choice","79","388002","0.0-61.0-0.6","3473","6125","9","Female","false","true","false","false","""event"",""trial"",""time""
""fullscreenenter"",""5"",""18638""
","
","
","""event"",""trial"",""time""
""fullscreenenter"",""5"",""18638""
","
","56.600000001490116","","49","","","3000","1","271.79999999701977,488.8999999985099,672.1000000014901,928.7999999970198,1127.8999999985099,1368.8999999985099,1560.2999999970198,1808.5,2000.8999999985099","48,49,48,49,48,49,48,49,48","images/earth.jpg","images/tutrocket1","images/tutrocket2","null","images/tutrocket2","","1","practice","null","1","","",""
"d3-animate-choice","80","390138","0.0-61.0-1.6","3473","6125","9","Female","false","true","false","false","""event"",""trial"",""time""
""fullscreenenter"",""5"",""18638""
","
","
","""event"",""trial"",""time""
""fullscreenenter"",""5"",""18638""
","
","130.70000000298023","","49","","","3000","1","339.40000000596046,513.6000000014901,730.9000000059605,907.2000000029802,1059.3000000044703,1267.7000000029802,1490.2000000029802,1707.1000000014901,1891,2131.2000000029802","48,49,48,49,48,49,48,49,48,49","images/tutyellowplanet.jpg","images/tutalien4","images/tutalien3","images/tutrocket2","images/tutalien3","images/t.png","2","practice","true","1","common","1","2023-01-30 21:04:01.870"
"two-step-fixation","81","391148","0.0-61.0-2.6","3473","6125","9","Female","false","true","false","false","""event"",""trial"",""time""
""fullscreenenter"",""5"",""18638""
","
","
","""event"",""trial"",""time""
""fullscreenenter"",""5"",""18638""
","
","","images/earth.jpg","","","","","","","","","","","","","","fixation","","","","","",""
"d3-animate-choice","82","393301","0.0-61.0-0.7","3473","6125","9","Female","false","true","false","false","""event"",""trial"",""time""
""fullscreenenter"",""5"",""18638""
","
","
","""event"",""trial"",""time""
""fullscreenenter"",""5"",""18638""
","
","144.09999999403954","","49","","","3000","1","342.79999999701977,495.69999999552965,751.8999999985099,839.5,1165.8999999985099,1214.1999999955297,1551.6999999955297,1615.1999999955297,1943.7999999970198,2047.8999999985099","48,49,48,49,48,49,48,49,48,49","images/earth.jpg","images/tutrocket1","images/tutrocket2","null","images/tutrocket2","","1","practice","null","1","","",""
"d3-animate-choice","83","395525","0.0-61.0-1.7","3473","6125","9","Female","false","true","false","false","""event"",""trial"",""time""
""fullscreenenter"",""5"",""18638""
","
","
","""event"",""trial"",""time""
""fullscreenenter"",""5"",""18638""
","
","214.70000000298023","","48","","","3000","1","326.30000000447035,638.4000000059605,766.6000000014901,1062.7000000029802,1166.5,1446.5,1510.4000000059605,1782.7000000029802,1934.6000000014901,2127","49,48,49,48,49,48,49,49,48,49","images/tutyellowplanet.jpg","images/tutalien4","images/tutalien3","images/tutrocket2","images/tutalien4","images/t.png","2","practice","true","2","common","1","2023-01-30 21:04:07.257"
"two-step-fixation","84","396541","0.0-61.0-2.7","3473","6125","9","Female","false","true","false","false","""event"",""trial"",""time""
""fullscreenenter"",""5"",""18638""
","
","
","""event"",""trial"",""time""
""fullscreenenter"",""5"",""18638""
","
","","images/earth.jpg","","","","","","","","","","","","","","fixation","","","","","",""
"d3-animate-choice","85","398770","0.0-61.0-0.8","3473","6125","9","Female","false","true","false","false","""event"",""trial"",""time""
""fullscreenenter"",""5"",""18638""
","
","
","""event"",""trial"",""time""
""fullscreenenter"",""5"",""18638""
","
","222.89999999850988","","49","","","3000","1","277.59999999403954,607.1999999955297,751.0999999940395,991.1999999955297,1174.2999999970198,1487.0999999940395,1871.3999999985099,1887.2999999970198","48,49,48,49,48,49,49,48","images/earth.jpg","images/tutrocket1","images/tutrocket2","null","images/tutrocket2","","1","practice","null","1","","",""
"d3-animate-choice","86","400842","0.0-61.0-1.8","3473","6125","9","Female","false","true","false","false","""event"",""trial"",""time""
""fullscreenenter"",""5"",""18638""
","
","
","""event"",""trial"",""time""
""fullscreenenter"",""5"",""18638""
","
","66.20000000298023","","48","","","3000","1","385.70000000298023,457.70000000298023,754.8999999985099,755.7000000029802,1042.6000000014901,1068.3000000044703,1458.3999999985099,1642.5,1834.6000000014901","49,48,49,48,49,48,49,49,48","images/tutyellowplanet.jpg","images/tutalien4","images/tutalien3","images/tutrocket2","images/tutalien4","images/nothing.png","2","practice","true","2","common","0","2023-01-30 21:04:12.574"
"two-step-fixation","87","401852","0.0-61.0-2.8","3473","6125","9","Female","false","true","false","false","""event"",""trial"",""time""
""fullscreenenter"",""5"",""18638""
","
","
","""event"",""trial"",""time""
""fullscreenenter"",""5"",""18638""
","
","","images/earth.jpg","","","","","","","","","","","","","","fixation","","","","","",""
"d3-animate-choice","88","404099","0.0-61.0-0.9","3473","6125","9","Female","false","true","false","false","""event"",""trial"",""time""
""fullscreenenter"",""5"",""18638""
","
","
","""event"",""trial"",""time""
""fullscreenenter"",""5"",""18638""
","
","239.29999999701977","","49","","","3000","1","273.3999999985099,550.5,583.2000000029802,815.6000000014901,879.5,1463.6000000014901,1711.5,2023.1000000014901,2199.2999999970198","48,49,48,48,49,49,48,49,48","images/earth.jpg","images/tutrocket1","images/tutrocket2","null","images/tutrocket2","","1","practice","null","1","","",""
"d3-animate-choice","89","406334","0.0-61.0-1.9","3473","6125","9","Female","false","true","false","false","""event"",""trial"",""time""
""fullscreenenter"",""5"",""18638""
","
","
","""event"",""trial"",""time""
""fullscreenenter"",""5"",""18638""
","
","224.89999999850988","","49","","","3000","1","328.79999999701977,608.7999999970198,728.2999999970198,1032.2999999970198,1191.7999999970198,1448.6999999955297,1608.5999999940395,1888.3999999985099,2049.0999999940395","48,49,48,49,48,49,48,49,48","images/tutgreenplanet.jpg","images/tutalien2","images/tutalien1","images/tutrocket2","images/tutalien1","images/nothing.png","2","practice","false","1","rare","0","2023-01-30 21:04:18.066"
"two-step-fixation","90","407349","0.0-61.0-2.9","3473","6125","9","Female","false","true","false","false","""event"",""trial"",""time""
""fullscreenenter"",""5"",""18638""
","
","
","""event"",""trial"",""time""
""fullscreenenter"",""5"",""18638""
","
","","images/earth.jpg","","","","","","","","","","","","","","fixation","","","","","",""
"d3-animate-choice","91","409410","0.0-61.0-0.10","3473","6125","9","Female","false","true","false","false","""event"",""trial"",""time""
""fullscreenenter"",""5"",""18638""
","
","
","""event"",""trial"",""time""
""fullscreenenter"",""5"",""18638""
","
","54.100000001490116","","48","","","3000","1","278.29999999701977,510.3999999985099,718.5,917.6000000014901,1133.3999999985099,1342.2999999970198,1566.5,1798.1999999955297","49,48,49,48,49,48,49,48","images/earth.jpg","images/tutrocket1","images/tutrocket2","null","images/tutrocket1","","1","practice","null","2","","",""
"d3-animate-choice","92","411465","0.0-61.0-1.10","3473","6125","9","Female","false","true","false","false","""event"",""trial"",""time""
""fullscreenenter"",""5"",""18638""
","
","
","""event"",""trial"",""time""
""fullscreenenter"",""5"",""18638""
","
","49.600000001490116","","49","","","3000","1","201.60000000149012,482.19999999552965,665.2999999970198,945.8999999985099,1089.1999999955297,1328.1000000014901,1529.6000000014901,1769.8999999985099,1905.8999999985099","48,49,48,49,48,49,48,49,48","images/tutyellowplanet.jpg","images/tutalien4","images/tutalien3","images/tutrocket1","images/tutalien3","images/t.png","2","practice","false","1","rare","1","2023-01-30 21:04:23.198"
"two-step-fixation","93","412475","0.0-61.0-2.10","3473","6125","9","Female","false","true","false","false","""event"",""trial"",""time""
""fullscreenenter"",""5"",""18638""
","
","
","""event"",""trial"",""time""
""fullscreenenter"",""5"",""18638""
","
","","images/earth.jpg","","","","","","","","","","","","","","fixation","","","","","",""
"d3-animate-choice","94","414563","0.0-61.0-0.11","3473","6125","9","Female","false","true","false","false","""event"",""trial"",""time""
""fullscreenenter"",""5"",""18638""
","
","
","""event"",""trial"",""time""
""fullscreenenter"",""5"",""18638""
","
","80.5","","48","","","3000","1","256.3999999985099,463.5,616.7000000029802,880.5,984.1000000014901,1328.8000000044703,1560.8000000044703,1784.3000000044703,1992.3000000044703","49,48,49,48,49,48,49,48,49","images/earth.jpg","images/tutrocket1","images/tutrocket2","null","images/tutrocket1","","1","practice","null","2","","",""
"d3-animate-choice","95","416731","0.0-61.0-1.11","3473","6125","9","Female","false","true","false","false","""event"",""trial"",""time""
""fullscreenenter"",""5"",""18638""
","
","
","""event"",""trial"",""time""
""fullscreenenter"",""5"",""18638""
","
","160.69999999552965","","48","","","3000","1","458.09999999403954,688.6999999955297,944.0999999940395,1184.8999999985099,1424.7999999970198,1617.0999999940395,1872.5,2096.5999999940395","49,48,49,48,49,48,49,48","images/tutgreenplanet.jpg","images/tutalien2","images/tutalien1","images/tutrocket1","images/tutalien2","images/nothing.png","2","practice","true","2","common","0","2023-01-30 21:04:28.463"
"two-step-fixation","96","417740","0.0-61.0-2.11","3473","6125","9","Female","false","true","false","false","""event"",""trial"",""time""
""fullscreenenter"",""5"",""18638""
","
","
","""event"",""trial"",""time""
""fullscreenenter"",""5"",""18638""
","
","","images/earth.jpg","","","","","","","","","","","","","","fixation","","","","","",""
"d3-animate-choice","97","419987","0.0-61.0-0.12","3473","6125","9","Female","false","true","false","false","""event"",""trial"",""time""
""fullscreenenter"",""5"",""18638""
","
","
","""event"",""trial"",""time""
""fullscreenenter"",""5"",""18638""
","
","238.80000000447035","","48","","","3000","1","431.1000000014901,687,871.1000000014901,1119.1000000014901,1295.1000000014901,1535.2000000029802,1751.2000000029802,1999.2000000029802,2230.7000000029802","49,48,49,48,49,48,49,48,49","images/earth.jpg","images/tutrocket1","images/tutrocket2","null","images/tutrocket1","","1","practice","null","2","","",""
"d3-animate-choice","98","422193","0.0-61.0-1.12","3473","6125","9","Female","false","true","false","false","""event"",""trial"",""time""
""fullscreenenter"",""5"",""18638""
","
","
","""event"",""trial"",""time""
""fullscreenenter"",""5"",""18638""
","
","200.39999999850988","","48","","","3000","1","384.5,592.1999999955297,784.1999999955297,1032.2999999970198,1199.6000000014901,1448.5,1632.2999999970198,1840,2016.2999999970198","49,48,49,48,49,48,49,48,49","images/tutyellowplanet.jpg","images/tutalien4","images/tutalien3","images/tutrocket1","images/tutalien4","images/t.png","2","practice","false","2","rare","1","2023-01-30 21:04:33.925"
"two-step-fixation","99","423203","0.0-61.0-2.12","3473","6125","9","Female","false","true","false","false","""event"",""trial"",""time""
""fullscreenenter"",""5"",""18638""
","
","
","""event"",""trial"",""time""
""fullscreenenter"",""5"",""18638""
","
","","images/earth.jpg","","","","","","","","","","","","","","fixation","","","","","",""
"d3-animate-choice","100","425299","0.0-61.0-0.13","3473","6125","9","Female","false","true","false","false","""event"",""trial"",""time""
""fullscreenenter"",""5"",""18638""
","
","
","""event"",""trial"",""time""
""fullscreenenter"",""5"",""18638""
","
","89.5","","49","","","3000","1","233,497,640,864.8999999985099,1064.8999999985099,1280.8999999985099,1480.7999999970198,1744.7999999970198,1935.8999999985099","48,49,48,49,48,49,48,49,48","images/earth.jpg","images/tutrocket1","images/tutrocket2","null","images/tutrocket2","","1","practice","null","1","","",""
"d3-animate-choice","101","427371","0.0-61.0-1.13","3473","6125","9","Female","false","true","false","false","""event"",""trial"",""time""
""fullscreenenter"",""5"",""18638""
","
","
","""event"",""trial"",""time""
""fullscreenenter"",""5"",""18638""
","
","64.79999999701977","","49","","","3000","1","288.8999999985099,520.8999999985099,720.5,1025.1999999955297,1136.8999999985099,1424,1583.5,1832.6999999955297,2008.8999999985099","48,49,48,49,48,49,48,49,48","images/tutyellowplanet.jpg","images/tutalien4","images/tutalien3","images/tutrocket2","images/tutalien3","images/nothing.png","2","practice","true","1","common","0","2023-01-30 21:04:39.103"
"two-step-fixation","102","428381","0.0-61.0-2.13","3473","6125","9","Female","false","true","false","false","""event"",""trial"",""time""
""fullscreenenter"",""5"",""18638""
","
","
","""event"",""trial"",""time""
""fullscreenenter"",""5"",""18638""
","
","","images/earth.jpg","","","","","","","","","","","","","","fixation","","","","","",""
"d3-animate-choice","103","430604","0.0-61.0-0.14","3473","6125","9","Female","false","true","false","false","""event"",""trial"",""time""
""fullscreenenter"",""5"",""18638""
","
","
","""event"",""trial"",""time""
""fullscreenenter"",""5"",""18638""
","
","215.39999999850988","","48","","","3000","1","222.29999999701977,511.19999999552965,631.1999999955297,871,1015.3999999985099,1343.1999999955297,1447.0999999940395,1686.7999999970198,1847.2999999970198,1991.1999999955297,2215.1999999955297","49,49,48,49,48,49,48,49,48,49,48","images/earth.jpg","images/tutrocket1","images/tutrocket2","null","images/tutrocket1","","1","practice","null","2","","",""
"d3-animate-choice","104","432856","0.0-61.0-1.14","3473","6125","9","Female","false","true","false","false","""event"",""trial"",""time""
""fullscreenenter"",""5"",""18638""
","
","
","""event"",""trial"",""time""
""fullscreenenter"",""5"",""18638""
","
","247.20000000298023","","49","","","3000","1","350.20000000298023,463.6000000014901,735.4000000059605,927.3000000044703,1103.2000000029802,1231.2000000029802,1470.9000000059605,1591.2000000029802,1847.1000000014901,2038.9000000059605,2207.10000000149","48,49,48,49,48,49,49,48,49,48,49","images/tutgreenplanet.jpg","images/tutalien2","images/tutalien1","images/tutrocket1","images/tutalien1","images/nothing.png","2","practice","true","1","common","0","2023-01-30 21:04:44.589"
"two-step-fixation","105","433867","0.0-61.0-2.14","3473","6125","9","Female","false","true","false","false","""event"",""trial"",""time""
""fullscreenenter"",""5"",""18638""
","
","
","""event"",""trial"",""time""
""fullscreenenter"",""5"",""18638""
","
","","images/earth.jpg","","","","","","","","","","","","","","fixation","","","","","",""
"d3-animate-choice","106","436033","0.0-61.0-0.15","3473","6125","9","Female","false","true","false","false","""event"",""trial"",""time""
""fullscreenenter"",""5"",""18638""
","
","
","""event"",""trial"",""time""
""fullscreenenter"",""5"",""18638""
","
","159.5","","49","","","3000","1","360.3999999985099,512.3999999985099,679.1000000014901,832.6000000014901,896.3000000044703,1192.6000000014901,1231.8000000044703,1552.5,1880.1000000014901,1919.8000000044703","48,49,49,48,49,49,48,49,49,48","images/earth.jpg","images/tutrocket1","images/tutrocket2","null","images/tutrocket2","","1","practice","null","1","","",""
"d3-animate-choice","107","438073","0.0-61.0-1.15","3473","6125","9","Female","false","true","false","false","""event"",""trial"",""time""
""fullscreenenter"",""5"",""18638""
","
","
","""event"",""trial"",""time""
""fullscreenenter"",""5"",""18638""
","
","33.79999999701977","","49","","","3000","1","129.89999999850988,353,497.79999999701977,793.7999999970198,842.1000000014901,1026,1201.5,1345.6000000014901,1601.7000000029802,1625.6000000014901,1961.8999999985099,1993.8999999985099","48,49,48,49,48,49,48,49,48,49,49,48","images/tutyellowplanet.jpg","images/tutalien4","images/tutalien3","images/tutrocket2","images/tutalien3","images/nothing.png","2","practice","true","1","common","0","2023-01-30 21:04:49.805"
"two-step-fixation","108","439085","0.0-61.0-2.15","3473","6125","9","Female","false","true","false","false","""event"",""trial"",""time""
""fullscreenenter"",""5"",""18638""
","
","
","""event"",""trial"",""time""
""fullscreenenter"",""5"",""18638""
","
","","images/earth.jpg","","","","","","","","","","","","","","fixation","","","","","",""
"d3-animate-choice","109","441233","0.0-61.0-0.16","3473","6125","9","Female","false","true","false","false","""event"",""trial"",""time""
""fullscreenenter"",""5"",""18638""
","
","
","""event"",""trial"",""time""
""fullscreenenter"",""5"",""18638""
","
","142.19999999552965","","48","","","3000","1","406.5,526.2999999970198,790.3999999985099,838.1999999955297,1206.3999999985099,1213.2999999970198,1670.1999999955297,1677.2999999970198,1974.2999999970198,2102.39999999851","49,48,48,49,48,49,48,49,49,48","images/earth.jpg","images/tutrocket1","images/tutrocket2","null","images/tutrocket1","","1","practice","null","2","","",""
"d3-animate-choice","110","443468","0.0-61.0-1.16","3473","6125","9","Female","false","true","false","false","""event"",""trial"",""time""
""fullscreenenter"",""5"",""18638""
","
","
","""event"",""trial"",""time""
""fullscreenenter"",""5"",""18638""
","
","226.5","","49","","","3000","1","282.5,578.6999999955297,579.8999999985099,825.8999999985099,850.5,1058.7999999970198,1138.7999999970198,1354.8999999985099,1530.5,1690.8999999985099,2041.2999999970198","48,49,48,48,49,48,49,48,49,48,48","images/tutgreenplanet.jpg","images/tutalien2","images/tutalien1","images/tutrocket1","images/tutalien1","images/nothing.png","2","practice","true","1","common","0","2023-01-30 21:04:55.200"
"two-step-fixation","111","444478","0.0-61.0-2.16","3473","6125","9","Female","false","true","false","false","""event"",""trial"",""time""
""fullscreenenter"",""5"",""18638""
","
","
","""event"",""trial"",""time""
""fullscreenenter"",""5"",""18638""
","
","","images/earth.jpg","","","","","","","","","","","","","","fixation","","","","","",""
"d3-animate-choice","112","446748","0.0-61.0-0.17","3473","6125","9","Female","false","true","false","false","""event"",""trial"",""time""
""fullscreenenter"",""5"",""18638""
","
","
","""event"",""trial"",""time""
""fullscreenenter"",""5"",""18638""
","
","262.1000000014901","","49","","","3000","1","389.69999999552965,605.6000000014901,621.6000000014901,861.3999999985099,950,1173.5,1180.5,1501.8999999985099,1517.7999999970198,1838.1000000014901,1893.5,2165.89999999851,2237.6999999955297","48,49,48,48,49,48,49,49,48,49,48,48,49","images/earth.jpg","images/tutrocket1","images/tutrocket2","null","images/tutrocket2","","1","practice","null","1","","",""
"d3-animate-choice","113","448931","0.0-61.0-1.17","3473","6125","9","Female","false","true","false","false","""event"",""trial"",""time""
""fullscreenenter"",""5"",""18638""
","
","
","""event"",""trial"",""time""
""fullscreenenter"",""5"",""18638""
","
","175.5","","49","","","3000","1","285.8999999985099,510.19999999552965,599,879.3999999985099,983.1999999955297,1271.2999999970198,1439.3999999985099,1727.2999999970198,1831.6999999955297,2143.10000000149","48,49,48,49,48,49,48,49,48,49","images/tutyellowplanet.jpg","images/tutalien4","images/tutalien3","images/tutrocket2","images/tutalien3","images/nothing.png","2","practice","true","1","common","0","2023-01-30 21:05:00.663"
"two-step-fixation","114","449938","0.0-61.0-2.17","3473","6125","9","Female","false","true","false","false","""event"",""trial"",""time""
""fullscreenenter"",""5"",""18638""
","
","
","""event"",""trial"",""time""
""fullscreenenter"",""5"",""18638""
","
","","images/earth.jpg","","","","","","","","","","","","","","fixation","","","","","",""
"d3-animate-choice","115","452053","0.0-61.0-0.18","3473","6125","9","Female","false","true","false","false","""event"",""trial"",""time""
""fullscreenenter"",""5"",""18638""
","
","
","""event"",""trial"",""time""
""fullscreenenter"",""5"",""18638""
","
","105.20000000298023","","48","","","3000","1","361.30000000447035,537.4000000059605,777.3000000044703,952.8000000044703,1192.7000000029802,1393.4000000059605,1760.5,1944.8000000044703","49,48,49,48,49,48,49,48","images/earth.jpg","images/tutrocket1","images/tutrocket2","null","images/tutrocket1","","1","practice","null","2","","",""
"d3-animate-choice","116","454155","0.0-61.0-1.18","3473","6125","9","Female","false","true","false","false","""event"",""trial"",""time""
""fullscreenenter"",""5"",""18638""
","
","
","""event"",""trial"",""time""
""fullscreenenter"",""5"",""18638""
","
","93.30000000447035","","49","","","3000","1","244.20000000298023,509.8999999985099,629.3000000044703,917.3999999985099,1021.7000000029802,1349.3000000044703,1461.8999999985099,1781.3000000044703,1909.8000000044703","48,49,48,49,48,49,48,49,48","images/tutyellowplanet.jpg","images/tutalien4","images/tutalien3","images/tutrocket1","images/tutalien3","images/t.png","2","practice","false","1","rare","1","2023-01-30 21:05:05.887"
"two-step-fixation","117","455165","0.0-61.0-2.18","3473","6125","9","Female","false","true","false","false","""event"",""trial"",""time""
""fullscreenenter"",""5"",""18638""
","
","
","""event"",""trial"",""time""
""fullscreenenter"",""5"",""18638""
","
","","images/earth.jpg","","","","","","","","","","","","","","fixation","","","","","",""
"d3-animate-choice","118","457371","0.0-61.0-0.19","3473","6125","9","Female","false","true","false","false","""event"",""trial"",""time""
""fullscreenenter"",""5"",""18638""
","
","
","""event"",""trial"",""time""
""fullscreenenter"",""5"",""18638""
","
","197.89999999850988","","49","","","3000","1","390.19999999552965,629.6000000014901,766.1999999955297,1141.3999999985099,1150.1999999955297,1422.3999999985099,1653.2999999970198,1773.8999999985099,2022.6000000014901,2038.2999999970198","48,49,48,49,48,48,49,48,49,48","images/earth.jpg","images/tutrocket1","images/tutrocket2","null","images/tutrocket2","","1","practice","null","1","","",""
"d3-animate-choice","119","459541","0.0-61.0-1.19","3473","6125","9","Female","false","true","false","false","""event"",""trial"",""time""
""fullscreenenter"",""5"",""18638""
","
","
","""event"",""trial"",""time""
""fullscreenenter"",""5"",""18638""
","
","160.39999999850988","","49","","","3000","1","352.8999999985099,624.6000000014901,808.7999999970198,1023.1000000014901,1208.6000000014901,1480,1649,1920.8999999985099,2089.2999999970198","48,49,48,49,48,49,48,49,48","images/tutyellowplanet.jpg","images/tutalien4","images/tutalien3","images/tutrocket2","images/tutalien3","images/nothing.png","2","practice","true","1","common","0","2023-01-30 21:05:11.273"
"two-step-fixation","120","460548","0.0-61.0-2.19","3473","6125","9","Female","false","true","false","false","""event"",""trial"",""time""
""fullscreenenter"",""5"",""18638""
","
","
","""event"",""trial"",""time""
""fullscreenenter"",""5"",""18638""
","
","","images/earth.jpg","","","","","","","","","","","","","","fixation","","","","","",""
"d3-instructions","121","464554","0.0-62.0","3473","6125","9","Female","false","true","false","false","""event"",""trial"",""time""
""fullscreenenter"",""5"",""18638""
","
","
","""event"",""trial"",""time""
""fullscreenenter"",""5"",""18638""
","
","","","","","","","","","","","","","","","","","","","","","",""
"audio-keyboard-response","122","469627","0.0-63.0","3473","6125","9","Female","false","true","false","false","""event"",""trial"",""time""
""fullscreenenter"",""5"",""18638""
","
","
","""event"",""trial"",""time""
""fullscreenenter"",""5"",""18638""
","
","5074","audio/instructions/treasure_feedback.wav","32","","","","","","","","","","","","","","","","","","",""
"d3-instructions","123","488850","0.0-64.0","3473","6125","9","Female","false","true","false","false","""event"",""trial"",""time""
""fullscreenenter"",""5"",""18638""
","
","
","""event"",""trial"",""time""
""fullscreenenter"",""5"",""18638""
","
","","","","","","","","","","","","","","","","","","","","","",""
"d3-instructions","124","502304","0.0-65.0","3473","6125","9","Female","false","true","false","false","""event"",""trial"",""time""
""fullscreenenter"",""5"",""18638""
","
","
","""event"",""trial"",""time""
""fullscreenenter"",""5"",""18638""
","
","","","","","","","","","","","","","","","","","","","","","",""
"d3-instructions","125","528607","0.0-66.0","3473","6125","9","Female","false","true","false","false","""event"",""trial"",""time""
""fullscreenenter"",""5"",""18638""
","
","
","""event"",""trial"",""time""
""fullscreenenter"",""5"",""18638""
","
","","","","","","","","","","","","","","","","","","","","","",""
"d3-instructions","126","546027","0.0-67.0","3473","6125","9","Female","false","true","false","false","""event"",""trial"",""time""
""fullscreenenter"",""5"",""18638""
","
","
","""event"",""trial"",""time""
""fullscreenenter"",""5"",""18638""
","
","","","","","","","","","","","","","","","","","","","","","",""
"d3-instructions","127","555379","0.0-68.0","3473","6125","9","Female","false","true","false","false","""event"",""trial"",""time""
""fullscreenenter"",""5"",""18638""
","
","
","""event"",""trial"",""time""
""fullscreenenter"",""5"",""18638""
","
","","","","","","","","","","","","","","","","","","","","","",""
"instructions-quiz","128","560210","0.0-69.0","3473","6125","9","Female","false","true","false","false","""event"",""trial"",""time""
""fullscreenenter"",""5"",""18638""
","
","
","""event"",""trial"",""time""
""fullscreenenter"",""5"",""18638""
","
","4826.70000000298","audio/quiz/Q1_Prompt.wav","","1","","","","","","","","","","","","","","","","","",""
"audio-keyboard-response","129","569385","0.0-70.0","3473","6125","9","Female","false","true","false","false","""event"",""trial"",""time""
""fullscreenenter"",""5"",""18638""
","
","
","""event"",""trial"",""time""
""fullscreenenter"",""5"",""18638""
","
","null","audio/quiz/Q1_Correct.wav","null","","","","","","","","","","","","","","","","","","",""
"instructions-quiz","130","578384","0.0-71.0","3473","6125","9","Female","false","true","false","false","""event"",""trial"",""time""
""fullscreenenter"",""5"",""18638""
","
","
","""event"",""trial"",""time""
""fullscreenenter"",""5"",""18638""
","
","8996","audio/quiz/Q2_Prompt.wav","","0","","","","","","","","","","","","","","","","","",""
"audio-keyboard-response","131","591251","0.0-72.0","3473","6125","9","Female","false","true","false","false","""event"",""trial"",""time""
""fullscreenenter"",""5"",""18638""
","
","
","""event"",""trial"",""time""
""fullscreenenter"",""5"",""18638""
","
","null","audio/quiz/Q2_Correct.wav","null","","","","","","","","","","","","","","","","","","",""
"instructions-quiz","132","594386","0.0-73.0","3473","6125","9","Female","false","true","false","false","""event"",""trial"",""time""
""fullscreenenter"",""5"",""18638""
","
","
","""event"",""trial"",""time""
""fullscreenenter"",""5"",""18638""
","
","3133.7999999970198","audio/quiz/Q3_Prompt.wav","","1","","","","","","","","","","","","","","","","","",""
"audio-keyboard-response","133","600185","0.0-74.0","3473","6125","9","Female","false","true","false","false","""event"",""trial"",""time""
""fullscreenenter"",""5"",""18638""
","
","
","""event"",""trial"",""time""
""fullscreenenter"",""5"",""18638""
","
","null","audio/quiz/Q3_Correct.wav","null","","","","","","","","","","","","","","","","","","",""
"d3-instructions","134","613143","0.0-75.0","3473","6125","9","Female","false","true","false","false","""event"",""trial"",""time""
""fullscreenenter"",""5"",""18638""
","
","
","""event"",""trial"",""time""
""fullscreenenter"",""5"",""18638""
","
","","","","","","","","","","","","","","","","","","","","","",""
"pavlovia","135","613145","0.0-76.0","3473","6125","9","Female","false","true","false","false","""event"",""trial"",""time""
""fullscreenenter"",""5"",""18638""
","
","
","""event"",""trial"",""time""
""fullscreenenter"",""5"",""18638""
","
","","","","","","","","","","","","","","","","","","","","","",""
"d3-animate-choice","136","615623","0.0-77.0-0.0","3473","6125","9","Female","false","true","false","false","""event"",""trial"",""time""
""fullscreenenter"",""5"",""18638""
","
","
","""event"",""trial"",""time""
""fullscreenenter"",""5"",""18638""
","
","472.6000000014901","","48","","","3000","1","479.79999999701977,664.3999999985099,767.6000000014901,887.7999999970198,993.6999999955297,1111.8999999985099,1287.6999999955297,1336.1000000014901,1504.2999999970198,1576.3999999985099,1792.2999999970198,1896.5,2040.6000000014901,2200.5","49,48,49,48,49,48,49,48,49,48,49,48,49,48","images/earth.jpg","images/rocket1","images/rocket2","null","images/rocket1","","1","real","null","2","","",""
"d3-animate-choice","137","617664","0.0-77.0-1.0","3473","6125","9","Female","false","true","false","false","""event"",""trial"",""time""
""fullscreenenter"",""5"",""18638""
","
","
","""event"",""trial"",""time""
""fullscreenenter"",""5"",""18638""
","
","34.100000001490116","","49","","","3000","1","73.39999999850988,344.70000000298023,481.80000000447035,697.3999999985099,873.6000000014901,1049.8000000044703,1202.2000000029802,1594.2000000029802,1873.5","48,49,48,49,48,49,48,48,48","images/purpleplanet.jpg","images/alien4","images/alien3","images/rocket1","images/alien3","images/nothing.png","2","real","false","1","rare","0","2023-01-30 21:07:49.396"
"two-step-fixation","138","618671","0.0-77.0-2.0","3473","6125","9","Female","false","true","false","false","""event"",""trial"",""time""
""fullscreenenter"",""5"",""18638""
","
","
","""event"",""trial"",""time""
""fullscreenenter"",""5"",""18638""
","
","","images/earth.jpg","","","","","","","","","","","","","","fixation","","","","","",""
"d3-animate-choice","139","620810","0.0-77.0-0.1","3473","6125","9","Female","false","true","false","false","""event"",""trial"",""time""
""fullscreenenter"",""5"",""18638""
","
","
","""event"",""trial"",""time""
""fullscreenenter"",""5"",""18638""
","
","128.39999999850988","","49","","","3000","1","143.29999999701977,408.5,512.5,696.6999999955297,912.8999999985099,1096.1999999955297,1273.1999999955297,1471.6000000014901,1633.1999999955297,1897,2001.1000000014901","48,49,48,49,48,49,48,49,48,49,48","images/earth.jpg","images/rocket1","images/rocket2","null","images/rocket2","","1","real","null","1","","",""
"d3-animate-choice","140","622911","0.0-77.0-1.1","3473","6125","9","Female","false","true","false","false","""event"",""trial"",""time""
""fullscreenenter"",""5"",""18638""
","
","
","""event"",""trial"",""time""
""fullscreenenter"",""5"",""18638""
","
","94.20000000298023","","49","","","3000","1","301.5,454.20000000298023,622.5,806.7000000029802,982.1000000014901,1198.2999999970198,1334.2999999970198,1566.2999999970198,1718.2000000029802,1926.7999999970198,2062.10000000149","48,49,48,49,48,49,48,49,48,49,48","images/purpleplanet.jpg","images/alien4","images/alien3","images/rocket2","images/alien3","images/nothing.png","2","real","true","1","common","0","2023-01-30 21:07:54.643"
"two-step-fixation","141","623915","0.0-77.0-2.1","3473","6125","9","Female","false","true","false","false","""event"",""trial"",""time""
""fullscreenenter"",""5"",""18638""
","
","
","""event"",""trial"",""time""
""fullscreenenter"",""5"",""18638""
","
","","images/earth.jpg","","","","","","","","","","","","","","fixation","","","","","",""
"d3-animate-choice","142","626121","0.0-77.0-0.2","3473","6125","9","Female","false","true","false","false","""event"",""trial"",""time""
""fullscreenenter"",""5"",""18638""
","
","
","""event"",""trial"",""time""
""fullscreenenter"",""5"",""18638""
","
","197.19999999552965","","49","","","3000","1","268,509.8999999985099,589.2999999970198,813.5,949.3999999985099,1116.1999999955297,1269.3999999985099,1421.1000000014901,1589.7999999970198,1757.2999999970198,1901.5,2124.6999999955297","48,49,48,49,48,49,48,49,48,49,48,49","images/earth.jpg","images/rocket1","images/rocket2","null","images/rocket2","","1","real","null","1","","",""
"d3-animate-choice","143","628159","0.0-77.0-1.2","3473","6125","9","Female","false","true","false","false","""event"",""trial"",""time""
""fullscreenenter"",""5"",""18638""
","
","
","""event"",""trial"",""time""
""fullscreenenter"",""5"",""18638""
","
","29.80000000447035","","48","","","3000","1","247.10000000149012,343.6000000014901,614.8999999985099,621.8000000044703,902.5,1134.7000000029802,1214.6000000014901,1439.2000000029802,1575.3000000044703,1751","49,48,48,49,49,49,48,49,48,49","images/purpleplanet.jpg","images/alien4","images/alien3","images/rocket2","images/alien4","images/t.png","2","real","true","2","common","1","2023-01-30 21:07:59.891"
"two-step-fixation","144","629163","0.0-77.0-2.2","3473","6125","9","Female","false","true","false","false","""event"",""trial"",""time""
""fullscreenenter"",""5"",""18638""
","
","
","""event"",""trial"",""time""
""fullscreenenter"",""5"",""18638""
","
","","images/earth.jpg","","","","","","","","","","","","","","fixation","","","","","",""
"d3-animate-choice","145","631241","0.0-77.0-0.3","3473","6125","9","Female","false","true","false","false","""event"",""trial"",""time""
""fullscreenenter"",""5"",""18638""
","
","
","""event"",""trial"",""time""
""fullscreenenter"",""5"",""18638""
","
","68.5","","48","","","3000","1","197.5,364.6000000014901,533.5,621.1000000014901,796.7000000029802,957.4000000059605,1157.4000000059605,1221.4000000059605,1469,1516.8000000044703,1748.9000000059605,2005.3000000044703,2012.4000000059605","49,48,49,48,49,48,49,48,49,48,48,48,49","images/earth.jpg","images/rocket1","images/rocket2","null","images/rocket1","","1","real","null","2","","",""
"d3-animate-choice","146","633418","0.0-77.0-1.3","3473","6125","9","Female","false","true","false","false","""event"",""trial"",""time""
""fullscreenenter"",""5"",""18638""
","
","
","""event"",""trial"",""time""
""fullscreenenter"",""5"",""18638""
","
","167","","48","","","3000","1","200.60000000149012,400,454.6000000014901,639.7000000029802,735.1000000014901,823.7000000029802,997.7000000029802,1014","49,48,49,48,49,48,48,49","images/redplanet1.jpg","images/alien2","images/alien1","images/rocket1","images/alien2","images/t.png","2","real","true","2","common","1","2023-01-30 21:08:05.150"
"two-step-fixation","147","634422","0.0-77.0-2.3","3473","6125","9","Female","false","true","false","false","""event"",""trial"",""time""
""fullscreenenter"",""5"",""18638""
","
","
","""event"",""trial"",""time""
""fullscreenenter"",""5"",""18638""
","
","","images/earth.jpg","","","","","","","","","","","","","","fixation","","","","","",""
"d3-animate-choice","148","636462","0.0-77.0-0.4","3473","6125","9","Female","false","true","false","false","""event"",""trial"",""time""
""fullscreenenter"",""5"",""18638""
","
","
","""event"",""trial"",""time""
""fullscreenenter"",""5"",""18638""
","
","34.70000000298023","","49","","","3000","1","274.70000000298023,314.6000000014901,570.5,634.6000000014901,882.7000000029802,1194.9000000059605,1490.7000000029802,1497.7000000029802,1729.8000000044703,1786.4000000059605,2034","49,48,49,48,49,49,48,49,48,49,48","images/earth.jpg","images/rocket1","images/rocket2","null","images/rocket2","","1","real","null","1","","",""
"d3-animate-choice","149","638490","0.0-77.0-1.4","3473","6125","9","Female","false","true","false","false","""event"",""trial"",""time""
""fullscreenenter"",""5"",""18638""
","
","
","""event"",""trial"",""time""
""fullscreenenter"",""5"",""18638""
","
","17.099999994039536","","49","","","3000","1","202.59999999403954,266.5,482.69999999552965,554.7999999970198,778.0999999940395,793.2999999970198,1066.6999999955297,1090.8999999985099,1315,1322,1586.6999999955297,1618.6999999955297,1843,1890.6999999955297","48,49,48,49,48,49,48,49,49,48,48,49,49,48","images/purpleplanet.jpg","images/alien4","images/alien3","images/rocket2","images/alien3","images/nothing.png","2","real","true","1","common","0","2023-01-30 21:08:10.222"
"two-step-fixation","150","639505","0.0-77.0-2.4","3473","6125","9","Female","false","true","false","false","""event"",""trial"",""time""
""fullscreenenter"",""5"",""18638""
","
","
","""event"",""trial"",""time""
""fullscreenenter"",""5"",""18638""
","
","","images/earth.jpg","","","","","","","","","","","","","","fixation","","","","","",""
"d3-animate-choice","151","641543","0.0-77.0-0.5","3473","6125","9","Female","false","true","false","false","""event"",""trial"",""time""
""fullscreenenter"",""5"",""18638""
","
","
","""event"",""trial"",""time""
""fullscreenenter"",""5"",""18638""
","
","31.30000000447035","","49","","","3000","1","230.5,351.20000000298023,478.20000000298023,742.2000000029802,847.1000000014901,1110.7000000029802,1319.5,1455.1000000014901,1622.6000000014901,1927","48,49,48,48,49,48,49,48,49,49","images/earth.jpg","images/rocket1","images/rocket2","null","images/rocket2","","1","real","null","1","","",""
"d3-animate-choice","152","643583","0.0-77.0-1.5","3473","6125","9","Female","false","true","false","false","""event"",""trial"",""time""
""fullscreenenter"",""5"",""18638""
","
","
","""event"",""trial"",""time""
""fullscreenenter"",""5"",""18638""
","
","31.69999999552965","","48","","","3000","1","175.19999999552965,318.69999999552965,519,672,855.1999999955297,1038.8999999985099,1207.2999999970198,1359.5,1559.6999999955297,1719.2999999970198,1927.7999999970198","49,48,49,48,49,48,49,48,49,48,49","images/purpleplanet.jpg","images/alien4","images/alien3","images/rocket2","images/alien4","images/t.png","2","real","true","2","common","1","2023-01-30 21:08:15.316"
"two-step-fixation","153","644594","0.0-77.0-2.5","3473","6125","9","Female","false","true","false","false","""event"",""trial"",""time""
""fullscreenenter"",""5"",""18638""
","
","
","""event"",""trial"",""time""
""fullscreenenter"",""5"",""18638""
","
","","images/earth.jpg","","","","","","","","","","","","","","fixation","","","","","",""
"d3-animate-choice","154","646689","0.0-77.0-0.6","3473","6125","9","Female","false","true","false","false","""event"",""trial"",""time""
""fullscreenenter"",""5"",""18638""
","
","
","""event"",""trial"",""time""
""fullscreenenter"",""5"",""18638""
","
","86.89999999850988","","48","","","3000","1","254.80000000447035,437.80000000447035,613.3999999985099,805.3999999985099,942.8000000044703,1142.3000000044703,1286.3999999985099,1502.7000000029802,1638.7000000029802,1814.8000000044703,1966.8000000044703","49,48,49,48,49,48,49,48,49,48,49","images/earth.jpg","images/rocket1","images/rocket2","null","images/rocket1","","1","real","null","2","","",""
"d3-animate-choice","155","648767","0.0-77.0-1.6","3473","6125","9","Female","false","true","false","false","""event"",""trial"",""time""
""fullscreenenter"",""5"",""18638""
","
","
","""event"",""trial"",""time""
""fullscreenenter"",""5"",""18638""
","
","70.20000000298023","","48","","","3000","1","230.79999999701977,417,574.5,774.1000000014901,886.7000000029802,1102.3999999985099,1190.2000000029802,1438,1558.2999999970198,1782.7000000029802,1950.2999999970198","49,48,49,48,49,48,49,48,49,48,49","images/purpleplanet.jpg","images/alien4","images/alien3","images/rocket1","images/alien4","images/nothing.png","2","real","false","2","rare","0","2023-01-30 21:08:20.499"
"two-step-fixation","156","649777","0.0-77.0-2.6","3473","6125","9","Female","false","true","false","false","""event"",""trial"",""time""
""fullscreenenter"",""5"",""18638""
","
","
","""event"",""trial"",""time""
""fullscreenenter"",""5"",""18638""
","
","","images/earth.jpg","","","","","","","","","","","","","","fixation","","","","","",""
"d3-animate-choice","157","651800","0.0-77.0-0.7","3473","6125","9","Female","false","true","false","false","""event"",""trial"",""time""
""fullscreenenter"",""5"",""18638""
","
","
","""event"",""trial"",""time""
""fullscreenenter"",""5"",""18638""
","
","13.100000001490116","","48","","","3000","1","46.600000001490116,246.89999999850988,437.79999999701977,566.2999999970198,790.3999999985099,957.7000000029802,1119.1000000014901,1278.6000000014901,1470.5,1718.6000000014901,1766.1000000014901,1982.7000000029802","49,49,48,49,48,49,48,49,48,49,48,49","images/earth.jpg","images/rocket1","images/rocket2","null","images/rocket1","","1","real","null","2","","",""
"d3-animate-choice","158","653974","0.0-77.0-1.7","3473","6125","9","Female","false","true","false","false","""event"",""trial"",""time""
""fullscreenenter"",""5"",""18638""
","
","
","""event"",""trial"",""time""
""fullscreenenter"",""5"",""18638""
","
","167","","48","","","3000","1","303.5,542.3999999985099,855.1000000014901,942.6000000014901,1223.1000000014901,1367.7000000029802,1615.2999999970198,1759.6000000014901,2015.7000000029802","49,48,49,48,49,48,49,48,49","images/purpleplanet.jpg","images/alien4","images/alien3","images/rocket1","images/alien4","images/t.png","2","real","false","2","rare","1","2023-01-30 21:08:25.706"
"two-step-fixation","159","654984","0.0-77.0-2.7","3473","6125","9","Female","false","true","false","false","""event"",""trial"",""time""
""fullscreenenter"",""5"",""18638""
","
","
","""event"",""trial"",""time""
""fullscreenenter"",""5"",""18638""
","
","","images/earth.jpg","","","","","","","","","","","","","","fixation","","","","","",""
"d3-animate-choice","160","657185","0.0-77.0-0.8","3473","6125","9","Female","false","true","false","false","""event"",""trial"",""time""
""fullscreenenter"",""5"",""18638""
","
","
","""event"",""trial"",""time""
""fullscreenenter"",""5"",""18638""
","
","191.60000000149012","","48","","","3000","1","391.1000000014901,567.7000000029802,863.9000000059605,1023.5,1287.9000000059605,1447.6000000014901,1711.7000000029802,1895.6000000014901","49,48,49,48,49,48,49,48","images/earth.jpg","images/rocket1","images/rocket2","null","images/rocket1","","1","real","null","2","","",""
"d3-animate-choice","161","659199","0.0-77.0-1.8","3473","6125","9","Female","false","true","false","false","""event"",""trial"",""time""
""fullscreenenter"",""5"",""18638""
","
","
","""event"",""trial"",""time""
""fullscreenenter"",""5"",""18638""
","
","0.20000000298023224","","49","","","3000","1","134.39999999850988,479.5,612.8999999985099,948.8000000044703,1102.5,1441.7000000029802,1566.2000000029802,1966.3000000044703","48,49,48,49,48,49,48,49","images/redplanet1.jpg","images/alien2","images/alien1","images/rocket1","images/alien1","images/t.png","2","real","true","1","common","1","2023-01-30 21:08:30.931"
"two-step-fixation","162","660207","0.0-77.0-2.8","3473","6125","9","Female","false","true","false","false","""event"",""trial"",""time""
""fullscreenenter"",""5"",""18638""
","
","
","""event"",""trial"",""time""
""fullscreenenter"",""5"",""18638""
","
","","images/earth.jpg","","","","","","","","","","","","","","fixation","","","","","",""
"d3-animate-choice","163","662359","0.0-77.0-0.9","3473","6125","9","Female","false","true","false","false","""event"",""trial"",""time""
""fullscreenenter"",""5"",""18638""
","
","
","""event"",""trial"",""time""
""fullscreenenter"",""5"",""18638""
","
","144.69999999552965","","48","","","3000","1","489.19999999552965,712.5,984.5,1232.5999999940395,1536.3999999985099,1768.5999999940395","49,48,49,48,49,48","images/earth.jpg","images/rocket1","images/rocket2","null","images/rocket1","","1","real","null","2","","",""
"d3-animate-choice","164","664393","0.0-77.0-1.9","3473","6125","9","Female","false","true","false","false","""event"",""trial"",""time""
""fullscreenenter"",""5"",""18638""
","
","
","""event"",""trial"",""time""
""fullscreenenter"",""5"",""18638""
","
","26.200000002980232","","49","","","3000","1","217.39999999850988,553.8999999985099,617.7999999970198,930.1000000014901,978,1282.2999999970198,1289.2000000029802,1601.8999999985099,1649.7000000029802,1826.6000000014901,1994.5","48,49,48,48,49,49,48,48,49,48,49","images/purpleplanet.jpg","images/alien4","images/alien3","images/rocket1","images/alien3","images/t.png","2","real","false","1","rare","1","2023-01-30 21:08:36.125"
"two-step-fixation","165","665398","0.0-77.0-2.9","3473","6125","9","Female","false","true","false","false","""event"",""trial"",""time""
""fullscreenenter"",""5"",""18638""
","
","
","""event"",""trial"",""time""
""fullscreenenter"",""5"",""18638""
","
","","images/earth.jpg","","","","","","","","","","","","","","fixation","","","","","",""
"d3-animate-choice","166","667488","0.0-77.0-0.10","3473","6125","9","Female","false","true","false","false","""event"",""trial"",""time""
""fullscreenenter"",""5"",""18638""
","
","
","""event"",""trial"",""time""
""fullscreenenter"",""5"",""18638""
","
","81.29999999701977","","48","","","3000","1","88.79999999701977,280.6000000014901,297.3999999985099,464.5,601,633.7000000029802,793.7000000029802,808.2000000029802","49,48,49,48,49,48,48,49","images/earth.jpg","images/rocket1","images/rocket2","null","images/rocket1","","1","real","null","2","","",""
"d3-animate-choice","167","669601","0.0-77.0-1.10","3473","6125","9","Female","false","true","false","false","""event"",""trial"",""time""
""fullscreenenter"",""5"",""18638""
","
","
","""event"",""trial"",""time""
""fullscreenenter"",""5"",""18638""
","
","99.5","","48","","","3000","1","103.5,302.5,438.79999999701977,512.1999999955297,807.8999999985099,832.5","49,49,48,49,49,48","images/redplanet1.jpg","images/alien2","images/alien1","images/rocket1","images/alien2","images/t.png","2","real","true","2","common","1","2023-01-30 21:08:41.333"
"two-step-fixation","168","670607","0.0-77.0-2.10","3473","6125","9","Female","false","true","false","false","""event"",""trial"",""time""
""fullscreenenter"",""5"",""18638""
","
","
","""event"",""trial"",""time""
""fullscreenenter"",""5"",""18638""
","
","","images/earth.jpg","","","","","","","","","","","","","","fixation","","","","","",""
"d3-animate-choice","169","672734","0.0-77.0-0.11","3473","6125","9","Female","false","true","false","false","""event"",""trial"",""time""
""fullscreenenter"",""5"",""18638""
","
","
","""event"",""trial"",""time""
""fullscreenenter"",""5"",""18638""
","
","121","","49","","","3000","1","168.39999999850988,320.8999999985099,392.19999999552965,496.79999999701977,577,720.7999999970198,809","48,48,49,48,49,48,49","images/earth.jpg","images/rocket1","images/rocket2","null","images/rocket2","","1","real","null","1","","",""
"d3-animate-choice","170","674889","0.0-77.0-1.11","3473","6125","9","Female","false","true","false","false","""event"",""trial"",""time""
""fullscreenenter"",""5"",""18638""
","
","
","""event"",""trial"",""time""
""fullscreenenter"",""5"",""18638""
","
","140.30000000447035","","48","","","3000","1","153.40000000596046,353.1000000014901,369.30000000447035,545.3000000044703,569.7000000029802,753.4000000059605,824.3000000044703,1097.5,1104.4000000059605,1313.2000000029802,1330.3000000044703,1513.3000000044703,1593.3000000044703,1673.4000000059605,1762.1000000014901,2121.3000000044703","49,48,49,48,49,48,49,48,49,49,48,48,49,48,49,49","images/purpleplanet.jpg","images/alien4","images/alien3","images/rocket2","images/alien4","images/nothing.png","2","real","true","2","common","0","2023-01-30 21:08:46.622"
"two-step-fixation","171","675894","0.0-77.0-2.11","3473","6125","9","Female","false","true","false","false","""event"",""trial"",""time""
""fullscreenenter"",""5"",""18638""
","
","
","""event"",""trial"",""time""
""fullscreenenter"",""5"",""18638""
","
","","images/earth.jpg","","","","","","","","","","","","","","fixation","","","","","",""
"d3-animate-choice","172","678018","0.0-77.0-0.12","3473","6125","9","Female","false","true","false","false","""event"",""trial"",""time""
""fullscreenenter"",""5"",""18638""
","
","
","""event"",""trial"",""time""
""fullscreenenter"",""5"",""18638""
","
","113.70000000298023","","48","","","3000","1","152.70000000298023,314,434.1000000014901,513.7999999970198,698,705.1000000014901,874.2999999970198,978,1122.1000000014901,1274,1297.7999999970198,1513.7999999970198,1538.1000000014901,1721.7000000029802,1770.2000000029802,1986,2050.2000000029802","49,48,49,48,48,49,48,49,48,49,48,49,48,48,49,48,49","images/earth.jpg","images/rocket1","images/rocket2","null","images/rocket1","","1","real","null","2","","",""
"d3-animate-choice","173","680195","0.0-77.0-1.12","3473","6125","9","Female","false","true","false","false","""event"",""trial"",""time""
""fullscreenenter"",""5"",""18638""
","
","
","""event"",""trial"",""time""
""fullscreenenter"",""5"",""18638""
","
","165.20000000298023","","48","","","3000","1","213.20000000298023,443.80000000447035,502.5,724.3000000044703,756.8000000044703,965.3000000044703,1061.2000000029802,1285.3999999985099,1316.8000000044703,1501,1581.6000000014901,1781.2000000029802,1853.3999999985099,2093,2108.39999999851","49,48,49,48,49,48,49,48,49,48,49,48,49,48,49","images/redplanet1.jpg","images/alien2","images/alien1","images/rocket1","images/alien2","images/nothing.png","2","real","true","2","common","0","2023-01-30 21:08:51.927"
"two-step-fixation","174","681199","0.0-77.0-2.12","3473","6125","9","Female","false","true","false","false","""event"",""trial"",""time""
""fullscreenenter"",""5"",""18638""
","
","
","""event"",""trial"",""time""
""fullscreenenter"",""5"",""18638""
","
","","images/earth.jpg","","","","","","","","","","","","","","fixation","","","","","",""
"d3-animate-choice","175","683359","0.0-77.0-0.13","3473","6125","9","Female","false","true","false","false","""event"",""trial"",""time""
""fullscreenenter"",""5"",""18638""
","
","
","""event"",""trial"",""time""
""fullscreenenter"",""5"",""18638""
","
","150.5","","48","","","3000","1","262.79999999701977,432.19999999552965,712.5,808.5,1040.5,1312.5,1560.6999999955297,1928.6000000014901,1935.6000000014901","49,48,49,48,48,48,49,48,49","images/earth.jpg","images/rocket1","images/rocket2","null","images/rocket1","","1","real","null","2","","",""
"d3-animate-choice","176","685414","0.0-77.0-1.13","3473","6125","9","Female","false","true","false","false","""event"",""trial"",""time""
""fullscreenenter"",""5"",""18638""
","
","
","""event"",""trial"",""time""
""fullscreenenter"",""5"",""18638""
","
","48.600000001490116","","48","","","3000","1","472.20000000298023,736.6000000014901,840.7999999970198,1160.6000000014901,1272.2999999970198,1543.7999999970198,2000.1000000014901","49,48,49,48,49,49,49","images/purpleplanet.jpg","images/alien4","images/alien3","images/rocket1","images/alien4","images/t.png","2","real","false","2","rare","1","2023-01-30 21:08:57.146"
"two-step-fixation","177","686424","0.0-77.0-2.13","3473","6125","9","Female","false","true","false","false","""event"",""trial"",""time""
""fullscreenenter"",""5"",""18638""
","
","
","""event"",""trial"",""time""
""fullscreenenter"",""5"",""18638""
","
","","images/earth.jpg","","","","","","","","","","","","","","fixation","","","","","",""
"d3-animate-choice","178","688630","0.0-77.0-0.14","3473","6125","9","Female","false","true","false","false","""event"",""trial"",""time""
""fullscreenenter"",""5"",""18638""
","
","
","""event"",""trial"",""time""
""fullscreenenter"",""5"",""18638""
","
","201","","49","","","3000","1","202.20000000298023,672.2000000029802,696.5","48,49,48","images/earth.jpg","images/rocket1","images/rocket2","null","images/rocket2","","1","real","null","1","","",""
"d3-animate-choice","179","691446","0.0-77.0-1.14","3473","6125","9","Female","false","true","false","false","""event"",""trial"",""time""
""fullscreenenter"",""5"",""18638""
","
","
","""event"",""trial"",""time""
""fullscreenenter"",""5"",""18638""
","
","804.5","","48","","","3000","1","","","images/purpleplanet.jpg","images/alien4","images/alien3","images/rocket2","images/alien4","images/t.png","2","real","true","2","common","1","2023-01-30 21:09:03.179"
"two-step-fixation","180","692453","0.0-77.0-2.14","3473","6125","9","Female","false","true","false","false","""event"",""trial"",""time""
""fullscreenenter"",""5"",""18638""
","
","
","""event"",""trial"",""time""
""fullscreenenter"",""5"",""18638""
","
","","images/earth.jpg","","","","","","","","","","","","","","fixation","","","","","",""
"d3-animate-choice","181","695027","0.0-77.0-0.15","3473","6125","9","Female","false","true","false","false","""event"",""trial"",""time""
""fullscreenenter"",""5"",""18638""
","
","
","""event"",""trial"",""time""
""fullscreenenter"",""5"",""18638""
","
","563.7999999970198","","49","","","3000","1","570.8999999985099","48","images/earth.jpg","images/rocket1","images/rocket2","null","images/rocket2","","1","real","null","1","","",""
"d3-animate-choice","182","698063","0.0-77.0-1.15","3473","6125","9","Female","false","true","false","false","""event"",""trial"",""time""
""fullscreenenter"",""5"",""18638""
","
","
","""event"",""trial"",""time""
""fullscreenenter"",""5"",""18638""
","
","1031","","49","","","3000","1","","","images/redplanet1.jpg","images/alien2","images/alien1","images/rocket2","images/alien1","images/nothing.png","2","real","false","1","rare","0","2023-01-30 21:09:09.795"
"two-step-fixation","183","699070","0.0-77.0-2.15","3473","6125","9","Female","false","true","false","false","""event"",""trial"",""time""
""fullscreenenter"",""5"",""18638""
","
","
","""event"",""trial"",""time""
""fullscreenenter"",""5"",""18638""
","
","","images/earth.jpg","","","","","","","","","","","","","","fixation","","","","","",""
"d3-animate-choice","184","701986","0.0-77.0-0.16","3473","6125","9","Female","false","true","false","false","""event"",""trial"",""time""
""fullscreenenter"",""5"",""18638""
","
","
","""event"",""trial"",""time""
""fullscreenenter"",""5"",""18638""
","
","902.5","","49","","","3000","1","903.5","48","images/earth.jpg","images/rocket1","images/rocket2","null","images/rocket2","","1","real","null","1","","",""
"d3-animate-choice","185","704581","0.0-77.0-1.16","3473","6125","9","Female","false","true","false","false","""event"",""trial"",""time""
""fullscreenenter"",""5"",""18638""
","
","
","""event"",""trial"",""time""
""fullscreenenter"",""5"",""18638""
","
","585.2000000029802","","48","","","3000","1","","","images/purpleplanet.jpg","images/alien4","images/alien3","images/rocket2","images/alien4","images/t.png","2","real","true","2","common","1","2023-01-30 21:09:16.314"
"two-step-fixation","186","705592","0.0-77.0-2.16","3473","6125","9","Female","false","true","false","false","""event"",""trial"",""time""
""fullscreenenter"",""5"",""18638""
","
","
","""event"",""trial"",""time""
""fullscreenenter"",""5"",""18638""
","
","","images/earth.jpg","","","","","","","","","","","","","","fixation","","","","","",""
"d3-animate-choice","187","708006","0.0-77.0-0.17","3473","6125","9","Female","false","true","false","false","""event"",""trial"",""time""
""fullscreenenter"",""5"",""18638""
","
","
","""event"",""trial"",""time""
""fullscreenenter"",""5"",""18638""
","
","401.8999999985099","","49","","","3000","1","403.29999999701977","48","images/earth.jpg","images/rocket1","images/rocket2","null","images/rocket2","","1","real","null","1","","",""
"d3-animate-choice","188","711089","0.0-77.0-1.17","3473","6125","9","Female","false","true","false","false","""event"",""trial"",""time""
""fullscreenenter"",""5"",""18638""
","
","
","""event"",""trial"",""time""
""fullscreenenter"",""5"",""18638""
","
","1077.6000000014901","","48","","","3000","1","","","images/purpleplanet.jpg","images/alien4","images/alien3","images/rocket2","images/alien4","images/nothing.png","2","real","true","2","common","0","2023-01-30 21:09:22.821"
"two-step-fixation","189","712094","0.0-77.0-2.17","3473","6125","9","Female","false","true","false","false","""event"",""trial"",""time""
""fullscreenenter"",""5"",""18638""
","
","
","""event"",""trial"",""time""
""fullscreenenter"",""5"",""18638""
","
","","images/earth.jpg","","","","","","","","","","","","","","fixation","","","","","",""
"d3-animate-choice","190","715181","0.0-77.0-0.18","3473","6125","9","Female","false","true","false","false","""event"",""trial"",""time""
""fullscreenenter"",""5"",""18638""
","
","
","""event"",""trial"",""time""
""fullscreenenter"",""5"",""18638""
","
","1075.2999999970198","","48","","","3000","1","1082.7000000029802","49","images/earth.jpg","images/rocket1","images/rocket2","null","images/rocket1","","1","real","null","2","","",""
"d3-animate-choice","191","718879","0.0-77.0-1.18","3473","6125","9","Female","false","true","false","false","""event"",""trial"",""time""
""fullscreenenter"",""5"",""18638""
","
","
","""event"",""trial"",""time""
""fullscreenenter"",""5"",""18638""
","
","1688.3000000044703","","48","","","3000","1","","","images/redplanet1.jpg","images/alien2","images/alien1","images/rocket1","images/alien2","images/nothing.png","2","real","true","2","common","0","2023-01-30 21:09:30.611"
"two-step-fixation","192","719886","0.0-77.0-2.18","3473","6125","9","Female","false","true","false","false","""event"",""trial"",""time""
""fullscreenenter"",""5"",""18638""
","
","
","""event"",""trial"",""time""
""fullscreenenter"",""5"",""18638""
","
","","images/earth.jpg","","","","","","","","","","","","","","fixation","","","","","",""
"d3-animate-choice","193","722337","0.0-77.0-0.19","3473","6125","9","Female","false","true","false","false","""event"",""trial"",""time""
""fullscreenenter"",""5"",""18638""
","
","
","""event"",""trial"",""time""
""fullscreenenter"",""5"",""18638""
","
","436.5","","49","","","3000","1","443.29999999701977","48","images/earth.jpg","images/rocket1","images/rocket2","null","images/rocket2","","1","real","null","1","","",""
"d3-animate-choice","194","725204","0.0-77.0-1.19","3473","6125","9","Female","false","true","false","false","""event"",""trial"",""time""
""fullscreenenter"",""5"",""18638""
","
","
","""event"",""trial"",""time""
""fullscreenenter"",""5"",""18638""
","
","860.2000000029802","","49","","","3000","1","","","images/purpleplanet.jpg","images/alien4","images/alien3","images/rocket2","images/alien3","images/nothing.png","2","real","true","1","common","0","2023-01-30 21:09:36.936"
"two-step-fixation","195","726213","0.0-77.0-2.19","3473","6125","9","Female","false","true","false","false","""event"",""trial"",""time""
""fullscreenenter"",""5"",""18638""
","
","
","""event"",""trial"",""time""
""fullscreenenter"",""5"",""18638""
","
","","images/earth.jpg","","","","","","","","","","","","","","fixation","","","","","",""
"d3-animate-choice","196","728434","0.0-77.0-0.20","3473","6125","9","Female","false","true","false","false","""event"",""trial"",""time""
""fullscreenenter"",""5"",""18638""
","
","
","""event"",""trial"",""time""
""fullscreenenter"",""5"",""18638""
","
","205.5","","49","","","3000","1","206.79999999701977","48","images/earth.jpg","images/rocket1","images/rocket2","null","images/rocket2","","1","real","null","1","","",""
"d3-animate-choice","197","730878","0.0-77.0-1.20","3473","6125","9","Female","false","true","false","false","""event"",""trial"",""time""
""fullscreenenter"",""5"",""18638""
","
","
","""event"",""trial"",""time""
""fullscreenenter"",""5"",""18638""
","
","435","","49","","","3000","1","","","images/purpleplanet.jpg","images/alien4","images/alien3","images/rocket2","images/alien3","images/nothing.png","2","real","true","1","common","0","2023-01-30 21:09:42.610"
"two-step-fixation","198","731888","0.0-77.0-2.20","3473","6125","9","Female","false","true","false","false","""event"",""trial"",""time""
""fullscreenenter"",""5"",""18638""
","
","
","""event"",""trial"",""time""
""fullscreenenter"",""5"",""18638""
","
","","images/earth.jpg","","","","","","","","","","","","","","fixation","","","","","",""
"d3-animate-choice","199","734390","0.0-77.0-0.21","3473","6125","9","Female","false","true","false","false","""event"",""trial"",""time""
""fullscreenenter"",""5"",""18638""
","
","
","""event"",""trial"",""time""
""fullscreenenter"",""5"",""18638""
","
","490.20000000298023","","49","","","3000","1","532.2000000029802","48","images/earth.jpg","images/rocket1","images/rocket2","null","images/rocket2","","1","real","null","1","","",""
"d3-animate-choice","200","736933","0.0-77.0-1.21","3473","6125","9","Female","false","true","false","false","""event"",""trial"",""time""
""fullscreenenter"",""5"",""18638""
","
","
","""event"",""trial"",""time""
""fullscreenenter"",""5"",""18638""
","
","534.3000000044703","","48","","","3000","1","","","images/purpleplanet.jpg","images/alien4","images/alien3","images/rocket2","images/alien4","images/t.png","2","real","true","2","common","1","2023-01-30 21:09:48.665"
"two-step-fixation","201","737942","0.0-77.0-2.21","3473","6125","9","Female","false","true","false","false","""event"",""trial"",""time""
""fullscreenenter"",""5"",""18638""
","
","
","""event"",""trial"",""time""
""fullscreenenter"",""5"",""18638""
","
","","images/earth.jpg","","","","","","","","","","","","","","fixation","","","","","",""
"d3-animate-choice","202","740264","0.0-77.0-0.22","3473","6125","9","Female","false","true","false","false","""event"",""trial"",""time""
""fullscreenenter"",""5"",""18638""
","
","
","""event"",""trial"",""time""
""fullscreenenter"",""5"",""18638""
","
","310.20000000298023","","49","","","3000","1","330.6000000014901","48","images/earth.jpg","images/rocket1","images/rocket2","null","images/rocket2","","1","real","null","1","","",""
"d3-animate-choice","203","742841","0.0-77.0-1.22","3473","6125","9","Female","false","true","false","false","""event"",""trial"",""time""
""fullscreenenter"",""5"",""18638""
","
","
","""event"",""trial"",""time""
""fullscreenenter"",""5"",""18638""
","
","563.7999999970198","","48","","","3000","1","","","images/purpleplanet.jpg","images/alien4","images/alien3","images/rocket2","images/alien4","images/nothing.png","2","real","true","2","common","0","2023-01-30 21:09:54.573"
"two-step-fixation","204","743858","0.0-77.0-2.22","3473","6125","9","Female","false","true","false","false","""event"",""trial"",""time""
""fullscreenenter"",""5"",""18638""
","
","
","""event"",""trial"",""time""
""fullscreenenter"",""5"",""18638""
","
","","images/earth.jpg","","","","","","","","","","","","","","fixation","","","","","",""
"d3-animate-choice","205","746215","0.0-77.0-0.23","3473","6125","9","Female","false","true","false","false","""event"",""trial"",""time""
""fullscreenenter"",""5"",""18638""
","
","
","""event"",""trial"",""time""
""fullscreenenter"",""5"",""18638""
","
","344.30000000447035","","48","","","3000","1","352","49","images/earth.jpg","images/rocket1","images/rocket2","null","images/rocket1","","1","real","null","2","","",""
"d3-animate-choice","206","748937","0.0-77.0-1.23","3473","6125","9","Female","false","true","false","false","""event"",""trial"",""time""
""fullscreenenter"",""5"",""18638""
","
","
","""event"",""trial"",""time""
""fullscreenenter"",""5"",""18638""
","
","710.7000000029802","","48","","","3000","1","","","images/redplanet1.jpg","images/alien2","images/alien1","images/rocket1","images/alien2","images/t.png","2","real","true","2","common","1","2023-01-30 21:10:00.669"
"two-step-fixation","207","749941","0.0-77.0-2.23","3473","6125","9","Female","false","true","false","false","""event"",""trial"",""time""
""fullscreenenter"",""5"",""18638""
","
","
","""event"",""trial"",""time""
""fullscreenenter"",""5"",""18638""
","
","","images/earth.jpg","","","","","","","","","","","","","","fixation","","","","","",""
"d3-animate-choice","208","752332","0.0-77.0-0.24","3473","6125","9","Female","false","true","false","false","""event"",""trial"",""time""
""fullscreenenter"",""5"",""18638""
","
","
","""event"",""trial"",""time""
""fullscreenenter"",""5"",""18638""
","
","381.5","","48","","","3000","1","389.20000000298023","49","images/earth.jpg","images/rocket1","images/rocket2","null","images/rocket1","","1","real","null","2","","",""
"d3-animate-choice","209","754741","0.0-77.0-1.24","3473","6125","9","Female","false","true","false","false","""event"",""trial"",""time""
""fullscreenenter"",""5"",""18638""
","
","
","""event"",""trial"",""time""
""fullscreenenter"",""5"",""18638""
","
","401.20000000298023","","48","","","3000","1","","","images/redplanet1.jpg","images/alien2","images/alien1","images/rocket1","images/alien2","images/t.png","2","real","true","2","common","1","2023-01-30 21:10:06.474"
"two-step-fixation","210","755752","0.0-77.0-2.24","3473","6125","9","Female","false","true","false","false","""event"",""trial"",""time""
""fullscreenenter"",""5"",""18638""
","
","
","""event"",""trial"",""time""
""fullscreenenter"",""5"",""18638""
","
","","images/earth.jpg","","","","","","","","","","","","","","fixation","","","","","",""
"d3-animate-choice","211","758085","0.0-77.0-0.25","3473","6125","9","Female","false","true","false","false","""event"",""trial"",""time""
""fullscreenenter"",""5"",""18638""
","
","
","""event"",""trial"",""time""
""fullscreenenter"",""5"",""18638""
","
","322.3999999985099","","48","","","3000","1","328.6000000014901,1796.3000000044703,2042.3000000044703,2265.89999999851","49,48,48,48","images/earth.jpg","images/rocket1","images/rocket2","null","images/rocket1","","1","real","null","2","","",""
"d3-animate-choice","212","760228","0.0-77.0-1.25","3473","6125","9","Female","false","true","false","false","""event"",""trial"",""time""
""fullscreenenter"",""5"",""18638""
","
","
","""event"",""trial"",""time""
""fullscreenenter"",""5"",""18638""
","
","134.39999999850988","","48","","","3000","1","342.29999999701977,558,790.3999999985099,957.6000000014901,1358.2999999970198,1550.5,1758.6000000014901,1974.2999999970198","48,48,48,48,48,48,48,48","images/redplanet1.jpg","images/alien2","images/alien1","images/rocket1","images/alien2","images/t.png","2","real","true","2","common","1","2023-01-30 21:10:11.960"
"two-step-fixation","213","761237","0.0-77.0-2.25","3473","6125","9","Female","false","true","false","false","""event"",""trial"",""time""
""fullscreenenter"",""5"",""18638""
","
","
","""event"",""trial"",""time""
""fullscreenenter"",""5"",""18638""
","
","","images/earth.jpg","","","","","","","","","","","","","","fixation","","","","","",""
"d3-animate-choice","214","763385","0.0-77.0-0.26","3473","6125","9","Female","false","true","false","false","""event"",""trial"",""time""
""fullscreenenter"",""5"",""18638""
","
","
","""event"",""trial"",""time""
""fullscreenenter"",""5"",""18638""
","
","132.79999999701977","","48","","","3000","1","348.79999999701977,556.8999999985099,756.5,1004.1999999955297,1245.1999999955297,1500.3999999985099,1740.6000000014901,1931.8999999985099","48,48,48,48,48,48,48,48","images/earth.jpg","images/rocket1","images/rocket2","null","images/rocket1","","1","real","null","2","","",""
"d3-animate-choice","215","765399","0.0-77.0-1.26","3473","6125","9","Female","false","true","false","false","""event"",""trial"",""time""
""fullscreenenter"",""5"",""18638""
","
","
","""event"",""trial"",""time""
""fullscreenenter"",""5"",""18638""
","
