"trial_type","trial_index","time_elapsed","internal_node_id","participant_id","subject_id","age","gender","rocket_sides","red_planet_first_rocket","red_display_order","purple_display_order","interactions","blur_events","focus_events","fullscreenenter_events","fullscreenexit_events","rt","stimulus","key_press","button_pressed","success","duration","valid_pressed","rts","keys","planet_text","right_text","left_text","center_text","chosen_text","reward_text","trial_stage","practice_trial","transition_type","choice","transition","reward","timestamp"
"pavlovia","0","10","0.0-0.0","260","685","17","Male","true","true","true","false","
","
","
","
","
","","","","","","","","","","","","","","","","","","","","","",""
"html-keyboard-response","1","5679","0.0-1.0","260","685","17","Male","true","true","true","false","
","
","
","
","
","5666.5999999940395","Welcome! Press the space bar to begin.","32","","","","","","","","","","","","","","","","","","",""
"audio-keyboard-response","2","14139","0.0-2.0","260","685","17","Male","true","true","true","false","
","
","
","
","
","8395","audio/beep_loop.wav","32","","","","","","","","","","","","","","","","","","",""
"audio-button-response","3","19006","0.0-3.0","260","685","17","Male","true","true","true","false","
","
","
","
","
","NaN","audio/fish.mp3","","1","","","","","","","","","","","","","","","","","",""
"audio-button-response","4","22038","0.0-4.0","260","685","17","Male","true","true","true","false","""event"",""trial"",""time""
""fullscreenenter"",""5"",""30646""
","
","
","""event"",""trial"",""time""
""fullscreenenter"",""5"",""30646""
","
","NaN","audio/tiger.mp3","","4","","","","","","","","","","","","","","","","","",""
"fullscreen","5","31633","0.0-5.0","260","685","17","Male","true","true","true","false","""event"",""trial"",""time""
""fullscreenenter"",""5"",""30646""
","
","
","""event"",""trial"",""time""
""fullscreenenter"",""5"",""30646""
","
","","","","","true","","","","","","","","","","","","","","","","",""
"d3-instructions","6","44427","0.0-6.0","260","685","17","Male","true","true","true","false","""event"",""trial"",""time""
""fullscreenenter"",""5"",""30646""
","
","
","""event"",""trial"",""time""
""fullscreenenter"",""5"",""30646""
","
","","","","","","","","","","","","","","","","","","","","","",""
"d3-instructions","7","54322","0.0-7.0","260","685","17","Male","true","true","true","false","""event"",""trial"",""time""
""fullscreenenter"",""5"",""30646""
","
","
","""event"",""trial"",""time""
""fullscreenenter"",""5"",""30646""
","
","","","","","","","","","","","","","","","","","","","","","",""
"d3-instructions","8","61016","0.0-8.0","260","685","17","Male","true","true","true","false","""event"",""trial"",""time""
""fullscreenenter"",""5"",""30646""
","
","
","""event"",""trial"",""time""
""fullscreenenter"",""5"",""30646""
","
","","","","","","","","","","","","","","","","","","","","","",""
"d3-instructions","9","71805","0.0-9.0","260","685","17","Male","true","true","true","false","""event"",""trial"",""time""
""fullscreenenter"",""5"",""30646""
","
","
","""event"",""trial"",""time""
""fullscreenenter"",""5"",""30646""
","
","","","","","","","","","","","","","","","","","","","","","",""
"d3-instructions","10","90960","0.0-10.0","260","685","17","Male","true","true","true","false","""event"",""trial"",""time""
""fullscreenenter"",""5"",""30646""
","
","
","""event"",""trial"",""time""
""fullscreenenter"",""5"",""30646""
","
","","","","","","","","","","","","","","","","","","","","","",""
"d3-animate-choice","11","94872","0.0-11.0","260","685","17","Male","true","true","true","false","""event"",""trial"",""time""
""fullscreenenter"",""5"",""30646""
","
","
","""event"",""trial"",""time""
""fullscreenenter"",""5"",""30646""
","
","1900.5999999940395","","49","","","3000","1","3885.7000000178814","48","images/tutgreenplanet.jpg","images/tutalien1","images/tutalien2","null","images/tutalien2","","NA","practice","null","","","",""
"d3-animate-choice","12","97825","0.0-12.0","260","685","17","Male","true","true","true","false","""event"",""trial"",""time""
""fullscreenenter"",""5"",""30646""
","
","
","""event"",""trial"",""time""
""fullscreenenter"",""5"",""30646""
","
","947.8999999761581","","48","","","3000","1","","","images/tutgreenplanet.jpg","images/tutalien1","images/tutalien2","null","images/tutalien1","","NA","practice","null","","","",""
"d3-animate-choice","13","100688","0.0-13.0","260","685","17","Male","true","true","true","false","""event"",""trial"",""time""
""fullscreenenter"",""5"",""30646""
","
","
","""event"",""trial"",""time""
""fullscreenenter"",""5"",""30646""
","
","855.7999999821186","","49","","","3000","1","1400,1700.699999988079,1881.9000000059605,1968.199999988079,2121,2235,2323.5999999940395,2520.2999999821186,2722.7999999821186","48,49,48,49,48,49,48,48,48","images/tutgreenplanet.jpg","images/tutalien1","images/tutalien2","null","images/tutalien2","","NA","practice","null","","","",""
"d3-animate-choice","14","102747","0.0-14.0","260","685","17","Male","true","true","true","false","""event"",""trial"",""time""
""fullscreenenter"",""5"",""30646""
","
","
","""event"",""trial"",""time""
""fullscreenenter"",""5"",""30646""
","
","51.599999994039536","","48","","","3000","1","233","48","images/tutgreenplanet.jpg","images/tutalien1","images/tutalien2","null","images/tutalien1","","NA","practice","null","","","",""
"d3-instructions","15","109104","0.0-15.0","260","685","17","Male","true","true","true","false","""event"",""trial"",""time""
""fullscreenenter"",""5"",""30646""
","
","
","""event"",""trial"",""time""
""fullscreenenter"",""5"",""30646""
","
","","","","","","","","","","","","","","","","","","","","","",""
"d3-instructions","16","116652","0.0-16.0","260","685","17","Male","true","true","true","false","""event"",""trial"",""time""
""fullscreenenter"",""5"",""30646""
","
","
","""event"",""trial"",""time""
""fullscreenenter"",""5"",""30646""
","
","","","","","","","","","","","","","","","","","","","","","",""
"d3-instructions","17","126068","0.0-17.0","260","685","17","Male","true","true","true","false","""event"",""trial"",""time""
""fullscreenenter"",""5"",""30646""
","
","
","""event"",""trial"",""time""
""fullscreenenter"",""5"",""30646""
","
","","","","","","","","","","","","","","","","","","","","","",""
"d3-instructions","18","140268","0.0-18.0","260","685","17","Male","true","true","true","false","""event"",""trial"",""time""
""fullscreenenter"",""5"",""30646""
","
","
","""event"",""trial"",""time""
""fullscreenenter"",""5"",""30646""
","
","","","","","","","","","","","","","","","","","","","","","",""
"d3-instructions","19","149702","0.0-19.0","260","685","17","Male","true","true","true","false","""event"",""trial"",""time""
""fullscreenenter"",""5"",""30646""
","
","
","""event"",""trial"",""time""
""fullscreenenter"",""5"",""30646""
","
","","","","","","","","","","","","","","","","","","","","","",""
"d3-animate-choice","20","155441","0.0-20.0","260","685","17","Male","true","true","true","false","""event"",""trial"",""time""
""fullscreenenter"",""5"",""30646""
","
","
","""event"",""trial"",""time""
""fullscreenenter"",""5"",""30646""
","
","3732.600000023842","","49","","","3000","1","","","images/tutyellowplanet.jpg","null","images/tutalien3","null","images/tutalien3","images/nothing.png","NA","practice","null","","","",""
"d3-animate-choice","21","157827","0.0-21.0","260","685","17","Male","true","true","true","false","""event"",""trial"",""time""
""fullscreenenter"",""5"",""30646""
","
","
","""event"",""trial"",""time""
""fullscreenenter"",""5"",""30646""
","
","380.59999999403954","","49","","","3000","1","","","images/tutyellowplanet.jpg","null","images/tutalien3","null","images/tutalien3","images/t.png","NA","practice","null","","","",""
"d3-animate-choice","22","159982","0.0-22.0","260","685","17","Male","true","true","true","false","""event"",""trial"",""time""
""fullscreenenter"",""5"",""30646""
","
","
","""event"",""trial"",""time""
""fullscreenenter"",""5"",""30646""
","
","148.59999999403954","","49","","","3000","1","1596.9000000059605","49","images/tutyellowplanet.jpg","null","images/tutalien3","null","images/tutalien3","images/t.png","NA","practice","null","","","",""
"d3-animate-choice","23","162661","0.0-23.0","260","685","17","Male","true","true","true","false","""event"",""trial"",""time""
""fullscreenenter"",""5"",""30646""
","
","
","""event"",""trial"",""time""
""fullscreenenter"",""5"",""30646""
","
","672.9000000059605","","49","","","3000","1","","","images/tutyellowplanet.jpg","null","images/tutalien3","null","images/tutalien3","images/t.png","NA","practice","null","","","",""
"d3-animate-choice","24","165048","0.0-24.0","260","685","17","Male","true","true","true","false","""event"",""trial"",""time""
""fullscreenenter"",""5"",""30646""
","
","
","""event"",""trial"",""time""
""fullscreenenter"",""5"",""30646""
","
","380.09999999403954","","49","","","3000","1","","","images/tutyellowplanet.jpg","null","images/tutalien3","null","images/tutalien3","images/nothing.png","NA","practice","null","","","",""
"d3-animate-choice","25","167346","0.0-25.0","260","685","17","Male","true","true","true","false","""event"",""trial"",""time""
""fullscreenenter"",""5"",""30646""
","
","
","""event"",""trial"",""time""
""fullscreenenter"",""5"",""30646""
","
","292.19999998807907","","49","","","3000","1","","","images/tutyellowplanet.jpg","null","images/tutalien3","null","images/tutalien3","images/t.png","NA","practice","null","","","",""
"d3-animate-choice","26","169767","0.0-26.0","260","685","17","Male","true","true","true","false","""event"",""trial"",""time""
""fullscreenenter"",""5"",""30646""
","
","
","""event"",""trial"",""time""
""fullscreenenter"",""5"",""30646""
","
","415.19999998807907","","49","","","3000","1","","","images/tutyellowplanet.jpg","null","images/tutalien3","null","images/tutalien3","images/t.png","NA","practice","null","","","",""
"d3-animate-choice","27","172110","0.0-27.0","260","685","17","Male","true","true","true","false","""event"",""trial"",""time""
""fullscreenenter"",""5"",""30646""
","
","
","""event"",""trial"",""time""
""fullscreenenter"",""5"",""30646""
","
","338.09999999403954","","49","","","3000","1","","","images/tutyellowplanet.jpg","null","images/tutalien3","null","images/tutalien3","images/t.png","NA","practice","null","","","",""
"d3-animate-choice","28","174447","0.0-28.0","260","685","17","Male","true","true","true","false","""event"",""trial"",""time""
""fullscreenenter"",""5"",""30646""
","
","
","""event"",""trial"",""time""
""fullscreenenter"",""5"",""30646""
","
","330.5","","49","","","3000","1","1849,2304.9000000059605","49,49","images/tutyellowplanet.jpg","null","images/tutalien3","null","images/tutalien3","images/t.png","NA","practice","null","","","",""
"d3-animate-choice","29","176877","0.0-29.0","260","685","17","Male","true","true","true","false","""event"",""trial"",""time""
""fullscreenenter"",""5"",""30646""
","
","
","""event"",""trial"",""time""
""fullscreenenter"",""5"",""30646""
","
","422","","49","","","3000","1","","","images/tutyellowplanet.jpg","null","images/tutalien3","null","images/tutalien3","images/t.png","NA","practice","null","","","",""
"d3-instructions","30","183487","0.0-30.0","260","685","17","Male","true","true","true","false","""event"",""trial"",""time""
""fullscreenenter"",""5"",""30646""
","
","
","""event"",""trial"",""time""
""fullscreenenter"",""5"",""30646""
","
","","","","","","","","","","","","","","","","","","","","","",""
"d3-instructions","31","193696","0.0-31.0","260","685","17","Male","true","true","true","false","""event"",""trial"",""time""
""fullscreenenter"",""5"",""30646""
","
","
","""event"",""trial"",""time""
""fullscreenenter"",""5"",""30646""
","
","","","","","","","","","","","","","","","","","","","","","",""
"d3-instructions","32","200636","0.0-32.0","260","685","17","Male","true","true","true","false","""event"",""trial"",""time""
""fullscreenenter"",""5"",""30646""
","
","
","""event"",""trial"",""time""
""fullscreenenter"",""5"",""30646""
","
","","","","","","","","","","","","","","","","","","","","","",""
"d3-instructions","33","218859","0.0-33.0","260","685","17","Male","true","true","true","false","""event"",""trial"",""time""
""fullscreenenter"",""5"",""30646""
","
","
","""event"",""trial"",""time""
""fullscreenenter"",""5"",""30646""
","
","","","","","","","","","","","","","","","","","","","","","",""
"d3-animate-choice","34","221843","0.0-34.0","260","685","17","Male","true","true","true","false","""event"",""trial"",""time""
""fullscreenenter"",""5"",""30646""
","
","
","""event"",""trial"",""time""
""fullscreenenter"",""5"",""30646""
","
","977.5","","49","","","3000","1","","","images/tutgreenplanet.jpg","images/tutalien1","images/tutalien2","null","images/tutalien2","images/t.png","NA","practice","null","","","",""
"d3-animate-choice","35","224154","0.0-35.0","260","685","17","Male","true","true","true","false","""event"",""trial"",""time""
""fullscreenenter"",""5"",""30646""
","
","
","""event"",""trial"",""time""
""fullscreenenter"",""5"",""30646""
","
","304.7000000178814","","49","","","3000","1","","","images/tutgreenplanet.jpg","images/tutalien1","images/tutalien2","null","images/tutalien2","images/t.png","NA","practice","null","","","",""
"d3-animate-choice","36","226427","0.0-36.0","260","685","17","Male","true","true","true","false","""event"",""trial"",""time""
""fullscreenenter"",""5"",""30646""
","
","
","""event"",""trial"",""time""
""fullscreenenter"",""5"",""30646""
","
","265.89999997615814","","49","","","3000","1","","","images/tutgreenplanet.jpg","images/tutalien1","images/tutalien2","null","images/tutalien2","images/t.png","NA","practice","null","","","",""
"d3-animate-choice","37","228749","0.0-37.0","260","685","17","Male","true","true","true","false","""event"",""trial"",""time""
""fullscreenenter"",""5"",""30646""
","
","
","""event"",""trial"",""time""
""fullscreenenter"",""5"",""30646""
","
","315.90000000596046","","49","","","3000","1","","","images/tutgreenplanet.jpg","images/tutalien1","images/tutalien2","null","images/tutalien2","images/t.png","NA","practice","null","","","",""
"d3-animate-choice","38","231092","0.0-38.0","260","685","17","Male","true","true","true","false","""event"",""trial"",""time""
""fullscreenenter"",""5"",""30646""
","
","
","""event"",""trial"",""time""
""fullscreenenter"",""5"",""30646""
","
","336.7999999821186","","49","","","3000","1","","","images/tutgreenplanet.jpg","images/tutalien1","images/tutalien2","null","images/tutalien2","images/t.png","NA","practice","null","","","",""
"d3-animate-choice","39","233373","0.0-39.0","260","685","17","Male","true","true","true","false","""event"",""trial"",""time""
""fullscreenenter"",""5"",""30646""
","
","
","""event"",""trial"",""time""
""fullscreenenter"",""5"",""30646""
","
","275.90000000596046","","49","","","3000","1","","","images/tutgreenplanet.jpg","images/tutalien1","images/tutalien2","null","images/tutalien2","images/t.png","NA","practice","null","","","",""
"d3-animate-choice","40","235649","0.0-40.0","260","685","17","Male","true","true","true","false","""event"",""trial"",""time""
""fullscreenenter"",""5"",""30646""
","
","
","""event"",""trial"",""time""
""fullscreenenter"",""5"",""30646""
","
","270.59999999403954","","49","","","3000","1","","","images/tutgreenplanet.jpg","images/tutalien1","images/tutalien2","null","images/tutalien2","images/t.png","NA","practice","null","","","",""
"d3-animate-choice","41","238008","0.0-41.0","260","685","17","Male","true","true","true","false","""event"",""trial"",""time""
""fullscreenenter"",""5"",""30646""
","
","
","""event"",""trial"",""time""
""fullscreenenter"",""5"",""30646""
","
","353.09999999403954","","49","","","3000","1","","","images/tutgreenplanet.jpg","images/tutalien1","images/tutalien2","null","images/tutalien2","images/nothing.png","NA","practice","null","","","",""
"d3-animate-choice","42","240264","0.0-42.0","260","685","17","Male","true","true","true","false","""event"",""trial"",""time""
""fullscreenenter"",""5"",""30646""
","
","
","""event"",""trial"",""time""
""fullscreenenter"",""5"",""30646""
","
","250.40000000596046","","48","","","3000","1","","","images/tutgreenplanet.jpg","images/tutalien1","images/tutalien2","null","images/tutalien1","images/nothing.png","NA","practice","null","","","",""
"d3-animate-choice","43","242503","0.0-43.0","260","685","17","Male","true","true","true","false","""event"",""trial"",""time""
""fullscreenenter"",""5"",""30646""
","
","
","""event"",""trial"",""time""
""fullscreenenter"",""5"",""30646""
","
","232.7999999821186","","48","","","3000","1","","","images/tutgreenplanet.jpg","images/tutalien1","images/tutalien2","null","images/tutalien1","images/nothing.png","NA","practice","null","","","",""
"d3-instructions","44","259421","0.0-44.0","260","685","17","Male","true","true","true","false","""event"",""trial"",""time""
""fullscreenenter"",""5"",""30646""
","
","
","""event"",""trial"",""time""
""fullscreenenter"",""5"",""30646""
","
","","","","","","","","","","","","","","","","","","","","","",""
"d3-instructions","45","268539","0.0-45.0","260","685","17","Male","true","true","true","false","""event"",""trial"",""time""
""fullscreenenter"",""5"",""30646""
","
","
","""event"",""trial"",""time""
""fullscreenenter"",""5"",""30646""
","
","","","","","","","","","","","","","","","","","","","","","",""
"d3-instructions","46","273566","0.0-46.0","260","685","17","Male","true","true","true","false","""event"",""trial"",""time""
""fullscreenenter"",""5"",""30646""
","
","
","""event"",""trial"",""time""
""fullscreenenter"",""5"",""30646""
","
","","","","","","","","","","","","","","","","","","","","","",""
"d3-instructions","47","290416","0.0-47.0","260","685","17","Male","true","true","true","false","""event"",""trial"",""time""
""fullscreenenter"",""5"",""30646""
","
","
","""event"",""trial"",""time""
""fullscreenenter"",""5"",""30646""
","
","","","","","","","","","","","","","","","","","","","","","",""
"d3-instructions","48","298202","0.0-48.0","260","685","17","Male","true","true","true","false","""event"",""trial"",""time""
""fullscreenenter"",""5"",""30646""
","
","
","""event"",""trial"",""time""
""fullscreenenter"",""5"",""30646""
","
","","","","","","","","","","","","","","","","","","","","","",""
"d3-instructions","49","310689","0.0-49.0","260","685","17","Male","true","true","true","false","""event"",""trial"",""time""
""fullscreenenter"",""5"",""30646""
","
","
","""event"",""trial"",""time""
""fullscreenenter"",""5"",""30646""
","
","","","","","","","","","","","","","","","","","","","","","",""
"d3-instructions","50","333703","0.0-50.0","260","685","17","Male","true","true","true","false","""event"",""trial"",""time""
""fullscreenenter"",""5"",""30646""
","
","
","""event"",""trial"",""time""
""fullscreenenter"",""5"",""30646""
","
","","","","","","","","","","","","","","","","","","","","","",""
"d3-instructions","51","338774","0.0-51.0","260","685","17","Male","true","true","true","false","""event"",""trial"",""time""
""fullscreenenter"",""5"",""30646""
","
","
","""event"",""trial"",""time""
""fullscreenenter"",""5"",""30646""
","
","","","","","","","","","","","","","","","","","","","","","",""
"d3-instructions","52","341078","0.0-52.0","260","685","17","Male","true","true","true","false","""event"",""trial"",""time""
""fullscreenenter"",""5"",""30646""
","
","
","""event"",""trial"",""time""
""fullscreenenter"",""5"",""30646""
","
","","","","","","","","","","","","","","","","","","","","","",""
"d3-instructions","53","353086","0.0-53.0","260","685","17","Male","true","true","true","false","""event"",""trial"",""time""
""fullscreenenter"",""5"",""30646""
","
","
","""event"",""trial"",""time""
""fullscreenenter"",""5"",""30646""
","
","","","","","","","","","","","","","","","","","","","","","",""
"d3-instructions","54","442271","0.0-54.0","260","685","17","Male","true","true","true","false","""event"",""trial"",""time""
""fullscreenenter"",""5"",""30646""
","
","
","""event"",""trial"",""time""
""fullscreenenter"",""5"",""30646""
","
","","","","","","","","","","","","","","","","","","","","","",""
"d3-instructions","55","469048","0.0-55.0","260","685","17","Male","true","true","true","false","""event"",""trial"",""time""
""fullscreenenter"",""5"",""30646""
","
","
","""event"",""trial"",""time""
""fullscreenenter"",""5"",""30646""
","
","","","","","","","","","","","","","","","","","","","","","",""
"d3-instructions","56","483768","0.0-56.0","260","685","17","Male","true","true","true","false","""event"",""trial"",""time""
""fullscreenenter"",""5"",""30646""
","
","
","""event"",""trial"",""time""
""fullscreenenter"",""5"",""30646""
","
","","","","","","","","","","","","","","","","","","","","","",""
"d3-instructions","57","531092","0.0-57.0","260","685","17","Male","true","true","true","false","""event"",""trial"",""time""
""fullscreenenter"",""5"",""30646""
","
","
","""event"",""trial"",""time""
""fullscreenenter"",""5"",""30646""
","
","","","","","","","","","","","","","","","","","","","","","",""
"d3-instructions","58","533611","0.0-58.0","260","685","17","Male","true","true","true","false","""event"",""trial"",""time""
""fullscreenenter"",""5"",""30646""
","
","
","""event"",""trial"",""time""
""fullscreenenter"",""5"",""30646""
","
","","","","","","","","","","","","","","","","","","","","","",""
"d3-instructions","59","535632","0.0-59.0","260","685","17","Male","true","true","true","false","""event"",""trial"",""time""
""fullscreenenter"",""5"",""30646""
","
","
","""event"",""trial"",""time""
""fullscreenenter"",""5"",""30646""
","
","","","","","","","","","","","","","","","","","","","","","",""
"d3-instructions","60","538377","0.0-60.0","260","685","17","Male","true","true","true","false","""event"",""trial"",""time""
""fullscreenenter"",""5"",""30646""
","
","
","""event"",""trial"",""time""
""fullscreenenter"",""5"",""30646""
","
","","","","","","","","","","","","","","","","","","","","","",""
"d3-animate-choice","61","541780","0.0-61.0-0.0","260","685","17","Male","true","true","true","false","""event"",""trial"",""time""
""fullscreenenter"",""5"",""30646""
","
","
","""event"",""trial"",""time""
""fullscreenenter"",""5"",""30646""
","
","1394.699999988079","","49","","","3000","1","","","images/earth.jpg","images/tutrocket2","images/tutrocket1","null","images/tutrocket1","","1","practice","null","1","","",""
"d3-animate-choice","62","545412","0.0-61.0-1.0","260","685","17","Male","true","true","true","false","""event"",""trial"",""time""
""fullscreenenter"",""5"",""30646""
","
","
","""event"",""trial"",""time""
""fullscreenenter"",""5"",""30646""
","
","1621.199999988079","","49","","","3000","1","","","images/tutgreenplanet.jpg","images/tutalien2","images/tutalien1","images/tutrocket1","images/tutalien1","images/t.png","2","practice","true","1","common","1","2022-02-08 01:26:50.379"
"two-step-fixation","63","546420","0.0-61.0-2.0","260","685","17","Male","true","true","true","false","""event"",""trial"",""time""
""fullscreenenter"",""5"",""30646""
","
","
","""event"",""trial"",""time""
""fullscreenenter"",""5"",""30646""
","
","","images/earth.jpg","","","","","","","","","","","","","","fixation","","","","","",""
"d3-animate-choice","64","550008","0.0-61.0-0.1","260","685","17","Male","true","true","true","false","""event"",""trial"",""time""
""fullscreenenter"",""5"",""30646""
","
","
","""event"",""trial"",""time""
""fullscreenenter"",""5"",""30646""
","
","1579.5","","49","","","3000","1","","","images/earth.jpg","images/tutrocket2","images/tutrocket1","null","images/tutrocket1","","1","practice","null","1","","",""
"d3-animate-choice","65","552567","0.0-61.0-1.1","260","685","17","Male","true","true","true","false","""event"",""trial"",""time""
""fullscreenenter"",""5"",""30646""
","
","
","""event"",""trial"",""time""
""fullscreenenter"",""5"",""30646""
","
","552.5999999940395","","49","","","3000","1","","","images/tutgreenplanet.jpg","images/tutalien2","images/tutalien1","images/tutrocket1","images/tutalien1","images/nothing.png","2","practice","true","1","common","0","2022-02-08 01:26:57.533"
"two-step-fixation","66","553571","0.0-61.0-2.1","260","685","17","Male","true","true","true","false","""event"",""trial"",""time""
""fullscreenenter"",""5"",""30646""
","
","
","""event"",""trial"",""time""
""fullscreenenter"",""5"",""30646""
","
","","images/earth.jpg","","","","","","","","","","","","","","fixation","","","","","",""
"d3-animate-choice","67","556226","0.0-61.0-0.2","260","685","17","Male","true","true","true","false","""event"",""trial"",""time""
""fullscreenenter"",""5"",""30646""
","
","
","""event"",""trial"",""time""
""fullscreenenter"",""5"",""30646""
","
","647.5","","49","","","3000","1","","","images/earth.jpg","images/tutrocket2","images/tutrocket1","null","images/tutrocket1","","1","practice","null","1","","",""
"d3-animate-choice","68","558627","0.0-61.0-1.2","260","685","17","Male","true","true","true","false","""event"",""trial"",""time""
""fullscreenenter"",""5"",""30646""
","
","
","""event"",""trial"",""time""
""fullscreenenter"",""5"",""30646""
","
","395.2000000178814","","49","","","3000","1","","","images/tutyellowplanet.jpg","images/tutalien4","images/tutalien3","images/tutrocket1","images/tutalien3","images/nothing.png","2","practice","false","1","rare","0","2022-02-08 01:27:03.593"
"two-step-fixation","69","559633","0.0-61.0-2.2","260","685","17","Male","true","true","true","false","""event"",""trial"",""time""
""fullscreenenter"",""5"",""30646""
","
","
","""event"",""trial"",""time""
""fullscreenenter"",""5"",""30646""
","
","","images/earth.jpg","","","","","","","","","","","","","","fixation","","","","","",""
"d3-animate-choice","70","563104","0.0-61.0-0.3","260","685","17","Male","true","true","true","false","""event"",""trial"",""time""
""fullscreenenter"",""5"",""30646""
","
","
","""event"",""trial"",""time""
""fullscreenenter"",""5"",""30646""
","
","1464.300000011921","","48","","","3000","1","","","images/earth.jpg","images/tutrocket2","images/tutrocket1","null","images/tutrocket2","","1","practice","null","2","","",""
"d3-animate-choice","71","565677","0.0-61.0-1.3","260","685","17","Male","true","true","true","false","""event"",""trial"",""time""
""fullscreenenter"",""5"",""30646""
","
","
","""event"",""trial"",""time""
""fullscreenenter"",""5"",""30646""
","
","565.6999999880791","","48","","","3000","1","","","images/tutyellowplanet.jpg","images/tutalien4","images/tutalien3","images/tutrocket2","images/tutalien4","images/nothing.png","2","practice","true","2","common","0","2022-02-08 01:27:10.643"
"two-step-fixation","72","566683","0.0-61.0-2.3","260","685","17","Male","true","true","true","false","""event"",""trial"",""time""
""fullscreenenter"",""5"",""30646""
","
","
","""event"",""trial"",""time""
""fullscreenenter"",""5"",""30646""
","
","","images/earth.jpg","","","","","","","","","","","","","","fixation","","","","","",""
"d3-animate-choice","73","568995","0.0-61.0-0.4","260","685","17","Male","true","true","true","false","""event"",""trial"",""time""
""fullscreenenter"",""5"",""30646""
","
","
","""event"",""trial"",""time""
""fullscreenenter"",""5"",""30646""
","
","305","","48","","","3000","1","","","images/earth.jpg","images/tutrocket2","images/tutrocket1","null","images/tutrocket2","","1","practice","null","2","","",""
"d3-animate-choice","74","571410","0.0-61.0-1.4","260","685","17","Male","true","true","true","false","""event"",""trial"",""time""
""fullscreenenter"",""5"",""30646""
","
","
","""event"",""trial"",""time""
""fullscreenenter"",""5"",""30646""
","
","408","","49","","","3000","1","","","images/tutgreenplanet.jpg","images/tutalien2","images/tutalien1","images/tutrocket2","images/tutalien1","images/nothing.png","2","practice","false","1","rare","0","2022-02-08 01:27:16.376"
"two-step-fixation","75","572417","0.0-61.0-2.4","260","685","17","Male","true","true","true","false","""event"",""trial"",""time""
""fullscreenenter"",""5"",""30646""
","
","
","""event"",""trial"",""time""
""fullscreenenter"",""5"",""30646""
","
","","images/earth.jpg","","","","","","","","","","","","","","fixation","","","","","",""
"d3-animate-choice","76","574732","0.0-61.0-0.5","260","685","17","Male","true","true","true","false","""event"",""trial"",""time""
""fullscreenenter"",""5"",""30646""
","
","
","""event"",""trial"",""time""
""fullscreenenter"",""5"",""30646""
","
","307.40000000596046","","49","","","3000","1","","","images/earth.jpg","images/tutrocket2","images/tutrocket1","null","images/tutrocket1","","1","practice","null","1","","",""
"d3-animate-choice","77","576973","0.0-61.0-1.5","260","685","17","Male","true","true","true","false","""event"",""trial"",""time""
""fullscreenenter"",""5"",""30646""
","
","
","""event"",""trial"",""time""
""fullscreenenter"",""5"",""30646""
","
","235","","48","","","3000","1","","","images/tutgreenplanet.jpg","images/tutalien2","images/tutalien1","images/tutrocket1","images/tutalien2","images/nothing.png","2","practice","true","2","common","0","2022-02-08 01:27:21.940"
"two-step-fixation","78","577980","0.0-61.0-2.5","260","685","17","Male","true","true","true","false","""event"",""trial"",""time""
""fullscreenenter"",""5"",""30646""
","
","
","""event"",""trial"",""time""
""fullscreenenter"",""5"",""30646""
","
","","images/earth.jpg","","","","","","","","","","","","","","fixation","","","","","",""
"d3-animate-choice","79","580311","0.0-61.0-0.6","260","685","17","Male","true","true","true","false","""event"",""trial"",""time""
""fullscreenenter"",""5"",""30646""
","
","
","""event"",""trial"",""time""
""fullscreenenter"",""5"",""30646""
","
","324.09999999403954","","48","","","3000","1","","","images/earth.jpg","images/tutrocket2","images/tutrocket1","null","images/tutrocket2","","1","practice","null","2","","",""
"d3-animate-choice","80","582589","0.0-61.0-1.6","260","685","17","Male","true","true","true","false","""event"",""trial"",""time""
""fullscreenenter"",""5"",""30646""
","
","
","""event"",""trial"",""time""
""fullscreenenter"",""5"",""30646""
","
","270.69999998807907","","48","","","3000","1","","","images/tutyellowplanet.jpg","images/tutalien4","images/tutalien3","images/tutrocket2","images/tutalien4","images/t.png","2","practice","true","2","common","1","2022-02-08 01:27:27.555"
"two-step-fixation","81","583595","0.0-61.0-2.6","260","685","17","Male","true","true","true","false","""event"",""trial"",""time""
""fullscreenenter"",""5"",""30646""
","
","
","""event"",""trial"",""time""
""fullscreenenter"",""5"",""30646""
","
","","images/earth.jpg","","","","","","","","","","","","","","fixation","","","","","",""
"d3-animate-choice","82","585836","0.0-61.0-0.7","260","685","17","Male","true","true","true","false","""event"",""trial"",""time""
""fullscreenenter"",""5"",""30646""
","
","
","""event"",""trial"",""time""
""fullscreenenter"",""5"",""30646""
","
","232.90000000596046","","48","","","3000","1","","","images/earth.jpg","images/tutrocket2","images/tutrocket1","null","images/tutrocket2","","1","practice","null","2","","",""
"d3-animate-choice","83","588999","0.0-61.0-1.7","260","685","17","Male","true","true","true","false","""event"",""trial"",""time""
""fullscreenenter"",""5"",""30646""
","
","
","""event"",""trial"",""time""
""fullscreenenter"",""5"",""30646""
","
","1155.9000000059605","","49","","","3000","1","","","images/tutgreenplanet.jpg","images/tutalien2","images/tutalien1","images/tutrocket2","images/tutalien1","images/nothing.png","2","practice","false","1","rare","0","2022-02-08 01:27:33.965"
"two-step-fixation","84","590005","0.0-61.0-2.7","260","685","17","Male","true","true","true","false","""event"",""trial"",""time""
""fullscreenenter"",""5"",""30646""
","
","
","""event"",""trial"",""time""
""fullscreenenter"",""5"",""30646""
","
","","images/earth.jpg","","","","","","","","","","","","","","fixation","","","","","",""
"d3-animate-choice","85","593632","0.0-61.0-0.8","260","685","17","Male","true","true","true","false","""event"",""trial"",""time""
""fullscreenenter"",""5"",""30646""
","
","
","""event"",""trial"",""time""
""fullscreenenter"",""5"",""30646""
","
","1618.5","","49","","","3000","1","","","images/earth.jpg","images/tutrocket2","images/tutrocket1","null","images/tutrocket1","","1","practice","null","1","","",""
"d3-animate-choice","86","597164","0.0-61.0-1.8","260","685","17","Male","true","true","true","false","""event"",""trial"",""time""
""fullscreenenter"",""5"",""30646""
","
","
","""event"",""trial"",""time""
""fullscreenenter"",""5"",""30646""
","
","1525","","49","","","3000","1","","","images/tutgreenplanet.jpg","images/tutalien2","images/tutalien1","images/tutrocket1","images/tutalien1","images/nothing.png","2","practice","true","1","common","0","2022-02-08 01:27:42.130"
"two-step-fixation","87","598170","0.0-61.0-2.8","260","685","17","Male","true","true","true","false","""event"",""trial"",""time""
""fullscreenenter"",""5"",""30646""
","
","
","""event"",""trial"",""time""
""fullscreenenter"",""5"",""30646""
","
","","images/earth.jpg","","","","","","","","","","","","","","fixation","","","","","",""
"d3-animate-choice","88","601892","0.0-61.0-0.9","260","685","17","Male","true","true","true","false","""event"",""trial"",""time""
""fullscreenenter"",""5"",""30646""
","
","
","""event"",""trial"",""time""
""fullscreenenter"",""5"",""30646""
","
","1716.2000000178814","","49","","","3000","1","","","images/earth.jpg","images/tutrocket2","images/tutrocket1","null","images/tutrocket1","","1","practice","null","1","","",""
"d3-animate-choice","89","604293","0.0-61.0-1.9","260","685","17","Male","true","true","true","false","""event"",""trial"",""time""
""fullscreenenter"",""5"",""30646""
","
","
","""event"",""trial"",""time""
""fullscreenenter"",""5"",""30646""
","
","394.69999998807907","","48","","","3000","1","","","images/tutgreenplanet.jpg","images/tutalien2","images/tutalien1","images/tutrocket1","images/tutalien2","images/nothing.png","2","practice","true","2","common","0","2022-02-08 01:27:49.260"
"two-step-fixation","90","605299","0.0-61.0-2.9","260","685","17","Male","true","true","true","false","""event"",""trial"",""time""
""fullscreenenter"",""5"",""30646""
","
","
","""event"",""trial"",""time""
""fullscreenenter"",""5"",""30646""
","
","","images/earth.jpg","","","","","","","","","","","","","","fixation","","","","","",""
"d3-animate-choice","91","608351","0.0-61.0-0.10","260","685","17","Male","true","true","true","false","""event"",""trial"",""time""
""fullscreenenter"",""5"",""30646""
","
","
","""event"",""trial"",""time""
""fullscreenenter"",""5"",""30646""
","
","1045.4000000059605","","48","","","3000","1","","","images/earth.jpg","images/tutrocket2","images/tutrocket1","null","images/tutrocket2","","1","practice","null","2","","",""
"d3-animate-choice","92","611183","0.0-61.0-1.10","260","685","17","Male","true","true","true","false","""event"",""trial"",""time""
""fullscreenenter"",""5"",""30646""
","
","
","""event"",""trial"",""time""
""fullscreenenter"",""5"",""30646""
","
","825.5","","48","","","3000","1","","","images/tutyellowplanet.jpg","images/tutalien4","images/tutalien3","images/tutrocket2","images/tutalien4","images/t.png","2","practice","true","2","common","1","2022-02-08 01:27:56.150"
"two-step-fixation","93","612189","0.0-61.0-2.10","260","685","17","Male","true","true","true","false","""event"",""trial"",""time""
""fullscreenenter"",""5"",""30646""
","
","
","""event"",""trial"",""time""
""fullscreenenter"",""5"",""30646""
","
","","images/earth.jpg","","","","","","","","","","","","","","fixation","","","","","",""
"d3-animate-choice","94","615372","0.0-61.0-0.11","260","685","17","Male","true","true","true","false","""event"",""trial"",""time""
""fullscreenenter"",""5"",""30646""
","
","
","""event"",""trial"",""time""
""fullscreenenter"",""5"",""30646""
","
","1176.1000000238419","","48","","","3000","1","","","images/earth.jpg","images/tutrocket2","images/tutrocket1","null","images/tutrocket2","","1","practice","null","2","","",""
"d3-animate-choice","95","618570","0.0-61.0-1.11","260","685","17","Male","true","true","true","false","""event"",""trial"",""time""
""fullscreenenter"",""5"",""30646""
","
","
","""event"",""trial"",""time""
""fullscreenenter"",""5"",""30646""
","
","1191.6000000238419","","48","","","3000","1","1405.2000000178814","48","images/tutyellowplanet.jpg","images/tutalien4","images/tutalien3","images/tutrocket2","images/tutalien4","images/nothing.png","2","practice","true","2","common","0","2022-02-08 01:28:03.536"
"two-step-fixation","96","619575","0.0-61.0-2.11","260","685","17","Male","true","true","true","false","""event"",""trial"",""time""
""fullscreenenter"",""5"",""30646""
","
","
","""event"",""trial"",""time""
""fullscreenenter"",""5"",""30646""
","
","","images/earth.jpg","","","","","","","","","","","","","","fixation","","","","","",""
"d3-animate-choice","97","621784","0.0-61.0-0.12","260","685","17","Male","true","true","true","false","""event"",""trial"",""time""
""fullscreenenter"",""5"",""30646""
","
","
","""event"",""trial"",""time""
""fullscreenenter"",""5"",""30646""
","
","200.90000000596046","","48","","","3000","1","1614.300000011921,1906.300000011921","48,48","images/earth.jpg","images/tutrocket2","images/tutrocket1","null","images/tutrocket2","","1","practice","null","2","","",""
"d3-animate-choice","98","624051","0.0-61.0-1.12","260","685","17","Male","true","true","true","false","""event"",""trial"",""time""
""fullscreenenter"",""5"",""30646""
","
","
","""event"",""trial"",""time""
""fullscreenenter"",""5"",""30646""
","
","260.7999999821186","","48","","","3000","1","","","images/tutyellowplanet.jpg","images/tutalien4","images/tutalien3","images/tutrocket2","images/tutalien4","images/nothing.png","2","practice","true","2","common","0","2022-02-08 01:28:09.017"
"two-step-fixation","99","625057","0.0-61.0-2.12","260","685","17","Male","true","true","true","false","""event"",""trial"",""time""
""fullscreenenter"",""5"",""30646""
","
","
","""event"",""trial"",""time""
""fullscreenenter"",""5"",""30646""
","
","","images/earth.jpg","","","","","","","","","","","","","","fixation","","","","","",""
"d3-animate-choice","100","628111","0.0-61.0-0.13","260","685","17","Male","true","true","true","false","""event"",""trial"",""time""
""fullscreenenter"",""5"",""30646""
","
","
","""event"",""trial"",""time""
""fullscreenenter"",""5"",""30646""
","
","1047.5","","49","","","3000","1","","","images/earth.jpg","images/tutrocket2","images/tutrocket1","null","images/tutrocket1","","1","practice","null","1","","",""
"d3-animate-choice","101","630609","0.0-61.0-1.13","260","685","17","Male","true","true","true","false","""event"",""trial"",""time""
""fullscreenenter"",""5"",""30646""
","
","
","""event"",""trial"",""time""
""fullscreenenter"",""5"",""30646""
","
","491.09999999403954","","48","","","3000","1","","","images/tutyellowplanet.jpg","images/tutalien4","images/tutalien3","images/tutrocket1","images/tutalien4","images/nothing.png","2","practice","false","2","rare","0","2022-02-08 01:28:15.575"
"two-step-fixation","102","631614","0.0-61.0-2.13","260","685","17","Male","true","true","true","false","""event"",""trial"",""time""
""fullscreenenter"",""5"",""30646""
","
","
","""event"",""trial"",""time""
""fullscreenenter"",""5"",""30646""
","
","","images/earth.jpg","","","","","","","","","","","","","","fixation","","","","","",""
"d3-animate-choice","103","633709","0.0-61.0-0.14","260","685","17","Male","true","true","true","false","""event"",""trial"",""time""
""fullscreenenter"",""5"",""30646""
","
","
","""event"",""trial"",""time""
""fullscreenenter"",""5"",""30646""
","
","89.2000000178814","","48","","","3000","1","329.59999999403954","48","images/earth.jpg","images/tutrocket2","images/tutrocket1","null","images/tutrocket2","","1","practice","null","2","","",""
"d3-animate-choice","104","636837","0.0-61.0-1.14","260","685","17","Male","true","true","true","false","""event"",""trial"",""time""
""fullscreenenter"",""5"",""30646""
","
","
","""event"",""trial"",""time""
""fullscreenenter"",""5"",""30646""
","
","1120","","49","","","3000","1","","","images/tutyellowplanet.jpg","images/tutalien4","images/tutalien3","images/tutrocket2","images/tutalien3","images/nothing.png","2","practice","true","1","common","0","2022-02-08 01:28:21.803"
"two-step-fixation","105","637842","0.0-61.0-2.14","260","685","17","Male","true","true","true","false","""event"",""trial"",""time""
""fullscreenenter"",""5"",""30646""
","
","
","""event"",""trial"",""time""
""fullscreenenter"",""5"",""30646""
","
","","images/earth.jpg","","","","","","","","","","","","","","fixation","","","","","",""
"d3-animate-choice","106","640470","0.0-61.0-0.15","260","685","17","Male","true","true","true","false","""event"",""trial"",""time""
""fullscreenenter"",""5"",""30646""
","
","
","""event"",""trial"",""time""
""fullscreenenter"",""5"",""30646""
","
","620.4000000059605","","49","","","3000","1","1419.9000000059605,1854.0999999940395,2078.9000000059605","48,48,48","images/earth.jpg","images/tutrocket2","images/tutrocket1","null","images/tutrocket1","","1","practice","null","1","","",""
"d3-animate-choice","107","642587","0.0-61.0-1.15","260","685","17","Male","true","true","true","false","""event"",""trial"",""time""
""fullscreenenter"",""5"",""30646""
","
","
","""event"",""trial"",""time""
""fullscreenenter"",""5"",""30646""
","
","109.89999997615814","","48","","","3000","1","","","images/tutyellowplanet.jpg","images/tutalien4","images/tutalien3","images/tutrocket1","images/tutalien4","images/t.png","2","practice","false","2","rare","1","2022-02-08 01:28:27.553"
"two-step-fixation","108","643592","0.0-61.0-2.15","260","685","17","Male","true","true","true","false","""event"",""trial"",""time""
""fullscreenenter"",""5"",""30646""
","
","
","""event"",""trial"",""time""
""fullscreenenter"",""5"",""30646""
","
","","images/earth.jpg","","","","","","","","","","","","","","fixation","","","","","",""
"d3-animate-choice","109","645652","0.0-61.0-0.16","260","685","17","Male","true","true","true","false","""event"",""trial"",""time""
""fullscreenenter"",""5"",""30646""
","
","
","""event"",""trial"",""time""
""fullscreenenter"",""5"",""30646""
","
","53.39999997615814","","48","","","3000","1","246.5,1842.0999999940395","48,49","images/earth.jpg","images/tutrocket2","images/tutrocket1","null","images/tutrocket2","","1","practice","null","2","","",""
"d3-animate-choice","110","647679","0.0-61.0-1.16","260","685","17","Male","true","true","true","false","""event"",""trial"",""time""
""fullscreenenter"",""5"",""30646""
","
","
","""event"",""trial"",""time""
""fullscreenenter"",""5"",""30646""
","
","18.69999998807907","","49","","","3000","1","225.90000000596046,430.90000000596046","49,49","images/tutyellowplanet.jpg","images/tutalien4","images/tutalien3","images/tutrocket2","images/tutalien3","images/nothing.png","2","practice","true","1","common","0","2022-02-08 01:28:32.645"
"two-step-fixation","111","648685","0.0-61.0-2.16","260","685","17","Male","true","true","true","false","""event"",""trial"",""time""
""fullscreenenter"",""5"",""30646""
","
","
","""event"",""trial"",""time""
""fullscreenenter"",""5"",""30646""
","
","","images/earth.jpg","","","","","","","","","","","","","","fixation","","","","","",""
"d3-animate-choice","112","650938","0.0-61.0-0.17","260","685","17","Male","true","true","true","false","""event"",""trial"",""time""
""fullscreenenter"",""5"",""30646""
","
","
","""event"",""trial"",""time""
""fullscreenenter"",""5"",""30646""
","
","244.39999997615814","","48","","","3000","1","593.5999999940395","48","images/earth.jpg","images/tutrocket2","images/tutrocket1","null","images/tutrocket2","","1","practice","null","2","","",""
"d3-animate-choice","113","653301","0.0-61.0-1.17","260","685","17","Male","true","true","true","false","""event"",""trial"",""time""
""fullscreenenter"",""5"",""30646""
","
","
","""event"",""trial"",""time""
""fullscreenenter"",""5"",""30646""
","
","355.30000001192093","","48","","","3000","1","","","images/tutyellowplanet.jpg","images/tutalien4","images/tutalien3","images/tutrocket2","images/tutalien4","images/nothing.png","2","practice","true","2","common","0","2022-02-08 01:28:38.267"
"two-step-fixation","114","654307","0.0-61.0-2.17","260","685","17","Male","true","true","true","false","""event"",""trial"",""time""
""fullscreenenter"",""5"",""30646""
","
","
","""event"",""trial"",""time""
""fullscreenenter"",""5"",""30646""
","
","","images/earth.jpg","","","","","","","","","","","","","","fixation","","","","","",""
"d3-animate-choice","115","657127","0.0-61.0-0.18","260","685","17","Male","true","true","true","false","""event"",""trial"",""time""
""fullscreenenter"",""5"",""30646""
","
","
","""event"",""trial"",""time""
""fullscreenenter"",""5"",""30646""
","
","812.9000000059605","","49","","","3000","1","","","images/earth.jpg","images/tutrocket2","images/tutrocket1","null","images/tutrocket1","","1","practice","null","1","","",""
"d3-animate-choice","116","659492","0.0-61.0-1.18","260","685","17","Male","true","true","true","false","""event"",""trial"",""time""
""fullscreenenter"",""5"",""30646""
","
","
","""event"",""trial"",""time""
""fullscreenenter"",""5"",""30646""
","
","357.39999997615814","","48","","","3000","1","","","images/tutyellowplanet.jpg","images/tutalien4","images/tutalien3","images/tutrocket1","images/tutalien4","images/nothing.png","2","practice","false","2","rare","0","2022-02-08 01:28:44.458"
"two-step-fixation","117","660497","0.0-61.0-2.18","260","685","17","Male","true","true","true","false","""event"",""trial"",""time""
""fullscreenenter"",""5"",""30646""
","
","
","""event"",""trial"",""time""
""fullscreenenter"",""5"",""30646""
","
","","images/earth.jpg","","","","","","","","","","","","","","fixation","","","","","",""
"d3-animate-choice","118","662948","0.0-61.0-0.19","260","685","17","Male","true","true","true","false","""event"",""trial"",""time""
""fullscreenenter"",""5"",""30646""
","
","
","""event"",""trial"",""time""
""fullscreenenter"",""5"",""30646""
","
","444.80000001192093","","48","","","3000","1","","","images/earth.jpg","images/tutrocket2","images/tutrocket1","null","images/tutrocket2","","1","practice","null","2","","",""
"d3-animate-choice","119","665550","0.0-61.0-1.19","260","685","17","Male","true","true","true","false","""event"",""trial"",""time""
""fullscreenenter"",""5"",""30646""
","
","
","""event"",""trial"",""time""
""fullscreenenter"",""5"",""30646""
","
","596.2999999821186","","49","","","3000","1","","","images/tutyellowplanet.jpg","images/tutalien4","images/tutalien3","images/tutrocket2","images/tutalien3","images/nothing.png","2","practice","true","1","common","0","2022-02-08 01:28:50.516"
"two-step-fixation","120","666555","0.0-61.0-2.19","260","685","17","Male","true","true","true","false","""event"",""trial"",""time""
""fullscreenenter"",""5"",""30646""
","
","
","""event"",""trial"",""time""
""fullscreenenter"",""5"",""30646""
","
","","images/earth.jpg","","","","","","","","","","","","","","fixation","","","","","",""
"d3-instructions","121","670730","0.0-62.0","260","685","17","Male","true","true","true","false","""event"",""trial"",""time""
""fullscreenenter"",""5"",""30646""
","
","
","""event"",""trial"",""time""
""fullscreenenter"",""5"",""30646""
","
","","","","","","","","","","","","","","","","","","","","","",""
"audio-keyboard-response","122","673557","0.0-63.0","260","685","17","Male","true","true","true","false","""event"",""trial"",""time""
""fullscreenenter"",""5"",""30646""
","
","
","""event"",""trial"",""time""
""fullscreenenter"",""5"",""30646""
","
","2827","audio/instructions/treasure_feedback.wav","32","","","","","","","","","","","","","","","","","","",""
"d3-instructions","123","695257","0.0-64.0","260","685","17","Male","true","true","true","false","""event"",""trial"",""time""
""fullscreenenter"",""5"",""30646""
","
","
","""event"",""trial"",""time""
""fullscreenenter"",""5"",""30646""
","
","","","","","","","","","","","","","","","","","","","","","",""
"d3-instructions","124","716804","0.0-65.0","260","685","17","Male","true","true","true","false","""event"",""trial"",""time""
""fullscreenenter"",""5"",""30646""
","
","
","""event"",""trial"",""time""
""fullscreenenter"",""5"",""30646""
","
","","","","","","","","","","","","","","","","","","","","","",""
"d3-instructions","125","740982","0.0-66.0","260","685","17","Male","true","true","true","false","""event"",""trial"",""time""
""fullscreenenter"",""5"",""30646""
""fullscreenexit"",""126"",""755607""
""blur"",""126"",""757830""
""focus"",""126"",""795049""
","""event"",""trial"",""time""
""blur"",""126"",""757830""
","""event"",""trial"",""time""
""focus"",""126"",""795049""
","""event"",""trial"",""time""
""fullscreenenter"",""5"",""30646""
","""event"",""trial"",""time""
""fullscreenexit"",""126"",""755607""
","","","","","","","","","","","","","","","","","","","","","",""
"d3-instructions","126","798137","0.0-67.0","260","685","17","Male","true","true","true","false","""event"",""trial"",""time""
""fullscreenenter"",""5"",""30646""
""fullscreenexit"",""126"",""755607""
""blur"",""126"",""757830""
""focus"",""126"",""795049""
","""event"",""trial"",""time""
""blur"",""126"",""757830""
","""event"",""trial"",""time""
""focus"",""126"",""795049""
","""event"",""trial"",""time""
""fullscreenenter"",""5"",""30646""
","""event"",""trial"",""time""
""fullscreenexit"",""126"",""755607""
","","","","","","","","","","","","","","","","","","","","","",""
"d3-instructions","127","812429","0.0-68.0","260","685","17","Male","true","true","true","false","""event"",""trial"",""time""
""fullscreenenter"",""5"",""30646""
""fullscreenexit"",""126"",""755607""
""blur"",""126"",""757830""
""focus"",""126"",""795049""
","""event"",""trial"",""time""
""blur"",""126"",""757830""
","""event"",""trial"",""time""
""focus"",""126"",""795049""
","""event"",""trial"",""time""
""fullscreenenter"",""5"",""30646""
","""event"",""trial"",""time""
""fullscreenexit"",""126"",""755607""
","","","","","","","","","","","","","","","","","","","","","",""
"instructions-quiz","128","817893","0.0-69.0","260","685","17","Male","true","true","true","false","""event"",""trial"",""time""
""fullscreenenter"",""5"",""30646""
""fullscreenexit"",""126"",""755607""
""blur"",""126"",""757830""
""focus"",""126"",""795049""
","""event"",""trial"",""time""
""blur"",""126"",""757830""
","""event"",""trial"",""time""
""focus"",""126"",""795049""
","""event"",""trial"",""time""
""fullscreenenter"",""5"",""30646""
","""event"",""trial"",""time""
""fullscreenexit"",""126"",""755607""
","5458.9000000059605","audio/quiz/Q1_Prompt.wav","","1","","","","","","","","","","","","","","","","","",""
"audio-keyboard-response","129","827069","0.0-70.0","260","685","17","Male","true","true","true","false","""event"",""trial"",""time""
""fullscreenenter"",""5"",""30646""
""fullscreenexit"",""126"",""755607""
""blur"",""126"",""757830""
""focus"",""126"",""795049""
","""event"",""trial"",""time""
""blur"",""126"",""757830""
","""event"",""trial"",""time""
""focus"",""126"",""795049""
","""event"",""trial"",""time""
""fullscreenenter"",""5"",""30646""
","""event"",""trial"",""time""
""fullscreenexit"",""126"",""755607""
","null","audio/quiz/Q1_Correct.wav","null","","","","","","","","","","","","","","","","","","",""
"instructions-quiz","130","835114","0.0-71.0","260","685","17","Male","true","true","true","false","""event"",""trial"",""time""
""fullscreenenter"",""5"",""30646""
""fullscreenexit"",""126"",""755607""
""blur"",""126"",""757830""
""focus"",""126"",""795049""
","""event"",""trial"",""time""
""blur"",""126"",""757830""
","""event"",""trial"",""time""
""focus"",""126"",""795049""
","""event"",""trial"",""time""
""fullscreenenter"",""5"",""30646""
","""event"",""trial"",""time""
""fullscreenexit"",""126"",""755607""
","8039.699999988079","audio/quiz/Q2_Prompt.wav","","0","","","","","","","","","","","","","","","","","",""
"audio-keyboard-response","131","847986","0.0-72.0","260","685","17","Male","true","true","true","false","""event"",""trial"",""time""
""fullscreenenter"",""5"",""30646""
""fullscreenexit"",""126"",""755607""
""blur"",""126"",""757830""
""focus"",""126"",""795049""
","""event"",""trial"",""time""
""blur"",""126"",""757830""
","""event"",""trial"",""time""
""focus"",""126"",""795049""
","""event"",""trial"",""time""
""fullscreenenter"",""5"",""30646""
","""event"",""trial"",""time""
""fullscreenexit"",""126"",""755607""
","null","audio/quiz/Q2_Correct.wav","null","","","","","","","","","","","","","","","","","","",""
"instructions-quiz","132","852005","0.0-73.0","260","685","17","Male","true","true","true","false","""event"",""trial"",""time""
""fullscreenenter"",""5"",""30646""
""fullscreenexit"",""126"",""755607""
""blur"",""126"",""757830""
""focus"",""126"",""795049""
","""event"",""trial"",""time""
""blur"",""126"",""757830""
","""event"",""trial"",""time""
""focus"",""126"",""795049""
","""event"",""trial"",""time""
""fullscreenenter"",""5"",""30646""
","""event"",""trial"",""time""
""fullscreenexit"",""126"",""755607""
","4012.5999999940395","audio/quiz/Q3_Prompt.wav","","1","","","","","","","","","","","","","","","","","",""
"audio-keyboard-response","133","857810","0.0-74.0","260","685","17","Male","true","true","true","false","""event"",""trial"",""time""
""fullscreenenter"",""5"",""30646""
""fullscreenexit"",""126"",""755607""
""blur"",""126"",""757830""
""focus"",""126"",""795049""
","""event"",""trial"",""time""
""blur"",""126"",""757830""
","""event"",""trial"",""time""
""focus"",""126"",""795049""
","""event"",""trial"",""time""
""fullscreenenter"",""5"",""30646""
","""event"",""trial"",""time""
""fullscreenexit"",""126"",""755607""
","null","audio/quiz/Q3_Correct.wav","null","","","","","","","","","","","","","","","","","","",""
"d3-instructions","134","871671","0.0-75.0","260","685","17","Male","true","true","true","false","""event"",""trial"",""time""
""fullscreenenter"",""5"",""30646""
""fullscreenexit"",""126"",""755607""
""blur"",""126"",""757830""
""focus"",""126"",""795049""
","""event"",""trial"",""time""
""blur"",""126"",""757830""
","""event"",""trial"",""time""
""focus"",""126"",""795049""
","""event"",""trial"",""time""
""fullscreenenter"",""5"",""30646""
","""event"",""trial"",""time""
""fullscreenexit"",""126"",""755607""
","","","","","","","","","","","","","","","","","","","","","",""
"d3-animate-choice","135","875298","0.0-76.0-0.0","260","685","17","Male","true","true","true","false","""event"",""trial"",""time""
""fullscreenenter"",""5"",""30646""
""fullscreenexit"",""126"",""755607""
""blur"",""126"",""757830""
""focus"",""126"",""795049""
","""event"",""trial"",""time""
""blur"",""126"",""757830""
","""event"",""trial"",""time""
""focus"",""126"",""795049""
","""event"",""trial"",""time""
""fullscreenenter"",""5"",""30646""
","""event"",""trial"",""time""
""fullscreenexit"",""126"",""755607""
","1618.9000000059605","","49","","","3000","1","","","images/earth.jpg","images/rocket2","images/rocket1","null","images/rocket1","","1","real","null","1","","",""
"d3-animate-choice","136","877996","0.0-76.0-1.0","260","685","17","Male","true","true","true","false","""event"",""trial"",""time""
""fullscreenenter"",""5"",""30646""
""fullscreenexit"",""126"",""755607""
""blur"",""126"",""757830""
""focus"",""126"",""795049""
","""event"",""trial"",""time""
""blur"",""126"",""757830""
","""event"",""trial"",""time""
""focus"",""126"",""795049""
","""event"",""trial"",""time""
""fullscreenenter"",""5"",""30646""
","""event"",""trial"",""time""
""fullscreenexit"",""126"",""755607""
","688.5999999940395","","49","","","3000","1","","","images/redplanet1.jpg","images/alien2","images/alien1","images/rocket1","images/alien1","images/nothing.png","2","real","true","1","common","0","2022-02-08 01:32:22.962"
"two-step-fixation","137","879003","0.0-76.0-2.0","260","685","17","Male","true","true","true","false","""event"",""trial"",""time""
""fullscreenenter"",""5"",""30646""
""fullscreenexit"",""126"",""755607""
""blur"",""126"",""757830""
""focus"",""126"",""795049""
","""event"",""trial"",""time""
""blur"",""126"",""757830""
","""event"",""trial"",""time""
""focus"",""126"",""795049""
","""event"",""trial"",""time""
""fullscreenenter"",""5"",""30646""
","""event"",""trial"",""time""
""fullscreenexit"",""126"",""755607""
","","images/earth.jpg","","","","","","","","","","","","","","fixation","","","","","",""
"d3-animate-choice","138","881388","0.0-76.0-0.1","260","685","17","Male","true","true","true","false","""event"",""trial"",""time""
""fullscreenenter"",""5"",""30646""
""fullscreenexit"",""126"",""755607""
""blur"",""126"",""757830""
""focus"",""126"",""795049""
","""event"",""trial"",""time""
""blur"",""126"",""757830""
","""event"",""trial"",""time""
""focus"",""126"",""795049""
","""event"",""trial"",""time""
""fullscreenenter"",""5"",""30646""
","""event"",""trial"",""time""
""fullscreenexit"",""126"",""755607""
","376.7000000178814","","48","","","3000","1","","","images/earth.jpg","images/rocket2","images/rocket1","null","images/rocket2","","1","real","null","2","","",""
"d3-animate-choice","139","884455","0.0-76.0-1.1","260","685","17","Male","true","true","true","false","""event"",""trial"",""time""
""fullscreenenter"",""5"",""30646""
""fullscreenexit"",""126"",""755607""
""blur"",""126"",""757830""
""focus"",""126"",""795049""
","""event"",""trial"",""time""
""blur"",""126"",""757830""
","""event"",""trial"",""time""
""focus"",""126"",""795049""
","""event"",""trial"",""time""
""fullscreenenter"",""5"",""30646""
","""event"",""trial"",""time""
""fullscreenexit"",""126"",""755607""
","1061.6000000238419","","48","","","3000","1","","","images/redplanet1.jpg","images/alien2","images/alien1","images/rocket2","images/alien2","images/t.png","2","real","false","2","rare","1","2022-02-08 01:32:29.421"
"two-step-fixation","140","885460","0.0-76.0-2.1","260","685","17","Male","true","true","true","false","""event"",""trial"",""time""
""fullscreenenter"",""5"",""30646""
""fullscreenexit"",""126"",""755607""
""blur"",""126"",""757830""
""focus"",""126"",""795049""
","""event"",""trial"",""time""
""blur"",""126"",""757830""
","""event"",""trial"",""time""
""focus"",""126"",""795049""
","""event"",""trial"",""time""
""fullscreenenter"",""5"",""30646""
","""event"",""trial"",""time""
""fullscreenexit"",""126"",""755607""
","","images/earth.jpg","","","","","","","","","","","","","","fixation","","","","","",""
"d3-animate-choice","141","887642","0.0-76.0-0.2","260","685","17","Male","true","true","true","false","""event"",""trial"",""time""
""fullscreenenter"",""5"",""30646""
""fullscreenexit"",""126"",""755607""
""blur"",""126"",""757830""
""focus"",""126"",""795049""
","""event"",""trial"",""time""
""blur"",""126"",""757830""
","""event"",""trial"",""time""
""focus"",""126"",""795049""
","""event"",""trial"",""time""
""fullscreenenter"",""5"",""30646""
","""event"",""trial"",""time""
""fullscreenexit"",""126"",""755607""
","175.5","","48","","","3000","1","","","images/earth.jpg","images/rocket2","images/rocket1","null","images/rocket2","","1","real","null","2","","",""
"d3-animate-choice","142","890303","0.0-76.0-1.2","260","685","17","Male","true","true","true","false","""event"",""trial"",""time""
""fullscreenenter"",""5"",""30646""
""fullscreenexit"",""126"",""755607""
""blur"",""126"",""757830""
""focus"",""126"",""795049""
","""event"",""trial"",""time""
""blur"",""126"",""757830""
","""event"",""trial"",""time""
""focus"",""126"",""795049""
","""event"",""trial"",""time""
""fullscreenenter"",""5"",""30646""
","""event"",""trial"",""time""
""fullscreenexit"",""126"",""755607""
","655.1999999880791","","48","","","3000","1","","","images/purpleplanet.jpg","images/alien4","images/alien3","images/rocket2","images/alien4","images/t.png","2","real","true","2","common","1","2022-02-08 01:32:35.270"
"two-step-fixation","143","891308","0.0-76.0-2.2","260","685","17","Male","true","true","true","false","""event"",""trial"",""time""
""fullscreenenter"",""5"",""30646""
""fullscreenexit"",""126"",""755607""
""blur"",""126"",""757830""
""focus"",""126"",""795049""
","""event"",""trial"",""time""
""blur"",""126"",""757830""
","""event"",""trial"",""time""
""focus"",""126"",""795049""
","""event"",""trial"",""time""
""fullscreenenter"",""5"",""30646""
","""event"",""trial"",""time""
""fullscreenexit"",""126"",""755607""
","","images/earth.jpg","","","","","","","","","","","","","","fixation","","","","","",""
"d3-animate-choice","144","893674","0.0-76.0-0.3","260","685","17","Male","true","true","true","false","""event"",""trial"",""time""
""fullscreenenter"",""5"",""30646""
""fullscreenexit"",""126"",""755607""
""blur"",""126"",""757830""
""focus"",""126"",""795049""
","""event"",""trial"",""time""
""blur"",""126"",""757830""
","""event"",""trial"",""time""
""focus"",""126"",""795049""
","""event"",""trial"",""time""
""fullscreenenter"",""5"",""30646""
","""event"",""trial"",""time""
""fullscreenexit"",""126"",""755607""
","360.59999999403954","","48","","","3000","1","","","images/earth.jpg","images/rocket2","images/rocket1","null","images/rocket2","","1","real","null","2","","",""
"d3-animate-choice","145","895971","0.0-76.0-1.3","260","685","17","Male","true","true","true","false","""event"",""trial"",""time""
""fullscreenenter"",""5"",""30646""
""fullscreenexit"",""126"",""755607""
""blur"",""126"",""757830""
""focus"",""126"",""795049""
","""event"",""trial"",""time""
""blur"",""126"",""757830""
","""event"",""trial"",""time""
""focus"",""126"",""795049""
","""event"",""trial"",""time""
""fullscreenenter"",""5"",""30646""
","""event"",""trial"",""time""
""fullscreenexit"",""126"",""755607""
","291","","48","","","3000","1","","","images/redplanet1.jpg","images/alien2","images/alien1","images/rocket2","images/alien2","images/t.png","2","real","false","2","rare","1","2022-02-08 01:32:40.937"
"two-step-fixation","146","896976","0.0-76.0-2.3","260","685","17","Male","true","true","true","false","""event"",""trial"",""time""
""fullscreenenter"",""5"",""30646""
""fullscreenexit"",""126"",""755607""
""blur"",""126"",""757830""
""focus"",""126"",""795049""
","""event"",""trial"",""time""
""blur"",""126"",""757830""
","""event"",""trial"",""time""
""focus"",""126"",""795049""
","""event"",""trial"",""time""
""fullscreenenter"",""5"",""30646""
","""event"",""trial"",""time""
""fullscreenexit"",""126"",""755607""
","","images/earth.jpg","","","","","","","","","","","","","","fixation","","","","","",""
"d3-animate-choice","147","899023","0.0-76.0-0.4","260","685","17","Male","true","true","true","false","""event"",""trial"",""time""
""fullscreenenter"",""5"",""30646""
""fullscreenexit"",""126"",""755607""
""blur"",""126"",""757830""
""focus"",""126"",""795049""
","""event"",""trial"",""time""
""blur"",""126"",""757830""
","""event"",""trial"",""time""
""focus"",""126"",""795049""
","""event"",""trial"",""time""
""fullscreenenter"",""5"",""30646""
","""event"",""trial"",""time""
""fullscreenexit"",""126"",""755607""
","40.79999998211861","","48","","","3000","1","276.90000000596046","48","images/earth.jpg","images/rocket2","images/rocket1","null","images/rocket2","","1","real","null","2","","",""
"d3-animate-choice","148","901153","0.0-76.0-1.4","260","685","17","Male","true","true","true","false","""event"",""trial"",""time""
""fullscreenenter"",""5"",""30646""
""fullscreenexit"",""126"",""755607""
""blur"",""126"",""757830""
""focus"",""126"",""795049""
","""event"",""trial"",""time""
""blur"",""126"",""757830""
","""event"",""trial"",""time""
""focus"",""126"",""795049""
","""event"",""trial"",""time""
""fullscreenenter"",""5"",""30646""
","""event"",""trial"",""time""
""fullscreenexit"",""126"",""755607""
","123.2000000178814","","48","","","3000","1","295.2000000178814,1327.7000000178814,1527,1714.1000000238419,1846.7000000178814,1991.1000000238419","48,48,48,48,48,48","images/purpleplanet.jpg","images/alien4","images/alien3","images/rocket2","images/alien4","images/t.png","2","real","true","2","common","1","2022-02-08 01:32:46.120"
"two-step-fixation","149","902158","0.0-76.0-2.4","260","685","17","Male","true","true","true","false","""event"",""trial"",""time""
""fullscreenenter"",""5"",""30646""
""fullscreenexit"",""126"",""755607""
""blur"",""126"",""757830""
""focus"",""126"",""795049""
","""event"",""trial"",""time""
""blur"",""126"",""757830""
","""event"",""trial"",""time""
""focus"",""126"",""795049""
","""event"",""trial"",""time""
""fullscreenenter"",""5"",""30646""
","""event"",""trial"",""time""
""fullscreenexit"",""126"",""755607""
","","images/earth.jpg","","","","","","","","","","","","","","fixation","","","","","",""
"d3-animate-choice","150","904302","0.0-76.0-0.5","260","685","17","Male","true","true","true","false","""event"",""trial"",""time""
""fullscreenenter"",""5"",""30646""
""fullscreenexit"",""126"",""755607""
""blur"",""126"",""757830""
""focus"",""126"",""795049""
","""event"",""trial"",""time""
""blur"",""126"",""757830""
","""event"",""trial"",""time""
""focus"",""126"",""795049""
","""event"",""trial"",""time""
""fullscreenenter"",""5"",""30646""
","""event"",""trial"",""time""
""fullscreenexit"",""126"",""755607""
","137","","48","","","3000","1","1990.9000000059605,2136.800000011921","48,48","images/earth.jpg","images/rocket2","images/rocket1","null","images/rocket2","","1","real","null","2","","",""
"d3-animate-choice","151","906464","0.0-76.0-1.5","260","685","17","Male","true","true","true","false","""event"",""trial"",""time""
""fullscreenenter"",""5"",""30646""
""fullscreenexit"",""126"",""755607""
""blur"",""126"",""757830""
""focus"",""126"",""795049""
","""event"",""trial"",""time""
""blur"",""126"",""757830""
","""event"",""trial"",""time""
""focus"",""126"",""795049""
","""event"",""trial"",""time""
""fullscreenenter"",""5"",""30646""
","""event"",""trial"",""time""
""fullscreenexit"",""126"",""755607""
","156.7000000178814","","48","","","3000","1","300.60000002384186,542.1000000238419","48,48","images/purpleplanet.jpg","images/alien4","images/alien3","images/rocket2","images/alien4","images/nothing.png","2","real","true","2","common","0","2022-02-08 01:32:51.431"
"two-step-fixation","152","907470","0.0-76.0-2.5","260","685","17","Male","true","true","true","false","""event"",""trial"",""time""
""fullscreenenter"",""5"",""30646""
""fullscreenexit"",""126"",""755607""
""blur"",""126"",""757830""
""focus"",""126"",""795049""
","""event"",""trial"",""time""
""blur"",""126"",""757830""
","""event"",""trial"",""time""
""focus"",""126"",""795049""
","""event"",""trial"",""time""
""fullscreenenter"",""5"",""30646""
","""event"",""trial"",""time""
""fullscreenexit"",""126"",""755607""
","","images/earth.jpg","","","","","","","","","","","","","","fixation","","","","","",""
"d3-animate-choice","153","910617","0.0-76.0-0.6","260","685","17","Male","true","true","true","false","""event"",""trial"",""time""
""fullscreenenter"",""5"",""30646""
""fullscreenexit"",""126"",""755607""
""blur"",""126"",""757830""
""focus"",""126"",""795049""
","""event"",""trial"",""time""
""blur"",""126"",""757830""
","""event"",""trial"",""time""
""focus"",""126"",""795049""
","""event"",""trial"",""time""
""fullscreenenter"",""5"",""30646""
","""event"",""trial"",""time""
""fullscreenexit"",""126"",""755607""
","1140","","48","","","3000","1","2572,2773.4000000059605,2959.9000000059605,3124.100000023842","48,48,48,48","images/earth.jpg","images/rocket2","images/rocket1","null","images/rocket2","","1","real","null","2","","",""
"d3-animate-choice","154","912761","0.0-76.0-1.6","260","685","17","Male","true","true","true","false","""event"",""trial"",""time""
""fullscreenenter"",""5"",""30646""
""fullscreenexit"",""126"",""755607""
""blur"",""126"",""757830""
""focus"",""126"",""795049""
","""event"",""trial"",""time""
""blur"",""126"",""757830""
","""event"",""trial"",""time""
""focus"",""126"",""795049""
","""event"",""trial"",""time""
""fullscreenenter"",""5"",""30646""
","""event"",""trial"",""time""
""fullscreenexit"",""126"",""755607""
","138.40000000596046","","48","","","3000","1","301.59999999403954","48","images/redplanet1.jpg","images/alien2","images/alien1","images/rocket2","images/alien2","images/t.png","2","real","false","2","rare","1","2022-02-08 01:32:57.728"
"two-step-fixation","155","913767","0.0-76.0-2.6","260","685","17","Male","true","true","true","false","""event"",""trial"",""time""
""fullscreenenter"",""5"",""30646""
""fullscreenexit"",""126"",""755607""
""blur"",""126"",""757830""
""focus"",""126"",""795049""
","""event"",""trial"",""time""
""blur"",""126"",""757830""
","""event"",""trial"",""time""
""focus"",""126"",""795049""
","""event"",""trial"",""time""
""fullscreenenter"",""5"",""30646""
","""event"",""trial"",""time""
""fullscreenexit"",""126"",""755607""
","","images/earth.jpg","","","","","","","","","","","","","","fixation","","","","","",""
"d3-animate-choice","156","915813","0.0-76.0-0.7","260","685","17","Male","true","true","true","false","""event"",""trial"",""time""
""fullscreenenter"",""5"",""30646""
""fullscreenexit"",""126"",""755607""
""blur"",""126"",""757830""
""focus"",""126"",""795049""
","""event"",""trial"",""time""
""blur"",""126"",""757830""
","""event"",""trial"",""time""
""focus"",""126"",""795049""
","""event"",""trial"",""time""
""fullscreenenter"",""5"",""30646""
","""event"",""trial"",""time""
""fullscreenexit"",""126"",""755607""
","38.30000001192093","","48","","","3000","1","","","images/earth.jpg","images/rocket2","images/rocket1","null","images/rocket2","","1","real","null","2","","",""
"d3-animate-choice","157","918218","0.0-76.0-1.7","260","685","17","Male","true","true","true","false","""event"",""trial"",""time""
""fullscreenenter"",""5"",""30646""
""fullscreenexit"",""126"",""755607""
""blur"",""126"",""757830""
""focus"",""126"",""795049""
","""event"",""trial"",""time""
""blur"",""126"",""757830""
","""event"",""trial"",""time""
""focus"",""126"",""795049""
","""event"",""trial"",""time""
""fullscreenenter"",""5"",""30646""
","""event"",""trial"",""time""
""fullscreenexit"",""126"",""755607""
","399.09999999403954","","48","","","3000","1","2192.5999999940395","48","images/redplanet1.jpg","images/alien2","images/alien1","images/rocket2","images/alien2","images/t.png","2","real","false","2","rare","1","2022-02-08 01:33:03.184"
"two-step-fixation","158","919223","0.0-76.0-2.7","260","685","17","Male","true","true","true","false","""event"",""trial"",""time""
""fullscreenenter"",""5"",""30646""
""fullscreenexit"",""126"",""755607""
""blur"",""126"",""757830""
""focus"",""126"",""795049""
","""event"",""trial"",""time""
""blur"",""126"",""757830""
","""event"",""trial"",""time""
""focus"",""126"",""795049""
","""event"",""trial"",""time""
""fullscreenenter"",""5"",""30646""
","""event"",""trial"",""time""
""fullscreenexit"",""126"",""755607""
","","images/earth.jpg","","","","","","","","","","","","","","fixation","","","","","",""
"d3-animate-choice","159","922584","0.0-76.0-0.8","260","685","17","Male","true","true","true","false","""event"",""trial"",""time""
""fullscreenenter"",""5"",""30646""
""fullscreenexit"",""126"",""755607""
""blur"",""126"",""757830""
""focus"",""126"",""795049""
","""event"",""trial"",""time""
""blur"",""126"",""757830""
","""event"",""trial"",""time""
""focus"",""126"",""795049""
","""event"",""trial"",""time""
""fullscreenenter"",""5"",""30646""
","""event"",""trial"",""time""
""fullscreenexit"",""126"",""755607""
","1354.5999999940395","","48","","","3000","1","","","images/earth.jpg","images/rocket2","images/rocket1","null","images/rocket2","","1","real","null","2","","",""
"d3-animate-choice","160","925145","0.0-76.0-1.8","260","685","17","Male","true","true","true","false","""event"",""trial"",""time""
""fullscreenenter"",""5"",""30646""
""fullscreenexit"",""126"",""755607""
""blur"",""126"",""757830""
""focus"",""126"",""795049""
","""event"",""trial"",""time""
""blur"",""126"",""757830""
","""event"",""trial"",""time""
""focus"",""126"",""795049""
","""event"",""trial"",""time""
""fullscreenenter"",""5"",""30646""
","""event"",""trial"",""time""
""fullscreenexit"",""126"",""755607""
","552.3000000119209","","48","","","3000","1","","","images/purpleplanet.jpg","images/alien4","images/alien3","images/rocket2","images/alien4","images/t.png","2","real","true","2","common","1","2022-02-08 01:33:10.111"
"two-step-fixation","161","926150","0.0-76.0-2.8","260","685","17","Male","true","true","true","false","""event"",""trial"",""time""
""fullscreenenter"",""5"",""30646""
""fullscreenexit"",""126"",""755607""
""blur"",""126"",""757830""
""focus"",""126"",""795049""
","""event"",""trial"",""time""
""blur"",""126"",""757830""
","""event"",""trial"",""time""
""focus"",""126"",""795049""
","""event"",""trial"",""time""
""fullscreenenter"",""5"",""30646""
","""event"",""trial"",""time""
""fullscreenexit"",""126"",""755607""
","","images/earth.jpg","","","","","","","","","","","","","","fixation","","","","","",""
"d3-animate-choice","162","928454","0.0-76.0-0.9","260","685","17","Male","true","true","true","false","""event"",""trial"",""time""
""fullscreenenter"",""5"",""30646""
""fullscreenexit"",""126"",""755607""
""blur"",""126"",""757830""
""focus"",""126"",""795049""
","""event"",""trial"",""time""
""blur"",""126"",""757830""
","""event"",""trial"",""time""
""focus"",""126"",""795049""
","""event"",""trial"",""time""
""fullscreenenter"",""5"",""30646""
","""event"",""trial"",""time""
""fullscreenexit"",""126"",""755607""
","296.90000000596046","","48","","","3000","1","","","images/earth.jpg","images/rocket2","images/rocket1","null","images/rocket2","","1","real","null","2","","",""
"d3-animate-choice","163","931065","0.0-76.0-1.9","260","685","17","Male","true","true","true","false","""event"",""trial"",""time""
""fullscreenenter"",""5"",""30646""
""fullscreenexit"",""126"",""755607""
""blur"",""126"",""757830""
""focus"",""126"",""795049""
","""event"",""trial"",""time""
""blur"",""126"",""757830""
","""event"",""trial"",""time""
""focus"",""126"",""795049""
","""event"",""trial"",""time""
""fullscreenenter"",""5"",""30646""
","""event"",""trial"",""time""
""fullscreenexit"",""126"",""755607""
","606","","48","","","3000","1","","","images/purpleplanet.jpg","images/alien4","images/alien3","images/rocket2","images/alien4","images/nothing.png","2","real","true","2","common","0","2022-02-08 01:33:16.032"
"two-step-fixation","164","932071","0.0-76.0-2.9","260","685","17","Male","true","true","true","false","""event"",""trial"",""time""
""fullscreenenter"",""5"",""30646""
""fullscreenexit"",""126"",""755607""
""blur"",""126"",""757830""
""focus"",""126"",""795049""
","""event"",""trial"",""time""
""blur"",""126"",""757830""
","""event"",""trial"",""time""
""focus"",""126"",""795049""
","""event"",""trial"",""time""
""fullscreenenter"",""5"",""30646""
","""event"",""trial"",""time""
""fullscreenexit"",""126"",""755607""
","","images/earth.jpg","","","","","","","","","","","","","","fixation","","","","","",""
"d3-animate-choice","165","934868","0.0-76.0-0.10","260","685","17","Male","true","true","true","false","""event"",""trial"",""time""
""fullscreenenter"",""5"",""30646""
""fullscreenexit"",""126"",""755607""
""blur"",""126"",""757830""
""focus"",""126"",""795049""
","""event"",""trial"",""time""
""blur"",""126"",""757830""
","""event"",""trial"",""time""
""focus"",""126"",""795049""
","""event"",""trial"",""time""
""fullscreenenter"",""5"",""30646""
","""event"",""trial"",""time""
""fullscreenexit"",""126"",""755607""
","791.2999999821186","","48","","","3000","1","","","images/earth.jpg","images/rocket2","images/rocket1","null","images/rocket2","","1","real","null","2","","",""
"d3-animate-choice","166","937742","0.0-76.0-1.10","260","685","17","Male","true","true","true","false","""event"",""trial"",""time""
""fullscreenenter"",""5"",""30646""
""fullscreenexit"",""126"",""755607""
""blur"",""126"",""757830""
""focus"",""126"",""795049""
","""event"",""trial"",""time""
""blur"",""126"",""757830""
","""event"",""trial"",""time""
""focus"",""126"",""795049""
","""event"",""trial"",""time""
""fullscreenenter"",""5"",""30646""
","""event"",""trial"",""time""
""fullscreenexit"",""126"",""755607""
","867.9000000059605","","48","","","3000","1","","","images/purpleplanet.jpg","images/alien4","images/alien3","images/rocket2","images/alien4","images/t.png","2","real","true","2","common","1","2022-02-08 01:33:22.708"
"two-step-fixation","167","938748","0.0-76.0-2.10","260","685","17","Male","true","true","true","false","""event"",""trial"",""time""
""fullscreenenter"",""5"",""30646""
""fullscreenexit"",""126"",""755607""
""blur"",""126"",""757830""
""focus"",""126"",""795049""
","""event"",""trial"",""time""
""blur"",""126"",""757830""
","""event"",""trial"",""time""
""focus"",""126"",""795049""
","""event"",""trial"",""time""
""fullscreenenter"",""5"",""30646""
","""event"",""trial"",""time""
""fullscreenexit"",""126"",""755607""
","","images/earth.jpg","","","","","","","","","","","","","","fixation","","","","","",""
"d3-animate-choice","168","941113","0.0-76.0-0.11","260","685","17","Male","true","true","true","false","""event"",""trial"",""time""
""fullscreenenter"",""5"",""30646""
""fullscreenexit"",""126"",""755607""
""blur"",""126"",""757830""
""focus"",""126"",""795049""
","""event"",""trial"",""time""
""blur"",""126"",""757830""
","""event"",""trial"",""time""
""focus"",""126"",""795049""
","""event"",""trial"",""time""
""fullscreenenter"",""5"",""30646""
","""event"",""trial"",""time""
""fullscreenexit"",""126"",""755607""
","360.2000000178814","","48","","","3000","1","","","images/earth.jpg","images/rocket2","images/rocket1","null","images/rocket2","","1","real","null","2","","",""
"d3-animate-choice","169","943134","0.0-76.0-1.11","260","685","17","Male","true","true","true","false","""event"",""trial"",""time""
""fullscreenenter"",""5"",""30646""
""fullscreenexit"",""126"",""755607""
""blur"",""126"",""757830""
""focus"",""126"",""795049""
","""event"",""trial"",""time""
""blur"",""126"",""757830""
","""event"",""trial"",""time""
""focus"",""126"",""795049""
","""event"",""trial"",""time""
""fullscreenenter"",""5"",""30646""
","""event"",""trial"",""time""
""fullscreenexit"",""126"",""755607""
","14.700000017881393","","48","","","3000","1","258.2000000178814,495.60000002384186,827.1000000238419","48,48,48","images/purpleplanet.jpg","images/alien4","images/alien3","images/rocket2","images/alien4","images/t.png","2","real","true","2","common","1","2022-02-08 01:33:28.100"
"two-step-fixation","170","944139","0.0-76.0-2.11","260","685","17","Male","true","true","true","false","""event"",""trial"",""time""
""fullscreenenter"",""5"",""30646""
""fullscreenexit"",""126"",""755607""
""blur"",""126"",""757830""
""focus"",""126"",""795049""
","""event"",""trial"",""time""
""blur"",""126"",""757830""
","""event"",""trial"",""time""
""focus"",""126"",""795049""
","""event"",""trial"",""time""
""fullscreenenter"",""5"",""30646""
","""event"",""trial"",""time""
""fullscreenexit"",""126"",""755607""
","","images/earth.jpg","","","","","","","","","","","","","","fixation","","","","","",""
"d3-animate-choice","171","948144","0.0-76.0-0.12","260","685","17","Male","true","true","true","false","""event"",""trial"",""time""
""fullscreenenter"",""5"",""30646""
""fullscreenexit"",""126"",""755607""
""blur"",""126"",""757830""
""focus"",""126"",""795049""
","""event"",""trial"",""time""
""blur"",""126"",""757830""
","""event"",""trial"",""time""
""focus"",""126"",""795049""
","""event"",""trial"",""time""
""fullscreenenter"",""5"",""30646""
","""event"",""trial"",""time""
""fullscreenexit"",""126"",""755607""
","2567.5","","48","","","3000","1","2761.5,2963,3186.4000000059605,3363.5,3562,3771.199999988079,3978","48,48,48,48,48,48,48","images/earth.jpg","images/rocket2","images/rocket1","null","images/rocket2","","1","real","null","2","","",""
"d3-animate-choice","172","950287","0.0-76.0-1.12","260","685","17","Male","true","true","true","false","""event"",""trial"",""time""
""fullscreenenter"",""5"",""30646""
""fullscreenexit"",""126"",""755607""
""blur"",""126"",""757830""
""focus"",""126"",""795049""
","""event"",""trial"",""time""
""blur"",""126"",""757830""
","""event"",""trial"",""time""
""focus"",""126"",""795049""
","""event"",""trial"",""time""
""fullscreenenter"",""5"",""30646""
","""event"",""trial"",""time""
""fullscreenexit"",""126"",""755607""
","136.90000000596046","","48","","","3000","1","318.30000001192093","48","images/redplanet1.jpg","images/alien2","images/alien1","images/rocket2","images/alien2","images/nothing.png","2","real","false","2","rare","0","2022-02-08 01:33:35.253"
"two-step-fixation","173","951291","0.0-76.0-2.12","260","685","17","Male","true","true","true","false","""event"",""trial"",""time""
""fullscreenenter"",""5"",""30646""
""fullscreenexit"",""126"",""755607""
""blur"",""126"",""757830""
""focus"",""126"",""795049""
","""event"",""trial"",""time""
""blur"",""126"",""757830""
","""event"",""trial"",""time""
""focus"",""126"",""795049""
","""event"",""trial"",""time""
""fullscreenenter"",""5"",""30646""
","""event"",""trial"",""time""
""fullscreenexit"",""126"",""755607""
","","images/earth.jpg","","","","","","","","","","","","","","fixation","","","","","",""
"d3-animate-choice","174","954176","0.0-76.0-0.13","260","685","17","Male","true","true","true","false","""event"",""trial"",""time""
""fullscreenenter"",""5"",""30646""
""fullscreenexit"",""126"",""755607""
""blur"",""126"",""757830""
""focus"",""126"",""795049""
","""event"",""trial"",""time""
""blur"",""126"",""757830""
","""event"",""trial"",""time""
""focus"",""126"",""795049""
","""event"",""trial"",""time""
""fullscreenenter"",""5"",""30646""
","""event"",""trial"",""time""
""fullscreenexit"",""126"",""755607""
","878.5","","48","","","3000","1","2472,2727.5","49,49","images/earth.jpg","images/rocket2","images/rocket1","null","images/rocket2","","1","real","null","2","","",""
"d3-animate-choice","175","956462","0.0-76.0-1.13","260","685","17","Male","true","true","true","false","""event"",""trial"",""time""
""fullscreenenter"",""5"",""30646""
""fullscreenexit"",""126"",""755607""
""blur"",""126"",""757830""
""focus"",""126"",""795049""
","""event"",""trial"",""time""
""blur"",""126"",""757830""
","""event"",""trial"",""time""
""focus"",""126"",""795049""
","""event"",""trial"",""time""
""fullscreenenter"",""5"",""30646""
","""event"",""trial"",""time""
""fullscreenexit"",""126"",""755607""
","280.59999999403954","","49","","","3000","1","466.69999998807907","49","images/purpleplanet.jpg","images/alien4","images/alien3","images/rocket2","images/alien3","images/nothing.png","2","real","true","1","common","0","2022-02-08 01:33:41.428"
"two-step-fixation","176","957466","0.0-76.0-2.13","260","685","17","Male","true","true","true","false","""event"",""trial"",""time""
""fullscreenenter"",""5"",""30646""
""fullscreenexit"",""126"",""755607""
""blur"",""126"",""757830""
""focus"",""126"",""795049""
","""event"",""trial"",""time""
""blur"",""126"",""757830""
","""event"",""trial"",""time""
""focus"",""126"",""795049""
","""event"",""trial"",""time""
""fullscreenenter"",""5"",""30646""
","""event"",""trial"",""time""
""fullscreenexit"",""126"",""755607""
","","images/earth.jpg","","","","","","","","","","","","","","fixation","","","","","",""
"d3-animate-choice","177","959812","0.0-76.0-0.14","260","685","17","Male","true","true","true","false","""event"",""trial"",""time""
""fullscreenenter"",""5"",""30646""
""fullscreenexit"",""126"",""755607""
""blur"",""126"",""757830""
""focus"",""126"",""795049""
","""event"",""trial"",""time""
""blur"",""126"",""757830""
","""event"",""trial"",""time""
""focus"",""126"",""795049""
","""event"",""trial"",""time""
""fullscreenenter"",""5"",""30646""
","""event"",""trial"",""time""
""fullscreenexit"",""126"",""755607""
","338.59999999403954","","49","","","3000","1","","","images/earth.jpg","images/rocket2","images/rocket1","null","images/rocket1","","1","real","null","1","","",""
"d3-animate-choice","178","962064","0.0-76.0-1.14","260","685","17","Male","true","true","true","false","""event"",""trial"",""time""
""fullscreenenter"",""5"",""30646""
""fullscreenexit"",""126"",""755607""
""blur"",""126"",""757830""
""focus"",""126"",""795049""
","""event"",""trial"",""time""
""blur"",""126"",""757830""
","""event"",""trial"",""time""
""focus"",""126"",""795049""
","""event"",""trial"",""time""
""fullscreenenter"",""5"",""30646""
","""event"",""trial"",""time""
""fullscreenexit"",""126"",""755607""
","245.19999998807907","","48","","","3000","1","","","images/redplanet1.jpg","images/alien2","images/alien1","images/rocket1","images/alien2","images/nothing.png","2","real","true","2","common","0","2022-02-08 01:33:47.033"
"two-step-fixation","179","963071","0.0-76.0-2.14","260","685","17","Male","true","true","true","false","""event"",""trial"",""time""
""fullscreenenter"",""5"",""30646""
""fullscreenexit"",""126"",""755607""
""blur"",""126"",""757830""
""focus"",""126"",""795049""
","""event"",""trial"",""time""
""blur"",""126"",""757830""
","""event"",""trial"",""time""
""focus"",""126"",""795049""
","""event"",""trial"",""time""
""fullscreenenter"",""5"",""30646""
","""event"",""trial"",""time""
""fullscreenexit"",""126"",""755607""
","","images/earth.jpg","","","","","","","","","","","","","","fixation","","","","","",""
"d3-animate-choice","180","965137","0.0-76.0-0.15","260","685","17","Male","true","true","true","false","""event"",""trial"",""time""
""fullscreenenter"",""5"",""30646""
""fullscreenexit"",""126"",""755607""
""blur"",""126"",""757830""
""focus"",""126"",""795049""
","""event"",""trial"",""time""
""blur"",""126"",""757830""
","""event"",""trial"",""time""
""focus"",""126"",""795049""
","""event"",""trial"",""time""
""fullscreenenter"",""5"",""30646""
","""event"",""trial"",""time""
""fullscreenexit"",""126"",""755607""
","59","","48","","","3000","1","","","images/earth.jpg","images/rocket2","images/rocket1","null","images/rocket2","","1","real","null","2","","",""
"d3-animate-choice","181","967431","0.0-76.0-1.15","260","685","17","Male","true","true","true","false","""event"",""trial"",""time""
""fullscreenenter"",""5"",""30646""
""fullscreenexit"",""126"",""755607""
""blur"",""126"",""757830""
""focus"",""126"",""795049""
","""event"",""trial"",""time""
""blur"",""126"",""757830""
","""event"",""trial"",""time""
""focus"",""126"",""795049""
","""event"",""trial"",""time""
""fullscreenenter"",""5"",""30646""
","""event"",""trial"",""time""
""fullscreenexit"",""126"",""755607""
","287.09999999403954","","49","","","3000","1","","","images/purpleplanet.jpg","images/alien4","images/alien3","images/rocket2","images/alien3","images/nothing.png","2","real","true","1","common","0","2022-02-08 01:33:52.397"
"two-step-fixation","182","968436","0.0-76.0-2.15","260","685","17","Male","true","true","true","false","""event"",""trial"",""time""
""fullscreenenter"",""5"",""30646""
""fullscreenexit"",""126"",""755607""
""blur"",""126"",""757830""
""focus"",""126"",""795049""
","""event"",""trial"",""time""
""blur"",""126"",""757830""
","""event"",""trial"",""time""
""focus"",""126"",""795049""
","""event"",""trial"",""time""
""fullscreenenter"",""5"",""30646""
","""event"",""trial"",""time""
""fullscreenexit"",""126"",""755607""
","","images/earth.jpg","","","","","","","","","","","","","","fixation","","","","","",""
"d3-animate-choice","183","971163","0.0-76.0-0.16","260","685","17","Male","true","true","true","false","""event"",""trial"",""time""
""fullscreenenter"",""5"",""30646""
""fullscreenexit"",""126"",""755607""
""blur"",""126"",""757830""
""focus"",""126"",""795049""
","""event"",""trial"",""time""
""blur"",""126"",""757830""
","""event"",""trial"",""time""
""focus"",""126"",""795049""
","""event"",""trial"",""time""
""fullscreenenter"",""5"",""30646""
","""event"",""trial"",""time""
""fullscreenexit"",""126"",""755607""
","719.0999999940395","","48","","","3000","1","","","images/earth.jpg","images/rocket2","images/rocket1","null","images/rocket2","","1","real","null","2","","",""
"d3-animate-choice","184","973512","0.0-76.0-1.16","260","685","17","Male","true","true","true","false","""event"",""trial"",""time""
""fullscreenenter"",""5"",""30646""
""fullscreenexit"",""126"",""755607""
""blur"",""126"",""757830""
""focus"",""126"",""795049""
","""event"",""trial"",""time""
""blur"",""126"",""757830""
","""event"",""trial"",""time""
""focus"",""126"",""795049""
","""event"",""trial"",""time""
""fullscreenenter"",""5"",""30646""
","""event"",""trial"",""time""
""fullscreenexit"",""126"",""755607""
","341.80000001192093","","48","","","3000","1","","","images/purpleplanet.jpg","images/alien4","images/alien3","images/rocket2","images/alien4","images/t.png","2","real","true","2","common","1","2022-02-08 01:33:58.478"
"two-step-fixation","185","974517","0.0-76.0-2.16","260","685","17","Male","true","true","true","false","""event"",""trial"",""time""
""fullscreenenter"",""5"",""30646""
""fullscreenexit"",""126"",""755607""
""blur"",""126"",""757830""
""focus"",""126"",""795049""
","""event"",""trial"",""time""
""blur"",""126"",""757830""
","""event"",""trial"",""time""
""focus"",""126"",""795049""
","""event"",""trial"",""time""
""fullscreenenter"",""5"",""30646""
","""event"",""trial"",""time""
""fullscreenexit"",""126"",""755607""
","","images/earth.jpg","","","","","","","","","","","","","","fixation","","","","","",""
"d3-animate-choice","186","977226","0.0-76.0-0.17","260","685","17","Male","true","true","true","false","""event"",""trial"",""time""
""fullscreenenter"",""5"",""30646""
""fullscreenexit"",""126"",""755607""
""blur"",""126"",""757830""
""focus"",""126"",""795049""
","""event"",""trial"",""time""
""blur"",""126"",""757830""
","""event"",""trial"",""time""
""focus"",""126"",""795049""
","""event"",""trial"",""time""
""fullscreenenter"",""5"",""30646""
","""event"",""trial"",""time""
""fullscreenexit"",""126"",""755607""
","701.8000000119209","","48","","","3000","1","2411.9000000059605","48","images/earth.jpg","images/rocket2","images/rocket1","null","images/rocket2","","1","real","null","2","","",""
"d3-animate-choice","187","979247","0.0-76.0-1.17","260","685","17","Male","true","true","true","false","""event"",""trial"",""time""
""fullscreenenter"",""5"",""30646""
""fullscreenexit"",""126"",""755607""
""blur"",""126"",""757830""
""focus"",""126"",""795049""
","""event"",""trial"",""time""
""blur"",""126"",""757830""
","""event"",""trial"",""time""
""focus"",""126"",""795049""
","""event"",""trial"",""time""
""fullscreenenter"",""5"",""30646""
","""event"",""trial"",""time""
""fullscreenexit"",""126"",""755607""
","14.099999994039536","","48","","","3000","1","196.40000000596046","48","images/purpleplanet.jpg","images/alien4","images/alien3","images/rocket2","images/alien4","images/nothing.png","2","real","true","2","common","0","2022-02-08 01:34:04.213"
"two-step-fixation","188","980252","0.0-76.0-2.17","260","685","17","Male","true","true","true","false","""event"",""trial"",""time""
""fullscreenenter"",""5"",""30646""
""fullscreenexit"",""126"",""755607""
""blur"",""126"",""757830""
""focus"",""126"",""795049""
","""event"",""trial"",""time""
""blur"",""126"",""757830""
","""event"",""trial"",""time""
""focus"",""126"",""795049""
","""event"",""trial"",""time""
""fullscreenenter"",""5"",""30646""
","""event"",""trial"",""time""
""fullscreenexit"",""126"",""755607""
","","images/earth.jpg","","","","","","","","","","","","","","fixation","","","","","",""
"d3-animate-choice","189","982364","0.0-76.0-0.18","260","685","17","Male","true","true","true","false","""event"",""trial"",""time""
""fullscreenenter"",""5"",""30646""
""fullscreenexit"",""126"",""755607""
""blur"",""126"",""757830""
""focus"",""126"",""795049""
","""event"",""trial"",""time""
""blur"",""126"",""757830""
","""event"",""trial"",""time""
""focus"",""126"",""795049""
","""event"",""trial"",""time""
""fullscreenenter"",""5"",""30646""
","""event"",""trial"",""time""
""fullscreenexit"",""126"",""755607""
","105.7999999821186","","49","","","3000","1","","","images/earth.jpg","images/rocket2","images/rocket1","null","images/rocket1","","1","real","null","1","","",""
"d3-animate-choice","190","984871","0.0-76.0-1.18","260","685","17","Male","true","true","true","false","""event"",""trial"",""time""
""fullscreenenter"",""5"",""30646""
""fullscreenexit"",""126"",""755607""
""blur"",""126"",""757830""
""focus"",""126"",""795049""
","""event"",""trial"",""time""
""blur"",""126"",""757830""
","""event"",""trial"",""time""
""focus"",""126"",""795049""
","""event"",""trial"",""time""
""fullscreenenter"",""5"",""30646""
","""event"",""trial"",""time""
""fullscreenexit"",""126"",""755607""
","499.90000000596046","","48","","","3000","1","","","images/redplanet1.jpg","images/alien2","images/alien1","images/rocket1","images/alien2","images/t.png","2","real","true","2","common","1","2022-02-08 01:34:09.837"
"two-step-fixation","191","985876","0.0-76.0-2.18","260","685","17","Male","true","true","true","false","""event"",""trial"",""time""
""fullscreenenter"",""5"",""30646""
""fullscreenexit"",""126"",""755607""
""blur"",""126"",""757830""
""focus"",""126"",""795049""
","""event"",""trial"",""time""
""blur"",""126"",""757830""
","""event"",""trial"",""time""
""focus"",""126"",""795049""
","""event"",""trial"",""time""
""fullscreenenter"",""5"",""30646""
","""event"",""trial"",""time""
""fullscreenexit"",""126"",""755607""
","","images/earth.jpg","","","","","","","","","","","","","","fixation","","","","","",""
"d3-animate-choice","192","988345","0.0-76.0-0.19","260","685","17","Male","true","true","true","false","""event"",""trial"",""time""
""fullscreenenter"",""5"",""30646""
""fullscreenexit"",""126"",""755607""
""blur"",""126"",""757830""
""focus"",""126"",""795049""
","""event"",""trial"",""time""
""blur"",""126"",""757830""
","""event"",""trial"",""time""
""focus"",""126"",""795049""
","""event"",""trial"",""time""
""fullscreenenter"",""5"",""30646""
","""event"",""trial"",""time""
""fullscreenexit"",""126"",""755607""
","461.7999999821186","","49","","","3000","1","","","images/earth.jpg","images/rocket2","images/rocket1","null","images/rocket1","","1","real","null","1","","",""
"d3-animate-choice","193","990554","0.0-76.0-1.19","260","685","17","Male","true","true","true","false","""event"",""trial"",""time""
""fullscreenenter"",""5"",""30646""
""fullscreenexit"",""126"",""755607""
""blur"",""126"",""757830""
""focus"",""126"",""795049""
","""event"",""trial"",""time""
""blur"",""126"",""757830""
","""event"",""trial"",""time""
""focus"",""126"",""795049""
","""event"",""trial"",""time""
""fullscreenenter"",""5"",""30646""
","""event"",""trial"",""time""
""fullscreenexit"",""126"",""755607""
","202.60000002384186","","48","","","3000","1","","","images/redplanet1.jpg","images/alien2","images/alien1","images/rocket1","images/alien2","images/t.png","2","real","true","2","common","1","2022-02-08 01:34:15.520"
"two-step-fixation","194","991559","0.0-76.0-2.19","260","685","17","Male","true","true","true","false","""event"",""trial"",""time""
""fullscreenenter"",""5"",""30646""
""fullscreenexit"",""126"",""755607""
""blur"",""126"",""757830""
""focus"",""126"",""795049""
","""event"",""trial"",""time""
""blur"",""126"",""757830""
","""event"",""trial"",""time""
""focus"",""126"",""795049""
","""event"",""trial"",""time""
""fullscreenenter"",""5"",""30646""
","""event"",""trial"",""time""
""fullscreenexit"",""126"",""755607""
","","images/earth.jpg","","","","","","","","","","","","","","fixation","","","","","",""
"d3-animate-choice","195","993852","0.0-76.0-0.20","260","685","17","Male","true","true","true","false","""event"",""trial"",""time""
""fullscreenenter"",""5"",""30646""
""fullscreenexit"",""126"",""755607""
""blur"",""126"",""757830""
""focus"",""126"",""795049""
","""event"",""trial"",""time""
""blur"",""126"",""757830""
","""event"",""trial"",""time""
""focus"",""126"",""795049""
","""event"",""trial"",""time""
""fullscreenenter"",""5"",""30646""
","""event"",""trial"",""time""
""fullscreenexit"",""126"",""755607""
","285.90000000596046","","49","","","3000","1","","","images/earth.jpg","images/rocket2","images/rocket1","null","images/rocket1","","1","real","null","1","","",""
"d3-animate-choice","196","996060","0.0-76.0-1.20","260","685","17","Male","true","true","true","false","""event"",""trial"",""time""
""fullscreenenter"",""5"",""30646""
""fullscreenexit"",""126"",""755607""
""blur"",""126"",""757830""
""focus"",""126"",""795049""
","""event"",""trial"",""time""
""blur"",""126"",""757830""
","""event"",""trial"",""time""
""focus"",""126"",""795049""
","""event"",""trial"",""time""
""fullscreenenter"",""5"",""30646""
","""event"",""trial"",""time""
""fullscreenexit"",""126"",""755607""
","203.19999998807907","","48","","","3000","1","","","images/redplanet1.jpg","images/alien2","images/alien1","images/rocket1","images/alien2","images/nothing.png","2","real","true","2","common","0","2022-02-08 01:34:21.027"
"two-step-fixation","197","997066","0.0-76.0-2.20","260","685","17","Male","true","true","true","false","""event"",""trial"",""time""
""fullscreenenter"",""5"",""30646""
