"trial_type","trial_index","time_elapsed","internal_node_id","participant_id","subject_id","age","gender","rocket_sides","red_planet_first_rocket","red_display_order","purple_display_order","interactions","blur_events","focus_events","fullscreenenter_events","fullscreenexit_events","rt","stimulus","key_press","button_pressed","success","duration","valid_pressed","rts","keys","planet_text","right_text","left_text","center_text","chosen_text","reward_text","trial_stage","practice_trial","transition_type","choice","transition","reward","timestamp"
"pavlovia","0","2","0.0-0.0","547","749","10","Female","true","true","true","true","""event"",""trial"",""time""
""blur"",""0"",""0""
""focus"",""1"",""5553""
","""event"",""trial"",""time""
""blur"",""0"",""0""
","""event"",""trial"",""time""
""focus"",""1"",""5553""
","
","
","","","","","","","","","","","","","","","","","","","","","",""
"html-keyboard-response","1","6864","0.0-1.0","547","749","10","Female","true","true","true","true","""event"",""trial"",""time""
""blur"",""0"",""0""
""focus"",""1"",""5553""
","""event"",""trial"",""time""
""blur"",""0"",""0""
","""event"",""trial"",""time""
""focus"",""1"",""5553""
","
","
","6860.5","Welcome! Press the space bar to begin.","32","","","","","","","","","","","","","","","","","","",""
"audio-keyboard-response","2","17937","0.0-2.0","547","749","10","Female","true","true","true","true","""event"",""trial"",""time""
""blur"",""0"",""0""
""focus"",""1"",""5553""
""blur"",""3"",""21529""
""focus"",""3"",""28474""
","""event"",""trial"",""time""
""blur"",""0"",""0""
""blur"",""3"",""21529""
","""event"",""trial"",""time""
""focus"",""1"",""5553""
""focus"",""3"",""28474""
","
","
","11000","audio/beep_loop.wav","32","","","","","","","","","","","","","","","","","","",""
"audio-button-response","3","29520","0.0-3.0","547","749","10","Female","true","true","true","true","""event"",""trial"",""time""
""blur"",""0"",""0""
""focus"",""1"",""5553""
""blur"",""3"",""21529""
""focus"",""3"",""28474""
","""event"",""trial"",""time""
""blur"",""0"",""0""
""blur"",""3"",""21529""
","""event"",""trial"",""time""
""focus"",""1"",""5553""
""focus"",""3"",""28474""
","
","
","NaN","audio/fish.mp3","","1","","","","","","","","","","","","","","","","","",""
"audio-button-response","4","32408","0.0-4.0","547","749","10","Female","true","true","true","true","""event"",""trial"",""time""
""blur"",""0"",""0""
""focus"",""1"",""5553""
""blur"",""3"",""21529""
""focus"",""3"",""28474""
""fullscreenenter"",""5"",""37229""
","""event"",""trial"",""time""
""blur"",""0"",""0""
""blur"",""3"",""21529""
","""event"",""trial"",""time""
""focus"",""1"",""5553""
""focus"",""3"",""28474""
","""event"",""trial"",""time""
""fullscreenenter"",""5"",""37229""
","
","NaN","audio/tiger.mp3","","4","","","","","","","","","","","","","","","","","",""
"fullscreen","5","38220","0.0-5.0","547","749","10","Female","true","true","true","true","""event"",""trial"",""time""
""blur"",""0"",""0""
""focus"",""1"",""5553""
""blur"",""3"",""21529""
""focus"",""3"",""28474""
""fullscreenenter"",""5"",""37229""
","""event"",""trial"",""time""
""blur"",""0"",""0""
""blur"",""3"",""21529""
","""event"",""trial"",""time""
""focus"",""1"",""5553""
""focus"",""3"",""28474""
","""event"",""trial"",""time""
""fullscreenenter"",""5"",""37229""
","
","","","","","true","","","","","","","","","","","","","","","","",""
"d3-instructions","6","54799","0.0-6.0","547","749","10","Female","true","true","true","true","""event"",""trial"",""time""
""blur"",""0"",""0""
""focus"",""1"",""5553""
""blur"",""3"",""21529""
""focus"",""3"",""28474""
""fullscreenenter"",""5"",""37229""
","""event"",""trial"",""time""
""blur"",""0"",""0""
""blur"",""3"",""21529""
","""event"",""trial"",""time""
""focus"",""1"",""5553""
""focus"",""3"",""28474""
","""event"",""trial"",""time""
""fullscreenenter"",""5"",""37229""
","
","","","","","","","","","","","","","","","","","","","","","",""
"d3-instructions","7","64343","0.0-7.0","547","749","10","Female","true","true","true","true","""event"",""trial"",""time""
""blur"",""0"",""0""
""focus"",""1"",""5553""
""blur"",""3"",""21529""
""focus"",""3"",""28474""
""fullscreenenter"",""5"",""37229""
","""event"",""trial"",""time""
""blur"",""0"",""0""
""blur"",""3"",""21529""
","""event"",""trial"",""time""
""focus"",""1"",""5553""
""focus"",""3"",""28474""
","""event"",""trial"",""time""
""fullscreenenter"",""5"",""37229""
","
","","","","","","","","","","","","","","","","","","","","","",""
"d3-instructions","8","71822","0.0-8.0","547","749","10","Female","true","true","true","true","""event"",""trial"",""time""
""blur"",""0"",""0""
""focus"",""1"",""5553""
""blur"",""3"",""21529""
""focus"",""3"",""28474""
""fullscreenenter"",""5"",""37229""
","""event"",""trial"",""time""
""blur"",""0"",""0""
""blur"",""3"",""21529""
","""event"",""trial"",""time""
""focus"",""1"",""5553""
""focus"",""3"",""28474""
","""event"",""trial"",""time""
""fullscreenenter"",""5"",""37229""
","
","","","","","","","","","","","","","","","","","","","","","",""
"d3-instructions","9","82486","0.0-9.0","547","749","10","Female","true","true","true","true","""event"",""trial"",""time""
""blur"",""0"",""0""
""focus"",""1"",""5553""
""blur"",""3"",""21529""
""focus"",""3"",""28474""
""fullscreenenter"",""5"",""37229""
","""event"",""trial"",""time""
""blur"",""0"",""0""
""blur"",""3"",""21529""
","""event"",""trial"",""time""
""focus"",""1"",""5553""
""focus"",""3"",""28474""
","""event"",""trial"",""time""
""fullscreenenter"",""5"",""37229""
","
","","","","","","","","","","","","","","","","","","","","","",""
"d3-instructions","10","104198","0.0-10.0","547","749","10","Female","true","true","true","true","""event"",""trial"",""time""
""blur"",""0"",""0""
""focus"",""1"",""5553""
""blur"",""3"",""21529""
""focus"",""3"",""28474""
""fullscreenenter"",""5"",""37229""
","""event"",""trial"",""time""
""blur"",""0"",""0""
""blur"",""3"",""21529""
","""event"",""trial"",""time""
""focus"",""1"",""5553""
""focus"",""3"",""28474""
","""event"",""trial"",""time""
""fullscreenenter"",""5"",""37229""
","
","","","","","","","","","","","","","","","","","","","","","",""
"d3-animate-choice","11","107348","0.0-11.0","547","749","10","Female","true","true","true","true","""event"",""trial"",""time""
""blur"",""0"",""0""
""focus"",""1"",""5553""
""blur"",""3"",""21529""
""focus"",""3"",""28474""
""fullscreenenter"",""5"",""37229""
","""event"",""trial"",""time""
""blur"",""0"",""0""
""blur"",""3"",""21529""
","""event"",""trial"",""time""
""focus"",""1"",""5553""
""focus"",""3"",""28474""
","""event"",""trial"",""time""
""fullscreenenter"",""5"",""37229""
","
","1129.7000000476837","","49","","","3000","1","2889.600000023842","48","images/tutgreenplanet.jpg","images/tutalien1","images/tutalien2","null","images/tutalien2","","NA","practice","null","","","",""
"d3-animate-choice","12","110182","0.0-12.0","547","749","10","Female","true","true","true","true","""event"",""trial"",""time""
""blur"",""0"",""0""
""focus"",""1"",""5553""
""blur"",""3"",""21529""
""focus"",""3"",""28474""
""fullscreenenter"",""5"",""37229""
","""event"",""trial"",""time""
""blur"",""0"",""0""
""blur"",""3"",""21529""
","""event"",""trial"",""time""
""focus"",""1"",""5553""
""focus"",""3"",""28474""
","""event"",""trial"",""time""
""fullscreenenter"",""5"",""37229""
","
","814.0999999642372","","48","","","3000","1","","","images/tutgreenplanet.jpg","images/tutalien1","images/tutalien2","null","images/tutalien1","","NA","practice","null","","","",""
"d3-animate-choice","13","112677","0.0-13.0","547","749","10","Female","true","true","true","true","""event"",""trial"",""time""
""blur"",""0"",""0""
""focus"",""1"",""5553""
""blur"",""3"",""21529""
""focus"",""3"",""28474""
""fullscreenenter"",""5"",""37229""
","""event"",""trial"",""time""
""blur"",""0"",""0""
""blur"",""3"",""21529""
","""event"",""trial"",""time""
""focus"",""1"",""5553""
""focus"",""3"",""28474""
","""event"",""trial"",""time""
""fullscreenenter"",""5"",""37229""
","
","484","","49","","","3000","1","","","images/tutgreenplanet.jpg","images/tutalien1","images/tutalien2","null","images/tutalien2","","NA","practice","null","","","",""
"d3-animate-choice","14","115174","0.0-14.0","547","749","10","Female","true","true","true","true","""event"",""trial"",""time""
""blur"",""0"",""0""
""focus"",""1"",""5553""
""blur"",""3"",""21529""
""focus"",""3"",""28474""
""fullscreenenter"",""5"",""37229""
","""event"",""trial"",""time""
""blur"",""0"",""0""
""blur"",""3"",""21529""
","""event"",""trial"",""time""
""focus"",""1"",""5553""
""focus"",""3"",""28474""
","""event"",""trial"",""time""
""fullscreenenter"",""5"",""37229""
","
","485.2000000476837","","48","","","3000","1","","","images/tutgreenplanet.jpg","images/tutalien1","images/tutalien2","null","images/tutalien1","","NA","practice","null","","","",""
"d3-instructions","15","121455","0.0-15.0","547","749","10","Female","true","true","true","true","""event"",""trial"",""time""
""blur"",""0"",""0""
""focus"",""1"",""5553""
""blur"",""3"",""21529""
""focus"",""3"",""28474""
""fullscreenenter"",""5"",""37229""
","""event"",""trial"",""time""
""blur"",""0"",""0""
""blur"",""3"",""21529""
","""event"",""trial"",""time""
""focus"",""1"",""5553""
""focus"",""3"",""28474""
","""event"",""trial"",""time""
""fullscreenenter"",""5"",""37229""
","
","","","","","","","","","","","","","","","","","","","","","",""
"d3-instructions","16","128247","0.0-16.0","547","749","10","Female","true","true","true","true","""event"",""trial"",""time""
""blur"",""0"",""0""
""focus"",""1"",""5553""
""blur"",""3"",""21529""
""focus"",""3"",""28474""
""fullscreenenter"",""5"",""37229""
","""event"",""trial"",""time""
""blur"",""0"",""0""
""blur"",""3"",""21529""
","""event"",""trial"",""time""
""focus"",""1"",""5553""
""focus"",""3"",""28474""
","""event"",""trial"",""time""
""fullscreenenter"",""5"",""37229""
","
","","","","","","","","","","","","","","","","","","","","","",""
"d3-instructions","17","145126","0.0-17.0","547","749","10","Female","true","true","true","true","""event"",""trial"",""time""
""blur"",""0"",""0""
""focus"",""1"",""5553""
""blur"",""3"",""21529""
""focus"",""3"",""28474""
""fullscreenenter"",""5"",""37229""
","""event"",""trial"",""time""
""blur"",""0"",""0""
""blur"",""3"",""21529""
","""event"",""trial"",""time""
""focus"",""1"",""5553""
""focus"",""3"",""28474""
","""event"",""trial"",""time""
""fullscreenenter"",""5"",""37229""
","
","","","","","","","","","","","","","","","","","","","","","",""
"d3-instructions","18","157943","0.0-18.0","547","749","10","Female","true","true","true","true","""event"",""trial"",""time""
""blur"",""0"",""0""
""focus"",""1"",""5553""
""blur"",""3"",""21529""
""focus"",""3"",""28474""
""fullscreenenter"",""5"",""37229""
","""event"",""trial"",""time""
""blur"",""0"",""0""
""blur"",""3"",""21529""
","""event"",""trial"",""time""
""focus"",""1"",""5553""
""focus"",""3"",""28474""
","""event"",""trial"",""time""
""fullscreenenter"",""5"",""37229""
","
","","","","","","","","","","","","","","","","","","","","","",""
"d3-instructions","19","171742","0.0-19.0","547","749","10","Female","true","true","true","true","""event"",""trial"",""time""
""blur"",""0"",""0""
""focus"",""1"",""5553""
""blur"",""3"",""21529""
""focus"",""3"",""28474""
""fullscreenenter"",""5"",""37229""
","""event"",""trial"",""time""
""blur"",""0"",""0""
""blur"",""3"",""21529""
","""event"",""trial"",""time""
""focus"",""1"",""5553""
""focus"",""3"",""28474""
","""event"",""trial"",""time""
""fullscreenenter"",""5"",""37229""
","
","","","","","","","","","","","","","","","","","","","","","",""
"d3-animate-choice","20","174230","0.0-20.0","547","749","10","Female","true","true","true","true","""event"",""trial"",""time""
""blur"",""0"",""0""
""focus"",""1"",""5553""
""blur"",""3"",""21529""
""focus"",""3"",""28474""
""fullscreenenter"",""5"",""37229""
","""event"",""trial"",""time""
""blur"",""0"",""0""
""blur"",""3"",""21529""
","""event"",""trial"",""time""
""focus"",""1"",""5553""
""focus"",""3"",""28474""
","""event"",""trial"",""time""
""fullscreenenter"",""5"",""37229""
","
","467.19999998807907","","49","","","3000","1","771.1999999880791","49","images/tutyellowplanet.jpg","null","images/tutalien3","null","images/tutalien3","images/t.png","NA","practice","null","","","",""
"d3-animate-choice","21","176506","0.0-21.0","547","749","10","Female","true","true","true","true","""event"",""trial"",""time""
""blur"",""0"",""0""
""focus"",""1"",""5553""
""blur"",""3"",""21529""
""focus"",""3"",""28474""
""fullscreenenter"",""5"",""37229""
","""event"",""trial"",""time""
""blur"",""0"",""0""
""blur"",""3"",""21529""
","""event"",""trial"",""time""
""focus"",""1"",""5553""
""focus"",""3"",""28474""
","""event"",""trial"",""time""
""fullscreenenter"",""5"",""37229""
","
","260.80000001192093","","49","","","3000","1","","","images/tutyellowplanet.jpg","null","images/tutalien3","null","images/tutalien3","images/t.png","NA","practice","null","","","",""
"d3-animate-choice","22","178890","0.0-22.0","547","749","10","Female","true","true","true","true","""event"",""trial"",""time""
""blur"",""0"",""0""
""focus"",""1"",""5553""
""blur"",""3"",""21529""
""focus"",""3"",""28474""
""fullscreenenter"",""5"",""37229""
","""event"",""trial"",""time""
""blur"",""0"",""0""
""blur"",""3"",""21529""
","""event"",""trial"",""time""
""focus"",""1"",""5553""
""focus"",""3"",""28474""
","""event"",""trial"",""time""
""fullscreenenter"",""5"",""37229""
","
","376.89999997615814","","49","","","3000","1","","","images/tutyellowplanet.jpg","null","images/tutalien3","null","images/tutalien3","images/t.png","NA","practice","null","","","",""
"d3-animate-choice","23","181405","0.0-23.0","547","749","10","Female","true","true","true","true","""event"",""trial"",""time""
""blur"",""0"",""0""
""focus"",""1"",""5553""
""blur"",""3"",""21529""
""focus"",""3"",""28474""
""fullscreenenter"",""5"",""37229""
","""event"",""trial"",""time""
""blur"",""0"",""0""
""blur"",""3"",""21529""
","""event"",""trial"",""time""
""focus"",""1"",""5553""
""focus"",""3"",""28474""
","""event"",""trial"",""time""
""fullscreenenter"",""5"",""37229""
","
","503.60000002384186","","49","","","3000","1","","","images/tutyellowplanet.jpg","null","images/tutalien3","null","images/tutalien3","images/t.png","NA","practice","null","","","",""
"d3-animate-choice","24","183908","0.0-24.0","547","749","10","Female","true","true","true","true","""event"",""trial"",""time""
""blur"",""0"",""0""
""focus"",""1"",""5553""
""blur"",""3"",""21529""
""focus"",""3"",""28474""
""fullscreenenter"",""5"",""37229""
","""event"",""trial"",""time""
""blur"",""0"",""0""
""blur"",""3"",""21529""
","""event"",""trial"",""time""
""focus"",""1"",""5553""
""focus"",""3"",""28474""
","""event"",""trial"",""time""
""fullscreenenter"",""5"",""37229""
","
","493.80000001192093","","49","","","3000","1","","","images/tutyellowplanet.jpg","null","images/tutalien3","null","images/tutalien3","images/t.png","NA","practice","null","","","",""
"d3-animate-choice","25","186418","0.0-25.0","547","749","10","Female","true","true","true","true","""event"",""trial"",""time""
""blur"",""0"",""0""
""focus"",""1"",""5553""
""blur"",""3"",""21529""
""focus"",""3"",""28474""
""fullscreenenter"",""5"",""37229""
","""event"",""trial"",""time""
""blur"",""0"",""0""
""blur"",""3"",""21529""
","""event"",""trial"",""time""
""focus"",""1"",""5553""
""focus"",""3"",""28474""
","""event"",""trial"",""time""
""fullscreenenter"",""5"",""37229""
","
","493.69999998807907","","49","","","3000","1","","","images/tutyellowplanet.jpg","null","images/tutalien3","null","images/tutalien3","images/t.png","NA","practice","null","","","",""
"d3-animate-choice","26","188960","0.0-26.0","547","749","10","Female","true","true","true","true","""event"",""trial"",""time""
""blur"",""0"",""0""
""focus"",""1"",""5553""
""blur"",""3"",""21529""
""focus"",""3"",""28474""
""fullscreenenter"",""5"",""37229""
","""event"",""trial"",""time""
""blur"",""0"",""0""
""blur"",""3"",""21529""
","""event"",""trial"",""time""
""focus"",""1"",""5553""
""focus"",""3"",""28474""
","""event"",""trial"",""time""
""fullscreenenter"",""5"",""37229""
","
","536.0999999642372","","49","","","3000","1","","","images/tutyellowplanet.jpg","null","images/tutalien3","null","images/tutalien3","images/t.png","NA","practice","null","","","",""
"d3-animate-choice","27","191343","0.0-27.0","547","749","10","Female","true","true","true","true","""event"",""trial"",""time""
""blur"",""0"",""0""
""focus"",""1"",""5553""
""blur"",""3"",""21529""
""focus"",""3"",""28474""
""fullscreenenter"",""5"",""37229""
","""event"",""trial"",""time""
""blur"",""0"",""0""
""blur"",""3"",""21529""
","""event"",""trial"",""time""
""focus"",""1"",""5553""
""focus"",""3"",""28474""
","""event"",""trial"",""time""
""fullscreenenter"",""5"",""37229""
","
","378.5","","49","","","3000","1","","","images/tutyellowplanet.jpg","null","images/tutalien3","null","images/tutalien3","images/nothing.png","NA","practice","null","","","",""
"d3-animate-choice","28","193902","0.0-28.0","547","749","10","Female","true","true","true","true","""event"",""trial"",""time""
""blur"",""0"",""0""
""focus"",""1"",""5553""
""blur"",""3"",""21529""
""focus"",""3"",""28474""
""fullscreenenter"",""5"",""37229""
","""event"",""trial"",""time""
""blur"",""0"",""0""
""blur"",""3"",""21529""
","""event"",""trial"",""time""
""focus"",""1"",""5553""
""focus"",""3"",""28474""
","""event"",""trial"",""time""
""fullscreenenter"",""5"",""37229""
","
","539.5","","49","","","3000","1","","","images/tutyellowplanet.jpg","null","images/tutalien3","null","images/tutalien3","images/t.png","NA","practice","null","","","",""
"d3-animate-choice","29","196281","0.0-29.0","547","749","10","Female","true","true","true","true","""event"",""trial"",""time""
""blur"",""0"",""0""
""focus"",""1"",""5553""
""blur"",""3"",""21529""
""focus"",""3"",""28474""
""fullscreenenter"",""5"",""37229""
","""event"",""trial"",""time""
""blur"",""0"",""0""
""blur"",""3"",""21529""
","""event"",""trial"",""time""
""focus"",""1"",""5553""
""focus"",""3"",""28474""
","""event"",""trial"",""time""
""fullscreenenter"",""5"",""37229""
","
","373","","49","","","3000","1","","","images/tutyellowplanet.jpg","null","images/tutalien3","null","images/tutalien3","images/t.png","NA","practice","null","","","",""
"d3-instructions","30","203550","0.0-30.0","547","749","10","Female","true","true","true","true","""event"",""trial"",""time""
""blur"",""0"",""0""
""focus"",""1"",""5553""
""blur"",""3"",""21529""
""focus"",""3"",""28474""
""fullscreenenter"",""5"",""37229""
","""event"",""trial"",""time""
""blur"",""0"",""0""
""blur"",""3"",""21529""
","""event"",""trial"",""time""
""focus"",""1"",""5553""
""focus"",""3"",""28474""
","""event"",""trial"",""time""
""fullscreenenter"",""5"",""37229""
","
","","","","","","","","","","","","","","","","","","","","","",""
"d3-instructions","31","213326","0.0-31.0","547","749","10","Female","true","true","true","true","""event"",""trial"",""time""
""blur"",""0"",""0""
""focus"",""1"",""5553""
""blur"",""3"",""21529""
""focus"",""3"",""28474""
""fullscreenenter"",""5"",""37229""
","""event"",""trial"",""time""
""blur"",""0"",""0""
""blur"",""3"",""21529""
","""event"",""trial"",""time""
""focus"",""1"",""5553""
""focus"",""3"",""28474""
","""event"",""trial"",""time""
""fullscreenenter"",""5"",""37229""
","
","","","","","","","","","","","","","","","","","","","","","",""
"d3-instructions","32","220934","0.0-32.0","547","749","10","Female","true","true","true","true","""event"",""trial"",""time""
""blur"",""0"",""0""
""focus"",""1"",""5553""
""blur"",""3"",""21529""
""focus"",""3"",""28474""
""fullscreenenter"",""5"",""37229""
","""event"",""trial"",""time""
""blur"",""0"",""0""
""blur"",""3"",""21529""
","""event"",""trial"",""time""
""focus"",""1"",""5553""
""focus"",""3"",""28474""
","""event"",""trial"",""time""
""fullscreenenter"",""5"",""37229""
","
","","","","","","","","","","","","","","","","","","","","","",""
"d3-instructions","33","231317","0.0-33.0","547","749","10","Female","true","true","true","true","""event"",""trial"",""time""
""blur"",""0"",""0""
""focus"",""1"",""5553""
""blur"",""3"",""21529""
""focus"",""3"",""28474""
""fullscreenenter"",""5"",""37229""
","""event"",""trial"",""time""
""blur"",""0"",""0""
""blur"",""3"",""21529""
","""event"",""trial"",""time""
""focus"",""1"",""5553""
""focus"",""3"",""28474""
","""event"",""trial"",""time""
""fullscreenenter"",""5"",""37229""
","
","","","","","","","","","","","","","","","","","","","","","",""
"d3-animate-choice","34","233996","0.0-34.0","547","749","10","Female","true","true","true","true","""event"",""trial"",""time""
""blur"",""0"",""0""
""focus"",""1"",""5553""
""blur"",""3"",""21529""
""focus"",""3"",""28474""
""fullscreenenter"",""5"",""37229""
","""event"",""trial"",""time""
""blur"",""0"",""0""
""blur"",""3"",""21529""
","""event"",""trial"",""time""
""focus"",""1"",""5553""
""focus"",""3"",""28474""
","""event"",""trial"",""time""
""fullscreenenter"",""5"",""37229""
","
","668","","49","","","3000","1","","","images/tutgreenplanet.jpg","images/tutalien1","images/tutalien2","null","images/tutalien2","images/t.png","NA","practice","null","","","",""
"d3-animate-choice","35","236753","0.0-35.0","547","749","10","Female","true","true","true","true","""event"",""trial"",""time""
""blur"",""0"",""0""
""focus"",""1"",""5553""
""blur"",""3"",""21529""
""focus"",""3"",""28474""
""fullscreenenter"",""5"",""37229""
","""event"",""trial"",""time""
""blur"",""0"",""0""
""blur"",""3"",""21529""
","""event"",""trial"",""time""
""focus"",""1"",""5553""
""focus"",""3"",""28474""
","""event"",""trial"",""time""
""fullscreenenter"",""5"",""37229""
","
","741.7000000476837","","49","","","3000","1","","","images/tutgreenplanet.jpg","images/tutalien1","images/tutalien2","null","images/tutalien2","images/t.png","NA","practice","null","","","",""
"d3-animate-choice","36","239160","0.0-36.0","547","749","10","Female","true","true","true","true","""event"",""trial"",""time""
""blur"",""0"",""0""
""focus"",""1"",""5553""
""blur"",""3"",""21529""
""focus"",""3"",""28474""
""fullscreenenter"",""5"",""37229""
","""event"",""trial"",""time""
""blur"",""0"",""0""
""blur"",""3"",""21529""
","""event"",""trial"",""time""
""focus"",""1"",""5553""
""focus"",""3"",""28474""
","""event"",""trial"",""time""
""fullscreenenter"",""5"",""37229""
","
","401","","49","","","3000","1","","","images/tutgreenplanet.jpg","images/tutalien1","images/tutalien2","null","images/tutalien2","images/t.png","NA","practice","null","","","",""
"d3-animate-choice","37","241436","0.0-37.0","547","749","10","Female","true","true","true","true","""event"",""trial"",""time""
""blur"",""0"",""0""
""focus"",""1"",""5553""
""blur"",""3"",""21529""
""focus"",""3"",""28474""
""fullscreenenter"",""5"",""37229""
","""event"",""trial"",""time""
""blur"",""0"",""0""
""blur"",""3"",""21529""
","""event"",""trial"",""time""
""focus"",""1"",""5553""
""focus"",""3"",""28474""
","""event"",""trial"",""time""
""fullscreenenter"",""5"",""37229""
","
","266","","49","","","3000","1","","","images/tutgreenplanet.jpg","images/tutalien1","images/tutalien2","null","images/tutalien2","images/t.png","NA","practice","null","","","",""
"d3-animate-choice","38","243746","0.0-38.0","547","749","10","Female","true","true","true","true","""event"",""trial"",""time""
""blur"",""0"",""0""
""focus"",""1"",""5553""
""blur"",""3"",""21529""
""focus"",""3"",""28474""
""fullscreenenter"",""5"",""37229""
","""event"",""trial"",""time""
""blur"",""0"",""0""
""blur"",""3"",""21529""
","""event"",""trial"",""time""
""focus"",""1"",""5553""
""focus"",""3"",""28474""
","""event"",""trial"",""time""
""fullscreenenter"",""5"",""37229""
","
","302.10000002384186","","49","","","3000","1","","","images/tutgreenplanet.jpg","images/tutalien1","images/tutalien2","null","images/tutalien2","images/t.png","NA","practice","null","","","",""
"d3-animate-choice","39","246063","0.0-39.0","547","749","10","Female","true","true","true","true","""event"",""trial"",""time""
""blur"",""0"",""0""
""focus"",""1"",""5553""
""blur"",""3"",""21529""
""focus"",""3"",""28474""
""fullscreenenter"",""5"",""37229""
","""event"",""trial"",""time""
""blur"",""0"",""0""
""blur"",""3"",""21529""
","""event"",""trial"",""time""
""focus"",""1"",""5553""
""focus"",""3"",""28474""
","""event"",""trial"",""time""
""fullscreenenter"",""5"",""37229""
","
","311.89999997615814","","49","","","3000","1","","","images/tutgreenplanet.jpg","images/tutalien1","images/tutalien2","null","images/tutalien2","images/t.png","NA","practice","null","","","",""
"d3-animate-choice","40","248419","0.0-40.0","547","749","10","Female","true","true","true","true","""event"",""trial"",""time""
""blur"",""0"",""0""
""focus"",""1"",""5553""
""blur"",""3"",""21529""
""focus"",""3"",""28474""
""fullscreenenter"",""5"",""37229""
","""event"",""trial"",""time""
""blur"",""0"",""0""
""blur"",""3"",""21529""
","""event"",""trial"",""time""
""focus"",""1"",""5553""
""focus"",""3"",""28474""
","""event"",""trial"",""time""
""fullscreenenter"",""5"",""37229""
","
","339.4000000357628","","49","","","3000","1","","","images/tutgreenplanet.jpg","images/tutalien1","images/tutalien2","null","images/tutalien2","images/t.png","NA","practice","null","","","",""
"d3-animate-choice","41","250753","0.0-41.0","547","749","10","Female","true","true","true","true","""event"",""trial"",""time""
""blur"",""0"",""0""
""focus"",""1"",""5553""
""blur"",""3"",""21529""
""focus"",""3"",""28474""
""fullscreenenter"",""5"",""37229""
","""event"",""trial"",""time""
""blur"",""0"",""0""
""blur"",""3"",""21529""
","""event"",""trial"",""time""
""focus"",""1"",""5553""
""focus"",""3"",""28474""
","""event"",""trial"",""time""
""fullscreenenter"",""5"",""37229""
","
","319.80000001192093","","49","","","3000","1","","","images/tutgreenplanet.jpg","images/tutalien1","images/tutalien2","null","images/tutalien2","images/t.png","NA","practice","null","","","",""
"d3-animate-choice","42","253095","0.0-42.0","547","749","10","Female","true","true","true","true","""event"",""trial"",""time""
""blur"",""0"",""0""
""focus"",""1"",""5553""
""blur"",""3"",""21529""
""focus"",""3"",""28474""
""fullscreenenter"",""5"",""37229""
","""event"",""trial"",""time""
""blur"",""0"",""0""
""blur"",""3"",""21529""
","""event"",""trial"",""time""
""focus"",""1"",""5553""
""focus"",""3"",""28474""
","""event"",""trial"",""time""
""fullscreenenter"",""5"",""37229""
","
","337.19999998807907","","49","","","3000","1","","","images/tutgreenplanet.jpg","images/tutalien1","images/tutalien2","null","images/tutalien2","images/t.png","NA","practice","null","","","",""
"d3-animate-choice","43","255485","0.0-43.0","547","749","10","Female","true","true","true","true","""event"",""trial"",""time""
""blur"",""0"",""0""
""focus"",""1"",""5553""
""blur"",""3"",""21529""
""focus"",""3"",""28474""
""fullscreenenter"",""5"",""37229""
","""event"",""trial"",""time""
""blur"",""0"",""0""
""blur"",""3"",""21529""
","""event"",""trial"",""time""
""focus"",""1"",""5553""
""focus"",""3"",""28474""
","""event"",""trial"",""time""
""fullscreenenter"",""5"",""37229""
","
","371.60000002384186","","49","","","3000","1","","","images/tutgreenplanet.jpg","images/tutalien1","images/tutalien2","null","images/tutalien2","images/t.png","NA","practice","null","","","",""
"d3-instructions","44","269414","0.0-44.0","547","749","10","Female","true","true","true","true","""event"",""trial"",""time""
""blur"",""0"",""0""
""focus"",""1"",""5553""
""blur"",""3"",""21529""
""focus"",""3"",""28474""
""fullscreenenter"",""5"",""37229""
","""event"",""trial"",""time""
""blur"",""0"",""0""
""blur"",""3"",""21529""
","""event"",""trial"",""time""
""focus"",""1"",""5553""
""focus"",""3"",""28474""
","""event"",""trial"",""time""
""fullscreenenter"",""5"",""37229""
","
","","","","","","","","","","","","","","","","","","","","","",""
"d3-instructions","45","276581","0.0-45.0","547","749","10","Female","true","true","true","true","""event"",""trial"",""time""
""blur"",""0"",""0""
""focus"",""1"",""5553""
""blur"",""3"",""21529""
""focus"",""3"",""28474""
""fullscreenenter"",""5"",""37229""
","""event"",""trial"",""time""
""blur"",""0"",""0""
""blur"",""3"",""21529""
","""event"",""trial"",""time""
""focus"",""1"",""5553""
""focus"",""3"",""28474""
","""event"",""trial"",""time""
""fullscreenenter"",""5"",""37229""
","
","","","","","","","","","","","","","","","","","","","","","",""
"d3-instructions","46","282357","0.0-46.0","547","749","10","Female","true","true","true","true","""event"",""trial"",""time""
""blur"",""0"",""0""
""focus"",""1"",""5553""
""blur"",""3"",""21529""
""focus"",""3"",""28474""
""fullscreenenter"",""5"",""37229""
","""event"",""trial"",""time""
""blur"",""0"",""0""
""blur"",""3"",""21529""
","""event"",""trial"",""time""
""focus"",""1"",""5553""
""focus"",""3"",""28474""
","""event"",""trial"",""time""
""fullscreenenter"",""5"",""37229""
","
","","","","","","","","","","","","","","","","","","","","","",""
"d3-instructions","47","301558","0.0-47.0","547","749","10","Female","true","true","true","true","""event"",""trial"",""time""
""blur"",""0"",""0""
""focus"",""1"",""5553""
""blur"",""3"",""21529""
""focus"",""3"",""28474""
""fullscreenenter"",""5"",""37229""
","""event"",""trial"",""time""
""blur"",""0"",""0""
""blur"",""3"",""21529""
","""event"",""trial"",""time""
""focus"",""1"",""5553""
""focus"",""3"",""28474""
","""event"",""trial"",""time""
""fullscreenenter"",""5"",""37229""
","
","","","","","","","","","","","","","","","","","","","","","",""
"d3-instructions","48","308206","0.0-48.0","547","749","10","Female","true","true","true","true","""event"",""trial"",""time""
""blur"",""0"",""0""
""focus"",""1"",""5553""
""blur"",""3"",""21529""
""focus"",""3"",""28474""
""fullscreenenter"",""5"",""37229""
","""event"",""trial"",""time""
""blur"",""0"",""0""
""blur"",""3"",""21529""
","""event"",""trial"",""time""
""focus"",""1"",""5553""
""focus"",""3"",""28474""
","""event"",""trial"",""time""
""fullscreenenter"",""5"",""37229""
","
","","","","","","","","","","","","","","","","","","","","","",""
"d3-instructions","49","318821","0.0-49.0","547","749","10","Female","true","true","true","true","""event"",""trial"",""time""
""blur"",""0"",""0""
""focus"",""1"",""5553""
""blur"",""3"",""21529""
""focus"",""3"",""28474""
""fullscreenenter"",""5"",""37229""
","""event"",""trial"",""time""
""blur"",""0"",""0""
""blur"",""3"",""21529""
","""event"",""trial"",""time""
""focus"",""1"",""5553""
""focus"",""3"",""28474""
","""event"",""trial"",""time""
""fullscreenenter"",""5"",""37229""
","
","","","","","","","","","","","","","","","","","","","","","",""
"d3-instructions","50","327710","0.0-50.0","547","749","10","Female","true","true","true","true","""event"",""trial"",""time""
""blur"",""0"",""0""
""focus"",""1"",""5553""
""blur"",""3"",""21529""
""focus"",""3"",""28474""
""fullscreenenter"",""5"",""37229""
","""event"",""trial"",""time""
""blur"",""0"",""0""
""blur"",""3"",""21529""
","""event"",""trial"",""time""
""focus"",""1"",""5553""
""focus"",""3"",""28474""
","""event"",""trial"",""time""
""fullscreenenter"",""5"",""37229""
","
","","","","","","","","","","","","","","","","","","","","","",""
"d3-instructions","51","330310","0.0-51.0","547","749","10","Female","true","true","true","true","""event"",""trial"",""time""
""blur"",""0"",""0""
""focus"",""1"",""5553""
""blur"",""3"",""21529""
""focus"",""3"",""28474""
""fullscreenenter"",""5"",""37229""
","""event"",""trial"",""time""
""blur"",""0"",""0""
""blur"",""3"",""21529""
","""event"",""trial"",""time""
""focus"",""1"",""5553""
""focus"",""3"",""28474""
","""event"",""trial"",""time""
""fullscreenenter"",""5"",""37229""
","
","","","","","","","","","","","","","","","","","","","","","",""
"d3-instructions","52","337678","0.0-52.0","547","749","10","Female","true","true","true","true","""event"",""trial"",""time""
""blur"",""0"",""0""
""focus"",""1"",""5553""
""blur"",""3"",""21529""
""focus"",""3"",""28474""
""fullscreenenter"",""5"",""37229""
","""event"",""trial"",""time""
""blur"",""0"",""0""
""blur"",""3"",""21529""
","""event"",""trial"",""time""
""focus"",""1"",""5553""
""focus"",""3"",""28474""
","""event"",""trial"",""time""
""fullscreenenter"",""5"",""37229""
","
","","","","","","","","","","","","","","","","","","","","","",""
"d3-instructions","53","349245","0.0-53.0","547","749","10","Female","true","true","true","true","""event"",""trial"",""time""
""blur"",""0"",""0""
""focus"",""1"",""5553""
""blur"",""3"",""21529""
""focus"",""3"",""28474""
""fullscreenenter"",""5"",""37229""
","""event"",""trial"",""time""
""blur"",""0"",""0""
""blur"",""3"",""21529""
","""event"",""trial"",""time""
""focus"",""1"",""5553""
""focus"",""3"",""28474""
","""event"",""trial"",""time""
""fullscreenenter"",""5"",""37229""
","
","","","","","","","","","","","","","","","","","","","","","",""
"d3-instructions","54","361228","0.0-54.0","547","749","10","Female","true","true","true","true","""event"",""trial"",""time""
""blur"",""0"",""0""
""focus"",""1"",""5553""
""blur"",""3"",""21529""
""focus"",""3"",""28474""
""fullscreenenter"",""5"",""37229""
","""event"",""trial"",""time""
""blur"",""0"",""0""
""blur"",""3"",""21529""
","""event"",""trial"",""time""
""focus"",""1"",""5553""
""focus"",""3"",""28474""
","""event"",""trial"",""time""
""fullscreenenter"",""5"",""37229""
","
","","","","","","","","","","","","","","","","","","","","","",""
"d3-instructions","55","371628","0.0-55.0","547","749","10","Female","true","true","true","true","""event"",""trial"",""time""
""blur"",""0"",""0""
""focus"",""1"",""5553""
""blur"",""3"",""21529""
""focus"",""3"",""28474""
""fullscreenenter"",""5"",""37229""
","""event"",""trial"",""time""
""blur"",""0"",""0""
""blur"",""3"",""21529""
","""event"",""trial"",""time""
""focus"",""1"",""5553""
""focus"",""3"",""28474""
","""event"",""trial"",""time""
""fullscreenenter"",""5"",""37229""
","
","","","","","","","","","","","","","","","","","","","","","",""
"d3-instructions","56","380813","0.0-56.0","547","749","10","Female","true","true","true","true","""event"",""trial"",""time""
""blur"",""0"",""0""
""focus"",""1"",""5553""
""blur"",""3"",""21529""
""focus"",""3"",""28474""
""fullscreenenter"",""5"",""37229""
","""event"",""trial"",""time""
""blur"",""0"",""0""
""blur"",""3"",""21529""
","""event"",""trial"",""time""
""focus"",""1"",""5553""
""focus"",""3"",""28474""
","""event"",""trial"",""time""
""fullscreenenter"",""5"",""37229""
","
","","","","","","","","","","","","","","","","","","","","","",""
"d3-instructions","57","390837","0.0-57.0","547","749","10","Female","true","true","true","true","""event"",""trial"",""time""
""blur"",""0"",""0""
""focus"",""1"",""5553""
""blur"",""3"",""21529""
""focus"",""3"",""28474""
""fullscreenenter"",""5"",""37229""
","""event"",""trial"",""time""
""blur"",""0"",""0""
""blur"",""3"",""21529""
","""event"",""trial"",""time""
""focus"",""1"",""5553""
""focus"",""3"",""28474""
","""event"",""trial"",""time""
""fullscreenenter"",""5"",""37229""
","
","","","","","","","","","","","","","","","","","","","","","",""
"d3-instructions","58","401101","0.0-58.0","547","749","10","Female","true","true","true","true","""event"",""trial"",""time""
""blur"",""0"",""0""
""focus"",""1"",""5553""
""blur"",""3"",""21529""
""focus"",""3"",""28474""
""fullscreenenter"",""5"",""37229""
","""event"",""trial"",""time""
""blur"",""0"",""0""
""blur"",""3"",""21529""
","""event"",""trial"",""time""
""focus"",""1"",""5553""
""focus"",""3"",""28474""
","""event"",""trial"",""time""
""fullscreenenter"",""5"",""37229""
","
","","","","","","","","","","","","","","","","","","","","","",""
"d3-instructions","59","406604","0.0-59.0","547","749","10","Female","true","true","true","true","""event"",""trial"",""time""
""blur"",""0"",""0""
""focus"",""1"",""5553""
""blur"",""3"",""21529""
""focus"",""3"",""28474""
""fullscreenenter"",""5"",""37229""
","""event"",""trial"",""time""
""blur"",""0"",""0""
""blur"",""3"",""21529""
","""event"",""trial"",""time""
""focus"",""1"",""5553""
""focus"",""3"",""28474""
","""event"",""trial"",""time""
""fullscreenenter"",""5"",""37229""
","
","","","","","","","","","","","","","","","","","","","","","",""
"d3-instructions","60","413892","0.0-60.0","547","749","10","Female","true","true","true","true","""event"",""trial"",""time""
""blur"",""0"",""0""
""focus"",""1"",""5553""
""blur"",""3"",""21529""
""focus"",""3"",""28474""
""fullscreenenter"",""5"",""37229""
","""event"",""trial"",""time""
""blur"",""0"",""0""
""blur"",""3"",""21529""
","""event"",""trial"",""time""
""focus"",""1"",""5553""
""focus"",""3"",""28474""
","""event"",""trial"",""time""
""fullscreenenter"",""5"",""37229""
","
","","","","","","","","","","","","","","","","","","","","","",""
"d3-animate-choice","61","416459","0.0-61.0-0.0","547","749","10","Female","true","true","true","true","""event"",""trial"",""time""
""blur"",""0"",""0""
""focus"",""1"",""5553""
""blur"",""3"",""21529""
""focus"",""3"",""28474""
""fullscreenenter"",""5"",""37229""
","""event"",""trial"",""time""
""blur"",""0"",""0""
""blur"",""3"",""21529""
","""event"",""trial"",""time""
""focus"",""1"",""5553""
""focus"",""3"",""28474""
","""event"",""trial"",""time""
""fullscreenenter"",""5"",""37229""
","
","545.5","","49","","","3000","1","","","images/earth.jpg","images/tutrocket1","images/tutrocket2","null","images/tutrocket2","","1","practice","null","1","","",""
"d3-animate-choice","62","419162","0.0-61.0-1.0","547","749","10","Female","true","true","true","true","""event"",""trial"",""time""
""blur"",""0"",""0""
""focus"",""1"",""5553""
""blur"",""3"",""21529""
""focus"",""3"",""28474""
""fullscreenenter"",""5"",""37229""
","""event"",""trial"",""time""
""blur"",""0"",""0""
""blur"",""3"",""21529""
","""event"",""trial"",""time""
""focus"",""1"",""5553""
""focus"",""3"",""28474""
","""event"",""trial"",""time""
""fullscreenenter"",""5"",""37229""
","
","689.8000000119209","","49","","","3000","1","","","images/tutyellowplanet.jpg","images/tutalien4","images/tutalien3","images/tutrocket2","images/tutalien3","images/t.png","2","practice","true","1","common","1","2022-02-13 20:42:49.841"
"two-step-fixation","63","420169","0.0-61.0-2.0","547","749","10","Female","true","true","true","true","""event"",""trial"",""time""
""blur"",""0"",""0""
""focus"",""1"",""5553""
""blur"",""3"",""21529""
""focus"",""3"",""28474""
""fullscreenenter"",""5"",""37229""
","""event"",""trial"",""time""
""blur"",""0"",""0""
""blur"",""3"",""21529""
","""event"",""trial"",""time""
""focus"",""1"",""5553""
""focus"",""3"",""28474""
","""event"",""trial"",""time""
""fullscreenenter"",""5"",""37229""
","
","","images/earth.jpg","","","","","","","","","","","","","","fixation","","","","","",""
"d3-animate-choice","64","422353","0.0-61.0-0.1","547","749","10","Female","true","true","true","true","""event"",""trial"",""time""
""blur"",""0"",""0""
""focus"",""1"",""5553""
""blur"",""3"",""21529""
""focus"",""3"",""28474""
""fullscreenenter"",""5"",""37229""
","""event"",""trial"",""time""
""blur"",""0"",""0""
""blur"",""3"",""21529""
","""event"",""trial"",""time""
""focus"",""1"",""5553""
""focus"",""3"",""28474""
","""event"",""trial"",""time""
""fullscreenenter"",""5"",""37229""
","
","167.30000001192093","","48","","","3000","1","","","images/earth.jpg","images/tutrocket1","images/tutrocket2","null","images/tutrocket1","","1","practice","null","2","","",""
"d3-animate-choice","65","424830","0.0-61.0-1.1","547","749","10","Female","true","true","true","true","""event"",""trial"",""time""
""blur"",""0"",""0""
""focus"",""1"",""5553""
""blur"",""3"",""21529""
""focus"",""3"",""28474""
""fullscreenenter"",""5"",""37229""
","""event"",""trial"",""time""
""blur"",""0"",""0""
""blur"",""3"",""21529""
","""event"",""trial"",""time""
""focus"",""1"",""5553""
""focus"",""3"",""28474""
","""event"",""trial"",""time""
""fullscreenenter"",""5"",""37229""
","
","470.0999999642372","","49","","","3000","1","","","images/tutgreenplanet.jpg","images/tutalien2","images/tutalien1","images/tutrocket1","images/tutalien1","images/nothing.png","2","practice","true","1","common","0","2022-02-13 20:42:55.508"
"two-step-fixation","66","425836","0.0-61.0-2.1","547","749","10","Female","true","true","true","true","""event"",""trial"",""time""
""blur"",""0"",""0""
""focus"",""1"",""5553""
""blur"",""3"",""21529""
""focus"",""3"",""28474""
""fullscreenenter"",""5"",""37229""
","""event"",""trial"",""time""
""blur"",""0"",""0""
""blur"",""3"",""21529""
","""event"",""trial"",""time""
""focus"",""1"",""5553""
""focus"",""3"",""28474""
","""event"",""trial"",""time""
""fullscreenenter"",""5"",""37229""
","
","","images/earth.jpg","","","","","","","","","","","","","","fixation","","","","","",""
"d3-animate-choice","67","428174","0.0-61.0-0.2","547","749","10","Female","true","true","true","true","""event"",""trial"",""time""
""blur"",""0"",""0""
""focus"",""1"",""5553""
""blur"",""3"",""21529""
""focus"",""3"",""28474""
""fullscreenenter"",""5"",""37229""
","""event"",""trial"",""time""
""blur"",""0"",""0""
""blur"",""3"",""21529""
","""event"",""trial"",""time""
""focus"",""1"",""5553""
""focus"",""3"",""28474""
","""event"",""trial"",""time""
""fullscreenenter"",""5"",""37229""
","
","332","","49","","","3000","1","","","images/earth.jpg","images/tutrocket1","images/tutrocket2","null","images/tutrocket2","","1","practice","null","1","","",""
"d3-animate-choice","68","430521","0.0-61.0-1.2","547","749","10","Female","true","true","true","true","""event"",""trial"",""time""
""blur"",""0"",""0""
""focus"",""1"",""5553""
""blur"",""3"",""21529""
""focus"",""3"",""28474""
""fullscreenenter"",""5"",""37229""
","""event"",""trial"",""time""
""blur"",""0"",""0""
""blur"",""3"",""21529""
","""event"",""trial"",""time""
""focus"",""1"",""5553""
""focus"",""3"",""28474""
","""event"",""trial"",""time""
""fullscreenenter"",""5"",""37229""
","
","329.19999998807907","","49","","","3000","1","","","images/tutyellowplanet.jpg","images/tutalien4","images/tutalien3","images/tutrocket2","images/tutalien3","images/nothing.png","2","practice","true","1","common","0","2022-02-13 20:43:01.199"
"two-step-fixation","69","431528","0.0-61.0-2.2","547","749","10","Female","true","true","true","true","""event"",""trial"",""time""
""blur"",""0"",""0""
""focus"",""1"",""5553""
""blur"",""3"",""21529""
""focus"",""3"",""28474""
""fullscreenenter"",""5"",""37229""
","""event"",""trial"",""time""
""blur"",""0"",""0""
""blur"",""3"",""21529""
","""event"",""trial"",""time""
""focus"",""1"",""5553""
""focus"",""3"",""28474""
","""event"",""trial"",""time""
""fullscreenenter"",""5"",""37229""
","
","","images/earth.jpg","","","","","","","","","","","","","","fixation","","","","","",""
"d3-animate-choice","70","433945","0.0-61.0-0.3","547","749","10","Female","true","true","true","true","""event"",""trial"",""time""
""blur"",""0"",""0""
""focus"",""1"",""5553""
""blur"",""3"",""21529""
""focus"",""3"",""28474""
""fullscreenenter"",""5"",""37229""
","""event"",""trial"",""time""
""blur"",""0"",""0""
""blur"",""3"",""21529""
","""event"",""trial"",""time""
""focus"",""1"",""5553""
""focus"",""3"",""28474""
","""event"",""trial"",""time""
""fullscreenenter"",""5"",""37229""
","
","407.69999998807907","","49","","","3000","1","","","images/earth.jpg","images/tutrocket1","images/tutrocket2","null","images/tutrocket2","","1","practice","null","1","","",""
"d3-animate-choice","71","436527","0.0-61.0-1.3","547","749","10","Female","true","true","true","true","""event"",""trial"",""time""
""blur"",""0"",""0""
""focus"",""1"",""5553""
""blur"",""3"",""21529""
""focus"",""3"",""28474""
""fullscreenenter"",""5"",""37229""
","""event"",""trial"",""time""
""blur"",""0"",""0""
""blur"",""3"",""21529""
","""event"",""trial"",""time""
""focus"",""1"",""5553""
""focus"",""3"",""28474""
","""event"",""trial"",""time""
""fullscreenenter"",""5"",""37229""
","
","574","","49","","","3000","1","","","images/tutyellowplanet.jpg","images/tutalien4","images/tutalien3","images/tutrocket2","images/tutalien3","images/nothing.png","2","practice","true","1","common","0","2022-02-13 20:43:07.205"
"two-step-fixation","72","437533","0.0-61.0-2.3","547","749","10","Female","true","true","true","true","""event"",""trial"",""time""
""blur"",""0"",""0""
""focus"",""1"",""5553""
""blur"",""3"",""21529""
""focus"",""3"",""28474""
""fullscreenenter"",""5"",""37229""
","""event"",""trial"",""time""
""blur"",""0"",""0""
""blur"",""3"",""21529""
","""event"",""trial"",""time""
""focus"",""1"",""5553""
""focus"",""3"",""28474""
","""event"",""trial"",""time""
""fullscreenenter"",""5"",""37229""
","
","","images/earth.jpg","","","","","","","","","","","","","","fixation","","","","","",""
"d3-animate-choice","73","439975","0.0-61.0-0.4","547","749","10","Female","true","true","true","true","""event"",""trial"",""time""
""blur"",""0"",""0""
""focus"",""1"",""5553""
""blur"",""3"",""21529""
""focus"",""3"",""28474""
""fullscreenenter"",""5"",""37229""
","""event"",""trial"",""time""
""blur"",""0"",""0""
""blur"",""3"",""21529""
","""event"",""trial"",""time""
""focus"",""1"",""5553""
""focus"",""3"",""28474""
","""event"",""trial"",""time""
""fullscreenenter"",""5"",""37229""
","
","435.4000000357628","","49","","","3000","1","","","images/earth.jpg","images/tutrocket1","images/tutrocket2","null","images/tutrocket2","","1","practice","null","1","","",""
"d3-animate-choice","74","442509","0.0-61.0-1.4","547","749","10","Female","true","true","true","true","""event"",""trial"",""time""
""blur"",""0"",""0""
""focus"",""1"",""5553""
""blur"",""3"",""21529""
""focus"",""3"",""28474""
""fullscreenenter"",""5"",""37229""
","""event"",""trial"",""time""
""blur"",""0"",""0""
""blur"",""3"",""21529""
","""event"",""trial"",""time""
""focus"",""1"",""5553""
""focus"",""3"",""28474""
","""event"",""trial"",""time""
""fullscreenenter"",""5"",""37229""
","
","519.3999999761581","","48","","","3000","1","","","images/tutyellowplanet.jpg","images/tutalien4","images/tutalien3","images/tutrocket2","images/tutalien4","images/t.png","2","practice","true","2","common","1","2022-02-13 20:43:13.187"
"two-step-fixation","75","443515","0.0-61.0-2.4","547","749","10","Female","true","true","true","true","""event"",""trial"",""time""
""blur"",""0"",""0""
""focus"",""1"",""5553""
""blur"",""3"",""21529""
""focus"",""3"",""28474""
""fullscreenenter"",""5"",""37229""
","""event"",""trial"",""time""
""blur"",""0"",""0""
""blur"",""3"",""21529""
","""event"",""trial"",""time""
""focus"",""1"",""5553""
""focus"",""3"",""28474""
","""event"",""trial"",""time""
""fullscreenenter"",""5"",""37229""
","
","","images/earth.jpg","","","","","","","","","","","","","","fixation","","","","","",""
"d3-animate-choice","76","445838","0.0-61.0-0.5","547","749","10","Female","true","true","true","true","""event"",""trial"",""time""
""blur"",""0"",""0""
""focus"",""1"",""5553""
""blur"",""3"",""21529""
""focus"",""3"",""28474""
""fullscreenenter"",""5"",""37229""
","""event"",""trial"",""time""
""blur"",""0"",""0""
""blur"",""3"",""21529""
","""event"",""trial"",""time""
""focus"",""1"",""5553""
""focus"",""3"",""28474""
","""event"",""trial"",""time""
""fullscreenenter"",""5"",""37229""
","
","315.89999997615814","","49","","","3000","1","","","images/earth.jpg","images/tutrocket1","images/tutrocket2","null","images/tutrocket2","","1","practice","null","1","","",""
"d3-animate-choice","77","448206","0.0-61.0-1.5","547","749","10","Female","true","true","true","true","""event"",""trial"",""time""
""blur"",""0"",""0""
""focus"",""1"",""5553""
""blur"",""3"",""21529""
""focus"",""3"",""28474""
""fullscreenenter"",""5"",""37229""
","""event"",""trial"",""time""
""blur"",""0"",""0""
""blur"",""3"",""21529""
","""event"",""trial"",""time""
""focus"",""1"",""5553""
""focus"",""3"",""28474""
","""event"",""trial"",""time""
""fullscreenenter"",""5"",""37229""
","
","361.60000002384186","","48","","","3000","1","","","images/tutyellowplanet.jpg","images/tutalien4","images/tutalien3","images/tutrocket2","images/tutalien4","images/nothing.png","2","practice","true","2","common","0","2022-02-13 20:43:18.884"
"two-step-fixation","78","449212","0.0-61.0-2.5","547","749","10","Female","true","true","true","true","""event"",""trial"",""time""
""blur"",""0"",""0""
""focus"",""1"",""5553""
""blur"",""3"",""21529""
""focus"",""3"",""28474""
""fullscreenenter"",""5"",""37229""
","""event"",""trial"",""time""
""blur"",""0"",""0""
""blur"",""3"",""21529""
","""event"",""trial"",""time""
""focus"",""1"",""5553""
""focus"",""3"",""28474""
","""event"",""trial"",""time""
""fullscreenenter"",""5"",""37229""
","
","","images/earth.jpg","","","","","","","","","","","","","","fixation","","","","","",""
"d3-animate-choice","79","451608","0.0-61.0-0.6","547","749","10","Female","true","true","true","true","""event"",""trial"",""time""
""blur"",""0"",""0""
""focus"",""1"",""5553""
""blur"",""3"",""21529""
""focus"",""3"",""28474""
""fullscreenenter"",""5"",""37229""
","""event"",""trial"",""time""
""blur"",""0"",""0""
""blur"",""3"",""21529""
","""event"",""trial"",""time""
""focus"",""1"",""5553""
""focus"",""3"",""28474""
","""event"",""trial"",""time""
""fullscreenenter"",""5"",""37229""
","
","387.60000002384186","","48","","","3000","1","","","images/earth.jpg","images/tutrocket1","images/tutrocket2","null","images/tutrocket1","","1","practice","null","2","","",""
"d3-animate-choice","80","454013","0.0-61.0-1.6","547","749","10","Female","true","true","true","true","""event"",""trial"",""time""
""blur"",""0"",""0""
""focus"",""1"",""5553""
""blur"",""3"",""21529""
""focus"",""3"",""28474""
""fullscreenenter"",""5"",""37229""
","""event"",""trial"",""time""
""blur"",""0"",""0""
""blur"",""3"",""21529""
","""event"",""trial"",""time""
""focus"",""1"",""5553""
""focus"",""3"",""28474""
","""event"",""trial"",""time""
""fullscreenenter"",""5"",""37229""
","
","397.0999999642372","","49","","","3000","1","","","images/tutgreenplanet.jpg","images/tutalien2","images/tutalien1","images/tutrocket1","images/tutalien1","images/nothing.png","2","practice","true","1","common","0","2022-02-13 20:43:24.692"
"two-step-fixation","81","455019","0.0-61.0-2.6","547","749","10","Female","true","true","true","true","""event"",""trial"",""time""
""blur"",""0"",""0""
""focus"",""1"",""5553""
""blur"",""3"",""21529""
""focus"",""3"",""28474""
""fullscreenenter"",""5"",""37229""
","""event"",""trial"",""time""
""blur"",""0"",""0""
""blur"",""3"",""21529""
","""event"",""trial"",""time""
""focus"",""1"",""5553""
""focus"",""3"",""28474""
","""event"",""trial"",""time""
""fullscreenenter"",""5"",""37229""
","
","","images/earth.jpg","","","","","","","","","","","","","","fixation","","","","","",""
"d3-animate-choice","82","457486","0.0-61.0-0.7","547","749","10","Female","true","true","true","true","""event"",""trial"",""time""
""blur"",""0"",""0""
""focus"",""1"",""5553""
""blur"",""3"",""21529""
""focus"",""3"",""28474""
""fullscreenenter"",""5"",""37229""
","""event"",""trial"",""time""
""blur"",""0"",""0""
""blur"",""3"",""21529""
","""event"",""trial"",""time""
""focus"",""1"",""5553""
""focus"",""3"",""28474""
","""event"",""trial"",""time""
""fullscreenenter"",""5"",""37229""
","
","460.2999999523163","","48","","","3000","1","","","images/earth.jpg","images/tutrocket1","images/tutrocket2","null","images/tutrocket1","","1","practice","null","2","","",""
"d3-animate-choice","83","459821","0.0-61.0-1.7","547","749","10","Female","true","true","true","true","""event"",""trial"",""time""
""blur"",""0"",""0""
""focus"",""1"",""5553""
""blur"",""3"",""21529""
""focus"",""3"",""28474""
""fullscreenenter"",""5"",""37229""
","""event"",""trial"",""time""
""blur"",""0"",""0""
""blur"",""3"",""21529""
","""event"",""trial"",""time""
""focus"",""1"",""5553""
""focus"",""3"",""28474""
","""event"",""trial"",""time""
""fullscreenenter"",""5"",""37229""
","
","329.7999999523163","","48","","","3000","1","","","images/tutgreenplanet.jpg","images/tutalien2","images/tutalien1","images/tutrocket1","images/tutalien2","images/nothing.png","2","practice","true","2","common","0","2022-02-13 20:43:30.500"
"two-step-fixation","84","460826","0.0-61.0-2.7","547","749","10","Female","true","true","true","true","""event"",""trial"",""time""
""blur"",""0"",""0""
""focus"",""1"",""5553""
""blur"",""3"",""21529""
""focus"",""3"",""28474""
""fullscreenenter"",""5"",""37229""
","""event"",""trial"",""time""
""blur"",""0"",""0""
""blur"",""3"",""21529""
","""event"",""trial"",""time""
""focus"",""1"",""5553""
""focus"",""3"",""28474""
","""event"",""trial"",""time""
""fullscreenenter"",""5"",""37229""
","
","","images/earth.jpg","","","","","","","","","","","","","","fixation","","","","","",""
"d3-animate-choice","85","463496","0.0-61.0-0.8","547","749","10","Female","true","true","true","true","""event"",""trial"",""time""
""blur"",""0"",""0""
""focus"",""1"",""5553""
""blur"",""3"",""21529""
""focus"",""3"",""28474""
""fullscreenenter"",""5"",""37229""
","""event"",""trial"",""time""
""blur"",""0"",""0""
""blur"",""3"",""21529""
","""event"",""trial"",""time""
""focus"",""1"",""5553""
""focus"",""3"",""28474""
","""event"",""trial"",""time""
""fullscreenenter"",""5"",""37229""
","
","661.6999999880791","","48","","","3000","1","","","images/earth.jpg","images/tutrocket1","images/tutrocket2","null","images/tutrocket1","","1","practice","null","2","","",""
"d3-animate-choice","86","465901","0.0-61.0-1.8","547","749","10","Female","true","true","true","true","""event"",""trial"",""time""
""blur"",""0"",""0""
""focus"",""1"",""5553""
""blur"",""3"",""21529""
""focus"",""3"",""28474""
""fullscreenenter"",""5"",""37229""
","""event"",""trial"",""time""
""blur"",""0"",""0""
""blur"",""3"",""21529""
","""event"",""trial"",""time""
""focus"",""1"",""5553""
""focus"",""3"",""28474""
","""event"",""trial"",""time""
""fullscreenenter"",""5"",""37229""
","
","399.69999998807907","","49","","","3000","1","","","images/tutyellowplanet.jpg","images/tutalien4","images/tutalien3","images/tutrocket1","images/tutalien3","images/nothing.png","2","practice","false","1","rare","0","2022-02-13 20:43:36.579"
"two-step-fixation","87","466906","0.0-61.0-2.8","547","749","10","Female","true","true","true","true","""event"",""trial"",""time""
""blur"",""0"",""0""
""focus"",""1"",""5553""
""blur"",""3"",""21529""
""focus"",""3"",""28474""
""fullscreenenter"",""5"",""37229""
","""event"",""trial"",""time""
""blur"",""0"",""0""
""blur"",""3"",""21529""
","""event"",""trial"",""time""
""focus"",""1"",""5553""
""focus"",""3"",""28474""
","""event"",""trial"",""time""
""fullscreenenter"",""5"",""37229""
","
","","images/earth.jpg","","","","","","","","","","","","","","fixation","","","","","",""
"d3-animate-choice","88","469254","0.0-61.0-0.9","547","749","10","Female","true","true","true","true","""event"",""trial"",""time""
""blur"",""0"",""0""
""focus"",""1"",""5553""
""blur"",""3"",""21529""
""focus"",""3"",""28474""
""fullscreenenter"",""5"",""37229""
","""event"",""trial"",""time""
""blur"",""0"",""0""
""blur"",""3"",""21529""
","""event"",""trial"",""time""
""focus"",""1"",""5553""
""focus"",""3"",""28474""
","""event"",""trial"",""time""
""fullscreenenter"",""5"",""37229""
","
","341.0999999642372","","49","","","3000","1","","","images/earth.jpg","images/tutrocket1","images/tutrocket2","null","images/tutrocket2","","1","practice","null","1","","",""
"d3-animate-choice","89","471765","0.0-61.0-1.9","547","749","10","Female","true","true","true","true","""event"",""trial"",""time""
""blur"",""0"",""0""
""focus"",""1"",""5553""
""blur"",""3"",""21529""
""focus"",""3"",""28474""
""fullscreenenter"",""5"",""37229""
","""event"",""trial"",""time""
""blur"",""0"",""0""
""blur"",""3"",""21529""
","""event"",""trial"",""time""
""focus"",""1"",""5553""
""focus"",""3"",""28474""
","""event"",""trial"",""time""
""fullscreenenter"",""5"",""37229""
","
","505.80000001192093","","49","","","3000","1","","","images/tutgreenplanet.jpg","images/tutalien2","images/tutalien1","images/tutrocket2","images/tutalien1","images/nothing.png","2","practice","false","1","rare","0","2022-02-13 20:43:42.444"
"two-step-fixation","90","472772","0.0-61.0-2.9","547","749","10","Female","true","true","true","true","""event"",""trial"",""time""
""blur"",""0"",""0""
""focus"",""1"",""5553""
""blur"",""3"",""21529""
""focus"",""3"",""28474""
""fullscreenenter"",""5"",""37229""
","""event"",""trial"",""time""
""blur"",""0"",""0""
""blur"",""3"",""21529""
","""event"",""trial"",""time""
""focus"",""1"",""5553""
""focus"",""3"",""28474""
","""event"",""trial"",""time""
""fullscreenenter"",""5"",""37229""
","
","","images/earth.jpg","","","","","","","","","","","","","","fixation","","","","","",""
"d3-animate-choice","91","475159","0.0-61.0-0.10","547","749","10","Female","true","true","true","true","""event"",""trial"",""time""
""blur"",""0"",""0""
""focus"",""1"",""5553""
""blur"",""3"",""21529""
""focus"",""3"",""28474""
""fullscreenenter"",""5"",""37229""
","""event"",""trial"",""time""
""blur"",""0"",""0""
""blur"",""3"",""21529""
","""event"",""trial"",""time""
""focus"",""1"",""5553""
""focus"",""3"",""28474""
","""event"",""trial"",""time""
""fullscreenenter"",""5"",""37229""
","
","380.19999998807907","","49","","","3000","1","","","images/earth.jpg","images/tutrocket1","images/tutrocket2","null","images/tutrocket2","","1","practice","null","1","","",""
"d3-animate-choice","92","477494","0.0-61.0-1.10","547","749","10","Female","true","true","true","true","""event"",""trial"",""time""
""blur"",""0"",""0""
""focus"",""1"",""5553""
""blur"",""3"",""21529""
""focus"",""3"",""28474""
""fullscreenenter"",""5"",""37229""
","""event"",""trial"",""time""
""blur"",""0"",""0""
""blur"",""3"",""21529""
","""event"",""trial"",""time""
""focus"",""1"",""5553""
""focus"",""3"",""28474""
","""event"",""trial"",""time""
""fullscreenenter"",""5"",""37229""
","
","328.39999997615814","","49","","","3000","1","","","images/tutyellowplanet.jpg","images/tutalien4","images/tutalien3","images/tutrocket2","images/tutalien3","images/nothing.png","2","practice","true","1","common","0","2022-02-13 20:43:48.173"
"two-step-fixation","93","478500","0.0-61.0-2.10","547","749","10","Female","true","true","true","true","""event"",""trial"",""time""
""blur"",""0"",""0""
""focus"",""1"",""5553""
""blur"",""3"",""21529""
""focus"",""3"",""28474""
""fullscreenenter"",""5"",""37229""
","""event"",""trial"",""time""
""blur"",""0"",""0""
""blur"",""3"",""21529""
","""event"",""trial"",""time""
""focus"",""1"",""5553""
""focus"",""3"",""28474""
","""event"",""trial"",""time""
""fullscreenenter"",""5"",""37229""
","
","","images/earth.jpg","","","","","","","","","","","","","","fixation","","","","","",""
"d3-animate-choice","94","480887","0.0-61.0-0.11","547","749","10","Female","true","true","true","true","""event"",""trial"",""time""
""blur"",""0"",""0""
""focus"",""1"",""5553""
""blur"",""3"",""21529""
""focus"",""3"",""28474""
""fullscreenenter"",""5"",""37229""
","""event"",""trial"",""time""
""blur"",""0"",""0""
""blur"",""3"",""21529""
","""event"",""trial"",""time""
""focus"",""1"",""5553""
""focus"",""3"",""28474""
","""event"",""trial"",""time""
""fullscreenenter"",""5"",""37229""
","
","379.5","","49","","","3000","1","","","images/earth.jpg","images/tutrocket1","images/tutrocket2","null","images/tutrocket2","","1","practice","null","1","","",""
"d3-animate-choice","95","483221","0.0-61.0-1.11","547","749","10","Female","true","true","true","true","""event"",""trial"",""time""
""blur"",""0"",""0""
""focus"",""1"",""5553""
""blur"",""3"",""21529""
""focus"",""3"",""28474""
""fullscreenenter"",""5"",""37229""
","""event"",""trial"",""time""
""blur"",""0"",""0""
""blur"",""3"",""21529""
","""event"",""trial"",""time""
""focus"",""1"",""5553""
""focus"",""3"",""28474""
","""event"",""trial"",""time""
""fullscreenenter"",""5"",""37229""
","
","329.30000001192093","","48","","","3000","1","","","images/tutyellowplanet.jpg","images/tutalien4","images/tutalien3","images/tutrocket2","images/tutalien4","images/nothing.png","2","practice","true","2","common","0","2022-02-13 20:43:53.899"
"two-step-fixation","96","484223","0.0-61.0-2.11","547","749","10","Female","true","true","true","true","""event"",""trial"",""time""
""blur"",""0"",""0""
""focus"",""1"",""5553""
""blur"",""3"",""21529""
""focus"",""3"",""28474""
""fullscreenenter"",""5"",""37229""
","""event"",""trial"",""time""
""blur"",""0"",""0""
""blur"",""3"",""21529""
","""event"",""trial"",""time""
""focus"",""1"",""5553""
""focus"",""3"",""28474""
","""event"",""trial"",""time""
""fullscreenenter"",""5"",""37229""
","
","","images/earth.jpg","","","","","","","","","","","","","","fixation","","","","","",""
"d3-animate-choice","97","486575","0.0-61.0-0.12","547","749","10","Female","true","true","true","true","""event"",""trial"",""time""
""blur"",""0"",""0""
""focus"",""1"",""5553""
""blur"",""3"",""21529""
""focus"",""3"",""28474""
""fullscreenenter"",""5"",""37229""
","""event"",""trial"",""time""
""blur"",""0"",""0""
""blur"",""3"",""21529""
","""event"",""trial"",""time""
""focus"",""1"",""5553""
""focus"",""3"",""28474""
","""event"",""trial"",""time""
""fullscreenenter"",""5"",""37229""
","
","345.19999998807907","","49","","","3000","1","","","images/earth.jpg","images/tutrocket1","images/tutrocket2","null","images/tutrocket2","","1","practice","null","1","","",""
"d3-animate-choice","98","488878","0.0-61.0-1.12","547","749","10","Female","true","true","true","true","""event"",""trial"",""time""
""blur"",""0"",""0""
""focus"",""1"",""5553""
""blur"",""3"",""21529""
""focus"",""3"",""28474""
""fullscreenenter"",""5"",""37229""
","""event"",""trial"",""time""
""blur"",""0"",""0""
""blur"",""3"",""21529""
","""event"",""trial"",""time""
""focus"",""1"",""5553""
""focus"",""3"",""28474""
","""event"",""trial"",""time""
""fullscreenenter"",""5"",""37229""
","
","296.89999997615814","","48","","","3000","1","","","images/tutyellowplanet.jpg","images/tutalien4","images/tutalien3","images/tutrocket2","images/tutalien4","images/t.png","2","practice","true","2","common","1","2022-02-13 20:43:59.556"
"two-step-fixation","99","489883","0.0-61.0-2.12","547","749","10","Female","true","true","true","true","""event"",""trial"",""time""
""blur"",""0"",""0""
""focus"",""1"",""5553""
""blur"",""3"",""21529""
""focus"",""3"",""28474""
""fullscreenenter"",""5"",""37229""
","""event"",""trial"",""time""
""blur"",""0"",""0""
""blur"",""3"",""21529""
","""event"",""trial"",""time""
""focus"",""1"",""5553""
""focus"",""3"",""28474""
","""event"",""trial"",""time""
""fullscreenenter"",""5"",""37229""
","
","","images/earth.jpg","","","","","","","","","","","","","","fixation","","","","","",""
"d3-animate-choice","100","492286","0.0-61.0-0.13","547","749","10","Female","true","true","true","true","""event"",""trial"",""time""
""blur"",""0"",""0""
""focus"",""1"",""5553""
""blur"",""3"",""21529""
""focus"",""3"",""28474""
""fullscreenenter"",""5"",""37229""
","""event"",""trial"",""time""
""blur"",""0"",""0""
""blur"",""3"",""21529""
","""event"",""trial"",""time""
""focus"",""1"",""5553""
""focus"",""3"",""28474""
","""event"",""trial"",""time""
""fullscreenenter"",""5"",""37229""
","
","397.19999998807907","","49","","","3000","1","","","images/earth.jpg","images/tutrocket1","images/tutrocket2","null","images/tutrocket2","","1","practice","null","1","","",""
"d3-animate-choice","101","494589","0.0-61.0-1.13","547","749","10","Female","true","true","true","true","""event"",""trial"",""time""
""blur"",""0"",""0""
""focus"",""1"",""5553""
""blur"",""3"",""21529""
""focus"",""3"",""28474""
""fullscreenenter"",""5"",""37229""
","""event"",""trial"",""time""
""blur"",""0"",""0""
""blur"",""3"",""21529""
","""event"",""trial"",""time""
""focus"",""1"",""5553""
""focus"",""3"",""28474""
","""event"",""trial"",""time""
""fullscreenenter"",""5"",""37229""
","
","297.19999998807907","","48","","","3000","1","","","images/tutyellowplanet.jpg","images/tutalien4","images/tutalien3","images/tutrocket2","images/tutalien4","images/t.png","2","practice","true","2","common","1","2022-02-13 20:44:05.267"
"two-step-fixation","102","495594","0.0-61.0-2.13","547","749","10","Female","true","true","true","true","""event"",""trial"",""time""
""blur"",""0"",""0""
""focus"",""1"",""5553""
""blur"",""3"",""21529""
""focus"",""3"",""28474""
""fullscreenenter"",""5"",""37229""
","""event"",""trial"",""time""
""blur"",""0"",""0""
""blur"",""3"",""21529""
","""event"",""trial"",""time""
""focus"",""1"",""5553""
""focus"",""3"",""28474""
","""event"",""trial"",""time""
""fullscreenenter"",""5"",""37229""
","
","","images/earth.jpg","","","","","","","","","","","","","","fixation","","","","","",""
"d3-animate-choice","103","497934","0.0-61.0-0.14","547","749","10","Female","true","true","true","true","""event"",""trial"",""time""
""blur"",""0"",""0""
""focus"",""1"",""5553""
""blur"",""3"",""21529""
""focus"",""3"",""28474""
""fullscreenenter"",""5"",""37229""
","""event"",""trial"",""time""
""blur"",""0"",""0""
""blur"",""3"",""21529""
","""event"",""trial"",""time""
""focus"",""1"",""5553""
""focus"",""3"",""28474""
","""event"",""trial"",""time""
""fullscreenenter"",""5"",""37229""
","
","334.4000000357628","","49","","","3000","1","","","images/earth.jpg","images/tutrocket1","images/tutrocket2","null","images/tutrocket2","","1","practice","null","1","","",""
"d3-animate-choice","104","500366","0.0-61.0-1.14","547","749","10","Female","true","true","true","true","""event"",""trial"",""time""
""blur"",""0"",""0""
""focus"",""1"",""5553""
""blur"",""3"",""21529""
""focus"",""3"",""28474""
""fullscreenenter"",""5"",""37229""
","""event"",""trial"",""time""
""blur"",""0"",""0""
""blur"",""3"",""21529""
","""event"",""trial"",""time""
""focus"",""1"",""5553""
""focus"",""3"",""28474""
","""event"",""trial"",""time""
""fullscreenenter"",""5"",""37229""
","
","425.0999999642372","","48","","","3000","1","","","images/tutgreenplanet.jpg","images/tutalien2","images/tutalien1","images/tutrocket2","images/tutalien2","images/nothing.png","2","practice","false","2","rare","0","2022-02-13 20:44:11.044"
"two-step-fixation","105","501372","0.0-61.0-2.14","547","749","10","Female","true","true","true","true","""event"",""trial"",""time""
""blur"",""0"",""0""
""focus"",""1"",""5553""
""blur"",""3"",""21529""
""focus"",""3"",""28474""
""fullscreenenter"",""5"",""37229""
","""event"",""trial"",""time""
""blur"",""0"",""0""
""blur"",""3"",""21529""
","""event"",""trial"",""time""
""focus"",""1"",""5553""
""focus"",""3"",""28474""
","""event"",""trial"",""time""
""fullscreenenter"",""5"",""37229""
","
","","images/earth.jpg","","","","","","","","","","","","","","fixation","","","","","",""
"d3-animate-choice","106","503766","0.0-61.0-0.15","547","749","10","Female","true","true","true","true","""event"",""trial"",""time""
""blur"",""0"",""0""
""focus"",""1"",""5553""
""blur"",""3"",""21529""
""focus"",""3"",""28474""
""fullscreenenter"",""5"",""37229""
","""event"",""trial"",""time""
""blur"",""0"",""0""
""blur"",""3"",""21529""
","""event"",""trial"",""time""
""focus"",""1"",""5553""
""focus"",""3"",""28474""
","""event"",""trial"",""time""
""fullscreenenter"",""5"",""37229""
","
","387.89999997615814","","49","","","3000","1","","","images/earth.jpg","images/tutrocket1","images/tutrocket2","null","images/tutrocket2","","1","practice","null","1","","",""
"d3-animate-choice","107","506221","0.0-61.0-1.15","547","749","10","Female","true","true","true","true","""event"",""trial"",""time""
""blur"",""0"",""0""
""focus"",""1"",""5553""
""blur"",""3"",""21529""
""focus"",""3"",""28474""
""fullscreenenter"",""5"",""37229""
","""event"",""trial"",""time""
""blur"",""0"",""0""
""blur"",""3"",""21529""
","""event"",""trial"",""time""
""focus"",""1"",""5553""
""focus"",""3"",""28474""
","""event"",""trial"",""time""
""fullscreenenter"",""5"",""37229""
","
","449.30000001192093","","48","","","3000","1","","","images/tutyellowplanet.jpg","images/tutalien4","images/tutalien3","images/tutrocket2","images/tutalien4","images/nothing.png","2","practice","true","2","common","0","2022-02-13 20:44:16.899"
"two-step-fixation","108","507229","0.0-61.0-2.15","547","749","10","Female","true","true","true","true","""event"",""trial"",""time""
""blur"",""0"",""0""
""focus"",""1"",""5553""
""blur"",""3"",""21529""
""focus"",""3"",""28474""
""fullscreenenter"",""5"",""37229""
","""event"",""trial"",""time""
""blur"",""0"",""0""
""blur"",""3"",""21529""
","""event"",""trial"",""time""
""focus"",""1"",""5553""
""focus"",""3"",""28474""
","""event"",""trial"",""time""
""fullscreenenter"",""5"",""37229""
","
","","images/earth.jpg","","","","","","","","","","","","","","fixation","","","","","",""
"d3-animate-choice","109","509590","0.0-61.0-0.16","547","749","10","Female","true","true","true","true","""event"",""trial"",""time""
""blur"",""0"",""0""
""focus"",""1"",""5553""
""blur"",""3"",""21529""
""focus"",""3"",""28474""
""fullscreenenter"",""5"",""37229""
","""event"",""trial"",""time""
""blur"",""0"",""0""
""blur"",""3"",""21529""
","""event"",""trial"",""time""
""focus"",""1"",""5553""
""focus"",""3"",""28474""
","""event"",""trial"",""time""
""fullscreenenter"",""5"",""37229""
","
","355.0999999642372","","49","","","3000","1","","","images/earth.jpg","images/tutrocket1","images/tutrocket2","null","images/tutrocket2","","1","practice","null","1","","",""
"d3-animate-choice","110","511918","0.0-61.0-1.16","547","749","10","Female","true","true","true","true","""event"",""trial"",""time""
""blur"",""0"",""0""
""focus"",""1"",""5553""
""blur"",""3"",""21529""
""focus"",""3"",""28474""
""fullscreenenter"",""5"",""37229""
","""event"",""trial"",""time""
""blur"",""0"",""0""
""blur"",""3"",""21529""
","""event"",""trial"",""time""
""focus"",""1"",""5553""
""focus"",""3"",""28474""
","""event"",""trial"",""time""
""fullscreenenter"",""5"",""37229""
","
","321.5999999642372","","48","","","3000","1","","","images/tutyellowplanet.jpg","images/tutalien4","images/tutalien3","images/tutrocket2","images/tutalien4","images/t.png","2","practice","true","2","common","1","2022-02-13 20:44:22.596"
"two-step-fixation","111","512923","0.0-61.0-2.16","547","749","10","Female","true","true","true","true","""event"",""trial"",""time""
""blur"",""0"",""0""
""focus"",""1"",""5553""
""blur"",""3"",""21529""
""focus"",""3"",""28474""
""fullscreenenter"",""5"",""37229""
","""event"",""trial"",""time""
""blur"",""0"",""0""
""blur"",""3"",""21529""
","""event"",""trial"",""time""
""focus"",""1"",""5553""
""focus"",""3"",""28474""
","""event"",""trial"",""time""
""fullscreenenter"",""5"",""37229""
","
","","images/earth.jpg","","","","","","","","","","","","","","fixation","","","","","",""
"d3-animate-choice","112","515271","0.0-61.0-0.17","547","749","10","Female","true","true","true","true","""event"",""trial"",""time""
""blur"",""0"",""0""
""focus"",""1"",""5553""
""blur"",""3"",""21529""
""focus"",""3"",""28474""
""fullscreenenter"",""5"",""37229""
","""event"",""trial"",""time""
""blur"",""0"",""0""
""blur"",""3"",""21529""
","""event"",""trial"",""time""
""focus"",""1"",""5553""
""focus"",""3"",""28474""
","""event"",""trial"",""time""
""fullscreenenter"",""5"",""37229""
","
","340.39999997615814","","49","","","3000","1","","","images/earth.jpg","images/tutrocket1","images/tutrocket2","null","images/tutrocket2","","1","practice","null","1","","",""
"d3-animate-choice","113","517686","0.0-61.0-1.17","547","749","10","Female","true","true","true","true","""event"",""trial"",""time""
""blur"",""0"",""0""
""focus"",""1"",""5553""
""blur"",""3"",""21529""
""focus"",""3"",""28474""
""fullscreenenter"",""5"",""37229""
","""event"",""trial"",""time""
""blur"",""0"",""0""
""blur"",""3"",""21529""
","""event"",""trial"",""time""
""focus"",""1"",""5553""
""focus"",""3"",""28474""
","""event"",""trial"",""time""
""fullscreenenter"",""5"",""37229""
","
","408.5","","48","","","3000","1","","","images/tutgreenplanet.jpg","images/tutalien2","images/tutalien1","images/tutrocket2","images/tutalien2","images/t.png","2","practice","false","2","rare","1","2022-02-13 20:44:28.364"
"two-step-fixation","114","518692","0.0-61.0-2.17","547","749","10","Female","true","true","true","true","""event"",""trial"",""time""
""blur"",""0"",""0""
""focus"",""1"",""5553""
""blur"",""3"",""21529""
""focus"",""3"",""28474""
""fullscreenenter"",""5"",""37229""
","""event"",""trial"",""time""
""blur"",""0"",""0""
""blur"",""3"",""21529""
","""event"",""trial"",""time""
""focus"",""1"",""5553""
""focus"",""3"",""28474""
","""event"",""trial"",""time""
""fullscreenenter"",""5"",""37229""
","
","","images/earth.jpg","","","","","","","","","","","","","","fixation","","","","","",""
"d3-animate-choice","115","521071","0.0-61.0-0.18","547","749","10","Female","true","true","true","true","""event"",""trial"",""time""
""blur"",""0"",""0""
""focus"",""1"",""5553""
""blur"",""3"",""21529""
""focus"",""3"",""28474""
""fullscreenenter"",""5"",""37229""
","""event"",""trial"",""time""
""blur"",""0"",""0""
""blur"",""3"",""21529""
","""event"",""trial"",""time""
""focus"",""1"",""5553""
""focus"",""3"",""28474""
","""event"",""trial"",""time""
""fullscreenenter"",""5"",""37229""
","
","372.30000001192093","","49","","","3000","1","","","images/earth.jpg","images/tutrocket1","images/tutrocket2","null","images/tutrocket2","","1","practice","null","1","","",""
"d3-animate-choice","116","523565","0.0-61.0-1.18","547","749","10","Female","true","true","true","true","""event"",""trial"",""time""
""blur"",""0"",""0""
""focus"",""1"",""5553""
""blur"",""3"",""21529""
""focus"",""3"",""28474""
""fullscreenenter"",""5"",""37229""
","""event"",""trial"",""time""
""blur"",""0"",""0""
""blur"",""3"",""21529""
","""event"",""trial"",""time""
""focus"",""1"",""5553""
""focus"",""3"",""28474""
","""event"",""trial"",""time""
""fullscreenenter"",""5"",""37229""
","
","488.69999998807907","","48","","","3000","1","","","images/tutgreenplanet.jpg","images/tutalien2","images/tutalien1","images/tutrocket2","images/tutalien2","images/nothing.png","2","practice","false","2","rare","0","2022-02-13 20:44:34.244"
"two-step-fixation","117","524571","0.0-61.0-2.18","547","749","10","Female","true","true","true","true","""event"",""trial"",""time""
""blur"",""0"",""0""
""focus"",""1"",""5553""
""blur"",""3"",""21529""
""focus"",""3"",""28474""
""fullscreenenter"",""5"",""37229""
","""event"",""trial"",""time""
""blur"",""0"",""0""
""blur"",""3"",""21529""
","""event"",""trial"",""time""
""focus"",""1"",""5553""
""focus"",""3"",""28474""
","""event"",""trial"",""time""
""fullscreenenter"",""5"",""37229""
","
","","images/earth.jpg","","","","","","","","","","","","","","fixation","","","","","",""
"d3-animate-choice","118","526871","0.0-61.0-0.19","547","749","10","Female","true","true","true","true","""event"",""trial"",""time""
""blur"",""0"",""0""
""focus"",""1"",""5553""
""blur"",""3"",""21529""
""focus"",""3"",""28474""
""fullscreenenter"",""5"",""37229""
","""event"",""trial"",""time""
""blur"",""0"",""0""
""blur"",""3"",""21529""
","""event"",""trial"",""time""
""focus"",""1"",""5553""
""focus"",""3"",""28474""
","""event"",""trial"",""time""
""fullscreenenter"",""5"",""37229""
","
","292.69999998807907","","49","","","3000","1","","","images/earth.jpg","images/tutrocket1","images/tutrocket2","null","images/tutrocket2","","1","practice","null","1","","",""
"d3-animate-choice","119","529357","0.0-61.0-1.19","547","749","10","Female","true","true","true","true","""event"",""trial"",""time""
""blur"",""0"",""0""
""focus"",""1"",""5553""
""blur"",""3"",""21529""
""focus"",""3"",""28474""
""fullscreenenter"",""5"",""37229""
","""event"",""trial"",""time""
""blur"",""0"",""0""
""blur"",""3"",""21529""
","""event"",""trial"",""time""
""focus"",""1"",""5553""
""focus"",""3"",""28474""
","""event"",""trial"",""time""
""fullscreenenter"",""5"",""37229""
","
","480.89999997615814","","48","","","3000","1","","","images/tutyellowplanet.jpg","images/tutalien4","images/tutalien3","images/tutrocket2","images/tutalien4","images/nothing.png","2","practice","true","2","common","0","2022-02-13 20:44:40.035"
"two-step-fixation","120","530363","0.0-61.0-2.19","547","749","10","Female","true","true","true","true","""event"",""trial"",""time""
""blur"",""0"",""0""
""focus"",""1"",""5553""
""blur"",""3"",""21529""
""focus"",""3"",""28474""
""fullscreenenter"",""5"",""37229""
","""event"",""trial"",""time""
""blur"",""0"",""0""
""blur"",""3"",""21529""
","""event"",""trial"",""time""
""focus"",""1"",""5553""
""focus"",""3"",""28474""
","""event"",""trial"",""time""
""fullscreenenter"",""5"",""37229""
","
","","images/earth.jpg","","","","","","","","","","","","","","fixation","","","","","",""
"d3-instructions","121","540171","0.0-62.0","547","749","10","Female","true","true","true","true","""event"",""trial"",""time""
""blur"",""0"",""0""
""focus"",""1"",""5553""
""blur"",""3"",""21529""
""focus"",""3"",""28474""
""fullscreenenter"",""5"",""37229""
","""event"",""trial"",""time""
""blur"",""0"",""0""
""blur"",""3"",""21529""
","""event"",""trial"",""time""
""focus"",""1"",""5553""
""focus"",""3"",""28474""
","""event"",""trial"",""time""
""fullscreenenter"",""5"",""37229""
","
","","","","","","","","","","","","","","","","","","","","","",""
"audio-keyboard-response","122","545564","0.0-63.0","547","749","10","Female","true","true","true","true","""event"",""trial"",""time""
""blur"",""0"",""0""
""focus"",""1"",""5553""
""blur"",""3"",""21529""
""focus"",""3"",""28474""
""fullscreenenter"",""5"",""37229""
","""event"",""trial"",""time""
""blur"",""0"",""0""
""blur"",""3"",""21529""
","""event"",""trial"",""time""
""focus"",""1"",""5553""
""focus"",""3"",""28474""
","""event"",""trial"",""time""
""fullscreenenter"",""5"",""37229""
","
","5392","audio/instructions/treasure_feedback.wav","32","","","","","","","","","","","","","","","","","","",""
"d3-instructions","123","565307","0.0-64.0","547","749","10","Female","true","true","true","true","""event"",""trial"",""time""
""blur"",""0"",""0""
""focus"",""1"",""5553""
""blur"",""3"",""21529""
""focus"",""3"",""28474""
""fullscreenenter"",""5"",""37229""
","""event"",""trial"",""time""
""blur"",""0"",""0""
""blur"",""3"",""21529""
","""event"",""trial"",""time""
""focus"",""1"",""5553""
""focus"",""3"",""28474""
","""event"",""trial"",""time""
""fullscreenenter"",""5"",""37229""
","
","","","","","","","","","","","","","","","","","","","","","",""
"d3-instructions","124","580219","0.0-65.0","547","749","10","Female","true","true","true","true","""event"",""trial"",""time""
""blur"",""0"",""0""
""focus"",""1"",""5553""
""blur"",""3"",""21529""
""focus"",""3"",""28474""
""fullscreenenter"",""5"",""37229""
","""event"",""trial"",""time""
""blur"",""0"",""0""
""blur"",""3"",""21529""
","""event"",""trial"",""time""
""focus"",""1"",""5553""
""focus"",""3"",""28474""
","""event"",""trial"",""time""
""fullscreenenter"",""5"",""37229""
","
","","","","","","","","","","","","","","","","","","","","","",""
"d3-instructions","125","606859","0.0-66.0","547","749","10","Female","true","true","true","true","""event"",""trial"",""time""
""blur"",""0"",""0""
""focus"",""1"",""5553""
""blur"",""3"",""21529""
""focus"",""3"",""28474""
""fullscreenenter"",""5"",""37229""
","""event"",""trial"",""time""
""blur"",""0"",""0""
""blur"",""3"",""21529""
","""event"",""trial"",""time""
""focus"",""1"",""5553""
""focus"",""3"",""28474""
","""event"",""trial"",""time""
""fullscreenenter"",""5"",""37229""
","
","","","","","","","","","","","","","","","","","","","","","",""
"d3-instructions","126","623347","0.0-67.0","547","749","10","Female","true","true","true","true","""event"",""trial"",""time""
""blur"",""0"",""0""
""focus"",""1"",""5553""
""blur"",""3"",""21529""
""focus"",""3"",""28474""
""fullscreenenter"",""5"",""37229""
","""event"",""trial"",""time""
""blur"",""0"",""0""
""blur"",""3"",""21529""
","""event"",""trial"",""time""
""focus"",""1"",""5553""
""focus"",""3"",""28474""
","""event"",""trial"",""time""
""fullscreenenter"",""5"",""37229""
","
","","","","","","","","","","","","","","","","","","","","","",""
"d3-instructions","127","631643","0.0-68.0","547","749","10","Female","true","true","true","true","""event"",""trial"",""time""
""blur"",""0"",""0""
""focus"",""1"",""5553""
""blur"",""3"",""21529""
""focus"",""3"",""28474""
""fullscreenenter"",""5"",""37229""
","""event"",""trial"",""time""
""blur"",""0"",""0""
""blur"",""3"",""21529""
","""event"",""trial"",""time""
""focus"",""1"",""5553""
""focus"",""3"",""28474""
","""event"",""trial"",""time""
""fullscreenenter"",""5"",""37229""
","
","","","","","","","","","","","","","","","","","","","","","",""
"instructions-quiz","128","634504","0.0-69.0","547","749","10","Female","true","true","true","true","""event"",""trial"",""time""
""blur"",""0"",""0""
""focus"",""1"",""5553""
""blur"",""3"",""21529""
""focus"",""3"",""28474""
""fullscreenenter"",""5"",""37229""
","""event"",""trial"",""time""
""blur"",""0"",""0""
""blur"",""3"",""21529""
","""event"",""trial"",""time""
""focus"",""1"",""5553""
""focus"",""3"",""28474""
","""event"",""trial"",""time""
""fullscreenenter"",""5"",""37229""
","
","2857.699999988079","audio/quiz/Q1_Prompt.wav","","1","","","","","","","","","","","","","","","","","",""
"audio-keyboard-response","129","643673","0.0-70.0","547","749","10","Female","true","true","true","true","""event"",""trial"",""time""
""blur"",""0"",""0""
""focus"",""1"",""5553""
""blur"",""3"",""21529""
""focus"",""3"",""28474""
""fullscreenenter"",""5"",""37229""
","""event"",""trial"",""time""
""blur"",""0"",""0""
""blur"",""3"",""21529""
","""event"",""trial"",""time""
""focus"",""1"",""5553""
""focus"",""3"",""28474""
","""event"",""trial"",""time""
""fullscreenenter"",""5"",""37229""
","
","null","audio/quiz/Q1_Correct.wav","null","","","","","","","","","","","","","","","","","","",""
"instructions-quiz","130","648586","0.0-71.0","547","749","10","Female","true","true","true","true","""event"",""trial"",""time""
""blur"",""0"",""0""
""focus"",""1"",""5553""
""blur"",""3"",""21529""
""focus"",""3"",""28474""
""fullscreenenter"",""5"",""37229""
","""event"",""trial"",""time""
""blur"",""0"",""0""
""blur"",""3"",""21529""
","""event"",""trial"",""time""
""focus"",""1"",""5553""
""focus"",""3"",""28474""
","""event"",""trial"",""time""
""fullscreenenter"",""5"",""37229""
","
","4910.899999976158","audio/quiz/Q2_Prompt.wav","","0","","","","","","","","","","","","","","","","","",""
"audio-keyboard-response","131","661453","0.0-72.0","547","749","10","Female","true","true","true","true","""event"",""trial"",""time""
""blur"",""0"",""0""
""focus"",""1"",""5553""
""blur"",""3"",""21529""
""focus"",""3"",""28474""
""fullscreenenter"",""5"",""37229""
","""event"",""trial"",""time""
""blur"",""0"",""0""
""blur"",""3"",""21529""
","""event"",""trial"",""time""
""focus"",""1"",""5553""
""focus"",""3"",""28474""
","""event"",""trial"",""time""
""fullscreenenter"",""5"",""37229""
","
","null","audio/quiz/Q2_Correct.wav","null","","","","","","","","","","","","","","","","","","",""
"instructions-quiz","132","664460","0.0-73.0","547","749","10","Female","true","true","true","true","""event"",""trial"",""time""
""blur"",""0"",""0""
""focus"",""1"",""5553""
""blur"",""3"",""21529""
""focus"",""3"",""28474""
""fullscreenenter"",""5"",""37229""
","""event"",""trial"",""time""
""blur"",""0"",""0""
""blur"",""3"",""21529""
","""event"",""trial"",""time""
""focus"",""1"",""5553""
""focus"",""3"",""28474""
","""event"",""trial"",""time""
""fullscreenenter"",""5"",""37229""
","
","3004.399999976158","audio/quiz/Q3_Prompt.wav","","1","","","","","","","","","","","","","","","","","",""
"audio-keyboard-response","133","670253","0.0-74.0","547","749","10","Female","true","true","true","true","""event"",""trial"",""time""
""blur"",""0"",""0""
""focus"",""1"",""5553""
""blur"",""3"",""21529""
""focus"",""3"",""28474""
""fullscreenenter"",""5"",""37229""
","""event"",""trial"",""time""
""blur"",""0"",""0""
""blur"",""3"",""21529""
","""event"",""trial"",""time""
""focus"",""1"",""5553""
""focus"",""3"",""28474""
","""event"",""trial"",""time""
""fullscreenenter"",""5"",""37229""
","
","null","audio/quiz/Q3_Correct.wav","null","","","","","","","","","","","","","","","","","","",""
"d3-instructions","134","681964","0.0-75.0","547","749","10","Female","true","true","true","true","""event"",""trial"",""time""
""blur"",""0"",""0""
""focus"",""1"",""5553""
""blur"",""3"",""21529""
""focus"",""3"",""28474""
""fullscreenenter"",""5"",""37229""
","""event"",""trial"",""time""
""blur"",""0"",""0""
""blur"",""3"",""21529""
","""event"",""trial"",""time""
""focus"",""1"",""5553""
""focus"",""3"",""28474""
","""event"",""trial"",""time""
""fullscreenenter"",""5"",""37229""
","
","","","","","","","","","","","","","","","","","","","","","",""
"d3-animate-choice","135","684662","0.0-76.0-0.0","547","749","10","Female","true","true","true","true","""event"",""trial"",""time""
""blur"",""0"",""0""
""focus"",""1"",""5553""
""blur"",""3"",""21529""
""focus"",""3"",""28474""
""fullscreenenter"",""5"",""37229""
","""event"",""trial"",""time""
""blur"",""0"",""0""
""blur"",""3"",""21529""
","""event"",""trial"",""time""
""focus"",""1"",""5553""
""focus"",""3"",""28474""
","""event"",""trial"",""time""
""fullscreenenter"",""5"",""37229""
","
","689","","49","","","3000","1","","","images/earth.jpg","images/rocket2","images/rocket1","null","images/rocket1","","1","real","null","1","","",""
"d3-animate-choice","136","686996","0.0-76.0-1.0","547","749","10","Female","true","true","true","true","""event"",""trial"",""time""
""blur"",""0"",""0""
""focus"",""1"",""5553""
""blur"",""3"",""21529""
""focus"",""3"",""28474""
""fullscreenenter"",""5"",""37229""
","""event"",""trial"",""time""
""blur"",""0"",""0""
""blur"",""3"",""21529""
","""event"",""trial"",""time""
""focus"",""1"",""5553""
""focus"",""3"",""28474""
","""event"",""trial"",""time""
""fullscreenenter"",""5"",""37229""
","
","328.10000002384186","","49","","","3000","1","","","images/purpleplanet.jpg","images/alien4","images/alien3","images/rocket1","images/alien3","images/nothing.png","2","real","false","1","rare","0","2022-02-13 20:47:17.675"
"two-step-fixation","137","688003","0.0-76.0-2.0","547","749","10","Female","true","true","true","true","""event"",""trial"",""time""
""blur"",""0"",""0""
""focus"",""1"",""5553""
""blur"",""3"",""21529""
""focus"",""3"",""28474""
""fullscreenenter"",""5"",""37229""
","""event"",""trial"",""time""
""blur"",""0"",""0""
""blur"",""3"",""21529""
","""event"",""trial"",""time""
""focus"",""1"",""5553""
""focus"",""3"",""28474""
","""event"",""trial"",""time""
""fullscreenenter"",""5"",""37229""
","
","","images/earth.jpg","","","","","","","","","","","","","","fixation","","","","","",""
"d3-animate-choice","138","690455","0.0-76.0-0.1","547","749","10","Female","true","true","true","true","""event"",""trial"",""time""
""blur"",""0"",""0""
""focus"",""1"",""5553""
""blur"",""3"",""21529""
""focus"",""3"",""28474""
""fullscreenenter"",""5"",""37229""
","""event"",""trial"",""time""
""blur"",""0"",""0""
""blur"",""3"",""21529""
","""event"",""trial"",""time""
""focus"",""1"",""5553""
""focus"",""3"",""28474""
","""event"",""trial"",""time""
""fullscreenenter"",""5"",""37229""
","
","442.80000001192093","","49","","","3000","1","","","images/earth.jpg","images/rocket2","images/rocket1","null","images/rocket1","","1","real","null","1","","",""
"d3-animate-choice","139","692860","0.0-76.0-1.1","547","749","10","Female","true","true","true","true","""event"",""trial"",""time""
""blur"",""0"",""0""
""focus"",""1"",""5553""
""blur"",""3"",""21529""
""focus"",""3"",""28474""
""fullscreenenter"",""5"",""37229""
","""event"",""trial"",""time""
""blur"",""0"",""0""
""blur"",""3"",""21529""
","""event"",""trial"",""time""
""focus"",""1"",""5553""
""focus"",""3"",""28474""
","""event"",""trial"",""time""
""fullscreenenter"",""5"",""37229""
","
","398.89999997615814","","48","","","3000","1","","","images/purpleplanet.jpg","images/alien4","images/alien3","images/rocket1","images/alien4","images/t.png","2","real","false","2","rare","1","2022-02-13 20:47:23.539"
"two-step-fixation","140","693867","0.0-76.0-2.1","547","749","10","Female","true","true","true","true","""event"",""trial"",""time""
""blur"",""0"",""0""
""focus"",""1"",""5553""
""blur"",""3"",""21529""
""focus"",""3"",""28474""
""fullscreenenter"",""5"",""37229""
","""event"",""trial"",""time""
""blur"",""0"",""0""
""blur"",""3"",""21529""
","""event"",""trial"",""time""
""focus"",""1"",""5553""
""focus"",""3"",""28474""
","""event"",""trial"",""time""
""fullscreenenter"",""5"",""37229""
","
","","images/earth.jpg","","","","","","","","","","","","","","fixation","","","","","",""
"d3-animate-choice","141","696221","0.0-76.0-0.2","547","749","10","Female","true","true","true","true","""event"",""trial"",""time""
""blur"",""0"",""0""
""focus"",""1"",""5553""
""blur"",""3"",""21529""
""focus"",""3"",""28474""
""fullscreenenter"",""5"",""37229""
","""event"",""trial"",""time""
""blur"",""0"",""0""
""blur"",""3"",""21529""
","""event"",""trial"",""time""
""focus"",""1"",""5553""
""focus"",""3"",""28474""
","""event"",""trial"",""time""
""fullscreenenter"",""5"",""37229""
","
","346.60000002384186","","49","","","3000","1","","","images/earth.jpg","images/rocket2","images/rocket1","null","images/rocket1","","1","real","null","1","","",""
"d3-animate-choice","142","698605","0.0-76.0-1.2","547","749","10","Female","true","true","true","true","""event"",""trial"",""time""
""blur"",""0"",""0""
""focus"",""1"",""5553""
""blur"",""3"",""21529""
""focus"",""3"",""28474""
""fullscreenenter"",""5"",""37229""
","""event"",""trial"",""time""
""blur"",""0"",""0""
""blur"",""3"",""21529""
","""event"",""trial"",""time""
""focus"",""1"",""5553""
""focus"",""3"",""28474""
","""event"",""trial"",""time""
""fullscreenenter"",""5"",""37229""
","
","376.39999997615814","","48","","","3000","1","","","images/redplanet1.jpg","images/alien2","images/alien1","images/rocket1","images/alien2","images/t.png","2","real","true","2","common","1","2022-02-13 20:47:29.283"
"two-step-fixation","143","699612","0.0-76.0-2.2","547","749","10","Female","true","true","true","true","""event"",""trial"",""time""
""blur"",""0"",""0""
""focus"",""1"",""5553""
""blur"",""3"",""21529""
""focus"",""3"",""28474""
""fullscreenenter"",""5"",""37229""
","""event"",""trial"",""time""
""blur"",""0"",""0""
""blur"",""3"",""21529""
","""event"",""trial"",""time""
""focus"",""1"",""5553""
""focus"",""3"",""28474""
","""event"",""trial"",""time""
""fullscreenenter"",""5"",""37229""
","
","","images/earth.jpg","","","","","","","","","","","","","","fixation","","","","","",""
"d3-animate-choice","144","701934","0.0-76.0-0.3","547","749","10","Female","true","true","true","true","""event"",""trial"",""time""
""blur"",""0"",""0""
""focus"",""1"",""5553""
""blur"",""3"",""21529""
""focus"",""3"",""28474""
""fullscreenenter"",""5"",""37229""
","""event"",""trial"",""time""
""blur"",""0"",""0""
""blur"",""3"",""21529""
","""event"",""trial"",""time""
""focus"",""1"",""5553""
""focus"",""3"",""28474""
","""event"",""trial"",""time""
""fullscreenenter"",""5"",""37229""
","
","314.5999999642372","","49","","","3000","1","","","images/earth.jpg","images/rocket2","images/rocket1","null","images/rocket1","","1","real","null","1","","",""
"d3-animate-choice","145","704445","0.0-76.0-1.3","547","749","10","Female","true","true","true","true","""event"",""trial"",""time""
""blur"",""0"",""0""
""focus"",""1"",""5553""
""blur"",""3"",""21529""
""focus"",""3"",""28474""
""fullscreenenter"",""5"",""37229""
","""event"",""trial"",""time""
""blur"",""0"",""0""
""blur"",""3"",""21529""
","""event"",""trial"",""time""
""focus"",""1"",""5553""
""focus"",""3"",""28474""
","""event"",""trial"",""time""
""fullscreenenter"",""5"",""37229""
","
","503.4000000357628","","48","","","3000","1","","","images/redplanet1.jpg","images/alien2","images/alien1","images/rocket1","images/alien2","images/nothing.png","2","real","true","2","common","0","2022-02-13 20:47:35.123"
"two-step-fixation","146","705466","0.0-76.0-2.3","547","749","10","Female","true","true","true","true","""event"",""trial"",""time""
""blur"",""0"",""0""
""focus"",""1"",""5553""
""blur"",""3"",""21529""
""focus"",""3"",""28474""
""fullscreenenter"",""5"",""37229""
","""event"",""trial"",""time""
""blur"",""0"",""0""
""blur"",""3"",""21529""
","""event"",""trial"",""time""
""focus"",""1"",""5553""
""focus"",""3"",""28474""
","""event"",""trial"",""time""
""fullscreenenter"",""5"",""37229""
","
","","images/earth.jpg","","","","","","","","","","","","","","fixation","","","","","",""
"d3-animate-choice","147","707845","0.0-76.0-0.4","547","749","10","Female","true","true","true","true","""event"",""trial"",""time""
""blur"",""0"",""0""
""focus"",""1"",""5553""
""blur"",""3"",""21529""
""focus"",""3"",""28474""
""fullscreenenter"",""5"",""37229""
","""event"",""trial"",""time""
""blur"",""0"",""0""
""blur"",""3"",""21529""
","""event"",""trial"",""time""
""focus"",""1"",""5553""
""focus"",""3"",""28474""
","""event"",""trial"",""time""
""fullscreenenter"",""5"",""37229""
","
","371","","49","","","3000","1","","","images/earth.jpg","images/rocket2","images/rocket1","null","images/rocket1","","1","real","null","1","","",""
"d3-animate-choice","148","710357","0.0-76.0-1.4","547","749","10","Female","true","true","true","true","""event"",""trial"",""time""
""blur"",""0"",""0""
""focus"",""1"",""5553""
""blur"",""3"",""21529""
""focus"",""3"",""28474""
""fullscreenenter"",""5"",""37229""
","""event"",""trial"",""time""
""blur"",""0"",""0""
""blur"",""3"",""21529""
","""event"",""trial"",""time""
""focus"",""1"",""5553""
""focus"",""3"",""28474""
","""event"",""trial"",""time""
""fullscreenenter"",""5"",""37229""
","
","504.30000001192093","","48","","","3000","1","","","images/purpleplanet.jpg","images/alien4","images/alien3","images/rocket1","images/alien4","images/nothing.png","2","real","false","2","rare","0","2022-02-13 20:47:41.035"
"two-step-fixation","149","711363","0.0-76.0-2.4","547","749","10","Female","true","true","true","true","""event"",""trial"",""time""
""blur"",""0"",""0""
""focus"",""1"",""5553""
""blur"",""3"",""21529""
""focus"",""3"",""28474""
""fullscreenenter"",""5"",""37229""
","""event"",""trial"",""time""
""blur"",""0"",""0""
""blur"",""3"",""21529""
","""event"",""trial"",""time""
""focus"",""1"",""5553""
""focus"",""3"",""28474""
","""event"",""trial"",""time""
""fullscreenenter"",""5"",""37229""
","
","","images/earth.jpg","","","","","","","","","","","","","","fixation","","","","","",""
"d3-animate-choice","150","714245","0.0-76.0-0.5","547","749","10","Female","true","true","true","true","""event"",""trial"",""time""
""blur"",""0"",""0""
""focus"",""1"",""5553""
""blur"",""3"",""21529""
""focus"",""3"",""28474""
""fullscreenenter"",""5"",""37229""
","""event"",""trial"",""time""
""blur"",""0"",""0""
""blur"",""3"",""21529""
","""event"",""trial"",""time""
""focus"",""1"",""5553""
""focus"",""3"",""28474""
","""event"",""trial"",""time""
""fullscreenenter"",""5"",""37229""
","
","874.6999999880791","","48","","","3000","1","","","images/earth.jpg","images/rocket2","images/rocket1","null","images/rocket2","","1","real","null","2","","",""
"d3-animate-choice","151","716595","0.0-76.0-1.5","547","749","10","Female","true","true","true","true","""event"",""trial"",""time""
""blur"",""0"",""0""
""focus"",""1"",""5553""
""blur"",""3"",""21529""
""focus"",""3"",""28474""
""fullscreenenter"",""5"",""37229""
","""event"",""trial"",""time""
""blur"",""0"",""0""
""blur"",""3"",""21529""
","""event"",""trial"",""time""
""focus"",""1"",""5553""
""focus"",""3"",""28474""
","""event"",""trial"",""time""
""fullscreenenter"",""5"",""37229""
","
","344.30000001192093","","48","","","3000","1","","","images/redplanet1.jpg","images/alien2","images/alien1","images/rocket2","images/alien2","images/t.png","2","real","false","2","rare","1","2022-02-13 20:47:47.274"
"two-step-fixation","152","717602","0.0-76.0-2.5","547","749","10","Female","true","true","true","true","""event"",""trial"",""time""
""blur"",""0"",""0""
""focus"",""1"",""5553""
""blur"",""3"",""21529""
""focus"",""3"",""28474""
""fullscreenenter"",""5"",""37229""
","""event"",""trial"",""time""
""blur"",""0"",""0""
""blur"",""3"",""21529""
","""event"",""trial"",""time""
""focus"",""1"",""5553""
""focus"",""3"",""28474""
","""event"",""trial"",""time""
""fullscreenenter"",""5"",""37229""
","
","","images/earth.jpg","","","","","","","","","","","","","","fixation","","","","","",""
"d3-animate-choice","153","719900","0.0-76.0-0.6","547","749","10","Female","true","true","true","true","""event"",""trial"",""time""
""blur"",""0"",""0""
""focus"",""1"",""5553""
