"trial_type","trial_index","time_elapsed","internal_node_id","participant_id","subject_id","age","gender","rocket_sides","red_planet_first_rocket","red_display_order","purple_display_order","interactions","blur_events","focus_events","fullscreenenter_events","fullscreenexit_events","rt","stimulus","key_press","button_pressed","success","duration","valid_pressed","rts","keys","planet_text","right_text","left_text","center_text","chosen_text","reward_text","trial_stage","practice_trial","transition_type","choice","transition","reward","timestamp"
"pavlovia","0","36","0.0-0.0","2506","5251","14","Male","true","false","false","true","
","
","
","
","
","","","","","","","","","","","","","","","","","","","","","",""
"html-keyboard-response","1","4545","0.0-1.0","2506","5251","14","Male","true","false","false","true","
","
","
","
","
","4509.199999999255","Welcome! Press the space bar to begin.","32","","","","","","","","","","","","","","","","","","",""
"audio-keyboard-response","2","6840","0.0-2.0","2506","5251","14","Male","true","false","false","true","
","
","
","
","
","2293","audio/beep_loop.wav","32","","","","","","","","","","","","","","","","","","",""
"audio-button-response","3","9785","0.0-3.0","2506","5251","14","Male","true","false","false","true","
","
","
","
","
","NaN","audio/fish.mp3","","1","","","","","","","","","","","","","","","","","",""
"audio-button-response","4","13948","0.0-4.0","2506","5251","14","Male","true","false","false","true","""event"",""trial"",""time""
""fullscreenenter"",""5"",""19034""
","
","
","""event"",""trial"",""time""
""fullscreenenter"",""5"",""19034""
","
","NaN","audio/tiger.mp3","","4","","","","","","","","","","","","","","","","","",""
"fullscreen","5","19960","0.0-5.0","2506","5251","14","Male","true","false","false","true","""event"",""trial"",""time""
""fullscreenenter"",""5"",""19034""
","
","
","""event"",""trial"",""time""
""fullscreenenter"",""5"",""19034""
","
","","","","","true","","","","","","","","","","","","","","","","",""
"d3-instructions","6","40980","0.0-6.0","2506","5251","14","Male","true","false","false","true","""event"",""trial"",""time""
""fullscreenenter"",""5"",""19034""
","
","
","""event"",""trial"",""time""
""fullscreenenter"",""5"",""19034""
","
","","","","","","","","","","","","","","","","","","","","","",""
"d3-instructions","7","43785","0.0-7.0","2506","5251","14","Male","true","false","false","true","""event"",""trial"",""time""
""fullscreenenter"",""5"",""19034""
","
","
","""event"",""trial"",""time""
""fullscreenenter"",""5"",""19034""
","
","","","","","","","","","","","","","","","","","","","","","",""
"d3-instructions","8","44310","0.0-8.0","2506","5251","14","Male","true","false","false","true","""event"",""trial"",""time""
""fullscreenenter"",""5"",""19034""
","
","
","""event"",""trial"",""time""
""fullscreenenter"",""5"",""19034""
","
","","","","","","","","","","","","","","","","","","","","","",""
"d3-instructions","9","44625","0.0-9.0","2506","5251","14","Male","true","false","false","true","""event"",""trial"",""time""
""fullscreenenter"",""5"",""19034""
","
","
","""event"",""trial"",""time""
""fullscreenenter"",""5"",""19034""
","
","","","","","","","","","","","","","","","","","","","","","",""
"d3-instructions","10","44866","0.0-10.0","2506","5251","14","Male","true","false","false","true","""event"",""trial"",""time""
""fullscreenenter"",""5"",""19034""
","
","
","""event"",""trial"",""time""
""fullscreenenter"",""5"",""19034""
","
","","","","","","","","","","","","","","","","","","","","","",""
"d3-animate-choice","11","48386","0.0-11.0","2506","5251","14","Male","true","false","false","true","""event"",""trial"",""time""
""fullscreenenter"",""5"",""19034""
","
","
","""event"",""trial"",""time""
""fullscreenenter"",""5"",""19034""
","
","1513.699999999255","","49","","","3000","1","1798.8999999985099,1978.8999999985099,2234.199999999255,2248.699999999255,2398.89999999851,2609,2804,2848.89999999851,3013.599999997765,3028.699999999255,3253.89999999851,3449.300000000745","48,49,49,48,49,49,49,48,48,49,49,49","images/tutgreenplanet.jpg","images/tutalien1","images/tutalien2","null","images/tutalien2","","NA","practice","null","","","",""
"d3-animate-choice","12","50558","0.0-12.0","2506","5251","14","Male","true","false","false","true","""event"",""trial"",""time""
""fullscreenenter"",""5"",""19034""
","
","
","""event"",""trial"",""time""
""fullscreenenter"",""5"",""19034""
","
","168.40000000223517","","48","","","3000","1","182.60000000149012,363.4000000022352,573.4000000022352,752.9000000022352,993,1233.300000000745,1412.9000000022352,1623.6000000014901,1953,2162.900000002235","49,49,49,49,49,49,49,49,49,49","images/tutgreenplanet.jpg","images/tutalien1","images/tutalien2","null","images/tutalien1","","NA","practice","null","","","",""
"d3-animate-choice","13","52746","0.0-13.0","2506","5251","14","Male","true","false","false","true","""event"",""trial"",""time""
""fullscreenenter"",""5"",""19034""
","
","
","""event"",""trial"",""time""
""fullscreenenter"",""5"",""19034""
","
","187","","49","","","3000","1","367,607.1999999992549,771.8999999985099,951.8999999985099,1192.0999999977648,1387.0999999977648,1611.3999999985099,1837.300000000745,2077.199999999255","49,49,49,49,49,49,49,49,49","images/tutgreenplanet.jpg","images/tutalien1","images/tutalien2","null","images/tutalien2","","NA","practice","null","","","",""
"d3-animate-choice","14","54833","0.0-14.0","2506","5251","14","Male","true","false","false","true","""event"",""trial"",""time""
""fullscreenenter"",""5"",""19034""
","
","
","""event"",""trial"",""time""
""fullscreenenter"",""5"",""19034""
","
","83.59999999776483","","49","","","3000","1","158.69999999925494,323,368.0999999977648,773.3000000007451,998.5,1223.199999999255,1433.5999999977648,1808.5,2018.5999999977648","48,49,48,48,48,48,48,48,48","images/tutgreenplanet.jpg","images/tutalien1","images/tutalien2","null","images/tutalien2","","NA","practice","null","","","",""
"d3-instructions","15","56715","0.0-15.0","2506","5251","14","Male","true","false","false","true","""event"",""trial"",""time""
""fullscreenenter"",""5"",""19034""
","
","
","""event"",""trial"",""time""
""fullscreenenter"",""5"",""19034""
","
","","","","","","","","","","","","","","","","","","","","","",""
"d3-instructions","16","57106","0.0-16.0","2506","5251","14","Male","true","false","false","true","""event"",""trial"",""time""
""fullscreenenter"",""5"",""19034""
","
","
","""event"",""trial"",""time""
""fullscreenenter"",""5"",""19034""
","
","","","","","","","","","","","","","","","","","","","","","",""
"d3-instructions","17","57481","0.0-17.0","2506","5251","14","Male","true","false","false","true","""event"",""trial"",""time""
""fullscreenenter"",""5"",""19034""
","
","
","""event"",""trial"",""time""
""fullscreenenter"",""5"",""19034""
","
","","","","","","","","","","","","","","","","","","","","","",""
"d3-instructions","18","57871","0.0-18.0","2506","5251","14","Male","true","false","false","true","""event"",""trial"",""time""
""fullscreenenter"",""5"",""19034""
","
","
","""event"",""trial"",""time""
""fullscreenenter"",""5"",""19034""
","
","","","","","","","","","","","","","","","","","","","","","",""
"d3-instructions","19","58351","0.0-19.0","2506","5251","14","Male","true","false","false","true","""event"",""trial"",""time""
""fullscreenenter"",""5"",""19034""
","
","
","""event"",""trial"",""time""
""fullscreenenter"",""5"",""19034""
","
","","","","","","","","","","","","","","","","","","","","","",""
"d3-animate-choice","20","61494","0.0-20.0","2506","5251","14","Male","true","false","false","true","""event"",""trial"",""time""
""fullscreenenter"",""5"",""19034""
","
","
","""event"",""trial"",""time""
""fullscreenenter"",""5"",""19034""
","
","284.3999999985099","","32","","","3000","1","554.3999999985099,1140.1000000014901,2624.5,2894.39999999851,3133.699999999255","32,49,49,49,49","images/tutyellowplanet.jpg","null","images/tutalien3","null","images/tutalien3","images/nothing.png","NA","practice","null","","","",""
"d3-animate-choice","21","63741","0.0-21.0","2506","5251","14","Male","true","false","false","true","""event"",""trial"",""time""
""fullscreenenter"",""5"",""19034""
","
","
","""event"",""trial"",""time""
""fullscreenenter"",""5"",""19034""
","
","245.69999999925494","","49","","","3000","1","531.9000000022352,831.9000000022352,1116.5,1551.800000000745,1851.4000000022352,2091.400000002235","49,49,49,49,49,49","images/tutyellowplanet.jpg","null","images/tutalien3","null","images/tutalien3","images/t.png","NA","practice","null","","","",""
"d3-animate-choice","22","65844","0.0-22.0","2506","5251","14","Male","true","false","false","true","""event"",""trial"",""time""
""fullscreenenter"",""5"",""19034""
","
","
","""event"",""trial"",""time""
""fullscreenenter"",""5"",""19034""
","
","99","","49","","","3000","1","369.30000000074506,594.6999999992549,878.9000000022352,1179.4000000022352,1404.4000000022352,1944.5","49,49,49,49,49,49","images/tutyellowplanet.jpg","null","images/tutalien3","null","images/tutalien3","images/t.png","NA","practice","null","","","",""
"d3-animate-choice","23","67942","0.0-23.0","2506","5251","14","Male","true","false","false","true","""event"",""trial"",""time""
""fullscreenenter"",""5"",""19034""
","
","
","""event"",""trial"",""time""
""fullscreenenter"",""5"",""19034""
","
","95.89999999850988","","49","","","3000","1","351.5999999977648,696.1999999992549,1056.2999999970198,1326.199999999255,1851.2999999970198","49,49,49,49,49","images/tutyellowplanet.jpg","null","images/tutalien3","null","images/tutalien3","images/t.png","NA","practice","null","","","",""
"d3-animate-choice","24","70091","0.0-24.0","2506","5251","14","Male","true","false","false","true","""event"",""trial"",""time""
""fullscreenenter"",""5"",""19034""
","
","
","""event"",""trial"",""time""
""fullscreenenter"",""5"",""19034""
","
","143.19999999925494","","49","","","3000","1","1178.1000000014901,1493.3999999985099,1823","49,49,49","images/tutyellowplanet.jpg","null","images/tutalien3","null","images/tutalien3","images/t.png","NA","practice","null","","","",""
"d3-animate-choice","25","72158","0.0-25.0","2506","5251","14","Male","true","false","false","true","""event"",""trial"",""time""
""fullscreenenter"",""5"",""19034""
","
","
","""event"",""trial"",""time""
""fullscreenenter"",""5"",""19034""
","
","63.69999999925494","","49","","","3000","1","514.1999999992549,859.3999999985099,1144.0999999977648,1593.5,1893.8999999985099","49,49,49,49,49","images/tutyellowplanet.jpg","null","images/tutalien3","null","images/tutalien3","images/t.png","NA","practice","null","","","",""
"d3-animate-choice","26","74526","0.0-26.0","2506","5251","14","Male","true","false","false","true","""event"",""trial"",""time""
""fullscreenenter"",""5"",""19034""
","
","
","""event"",""trial"",""time""
""fullscreenenter"",""5"",""19034""
","
","367.4000000022352","","49","","","3000","1","712,997.4000000022352,1972.300000000745,2257.400000002235","49,49,49,49","images/tutyellowplanet.jpg","null","images/tutalien3","null","images/tutalien3","images/t.png","NA","practice","null","","","",""
"d3-animate-choice","27","76837","0.0-27.0","2506","5251","14","Male","true","false","false","true","""event"",""trial"",""time""
""fullscreenenter"",""5"",""19034""
","
","
","""event"",""trial"",""time""
""fullscreenenter"",""5"",""19034""
","
","308.80000000074506","","49","","","3000","1","578.9000000022352,908.8000000007451,1268.9000000022352,1613.6000000014901,2124.2000000029802","49,49,49,49,49","images/tutyellowplanet.jpg","null","images/tutalien3","null","images/tutalien3","images/t.png","NA","practice","null","","","",""
"d3-animate-choice","28","79090","0.0-28.0","2506","5251","14","Male","true","false","false","true","""event"",""trial"",""time""
""fullscreenenter"",""5"",""19034""
","
","
","""event"",""trial"",""time""
""fullscreenenter"",""5"",""19034""
","
","248.5","","49","","","3000","1","2033","49","images/tutyellowplanet.jpg","null","images/tutalien3","null","images/tutalien3","images/t.png","NA","practice","null","","","",""
"d3-animate-choice","29","81144","0.0-29.0","2506","5251","14","Male","true","false","false","true","""event"",""trial"",""time""
""fullscreenenter"",""5"",""19034""
","
","
","""event"",""trial"",""time""
""fullscreenenter"",""5"",""19034""
","
","49.5","","49","","","3000","1","365.0999999977648,814.8999999985099,1129.8999999985099,1475.199999999255,1804.699999999255","49,49,49,49,49","images/tutyellowplanet.jpg","null","images/tutalien3","null","images/tutalien3","images/t.png","NA","practice","null","","","",""
"d3-instructions","30","84376","0.0-30.0","2506","5251","14","Male","true","false","false","true","""event"",""trial"",""time""
""fullscreenenter"",""5"",""19034""
","
","
","""event"",""trial"",""time""
""fullscreenenter"",""5"",""19034""
","
","","","","","","","","","","","","","","","","","","","","","",""
"d3-instructions","31","84871","0.0-31.0","2506","5251","14","Male","true","false","false","true","""event"",""trial"",""time""
""fullscreenenter"",""5"",""19034""
","
","
","""event"",""trial"",""time""
""fullscreenenter"",""5"",""19034""
","
","","","","","","","","","","","","","","","","","","","","","",""
"d3-instructions","32","85321","0.0-32.0","2506","5251","14","Male","true","false","false","true","""event"",""trial"",""time""
""fullscreenenter"",""5"",""19034""
","
","
","""event"",""trial"",""time""
""fullscreenenter"",""5"",""19034""
","
","","","","","","","","","","","","","","","","","","","","","",""
"d3-instructions","33","85786","0.0-33.0","2506","5251","14","Male","true","false","false","true","""event"",""trial"",""time""
""fullscreenenter"",""5"",""19034""
","
","
","""event"",""trial"",""time""
""fullscreenenter"",""5"",""19034""
","
","","","","","","","","","","","","","","","","","","","","","",""
"d3-animate-choice","34","88691","0.0-34.0","2506","5251","14","Male","true","false","false","true","""event"",""trial"",""time""
""fullscreenenter"",""5"",""19034""
","
","
","""event"",""trial"",""time""
""fullscreenenter"",""5"",""19034""
","
","899.1000000014901","","49","","","3000","1","","","images/tutgreenplanet.jpg","images/tutalien1","images/tutalien2","null","images/tutalien2","images/t.png","NA","practice","null","","","",""
"d3-animate-choice","35","90997","0.0-35.0","2506","5251","14","Male","true","false","false","true","""event"",""trial"",""time""
""fullscreenenter"",""5"",""19034""
","
","
","""event"",""trial"",""time""
""fullscreenenter"",""5"",""19034""
","
","304.69999999925494","","49","","","3000","1","1699.800000000745,2060","49,49","images/tutgreenplanet.jpg","images/tutalien1","images/tutalien2","null","images/tutalien2","images/t.png","NA","practice","null","","","",""
"d3-animate-choice","36","93085","0.0-36.0","2506","5251","14","Male","true","false","false","true","""event"",""trial"",""time""
""fullscreenenter"",""5"",""19034""
","
","
","""event"",""trial"",""time""
""fullscreenenter"",""5"",""19034""
","
","83.70000000298023","","49","","","3000","1","338.9000000022352,608.6000000014901,833.5,1268.7000000029802,1943.300000000745","49,49,49,49,49","images/tutgreenplanet.jpg","images/tutalien1","images/tutalien2","null","images/tutalien2","images/t.png","NA","practice","null","","","",""
"d3-animate-choice","37","95332","0.0-37.0","2506","5251","14","Male","true","false","false","true","""event"",""trial"",""time""
""fullscreenenter"",""5"",""19034""
","
","
","""event"",""trial"",""time""
""fullscreenenter"",""5"",""19034""
","
","245.70000000298023","","49","","","3000","1","575.9000000022352,1040.5,1385.4000000022352,1790.7000000029802,2120.800000000745","49,49,49,49,49","images/tutgreenplanet.jpg","images/tutalien1","images/tutalien2","null","images/tutalien2","images/nothing.png","NA","practice","null","","","",""
"d3-animate-choice","38","97510","0.0-38.0","2506","5251","14","Male","true","false","false","true","""event"",""trial"",""time""
""fullscreenenter"",""5"",""19034""
","
","
","""event"",""trial"",""time""
""fullscreenenter"",""5"",""19034""
","
","173.5","","49","","","3000","1","429.1000000014901,653.5,668.5,984.3000000007451,1253.800000000745,1538.6000000014901,1794,2138.5","49,192,49,49,49,49,49,49","images/tutgreenplanet.jpg","images/tutalien1","images/tutalien2","null","images/tutalien2","images/nothing.png","NA","practice","null","","","",""
"d3-animate-choice","39","99761","0.0-39.0","2506","5251","14","Male","true","false","false","true","""event"",""trial"",""time""
""fullscreenenter"",""5"",""19034""
","
","
","""event"",""trial"",""time""
""fullscreenenter"",""5"",""19034""
","
","245.30000000074506","","49","","","3000","1","575.3000000007451,951.4000000022352,1250.4000000022352,1535.6000000014901,1805.5","49,49,49,49,49","images/tutgreenplanet.jpg","images/tutalien1","images/tutalien2","null","images/tutalien2","images/t.png","NA","practice","null","","","",""
"d3-animate-choice","40","101786","0.0-40.0","2506","5251","14","Male","true","false","false","true","""event"",""trial"",""time""
""fullscreenenter"",""5"",""19034""
","
","
","""event"",""trial"",""time""
""fullscreenenter"",""5"",""19034""
","
","20","","49","","","3000","1","305.3999999985099,575.5999999977648,919.8999999985099,1220.0999999977648,1490.5999999977648,1745.5999999977648,1955.199999999255","49,49,49,49,49,49,49","images/tutgreenplanet.jpg","images/tutalien1","images/tutalien2","null","images/tutalien2","images/t.png","NA","practice","null","","","",""
"d3-animate-choice","41","103929","0.0-41.0","2506","5251","14","Male","true","false","false","true","""event"",""trial"",""time""
""fullscreenenter"",""5"",""19034""
","
","
","""event"",""trial"",""time""
""fullscreenenter"",""5"",""19034""
","
","139.89999999850988","","49","","","3000","1","349.8999999985099,545,740.1999999992549,919.8999999985099,1115,1309.699999999255,1519.8999999985099,1730.1000000014901,1940","49,49,49,49,49,49,49,49,49","images/tutgreenplanet.jpg","images/tutalien1","images/tutalien2","null","images/tutalien2","images/nothing.png","NA","practice","null","","","",""
"d3-animate-choice","42","105970","0.0-42.0","2506","5251","14","Male","true","false","false","true","""event"",""trial"",""time""
""fullscreenenter"",""5"",""19034""
","
","
","""event"",""trial"",""time""
""fullscreenenter"",""5"",""19034""
","
","37.099999997764826","","49","","","3000","1","292.30000000074506,532.0999999977648,831.8000000007451,1087.199999999255,1342.199999999255,1686.8999999985099","49,49,49,49,49,49","images/tutgreenplanet.jpg","images/tutalien1","images/tutalien2","null","images/tutalien2","images/t.png","NA","practice","null","","","",""
"d3-animate-choice","43","108172","0.0-43.0","2506","5251","14","Male","true","false","false","true","""event"",""trial"",""time""
""fullscreenenter"",""5"",""19034""
","
","
","""event"",""trial"",""time""
""fullscreenenter"",""5"",""19034""
","
","200.19999999925494","","49","","","3000","1","860.8000000007451,1580.699999999255,1896","49,49,49","images/tutgreenplanet.jpg","images/tutalien1","images/tutalien2","null","images/tutalien2","images/t.png","NA","practice","null","","","",""
"d3-instructions","44","110012","0.0-44.0","2506","5251","14","Male","true","false","false","true","""event"",""trial"",""time""
""fullscreenenter"",""5"",""19034""
","
","
","""event"",""trial"",""time""
""fullscreenenter"",""5"",""19034""
","
","","","","","","","","","","","","","","","","","","","","","",""
"d3-instructions","45","110762","0.0-45.0","2506","5251","14","Male","true","false","false","true","""event"",""trial"",""time""
""fullscreenenter"",""5"",""19034""
","
","
","""event"",""trial"",""time""
""fullscreenenter"",""5"",""19034""
","
","","","","","","","","","","","","","","","","","","","","","",""
"d3-instructions","46","111722","0.0-46.0","2506","5251","14","Male","true","false","false","true","""event"",""trial"",""time""
""fullscreenenter"",""5"",""19034""
","
","
","""event"",""trial"",""time""
""fullscreenenter"",""5"",""19034""
","
","","","","","","","","","","","","","","","","","","","","","",""
"d3-instructions","47","113207","0.0-47.0","2506","5251","14","Male","true","false","false","true","""event"",""trial"",""time""
""fullscreenenter"",""5"",""19034""
","
","
","""event"",""trial"",""time""
""fullscreenenter"",""5"",""19034""
","
","","","","","","","","","","","","","","","","","","","","","",""
"d3-instructions","48","113507","0.0-48.0","2506","5251","14","Male","true","false","false","true","""event"",""trial"",""time""
""fullscreenenter"",""5"",""19034""
","
","
","""event"",""trial"",""time""
""fullscreenenter"",""5"",""19034""
","
","","","","","","","","","","","","","","","","","","","","","",""
"d3-instructions","49","113747","0.0-49.0","2506","5251","14","Male","true","false","false","true","""event"",""trial"",""time""
""fullscreenenter"",""5"",""19034""
","
","
","""event"",""trial"",""time""
""fullscreenenter"",""5"",""19034""
","
","","","","","","","","","","","","","","","","","","","","","",""
"d3-instructions","50","113971","0.0-50.0","2506","5251","14","Male","true","false","false","true","""event"",""trial"",""time""
""fullscreenenter"",""5"",""19034""
","
","
","""event"",""trial"",""time""
""fullscreenenter"",""5"",""19034""
","
","","","","","","","","","","","","","","","","","","","","","",""
"d3-instructions","51","114272","0.0-51.0","2506","5251","14","Male","true","false","false","true","""event"",""trial"",""time""
""fullscreenenter"",""5"",""19034""
","
","
","""event"",""trial"",""time""
""fullscreenenter"",""5"",""19034""
","
","","","","","","","","","","","","","","","","","","","","","",""
"d3-instructions","52","114587","0.0-52.0","2506","5251","14","Male","true","false","false","true","""event"",""trial"",""time""
""fullscreenenter"",""5"",""19034""
","
","
","""event"",""trial"",""time""
""fullscreenenter"",""5"",""19034""
","
","","","","","","","","","","","","","","","","","","","","","",""
"d3-instructions","53","114856","0.0-53.0","2506","5251","14","Male","true","false","false","true","""event"",""trial"",""time""
""fullscreenenter"",""5"",""19034""
","
","
","""event"",""trial"",""time""
""fullscreenenter"",""5"",""19034""
","
","","","","","","","","","","","","","","","","","","","","","",""
"d3-instructions","54","115127","0.0-54.0","2506","5251","14","Male","true","false","false","true","""event"",""trial"",""time""
""fullscreenenter"",""5"",""19034""
","
","
","""event"",""trial"",""time""
""fullscreenenter"",""5"",""19034""
","
","","","","","","","","","","","","","","","","","","","","","",""
"d3-instructions","55","115368","0.0-55.0","2506","5251","14","Male","true","false","false","true","""event"",""trial"",""time""
""fullscreenenter"",""5"",""19034""
","
","
","""event"",""trial"",""time""
""fullscreenenter"",""5"",""19034""
","
","","","","","","","","","","","","","","","","","","","","","",""
"d3-instructions","56","115637","0.0-56.0","2506","5251","14","Male","true","false","false","true","""event"",""trial"",""time""
""fullscreenenter"",""5"",""19034""
","
","
","""event"",""trial"",""time""
""fullscreenenter"",""5"",""19034""
","
","","","","","","","","","","","","","","","","","","","","","",""
"d3-instructions","57","115892","0.0-57.0","2506","5251","14","Male","true","false","false","true","""event"",""trial"",""time""
""fullscreenenter"",""5"",""19034""
","
","
","""event"",""trial"",""time""
""fullscreenenter"",""5"",""19034""
","
","","","","","","","","","","","","","","","","","","","","","",""
"d3-instructions","58","116132","0.0-58.0","2506","5251","14","Male","true","false","false","true","""event"",""trial"",""time""
""fullscreenenter"",""5"",""19034""
","
","
","""event"",""trial"",""time""
""fullscreenenter"",""5"",""19034""
","
","","","","","","","","","","","","","","","","","","","","","",""
"d3-instructions","59","116372","0.0-59.0","2506","5251","14","Male","true","false","false","true","""event"",""trial"",""time""
""fullscreenenter"",""5"",""19034""
","
","
","""event"",""trial"",""time""
""fullscreenenter"",""5"",""19034""
","
","","","","","","","","","","","","","","","","","","","","","",""
"d3-instructions","60","116882","0.0-60.0","2506","5251","14","Male","true","false","false","true","""event"",""trial"",""time""
""fullscreenenter"",""5"",""19034""
","
","
","""event"",""trial"",""time""
""fullscreenenter"",""5"",""19034""
","
","","","","","","","","","","","","","","","","","","","","","",""
"d3-animate-choice","61","119858","0.0-61.0-0.0","2506","5251","14","Male","true","false","false","true","""event"",""trial"",""time""
""fullscreenenter"",""5"",""19034""
","
","
","""event"",""trial"",""time""
""fullscreenenter"",""5"",""19034""
","
","973.8000000007451","","49","","","3000","1","2954.39999999851","49","images/earth.jpg","images/tutrocket1","images/tutrocket2","null","images/tutrocket2","","1","practice","null","1","","",""
"d3-animate-choice","62","122034","0.0-61.0-1.0","2506","5251","14","Male","true","false","false","true","""event"",""trial"",""time""
""fullscreenenter"",""5"",""19034""
","
","
","""event"",""trial"",""time""
""fullscreenenter"",""5"",""19034""
","
","172.89999999850988","","49","","","3000","1","458.19999999925494,1178.300000000745","49,49","images/tutyellowplanet.jpg","images/tutalien4","images/tutalien3","images/tutrocket2","images/tutalien3","images/nothing.png","2","practice","false","1","rare","0","2022-12-14 03:39:52.945"
"two-step-fixation","63","123039","0.0-61.0-2.0","2506","5251","14","Male","true","false","false","true","""event"",""trial"",""time""
""fullscreenenter"",""5"",""19034""
","
","
","""event"",""trial"",""time""
""fullscreenenter"",""5"",""19034""
","
","","images/earth.jpg","","","","","","","","","","","","","","fixation","","","","","",""
"d3-animate-choice","64","125048","0.0-61.0-0.1","2506","5251","14","Male","true","false","false","true","""event"",""trial"",""time""
""fullscreenenter"",""5"",""19034""
","
","
","""event"",""trial"",""time""
""fullscreenenter"",""5"",""19034""
","
","7.299999997019768","","48","","","3000","1","172.5,382.3999999985099,576.8999999985099,937.0999999977648,1161.5999999977648,1672.3999999985099,1927.2999999970198","48,48,48,48,48,48,48","images/earth.jpg","images/tutrocket1","images/tutrocket2","null","images/tutrocket1","","1","practice","null","2","","",""
"d3-animate-choice","65","127404","0.0-61.0-1.1","2506","5251","14","Male","true","false","false","true","""event"",""trial"",""time""
""fullscreenenter"",""5"",""19034""
","
","
","""event"",""trial"",""time""
""fullscreenenter"",""5"",""19034""
","
","353.5","","48","","","3000","1","592.8000000007451,1433.4000000022352","48,48","images/tutyellowplanet.jpg","images/tutalien4","images/tutalien3","images/tutrocket1","images/tutalien4","images/nothing.png","2","practice","true","2","common","0","2022-12-14 03:39:58.315"
"two-step-fixation","66","128406","0.0-61.0-2.1","2506","5251","14","Male","true","false","false","true","""event"",""trial"",""time""
""fullscreenenter"",""5"",""19034""
","
","
","""event"",""trial"",""time""
""fullscreenenter"",""5"",""19034""
","
","","images/earth.jpg","","","","","","","","","","","","","","fixation","","","","","",""
"d3-animate-choice","67","130494","0.0-61.0-0.2","2506","5251","14","Male","true","false","false","true","""event"",""trial"",""time""
""fullscreenenter"",""5"",""19034""
","
","
","""event"",""trial"",""time""
""fullscreenenter"",""5"",""19034""
","
","85","","48","","","3000","1","279.3999999985099,474.8999999985099,700.3000000007451,864.8000000007451,1074.8999999985099,1285.300000000745,1479.5,1673.8999999985099,1900.300000000745","48,48,48,48,48,48,48,48,48","images/earth.jpg","images/tutrocket1","images/tutrocket2","null","images/tutrocket1","","1","practice","null","2","","",""
"d3-animate-choice","68","132507","0.0-61.0-1.2","2506","5251","14","Male","true","false","false","true","""event"",""trial"",""time""
""fullscreenenter"",""5"",""19034""
","
","
","""event"",""trial"",""time""
""fullscreenenter"",""5"",""19034""
","
","6.899999998509884","","48","","","3000","1","232.29999999701977,1567.2999999970198,1837","48,48,48","images/tutyellowplanet.jpg","images/tutalien4","images/tutalien3","images/tutrocket1","images/tutalien4","images/nothing.png","2","practice","true","2","common","0","2022-12-14 03:40:03.418"
"two-step-fixation","69","133511","0.0-61.0-2.2","2506","5251","14","Male","true","false","false","true","""event"",""trial"",""time""
""fullscreenenter"",""5"",""19034""
","
","
","""event"",""trial"",""time""
""fullscreenenter"",""5"",""19034""
","
","","images/earth.jpg","","","","","","","","","","","","","","fixation","","","","","",""
"d3-animate-choice","70","135790","0.0-61.0-0.3","2506","5251","14","Male","true","false","false","true","""event"",""trial"",""time""
""fullscreenenter"",""5"",""19034""
","
","
","""event"",""trial"",""time""
""fullscreenenter"",""5"",""19034""
","
","274.80000000074506","","48","","","3000","1","1940.3999999985099,2150.39999999851","48,48","images/earth.jpg","images/tutrocket1","images/tutrocket2","null","images/tutrocket1","","1","practice","null","2","","",""
"d3-animate-choice","71","137904","0.0-61.0-1.3","2506","5251","14","Male","true","false","false","true","""event"",""trial"",""time""
""fullscreenenter"",""5"",""19034""
","
","
","""event"",""trial"",""time""
""fullscreenenter"",""5"",""19034""
","
","111","","48","","","3000","1","350.80000000074506,590.8000000007451,891.1999999992549,1236.199999999255,1656.300000000745","48,48,48,48,48","images/tutgreenplanet.jpg","images/tutalien2","images/tutalien1","images/tutrocket1","images/tutalien2","images/nothing.png","2","practice","false","2","rare","0","2022-12-14 03:40:08.815"
"two-step-fixation","72","138906","0.0-61.0-2.3","2506","5251","14","Male","true","false","false","true","""event"",""trial"",""time""
""fullscreenenter"",""5"",""19034""
","
","
","""event"",""trial"",""time""
""fullscreenenter"",""5"",""19034""
","
","","images/earth.jpg","","","","","","","","","","","","","","fixation","","","","","",""
"d3-animate-choice","73","141084","0.0-61.0-0.4","2506","5251","14","Male","true","false","false","true","""event"",""trial"",""time""
""fullscreenenter"",""5"",""19034""
","
","
","""event"",""trial"",""time""
""fullscreenenter"",""5"",""19034""
","
","175.19999999925494","","49","","","3000","1","355.69999999925494,655.3000000007451,1000.5,1345.5,2155.89999999851","49,49,49,49,49","images/earth.jpg","images/tutrocket1","images/tutrocket2","null","images/tutrocket2","","1","practice","null","1","","",""
"d3-animate-choice","74","143365","0.0-61.0-1.4","2506","5251","14","Male","true","false","false","true","""event"",""trial"",""time""
""fullscreenenter"",""5"",""19034""
","
","
","""event"",""trial"",""time""
""fullscreenenter"",""5"",""19034""
","
","277.80000000074506","","49","","","3000","1","1748.199999999255,2167.60000000149","49,49","images/tutyellowplanet.jpg","images/tutalien4","images/tutalien3","images/tutrocket2","images/tutalien3","images/nothing.png","2","practice","false","1","rare","0","2022-12-14 03:40:14.276"
"two-step-fixation","75","144366","0.0-61.0-2.4","2506","5251","14","Male","true","false","false","true","""event"",""trial"",""time""
""fullscreenenter"",""5"",""19034""
","
","
","""event"",""trial"",""time""
""fullscreenenter"",""5"",""19034""
","
","","images/earth.jpg","","","","","","","","","","","","","","fixation","","","","","",""
"d3-animate-choice","76","146424","0.0-61.0-0.5","2506","5251","14","Male","true","false","false","true","""event"",""trial"",""time""
""fullscreenenter"",""5"",""19034""
","
","
","""event"",""trial"",""time""
""fullscreenenter"",""5"",""19034""
","
","55.30000000074506","","49","","","3000","1","204.90000000223517,385,594.4000000022352,745.1000000014901,1015,1240.199999999255,1360.1000000014901,1539.699999999255,1750.1000000014901,1945","49,49,49,49,49,49,49,49,49,49","images/earth.jpg","images/tutrocket1","images/tutrocket2","null","images/tutrocket2","","1","practice","null","1","","",""
"d3-animate-choice","77","148483","0.0-61.0-1.5","2506","5251","14","Male","true","false","false","true","""event"",""trial"",""time""
""fullscreenenter"",""5"",""19034""
","
","
","""event"",""trial"",""time""
""fullscreenenter"",""5"",""19034""
","
","52.30000000074506","","49","","","3000","1","442.30000000074506","49","images/tutgreenplanet.jpg","images/tutalien2","images/tutalien1","images/tutrocket2","images/tutalien1","images/nothing.png","2","practice","true","1","common","0","2022-12-14 03:40:19.394"
"two-step-fixation","78","149487","0.0-61.0-2.5","2506","5251","14","Male","true","false","false","true","""event"",""trial"",""time""
""fullscreenenter"",""5"",""19034""
","
","
","""event"",""trial"",""time""
""fullscreenenter"",""5"",""19034""
","
","","images/earth.jpg","","","","","","","","","","","","","","fixation","","","","","",""
"d3-animate-choice","79","153490","0.0-61.0-0.6","2506","5251","14","Male","true","false","false","true","""event"",""trial"",""time""
""fullscreenenter"",""5"",""19034""
","
","
","""event"",""trial"",""time""
""fullscreenenter"",""5"",""19034""
","
","3274.39999999851","","49","","","3000","0","3484.599999997765,3694.199999999255,3949.199999999255","49,49,49","images/earth.jpg","images/tutrocket1","images/tutrocket2","null","","","1","practice","null","1","","",""
"d3-animate-choice","80","154499","0.0-61.0-1.6","2506","5251","14","Male","true","false","false","true","""event"",""trial"",""time""
""fullscreenenter"",""5"",""19034""
","
","
","""event"",""trial"",""time""
""fullscreenenter"",""5"",""19034""
","
","null","","null","","","0","0","","","images/earth.jpg","images/tutrocket1","images/tutrocket2","null","","","2","practice","null","","","0","2022-12-14 03:40:25.410"
"two-step-fixation","81","155501","0.0-61.0-2.6","2506","5251","14","Male","true","false","false","true","""event"",""trial"",""time""
""fullscreenenter"",""5"",""19034""
","
","
","""event"",""trial"",""time""
""fullscreenenter"",""5"",""19034""
","
","","images/earth.jpg","","","","","","","","","","","","","","fixation","","","","","",""
"d3-animate-choice","82","157765","0.0-61.0-0.7","2506","5251","14","Male","true","false","false","true","""event"",""trial"",""time""
""fullscreenenter"",""5"",""19034""
","
","
","""event"",""trial"",""time""
""fullscreenenter"",""5"",""19034""
","
","260.5","","49","","","3000","1","455.20000000298023,755.2000000029802,995.8000000007451,1460.6000000014901,1775.7000000029802,2225.900000002235","49,49,49,49,49,49","images/earth.jpg","images/tutrocket1","images/tutrocket2","null","images/tutrocket2","","1","practice","null","1","","",""
"d3-animate-choice","83","160000","0.0-61.0-1.7","2506","5251","14","Male","true","false","false","true","""event"",""trial"",""time""
""fullscreenenter"",""5"",""19034""
","
","
","""event"",""trial"",""time""
""fullscreenenter"",""5"",""19034""
","
","231.80000000074506","","49","","","3000","1","426.80000000074506,861.8000000007451,1161.800000000745,1387","49,49,49,49","images/tutyellowplanet.jpg","images/tutalien4","images/tutalien3","images/tutrocket2","images/tutalien3","images/nothing.png","2","practice","false","1","rare","0","2022-12-14 03:40:30.911"
"two-step-fixation","84","161004","0.0-61.0-2.7","2506","5251","14","Male","true","false","false","true","""event"",""trial"",""time""
""fullscreenenter"",""5"",""19034""
","
","
","""event"",""trial"",""time""
""fullscreenenter"",""5"",""19034""
","
","","images/earth.jpg","","","","","","","","","","","","","","fixation","","","","","",""
"d3-animate-choice","85","165009","0.0-61.0-0.8","2506","5251","14","Male","true","false","false","true","""event"",""trial"",""time""
""fullscreenenter"",""5"",""19034""
","
","
","""event"",""trial"",""time""
""fullscreenenter"",""5"",""19034""
","
","null","","null","","","3000","0","","","images/earth.jpg","images/tutrocket1","images/tutrocket2","null","","","1","practice","null","","","",""
"d3-animate-choice","86","166016","0.0-61.0-1.8","2506","5251","14","Male","true","false","false","true","""event"",""trial"",""time""
""fullscreenenter"",""5"",""19034""
","
","
","""event"",""trial"",""time""
""fullscreenenter"",""5"",""19034""
","
","null","","null","","","0","0","","","images/earth.jpg","images/tutrocket1","images/tutrocket2","null","","","2","practice","null","","","0","2022-12-14 03:40:36.927"
"two-step-fixation","87","167018","0.0-61.0-2.8","2506","5251","14","Male","true","false","false","true","""event"",""trial"",""time""
""fullscreenenter"",""5"",""19034""
","
","
","""event"",""trial"",""time""
""fullscreenenter"",""5"",""19034""
","
","","images/earth.jpg","","","","","","","","","","","","","","fixation","","","","","",""
"d3-animate-choice","88","170304","0.0-61.0-0.9","2506","5251","14","Male","true","false","false","true","""event"",""trial"",""time""
""fullscreenenter"",""5"",""19034""
","
","
","""event"",""trial"",""time""
""fullscreenenter"",""5"",""19034""
","
","1284","","49","","","3000","1","1478.7000000029802,1719.300000000745,2033.9000000022352,2348.900000002235,2649.400000002235,2874,3204.300000000745","49,49,49,49,49,49,49","images/earth.jpg","images/tutrocket1","images/tutrocket2","null","images/tutrocket2","","1","practice","null","1","","",""
"d3-animate-choice","89","172498","0.0-61.0-1.9","2506","5251","14","Male","true","false","false","true","""event"",""trial"",""time""
""fullscreenenter"",""5"",""19034""
","
","
","""event"",""trial"",""time""
""fullscreenenter"",""5"",""19034""
","
","188.30000000074506","","49","","","3000","1","428.0999999977648,952.8999999985099,1328,2123.39999999851","49,49,49,49","images/tutgreenplanet.jpg","images/tutalien2","images/tutalien1","images/tutrocket2","images/tutalien1","images/nothing.png","2","practice","true","1","common","0","2022-12-14 03:40:43.409"
"two-step-fixation","90","173502","0.0-61.0-2.9","2506","5251","14","Male","true","false","false","true","""event"",""trial"",""time""
""fullscreenenter"",""5"",""19034""
","
","
","""event"",""trial"",""time""
""fullscreenenter"",""5"",""19034""
","
","","images/earth.jpg","","","","","","","","","","","","","","fixation","","","","","",""
"d3-animate-choice","91","175662","0.0-61.0-0.10","2506","5251","14","Male","true","false","false","true","""event"",""trial"",""time""
""fullscreenenter"",""5"",""19034""
","
","
","""event"",""trial"",""time""
""fullscreenenter"",""5"",""19034""
","
","154.09999999776483","","49","","","3000","1","424.8999999985099,665.1999999992549,964.3999999985099,1204.300000000745,1444.5999999977648,1699.5999999977648,1984.5999999977648","49,49,49,49,49,49,49","images/earth.jpg","images/tutrocket1","images/tutrocket2","null","images/tutrocket2","","1","practice","null","1","","",""
"d3-animate-choice","92","177670","0.0-61.0-1.10","2506","5251","14","Male","true","false","false","true","""event"",""trial"",""time""
""fullscreenenter"",""5"",""19034""
","
","
","""event"",""trial"",""time""
""fullscreenenter"",""5"",""19034""
","
","5.899999998509884","","49","","","3000","1","260.30000000074506,545.6000000014901,935.3999999985099,1205.699999999255,1715.300000000745","49,49,49,49,49","images/tutgreenplanet.jpg","images/tutalien2","images/tutalien1","images/tutrocket2","images/tutalien1","images/t.png","2","practice","true","1","common","1","2022-12-14 03:40:48.581"
"two-step-fixation","93","178674","0.0-61.0-2.10","2506","5251","14","Male","true","false","false","true","""event"",""trial"",""time""
""fullscreenenter"",""5"",""19034""
","
","
","""event"",""trial"",""time""
""fullscreenenter"",""5"",""19034""
","
","","images/earth.jpg","","","","","","","","","","","","","","fixation","","","","","",""
"d3-animate-choice","94","180700","0.0-61.0-0.11","2506","5251","14","Male","true","false","false","true","""event"",""trial"",""time""
""fullscreenenter"",""5"",""19034""
","
","
","""event"",""trial"",""time""
""fullscreenenter"",""5"",""19034""
","
","22.800000000745058","","49","","","3000","1","1403,1853.0999999977648","49,49","images/earth.jpg","images/tutrocket1","images/tutrocket2","null","images/tutrocket2","","1","practice","null","1","","",""
"d3-animate-choice","95","182817","0.0-61.0-1.11","2506","5251","14","Male","true","false","false","true","""event"",""trial"",""time""
""fullscreenenter"",""5"",""19034""
","
","
","""event"",""trial"",""time""
""fullscreenenter"",""5"",""19034""
","
","111.60000000149012","","49","","","3000","1","1476.6000000014901","49","images/tutgreenplanet.jpg","images/tutalien2","images/tutalien1","images/tutrocket2","images/tutalien1","images/nothing.png","2","practice","true","1","common","0","2022-12-14 03:40:53.728"
"two-step-fixation","96","183819","0.0-61.0-2.11","2506","5251","14","Male","true","false","false","true","""event"",""trial"",""time""
""fullscreenenter"",""5"",""19034""
","
","
","""event"",""trial"",""time""
""fullscreenenter"",""5"",""19034""
","
","","images/earth.jpg","","","","","","","","","","","","","","fixation","","","","","",""
"d3-animate-choice","97","186099","0.0-61.0-0.12","2506","5251","14","Male","true","false","false","true","""event"",""trial"",""time""
""fullscreenenter"",""5"",""19034""
","
","
","""event"",""trial"",""time""
""fullscreenenter"",""5"",""19034""
","
","278.3999999985099","","49","","","3000","1","1208.1000000014901,2018.5","49,49","images/earth.jpg","images/tutrocket1","images/tutrocket2","null","images/tutrocket2","","1","practice","null","1","","",""
"d3-animate-choice","98","188398","0.0-61.0-1.12","2506","5251","14","Male","true","false","false","true","""event"",""trial"",""time""
""fullscreenenter"",""5"",""19034""
","
","
","""event"",""trial"",""time""
""fullscreenenter"",""5"",""19034""
","
","293.3999999985099","","49","","","3000","1","623,1448.199999999255,1868.1000000014901","49,49,49","images/tutyellowplanet.jpg","images/tutalien4","images/tutalien3","images/tutrocket2","images/tutalien3","images/nothing.png","2","practice","false","1","rare","0","2022-12-14 03:40:59.309"
"two-step-fixation","99","189402","0.0-61.0-2.12","2506","5251","14","Male","true","false","false","true","""event"",""trial"",""time""
""fullscreenenter"",""5"",""19034""
","
","
","""event"",""trial"",""time""
""fullscreenenter"",""5"",""19034""
","
","","images/earth.jpg","","","","","","","","","","","","","","fixation","","","","","",""
"d3-animate-choice","100","191724","0.0-61.0-0.13","2506","5251","14","Male","true","false","false","true","""event"",""trial"",""time""
""fullscreenenter"",""5"",""19034""
","
","
","""event"",""trial"",""time""
""fullscreenenter"",""5"",""19034""
","
","320.30000000074506","","49","","","3000","1","1220.5,1775.300000000745","49,49","images/earth.jpg","images/tutrocket1","images/tutrocket2","null","images/tutrocket2","","1","practice","null","1","","",""
"d3-animate-choice","101","193812","0.0-61.0-1.13","2506","5251","14","Male","true","false","false","true","""event"",""trial"",""time""
""fullscreenenter"",""5"",""19034""
","
","
","""event"",""trial"",""time""
""fullscreenenter"",""5"",""19034""
","
","83.29999999701977","","49","","","3000","1","638.5999999977648,1253.5999999977648,1838.5","49,49,49","images/tutgreenplanet.jpg","images/tutalien2","images/tutalien1","images/tutrocket2","images/tutalien1","images/nothing.png","2","practice","true","1","common","0","2022-12-14 03:41:04.723"
"two-step-fixation","102","194814","0.0-61.0-2.13","2506","5251","14","Male","true","false","false","true","""event"",""trial"",""time""
""fullscreenenter"",""5"",""19034""
","
","
","""event"",""trial"",""time""
""fullscreenenter"",""5"",""19034""
","
","","images/earth.jpg","","","","","","","","","","","","","","fixation","","","","","",""
"d3-animate-choice","103","197049","0.0-61.0-0.14","2506","5251","14","Male","true","false","false","true","""event"",""trial"",""time""
""fullscreenenter"",""5"",""19034""
","
","
","""event"",""trial"",""time""
""fullscreenenter"",""5"",""19034""
","
","233","","49","","","3000","1","1178,1822.8999999985099","49,49","images/earth.jpg","images/tutrocket1","images/tutrocket2","null","images/tutrocket2","","1","practice","null","1","","",""
"d3-animate-choice","104","199224","0.0-61.0-1.14","2506","5251","14","Male","true","false","false","true","""event"",""trial"",""time""
""fullscreenenter"",""5"",""19034""
","
","
","""event"",""trial"",""time""
""fullscreenenter"",""5"",""19034""
","
","173","","49","","","3000","1","653.1000000014901,1237.800000000745","49,49","images/tutgreenplanet.jpg","images/tutalien2","images/tutalien1","images/tutrocket2","images/tutalien1","images/nothing.png","2","practice","true","1","common","0","2022-12-14 03:41:10.135"
"two-step-fixation","105","200228","0.0-61.0-2.14","2506","5251","14","Male","true","false","false","true","""event"",""trial"",""time""
""fullscreenenter"",""5"",""19034""
","
","
","""event"",""trial"",""time""
""fullscreenenter"",""5"",""19034""
","
","","images/earth.jpg","","","","","","","","","","","","","","fixation","","","","","",""
"d3-animate-choice","106","202573","0.0-61.0-0.15","2506","5251","14","Male","true","false","false","true","""event"",""trial"",""time""
""fullscreenenter"",""5"",""19034""
","
","
","""event"",""trial"",""time""
""fullscreenenter"",""5"",""19034""
","
","339.69999999925494","","49","","","3000","1","639.7999999970198,2289.7999999970198","192,49","images/earth.jpg","images/tutrocket1","images/tutrocket2","null","images/tutrocket2","","1","practice","null","1","","",""
"d3-animate-choice","107","204823","0.0-61.0-1.15","2506","5251","14","Male","true","false","false","true","""event"",""trial"",""time""
""fullscreenenter"",""5"",""19034""
","
","
","""event"",""trial"",""time""
""fullscreenenter"",""5"",""19034""
","
","245.19999999925494","","49","","","3000","1","","","images/tutgreenplanet.jpg","images/tutalien2","images/tutalien1","images/tutrocket2","images/tutalien1","images/t.png","2","practice","true","1","common","1","2022-12-14 03:41:15.734"
"two-step-fixation","108","205828","0.0-61.0-2.15","2506","5251","14","Male","true","false","false","true","""event"",""trial"",""time""
""fullscreenenter"",""5"",""19034""
","
","
","""event"",""trial"",""time""
""fullscreenenter"",""5"",""19034""
","
","","images/earth.jpg","","","","","","","","","","","","","","fixation","","","","","",""
"d3-animate-choice","109","208059","0.0-61.0-0.16","2506","5251","14","Male","true","false","false","true","""event"",""trial"",""time""
""fullscreenenter"",""5"",""19034""
","
","
","""event"",""trial"",""time""
""fullscreenenter"",""5"",""19034""
","
","229","","49","","","3000","1","724.5","49","images/earth.jpg","images/tutrocket1","images/tutrocket2","null","images/tutrocket2","","1","practice","null","1","","",""
"d3-animate-choice","110","210069","0.0-61.0-1.16","2506","5251","14","Male","true","false","false","true","""event"",""trial"",""time""
""fullscreenenter"",""5"",""19034""
","
","
","""event"",""trial"",""time""
""fullscreenenter"",""5"",""19034""
","
","8.700000002980232","","48","","","3000","1","443.6000000014901","48","images/tutgreenplanet.jpg","images/tutalien2","images/tutalien1","images/tutrocket2","images/tutalien2","images/t.png","2","practice","true","2","common","1","2022-12-14 03:41:20.980"
"two-step-fixation","111","211072","0.0-61.0-2.16","2506","5251","14","Male","true","false","false","true","""event"",""trial"",""time""
""fullscreenenter"",""5"",""19034""
","
","
","""event"",""trial"",""time""
""fullscreenenter"",""5"",""19034""
","
","","images/earth.jpg","","","","","","","","","","","","","","fixation","","","","","",""
"d3-animate-choice","112","213250","0.0-61.0-0.17","2506","5251","14","Male","true","false","false","true","""event"",""trial"",""time""
""fullscreenenter"",""5"",""19034""
","
","
","""event"",""trial"",""time""
""fullscreenenter"",""5"",""19034""
","
","176","","49","","","3000","1","2065.5","48","images/earth.jpg","images/tutrocket1","images/tutrocket2","null","images/tutrocket2","","1","practice","null","1","","",""
"d3-animate-choice","113","215379","0.0-61.0-1.17","2506","5251","14","Male","true","false","false","true","""event"",""trial"",""time""
""fullscreenenter"",""5"",""19034""
","
","
","""event"",""trial"",""time""
""fullscreenenter"",""5"",""19034""
","
","128.39999999850988","","48","","","3000","1","337.69999999925494","48","images/tutyellowplanet.jpg","images/tutalien4","images/tutalien3","images/tutrocket2","images/tutalien4","images/t.png","2","practice","false","2","rare","1","2022-12-14 03:41:26.290"
"two-step-fixation","114","216383","0.0-61.0-2.17","2506","5251","14","Male","true","false","false","true","""event"",""trial"",""time""
""fullscreenenter"",""5"",""19034""
","
","
","""event"",""trial"",""time""
""fullscreenenter"",""5"",""19034""
","
","","images/earth.jpg","","","","","","","","","","","","","","fixation","","","","","",""
"d3-animate-choice","115","218637","0.0-61.0-0.18","2506","5251","14","Male","true","false","false","true","""event"",""trial"",""time""
""fullscreenenter"",""5"",""19034""
","
","
","""event"",""trial"",""time""
""fullscreenenter"",""5"",""19034""
","
","249.19999999925494","","49","","","3000","1","","","images/earth.jpg","images/tutrocket1","images/tutrocket2","null","images/tutrocket2","","1","practice","null","1","","",""
"d3-animate-choice","116","221187","0.0-61.0-1.18","2506","5251","14","Male","true","false","false","true","""event"",""trial"",""time""
""fullscreenenter"",""5"",""19034""
","
","
","""event"",""trial"",""time""
""fullscreenenter"",""5"",""19034""
","
","545.9000000022352","","48","","","3000","1","","","images/tutyellowplanet.jpg","images/tutalien4","images/tutalien3","images/tutrocket2","images/tutalien4","images/t.png","2","practice","false","2","rare","1","2022-12-14 03:41:32.098"
"two-step-fixation","117","222189","0.0-61.0-2.18","2506","5251","14","Male","true","false","false","true","""event"",""trial"",""time""
""fullscreenenter"",""5"",""19034""
","
","
","""event"",""trial"",""time""
""fullscreenenter"",""5"",""19034""
","
","","images/earth.jpg","","","","","","","","","","","","","","fixation","","","","","",""
"d3-animate-choice","118","224307","0.0-61.0-0.19","2506","5251","14","Male","true","false","false","true","""event"",""trial"",""time""
""fullscreenenter"",""5"",""19034""
","
","
","""event"",""trial"",""time""
""fullscreenenter"",""5"",""19034""
","
","114.39999999850988","","49","","","3000","1","","","images/earth.jpg","images/tutrocket1","images/tutrocket2","null","images/tutrocket2","","1","practice","null","1","","",""
"d3-animate-choice","119","226404","0.0-61.0-1.19","2506","5251","14","Male","true","false","false","true","""event"",""trial"",""time""
""fullscreenenter"",""5"",""19034""
","
","
","""event"",""trial"",""time""
""fullscreenenter"",""5"",""19034""
","
","95.30000000074506","","48","","","3000","1","","","images/tutgreenplanet.jpg","images/tutalien2","images/tutalien1","images/tutrocket2","images/tutalien2","images/nothing.png","2","practice","true","2","common","0","2022-12-14 03:41:37.315"
"two-step-fixation","120","227407","0.0-61.0-2.19","2506","5251","14","Male","true","false","false","true","""event"",""trial"",""time""
""fullscreenenter"",""5"",""19034""
","
","
","""event"",""trial"",""time""
""fullscreenenter"",""5"",""19034""
","
","","images/earth.jpg","","","","","","","","","","","","","","fixation","","","","","",""
"d3-instructions","121","229924","0.0-62.0","2506","5251","14","Male","true","false","false","true","""event"",""trial"",""time""
""fullscreenenter"",""5"",""19034""
","
","
","""event"",""trial"",""time""
""fullscreenenter"",""5"",""19034""
","
","","","","","","","","","","","","","","","","","","","","","",""
"audio-keyboard-response","122","231530","0.0-63.0","2506","5251","14","Male","true","false","false","true","""event"",""trial"",""time""
""fullscreenenter"",""5"",""19034""
","
","
","""event"",""trial"",""time""
""fullscreenenter"",""5"",""19034""
","
","1608","audio/instructions/treasure_feedback.wav","32","","","","","","","","","","","","","","","","","","",""
"d3-instructions","123","232879","0.0-64.0","2506","5251","14","Male","true","false","false","true","""event"",""trial"",""time""
""fullscreenenter"",""5"",""19034""
","
","
","""event"",""trial"",""time""
""fullscreenenter"",""5"",""19034""
","
","","","","","","","","","","","","","","","","","","","","","",""
"d3-instructions","124","233779","0.0-65.0","2506","5251","14","Male","true","false","false","true","""event"",""trial"",""time""
""fullscreenenter"",""5"",""19034""
","
","
","""event"",""trial"",""time""
""fullscreenenter"",""5"",""19034""
","
","","","","","","","","","","","","","","","","","","","","","",""
"d3-instructions","125","234289","0.0-66.0","2506","5251","14","Male","true","false","false","true","""event"",""trial"",""time""
""fullscreenenter"",""5"",""19034""
","
","
","""event"",""trial"",""time""
""fullscreenenter"",""5"",""19034""
","
","","","","","","","","","","","","","","","","","","","","","",""
"d3-instructions","126","234754","0.0-67.0","2506","5251","14","Male","true","false","false","true","""event"",""trial"",""time""
""fullscreenenter"",""5"",""19034""
","
","
","""event"",""trial"",""time""
""fullscreenenter"",""5"",""19034""
","
","","","","","","","","","","","","","","","","","","","","","",""
"d3-instructions","127","235264","0.0-68.0","2506","5251","14","Male","true","false","false","true","""event"",""trial"",""time""
""fullscreenenter"",""5"",""19034""
","
","
","""event"",""trial"",""time""
""fullscreenenter"",""5"",""19034""
","
","","","","","","","","","","","","","","","","","","","","","",""
"instructions-quiz","128","238638","0.0-69.0","2506","5251","14","Male","true","false","false","true","""event"",""trial"",""time""
""fullscreenenter"",""5"",""19034""
","
","
","""event"",""trial"",""time""
""fullscreenenter"",""5"",""19034""
","
","3373","audio/quiz/Q1_Prompt.wav","","1","","","","","","","","","","","","","","","","","",""
"audio-keyboard-response","129","239254","0.0-70.0","2506","5251","14","Male","true","false","false","true","""event"",""trial"",""time""
""fullscreenenter"",""5"",""19034""
","
","
","""event"",""trial"",""time""
""fullscreenenter"",""5"",""19034""
","
","615","audio/quiz/Q1_Correct.wav","32","","","","","","","","","","","","","","","","","","",""
"instructions-quiz","130","242853","0.0-71.0","2506","5251","14","Male","true","false","false","true","""event"",""trial"",""time""
""fullscreenenter"",""5"",""19034""
","
","
","""event"",""trial"",""time""
""fullscreenenter"",""5"",""19034""
","
","3598","audio/quiz/Q2_Prompt.wav","","0","","","","","","","","","","","","","","","","","",""
"audio-keyboard-response","131","243169","0.0-72.0","2506","5251","14","Male","true","false","false","true","""event"",""trial"",""time""
""fullscreenenter"",""5"",""19034""
","
","
","""event"",""trial"",""time""
""fullscreenenter"",""5"",""19034""
","
","313","audio/quiz/Q2_Correct.wav","32","","","","","","","","","","","","","","","","","","",""
"instructions-quiz","132","245664","0.0-73.0","2506","5251","14","Male","true","false","false","true","""event"",""trial"",""time""
""fullscreenenter"",""5"",""19034""
","
","
","""event"",""trial"",""time""
""fullscreenenter"",""5"",""19034""
","
","2493.699999999255","audio/quiz/Q3_Prompt.wav","","1","","","","","","","","","","","","","","","","","",""
"audio-keyboard-response","133","245944","0.0-74.0","2506","5251","14","Male","true","false","false","true","""event"",""trial"",""time""
""fullscreenenter"",""5"",""19034""
","
","
","""event"",""trial"",""time""
""fullscreenenter"",""5"",""19034""
","
","279","audio/quiz/Q3_Correct.wav","32","","","","","","","","","","","","","","","","","","",""
"d3-instructions","134","247910","0.0-75.0","2506","5251","14","Male","true","false","false","true","""event"",""trial"",""time""
""fullscreenenter"",""5"",""19034""
","
","
","""event"",""trial"",""time""
""fullscreenenter"",""5"",""19034""
","
","","","","","","","","","","","","","","","","","","","","","",""
"d3-animate-choice","135","251911","0.0-76.0-0.0","2506","5251","14","Male","true","false","false","true","""event"",""trial"",""time""
""fullscreenenter"",""5"",""19034""
","
","
","""event"",""trial"",""time""
""fullscreenenter"",""5"",""19034""
","
","2083.39999999851","","48","","","3000","1","","","images/earth.jpg","images/rocket2","images/rocket1","null","images/rocket2","","1","real","null","2","","",""
"d3-animate-choice","136","254488","0.0-76.0-1.0","2506","5251","14","Male","true","false","false","true","""event"",""trial"",""time""
""fullscreenenter"",""5"",""19034""
","
","
","""event"",""trial"",""time""
""fullscreenenter"",""5"",""19034""
","
","572.1999999992549","","48","","","3000","1","","","images/redplanet1.jpg","images/alien2","images/alien1","images/rocket2","images/alien2","images/nothing.png","2","real","true","2","common","0","2022-12-14 03:42:05.399"
"two-step-fixation","137","255492","0.0-76.0-2.0","2506","5251","14","Male","true","false","false","true","""event"",""trial"",""time""
""fullscreenenter"",""5"",""19034""
","
","
","""event"",""trial"",""time""
""fullscreenenter"",""5"",""19034""
","
","","images/earth.jpg","","","","","","","","","","","","","","fixation","","","","","",""
"d3-animate-choice","138","257846","0.0-76.0-0.1","2506","5251","14","Male","true","false","false","true","""event"",""trial"",""time""
""fullscreenenter"",""5"",""19034""
","
","
","""event"",""trial"",""time""
""fullscreenenter"",""5"",""19034""
","
","351.8999999985099","","49","","","3000","1","","","images/earth.jpg","images/rocket2","images/rocket1","null","images/rocket1","","1","real","null","1","","",""
"d3-animate-choice","139","260159","0.0-76.0-1.1","2506","5251","14","Male","true","false","false","true","""event"",""trial"",""time""
""fullscreenenter"",""5"",""19034""
","
","
","""event"",""trial"",""time""
""fullscreenenter"",""5"",""19034""
","
","307.3999999985099","","48","","","3000","1","2287.10000000149","49","images/purpleplanet.jpg","images/alien4","images/alien3","images/rocket1","images/alien4","images/t.png","2","real","true","2","common","1","2022-12-14 03:42:11.070"
"two-step-fixation","140","261163","0.0-76.0-2.1","2506","5251","14","Male","true","false","false","true","""event"",""trial"",""time""
""fullscreenenter"",""5"",""19034""
","
","
","""event"",""trial"",""time""
""fullscreenenter"",""5"",""19034""
","
","","images/earth.jpg","","","","","","","","","","","","","","fixation","","","","","",""
"d3-animate-choice","141","263247","0.0-76.0-0.2","2506","5251","14","Male","true","false","false","true","""event"",""trial"",""time""
""fullscreenenter"",""5"",""19034""
","
","
","""event"",""trial"",""time""
""fullscreenenter"",""5"",""19034""
","
","80","","49","","","3000","1","1880,2060.199999999255","32,48","images/earth.jpg","images/rocket2","images/rocket1","null","images/rocket1","","1","real","null","1","","",""
"d3-animate-choice","142","266144","0.0-76.0-1.2","2506","5251","14","Male","true","false","false","true","""event"",""trial"",""time""
""fullscreenenter"",""5"",""19034""
","
","
","""event"",""trial"",""time""
""fullscreenenter"",""5"",""19034""
","
","891.6999999992549","","49","","","3000","1","","","images/redplanet1.jpg","images/alien2","images/alien1","images/rocket1","images/alien1","images/nothing.png","2","real","false","1","rare","0","2022-12-14 03:42:17.055"
"two-step-fixation","143","267148","0.0-76.0-2.2","2506","5251","14","Male","true","false","false","true","""event"",""trial"",""time""
""fullscreenenter"",""5"",""19034""
","
","
","""event"",""trial"",""time""
""fullscreenenter"",""5"",""19034""
","
","","images/earth.jpg","","","","","","","","","","","","","","fixation","","","","","",""
"d3-animate-choice","144","269545","0.0-76.0-0.3","2506","5251","14","Male","true","false","false","true","""event"",""trial"",""time""
""fullscreenenter"",""5"",""19034""
","
","
","""event"",""trial"",""time""
""fullscreenenter"",""5"",""19034""
","
","395.3999999985099","","49","","","3000","1","","","images/earth.jpg","images/rocket2","images/rocket1","null","images/rocket1","","1","real","null","1","","",""
"d3-animate-choice","145","271676","0.0-76.0-1.3","2506","5251","14","Male","true","false","false","true","""event"",""trial"",""time""
""fullscreenenter"",""5"",""19034""
","
","
","""event"",""trial"",""time""
""fullscreenenter"",""5"",""19034""
","
","127.90000000223517","","48","","","3000","1","1717.7000000029802","48","images/purpleplanet.jpg","images/alien4","images/alien3","images/rocket1","images/alien4","images/t.png","2","real","true","2","common","1","2022-12-14 03:42:22.587"
"two-step-fixation","146","272680","0.0-76.0-2.3","2506","5251","14","Male","true","false","false","true","""event"",""trial"",""time""
""fullscreenenter"",""5"",""19034""
","
","
","""event"",""trial"",""time""
""fullscreenenter"",""5"",""19034""
","
","","images/earth.jpg","","","","","","","","","","","","","","fixation","","","","","",""
"d3-animate-choice","147","274706","0.0-76.0-0.4","2506","5251","14","Male","true","false","false","true","""event"",""trial"",""time""
""fullscreenenter"",""5"",""19034""
","
","
","""event"",""trial"",""time""
""fullscreenenter"",""5"",""19034""
","
","23.100000001490116","","49","","","3000","1","","","images/earth.jpg","images/rocket2","images/rocket1","null","images/rocket1","","1","real","null","1","","",""
"d3-animate-choice","148","277092","0.0-76.0-1.4","2506","5251","14","Male","true","false","false","true","""event"",""trial"",""time""
""fullscreenenter"",""5"",""19034""
","
","
","""event"",""trial"",""time""
""fullscreenenter"",""5"",""19034""
","
","382.3999999985099","","48","","","3000","1","","","images/purpleplanet.jpg","images/alien4","images/alien3","images/rocket1","images/alien4","images/nothing.png","2","real","true","2","common","0","2022-12-14 03:42:28.003"
"two-step-fixation","149","278094","0.0-76.0-2.4","2506","5251","14","Male","true","false","false","true","""event"",""trial"",""time""
""fullscreenenter"",""5"",""19034""
","
","
","""event"",""trial"",""time""
""fullscreenenter"",""5"",""19034""
","
","","images/earth.jpg","","","","","","","","","","","","","","fixation","","","","","",""
"d3-animate-choice","150","280169","0.0-76.0-0.5","2506","5251","14","Male","true","false","false","true","""event"",""trial"",""time""
""fullscreenenter"",""5"",""19034""
","
","
","""event"",""trial"",""time""
""fullscreenenter"",""5"",""19034""
","
","70","","49","","","3000","1","","","images/earth.jpg","images/rocket2","images/rocket1","null","images/rocket1","","1","real","null","1","","",""
"d3-animate-choice","151","282299","0.0-76.0-1.5","2506","5251","14","Male","true","false","false","true","""event"",""trial"",""time""
""fullscreenenter"",""5"",""19034""
","
","
","""event"",""trial"",""time""
""fullscreenenter"",""5"",""19034""
","
","125","","48","","","3000","1","","","images/purpleplanet.jpg","images/alien4","images/alien3","images/rocket1","images/alien4","images/nothing.png","2","real","true","2","common","0","2022-12-14 03:42:33.210"
"two-step-fixation","152","283304","0.0-76.0-2.5","2506","5251","14","Male","true","false","false","true","""event"",""trial"",""time""
""fullscreenenter"",""5"",""19034""
","
","
","""event"",""trial"",""time""
""fullscreenenter"",""5"",""19034""
","
","","images/earth.jpg","","","","","","","","","","","","","","fixation","","","","","",""
"d3-animate-choice","153","286091","0.0-76.0-0.6","2506","5251","14","Male","true","false","false","true","""event"",""trial"",""time""
""fullscreenenter"",""5"",""19034""
","
","
","""event"",""trial"",""time""
""fullscreenenter"",""5"",""19034""
","
","784.4000000022352","","48","","","3000","1","1054.6000000014901,2704.800000000745","49,49","images/earth.jpg","images/rocket2","images/rocket1","null","images/rocket2","","1","real","null","2","","",""
"d3-animate-choice","154","288418","0.0-76.0-1.6","2506","5251","14","Male","true","false","false","true","""event"",""trial"",""time""
""fullscreenenter"",""5"",""19034""
","
","
","""event"",""trial"",""time""
""fullscreenenter"",""5"",""19034""
","
","324","","49","","","3000","1","","","images/redplanet1.jpg","images/alien2","images/alien1","images/rocket2","images/alien1","images/t.png","2","real","true","1","common","1","2022-12-14 03:42:39.329"
"two-step-fixation","155","289422","0.0-76.0-2.6","2506","5251","14","Male","true","false","false","true","""event"",""trial"",""time""
""fullscreenenter"",""5"",""19034""
","
","
","""event"",""trial"",""time""
""fullscreenenter"",""5"",""19034""
","
","","images/earth.jpg","","","","","","","","","","","","","","fixation","","","","","",""
"d3-animate-choice","156","291733","0.0-76.0-0.7","2506","5251","14","Male","true","false","false","true","""event"",""trial"",""time""
""fullscreenenter"",""5"",""19034""
","
","
","""event"",""trial"",""time""
""fullscreenenter"",""5"",""19034""
","
","306.69999999925494","","48","","","3000","1","1971.0999999977648","49","images/earth.jpg","images/rocket2","images/rocket1","null","images/rocket2","","1","real","null","2","","",""
"d3-animate-choice","157","293833","0.0-76.0-1.7","2506","5251","14","Male","true","false","false","true","""event"",""trial"",""time""
""fullscreenenter"",""5"",""19034""
","
","
","""event"",""trial"",""time""
""fullscreenenter"",""5"",""19034""
","
","96.90000000223517","","49","","","3000","1","411,1986.5","49,49","images/redplanet1.jpg","images/alien2","images/alien1","images/rocket2","images/alien1","images/t.png","2","real","true","1","common","1","2022-12-14 03:42:44.744"
"two-step-fixation","158","294839","0.0-76.0-2.7","2506","5251","14","Male","true","false","false","true","""event"",""trial"",""time""
""fullscreenenter"",""5"",""19034""
","
","
","""event"",""trial"",""time""
""fullscreenenter"",""5"",""19034""
","
","","images/earth.jpg","","","","","","","","","","","","","","fixation","","","","","",""
"d3-animate-choice","159","296985","0.0-76.0-0.8","2506","5251","14","Male","true","false","false","true","""event"",""trial"",""time""
""fullscreenenter"",""5"",""19034""
","
","
","""event"",""trial"",""time""
""fullscreenenter"",""5"",""19034""
","
","140.5","","48","","","3000","1","","","images/earth.jpg","images/rocket2","images/rocket1","null","images/rocket2","","1","real","null","2","","",""
"d3-animate-choice","160","299201","0.0-76.0-1.8","2506","5251","14","Male","true","false","false","true","""event"",""trial"",""time""
""fullscreenenter"",""5"",""19034""
","
","
","""event"",""trial"",""time""
""fullscreenenter"",""5"",""19034""
","
","214.69999999925494","","49","","","3000","1","","","images/redplanet1.jpg","images/alien2","images/alien1","images/rocket2","images/alien1","images/t.png","2","real","true","1","common","1","2022-12-14 03:42:50.112"
"two-step-fixation","161","300203","0.0-76.0-2.8","2506","5251","14","Male","true","false","false","true","""event"",""trial"",""time""
""fullscreenenter"",""5"",""19034""
","
","
","""event"",""trial"",""time""
""fullscreenenter"",""5"",""19034""
","
","","images/earth.jpg","","","","","","","","","","","","","","fixation","","","","","",""
"d3-animate-choice","162","302217","0.0-76.0-0.9","2506","5251","14","Male","true","false","false","true","""event"",""trial"",""time""
""fullscreenenter"",""5"",""19034""
","
","
","""event"",""trial"",""time""
""fullscreenenter"",""5"",""19034""
","
","12.399999998509884","","48","","","3000","1","","","images/earth.jpg","images/rocket2","images/rocket1","null","images/rocket2","","1","real","null","2","","",""
"d3-animate-choice","163","304707","0.0-76.0-1.9","2506","5251","14","Male","true","false","false","true","""event"",""trial"",""time""
""fullscreenenter"",""5"",""19034""
","
","
","""event"",""trial"",""time""
""fullscreenenter"",""5"",""19034""
","
","487.80000000074506","","49","","","3000","1","","","images/redplanet1.jpg","images/alien2","images/alien1","images/rocket2","images/alien1","images/nothing.png","2","real","true","1","common","0","2022-12-14 03:42:55.618"
"two-step-fixation","164","305710","0.0-76.0-2.9","2506","5251","14","Male","true","false","false","true","""event"",""trial"",""time""
""fullscreenenter"",""5"",""19034""
","
","
","""event"",""trial"",""time""
""fullscreenenter"",""5"",""19034""
","
","","images/earth.jpg","","","","","","","","","","","","","","fixation","","","","","",""
"d3-animate-choice","165","307993","0.0-76.0-0.10","2506","5251","14","Male","true","false","false","true","""event"",""trial"",""time""
""fullscreenenter"",""5"",""19034""
","
","
","""event"",""trial"",""time""
""fullscreenenter"",""5"",""19034""
","
","279.69999999925494","","48","","","3000","1","","","images/earth.jpg","images/rocket2","images/rocket1","null","images/rocket2","","1","real","null","2","","",""
"d3-animate-choice","166","310077","0.0-76.0-1.10","2506","5251","14","Male","true","false","false","true","""event"",""trial"",""time""
""fullscreenenter"",""5"",""19034""
","
","
","""event"",""trial"",""time""
""fullscreenenter"",""5"",""19034""
","
","81.19999999925494","","49","","","3000","1","","","images/redplanet1.jpg","images/alien2","images/alien1","images/rocket2","images/alien1","images/nothing.png","2","real","true","1","common","0","2022-12-14 03:43:00.988"
"two-step-fixation","167","311079","0.0-76.0-2.10","2506","5251","14","Male","true","false","false","true","""event"",""trial"",""time""
""fullscreenenter"",""5"",""19034""
","
","
","""event"",""trial"",""time""
""fullscreenenter"",""5"",""19034""
","
","","images/earth.jpg","","","","","","","","","","","","","","fixation","","","","","",""
"d3-animate-choice","168","313376","0.0-76.0-0.11","2506","5251","14","Male","true","false","false","true","""event"",""trial"",""time""
""fullscreenenter"",""5"",""19034""
","
","
","""event"",""trial"",""time""
""fullscreenenter"",""5"",""19034""
","
","295.1000000014901","","48","","","3000","1","","","images/earth.jpg","images/rocket2","images/rocket1","null","images/rocket2","","1","real","null","2","","",""
"d3-animate-choice","169","315868","0.0-76.0-1.11","2506","5251","14","Male","true","false","false","true","""event"",""trial"",""time""
""fullscreenenter"",""5"",""19034""
","
","
","""event"",""trial"",""time""
""fullscreenenter"",""5"",""19034""
","
","488.5999999977648","","49","","","3000","1","","","images/purpleplanet.jpg","images/alien4","images/alien3","images/rocket2","images/alien3","images/t.png","2","real","false","1","rare","1","2022-12-14 03:43:06.780"
"two-step-fixation","170","316873","0.0-76.0-2.11","2506","5251","14","Male","true","false","false","true","""event"",""trial"",""time""
""fullscreenenter"",""5"",""19034""
","
","
","""event"",""trial"",""time""
""fullscreenenter"",""5"",""19034""
","
","","images/earth.jpg","","","","","","","","","","","","","","fixation","","","","","",""
"d3-animate-choice","171","318929","0.0-76.0-0.12","2506","5251","14","Male","true","false","false","true","""event"",""trial"",""time""
""fullscreenenter"",""5"",""19034""
","
","
","""event"",""trial"",""time""
""fullscreenenter"",""5"",""19034""
","
","51.69999999925494","","48","","","3000","1","","","images/earth.jpg","images/rocket2","images/rocket1","null","images/rocket2","","1","real","null","2","","",""
"d3-animate-choice","172","321012","0.0-76.0-1.12","2506","5251","14","Male","true","false","false","true","""event"",""trial"",""time""
""fullscreenenter"",""5"",""19034""
","
","
","""event"",""trial"",""time""
""fullscreenenter"",""5"",""19034""
","
","80.30000000074506","","49","","","3000","1","","","images/redplanet1.jpg","images/alien2","images/alien1","images/rocket2","images/alien1","images/t.png","2","real","true","1","common","1","2022-12-14 03:43:11.924"
"two-step-fixation","173","322015","0.0-76.0-2.12","2506","5251","14","Male","true","false","false","true","""event"",""trial"",""time""
""fullscreenenter"",""5"",""19034""
","
","
","""event"",""trial"",""time""
""fullscreenenter"",""5"",""19034""
","
","","images/earth.jpg","","","","","","","","","","","","","","fixation","","","","","",""
"d3-animate-choice","174","324688","0.0-76.0-0.13","2506","5251","14","Male","true","false","false","true","""event"",""trial"",""time""
""fullscreenenter"",""5"",""19034""
","
","
","""event"",""trial"",""time""
""fullscreenenter"",""5"",""19034""
","
","669.5","","48","","","3000","1","","","images/earth.jpg","images/rocket2","images/rocket1","null","images/rocket2","","1","real","null","2","","",""
"d3-animate-choice","175","326907","0.0-76.0-1.13","2506","5251","14","Male","true","false","false","true","""event"",""trial"",""time""
""fullscreenenter"",""5"",""19034""
","
","
","""event"",""trial"",""time""
""fullscreenenter"",""5"",""19034""
","
","216.80000000074506","","49","","","3000","1","","","images/redplanet1.jpg","images/alien2","images/alien1","images/rocket2","images/alien1","images/nothing.png","2","real","true","1","common","0","2022-12-14 03:43:17.818"
"two-step-fixation","176","327910","0.0-76.0-2.13","2506","5251","14","Male","true","false","false","true","""event"",""trial"",""time""
""fullscreenenter"",""5"",""19034""
","
","
","""event"",""trial"",""time""
""fullscreenenter"",""5"",""19034""
","
","","images/earth.jpg","","","","","","","","","","","","","","fixation","","","","","",""
"d3-animate-choice","177","330150","0.0-76.0-0.14","2506","5251","14","Male","true","false","false","true","""event"",""trial"",""time""
""fullscreenenter"",""5"",""19034""
","
","
","""event"",""trial"",""time""
""fullscreenenter"",""5"",""19034""
","
","235.19999999925494","","48","","","3000","1","670.3999999985099","48","images/earth.jpg","images/rocket2","images/rocket1","null","images/rocket2","","1","real","null","2","","",""
"d3-animate-choice","178","332234","0.0-76.0-1.14","2506","5251","14","Male","true","false","false","true","""event"",""trial"",""time""
""fullscreenenter"",""5"",""19034""
","
","
","""event"",""trial"",""time""
""fullscreenenter"",""5"",""19034""
","
","79.60000000149012","","49","","","3000","1","","","images/purpleplanet.jpg","images/alien4","images/alien3","images/rocket2","images/alien3","images/t.png","2","real","false","1","rare","1","2022-12-14 03:43:23.145"
"two-step-fixation","179","333236","0.0-76.0-2.14","2506","5251","14","Male","true","false","false","true","""event"",""trial"",""time""
""fullscreenenter"",""5"",""19034""
","
","
","""event"",""trial"",""time""
""fullscreenenter"",""5"",""19034""
","
","","images/earth.jpg","","","","","","","","","","","","","","fixation","","","","","",""
"d3-animate-choice","180","335561","0.0-76.0-0.15","2506","5251","14","Male","true","false","false","true","""event"",""trial"",""time""
""fullscreenenter"",""5"",""19034""
","
","
","""event"",""trial"",""time""
""fullscreenenter"",""5"",""19034""
","
","323.4000000022352","","48","","","3000","1","","","images/earth.jpg","images/rocket2","images/rocket1","null","images/rocket2","","1","real","null","2","","",""
"d3-animate-choice","181","337737","0.0-76.0-1.15","2506","5251","14","Male","true","false","false","true","""event"",""trial"",""time""
""fullscreenenter"",""5"",""19034""
","
","
","""event"",""trial"",""time""
""fullscreenenter"",""5"",""19034""
","
","174.30000000074506","","49","","","3000","1","","","images/purpleplanet.jpg","images/alien4","images/alien3","images/rocket2","images/alien3","images/nothing.png","2","real","false","1","rare","0","2022-12-14 03:43:28.648"
"two-step-fixation","182","338738","0.0-76.0-2.15","2506","5251","14","Male","true","false","false","true","""event"",""trial"",""time""
""fullscreenenter"",""5"",""19034""
","
","
","""event"",""trial"",""time""
""fullscreenenter"",""5"",""19034""
","
","","images/earth.jpg","","","","","","","","","","","","","","fixation","","","","","",""
"d3-animate-choice","183","341098","0.0-76.0-0.16","2506","5251","14","Male","true","false","false","true","""event"",""trial"",""time""
""fullscreenenter"",""5"",""19034""
","
","
","""event"",""trial"",""time""
""fullscreenenter"",""5"",""19034""
","
","357","","48","","","3000","1","","","images/earth.jpg","images/rocket2","images/rocket1","null","images/rocket2","","1","real","null","2","","",""
"d3-animate-choice","184","343212","0.0-76.0-1.16","2506","5251","14","Male","true","false","false","true","""event"",""trial"",""time""
""fullscreenenter"",""5"",""19034""
","
","
","""event"",""trial"",""time""
""fullscreenenter"",""5"",""19034""
","
","111.89999999850988","","49","","","3000","1","","","images/purpleplanet.jpg","images/alien4","images/alien3","images/rocket2","images/alien3","images/t.png","2","real","false","1","rare","1","2022-12-14 03:43:34.123"
"two-step-fixation","185","344214","0.0-76.0-2.16","2506","5251","14","Male","true","false","false","true","""event"",""trial"",""time""
""fullscreenenter"",""5"",""19034""
","
","
","""event"",""trial"",""time""
""fullscreenenter"",""5"",""19034""
","
","","images/earth.jpg","","","","","","","","","","","","","","fixation","","","","","",""
"d3-animate-choice","186","346560","0.0-76.0-0.17","2506","5251","14","Male","true","false","false","true","""event"",""trial"",""time""
""fullscreenenter"",""5"",""19034""
","
","
","""event"",""trial"",""time""
""fullscreenenter"",""5"",""19034""
","
","341.5999999977648","","48","","","3000","1","","","images/earth.jpg","images/rocket2","images/rocket1","null","images/rocket2","","1","real","null","2","","",""
"d3-animate-choice","187","348645","0.0-76.0-1.17","2506","5251","14","Male","true","false","false","true","""event"",""trial"",""time""
""fullscreenenter"",""5"",""19034""
","
","
","""event"",""trial"",""time""
""fullscreenenter"",""5"",""19034""
","
","80.39999999850988","","49","","","3000","1","529.5","49","images/purpleplanet.jpg","images/alien4","images/alien3","images/rocket2","images/alien3","images/t.png","2","real","false","1","rare","1","2022-12-14 03:43:39.556"
"two-step-fixation","188","349647","0.0-76.0-2.17","2506","5251","14","Male","true","false","false","true","""event"",""trial"",""time""
""fullscreenenter"",""5"",""19034""
","
","
","""event"",""trial"",""time""
""fullscreenenter"",""5"",""19034""
","
","","images/earth.jpg","","","","","","","","","","","","","","fixation","","","","","",""
"d3-animate-choice","189","351658","0.0-76.0-0.18","2506","5251","14","Male","true","false","false","true","""event"",""trial"",""time""
""fullscreenenter"",""5"",""19034""
","
","
","""event"",""trial"",""time""
""fullscreenenter"",""5"",""19034""
","
","8.5","","48","","","3000","1","","","images/earth.jpg","images/rocket2","images/rocket1","null","images/rocket2","","1","real","null","2","","",""
"d3-animate-choice","190","353743","0.0-76.0-1.18","2506","5251","14","Male","true","false","false","true","""event"",""trial"",""time""
""fullscreenenter"",""5"",""19034""
","
","
","""event"",""trial"",""time""
""fullscreenenter"",""5"",""19034""
","
","82.80000000074506","","49","","","3000","1","","","images/redplanet1.jpg","images/alien2","images/alien1","images/rocket2","images/alien1","images/nothing.png","2","real","true","1","common","0","2022-12-14 03:43:44.654"
"two-step-fixation","191","354746","0.0-76.0-2.18","2506","5251","14","Male","true","false","false","true","""event"",""trial"",""time""
""fullscreenenter"",""5"",""19034""
","
","
","""event"",""trial"",""time""
""fullscreenenter"",""5"",""19034""
","
","","images/earth.jpg","","","","","","","","","","","","","","fixation","","","","","",""
"d3-animate-choice","192","357267","0.0-76.0-0.19","2506","5251","14","Male","true","false","false","true","""event"",""trial"",""time""
""fullscreenenter"",""5"",""19034""
","
","
","""event"",""trial"",""time""
""fullscreenenter"",""5"",""19034""
","
","519.9000000022352","","48","","","3000","1","","","images/earth.jpg","images/rocket2","images/rocket1","null","images/rocket2","","1","real","null","2","","",""
"d3-animate-choice","193","359489","0.0-76.0-1.19","2506","5251","14","Male","true","false","false","true","""event"",""trial"",""time""
""fullscreenenter"",""5"",""19034""
","
","
","""event"",""trial"",""time""
""fullscreenenter"",""5"",""19034""
","
","218.39999999850988","","49","","","3000","1","","","images/redplanet1.jpg","images/alien2","images/alien1","images/rocket2","images/alien1","images/t.png","2","real","true","1","common","1","2022-12-14 03:43:50.400"
"two-step-fixation","194","360492","0.0-76.0-2.19","2506","5251","14","Male","true","false","false","true","""event"",""trial"",""time""
""fullscreenenter"",""5"",""19034""
","
","
","""event"",""trial"",""time""
""fullscreenenter"",""5"",""19034""
","
","","images/earth.jpg","","","","","","","","","","","","","","fixation","","","","","",""
"d3-animate-choice","195","362652","0.0-76.0-0.20","2506","5251","14","Male","true","false","false","true","""event"",""trial"",""time""
""fullscreenenter"",""5"",""19034""
","
","
","""event"",""trial"",""time""
""fullscreenenter"",""5"",""19034""
","
","157.90000000223517","","48","","","3000","1","","","images/earth.jpg","images/rocket2","images/rocket1","null","images/rocket2","","1","real","null","2","","",""
"d3-animate-choice","196","364783","0.0-76.0-1.20","2506","5251","14","Male","true","false","false","true","""event"",""trial"",""time""
""fullscreenenter"",""5"",""19034""
","
","
","""event"",""trial"",""time""
""fullscreenenter"",""5"",""19034""
","
","127.80000000074506","","49","","","3000","1","","","images/redplanet1.jpg","images/alien2","images/alien1","images/rocket2","images/alien1","images/t.png","2","real","true","1","common","1","2022-12-14 03:43:55.694"
"two-step-fixation","197","365785","0.0-76.0-2.20","2506","5251","14","Male","true","false","false","true","""event"",""trial"",""time""
""fullscreenenter"",""5"",""19034""
","
","
","""event"",""trial"",""time""
""fullscreenenter"",""5"",""19034""
","
","","images/earth.jpg","","","","","","","","","","","","","","fixation","","","","","",""
"d3-animate-choice","198","368312","0.0-76.0-0.21","2506","5251","14","Male","true","false","false","true","""event"",""trial"",""time""
""fullscreenenter"",""5"",""19034""
","
","
","""event"",""trial"",""time""
""fullscreenenter"",""5"",""19034""
","
","520.8000000007451","","48","","","3000","1","","","images/earth.jpg","images/rocket2","images/rocket1","null","images/rocket2","","1","real","null","2","","",""
"d3-animate-choice","199","370362","0.0-76.0-1.21","2506","5251","14","Male","true","false","false","true","""event"",""trial"",""time""
""fullscreenenter"",""5"",""19034""
","
","
","""event"",""trial"",""time""
""fullscreenenter"",""5"",""19034""
","
","48.19999999925494","","49","","","3000","1","","","images/redplanet1.jpg","images/alien2","images/alien1","images/rocket2","images/alien1","images/t.png","2","real","true","1","common","1","2022-12-14 03:44:01.273"
"two-step-fixation","200","371363","0.0-76.0-2.21","2506","5251","14","Male","true","false","false","true","""event"",""trial"",""time""
""fullscreenenter"",""5"",""19034""
","
","
","""event"",""trial"",""time""
""fullscreenenter"",""5"",""19034""
","
","","images/earth.jpg","","","","","","","","","","","","","","fixation","","","","","",""
"d3-animate-choice","201","373438","0.0-76.0-0.22","2506","5251","14","Male","true","false","false","true","""event"",""trial"",""time""
""fullscreenenter"",""5"",""19034""
","
","
","""event"",""trial"",""time""
""fullscreenenter"",""5"",""19034""
","
","72.10000000149012","","48","","","3000","1","","","images/earth.jpg","images/rocket2","images/rocket1","null","images/rocket2","","1","real","null","2","","",""
"d3-animate-choice","202","375590","0.0-76.0-1.22","2506","5251","14","Male","true","false","false","true","""event"",""trial"",""time""
""fullscreenenter"",""5"",""19034""
","
","
","""event"",""trial"",""time""
""fullscreenenter"",""5"",""19034""
","
","150","","49","","","3000","1","","","images/redplanet1.jpg","images/alien2","images/alien1","images/rocket2","images/alien1","images/t.png","2","real","true","1","common","1","2022-12-14 03:44:06.501"
"two-step-fixation","203","376594","0.0-76.0-2.22","2506","5251","14","Male","true","false","false","true","""event"",""trial"",""time""
""fullscreenenter"",""5"",""19034""
","
","
","""event"",""trial"",""time""
""fullscreenenter"",""5"",""19034""
","
","","images/earth.jpg","","","","","","","","","","","","","","fixation","","","","","",""
"d3-animate-choice","204","379123","0.0-76.0-0.23","2506","5251","14","Male","true","false","false","true","""event"",""trial"",""time""
""fullscreenenter"",""5"",""19034""
","
","
","""event"",""trial"",""time""
""fullscreenenter"",""5"",""19034""
","
","527.2999999970198","","48","","","3000","1","","","images/earth.jpg","images/rocket2","images/rocket1","null","images/rocket2","","1","real","null","2","","",""
"d3-animate-choice","205","381433","0.0-76.0-1.23","2506","5251","14","Male","true","false","false","true","""event"",""trial"",""time""
""fullscreenenter"",""5"",""19034""
","
","
","""event"",""trial"",""time""
""fullscreenenter"",""5"",""19034""
","
","307.6000000014901","","49","","","3000","1","","","images/redplanet1.jpg","images/alien2","images/alien1","images/rocket2","images/alien1","images/t.png","2","real","true","1","common","1","2022-12-14 03:44:12.344"
"two-step-fixation","206","382436","0.0-76.0-2.23","2506","5251","14","Male","true","false","false","true","""event"",""trial"",""time""
""fullscreenenter"",""5"",""19034""
","
","
","""event"",""trial"",""time""
""fullscreenenter"",""5"",""19034""
","
","","images/earth.jpg","","","","","","","","","","","","","","fixation","","","","","",""
"d3-animate-choice","207","384508","0.0-76.0-0.24","2506","5251","14","Male","true","false","false","true","""event"",""trial"",""time""
""fullscreenenter"",""5"",""19034""
","
","
","""event"",""trial"",""time""
""fullscreenenter"",""5"",""19034""
","
","70.10000000149012","","48","","","3000","1","","","images/earth.jpg","images/rocket2","images/rocket1","null","images/rocket2","","1","real","null","2","","",""
"d3-animate-choice","208","386627","0.0-76.0-1.24","2506","5251","14","Male","true","false","false","true","""event"",""trial"",""time""
""fullscreenenter"",""5"",""19034""
","
","
","""event"",""trial"",""time""
""fullscreenenter"",""5"",""19034""
","
","112.39999999850988","","49","","","3000","1","","","images/redplanet1.jpg","images/alien2","images/alien1","images/rocket2","images/alien1","images/t.png","2","real","true","1","common","1","2022-12-14 03:44:17.538"
"two-step-fixation","209","387629","0.0-76.0-2.24","2506","5251","14","Male","true","false","false","true","""event"",""trial"",""time""
""fullscreenenter"",""5"",""19034""
","
","
","""event"",""trial"",""time""
""fullscreenenter"",""5"",""19034""
","
","","images/earth.jpg","","","","","","","","","","","","","","fixation","","","","","",""
"d3-animate-choice","210","389805","0.0-76.0-0.25","2506","5251","14","Male","true","false","false","true","""event"",""trial"",""time""
""fullscreenenter"",""5"",""19034""
","
","
","""event"",""trial"",""time""
""fullscreenenter"",""5"",""19034""
","
","172.10000000149012","","48","","","3000","1","","","images/earth.jpg","images/rocket2","images/rocket1","null","images/rocket2","","1","real","null","2","","",""
"d3-animate-choice","211","392026","0.0-76.0-1.25","2506","5251","14","Male","true","false","false","true","""event"",""trial"",""time""
""fullscreenenter"",""5"",""19034""
","
","
","""event"",""trial"",""time""
""fullscreenenter"",""5"",""19034""
","
","216.40000000223517","","49","","","3000","1","","","images/redplanet1.jpg","images/alien2","images/alien1","images/rocket2","images/alien1","images/t.png","2","real","true","1","common","1","2022-12-14 03:44:22.937"
"two-step-fixation","212","393030","0.0-76.0-2.25","2506","5251","14","Male","true","false","false","true","""event"",""trial"",""time""
""fullscreenenter"",""5"",""19034""
","
","
","""event"",""trial"",""time""
""fullscreenenter"",""5"",""19034""
","
","","images/earth.jpg","","","","","","","","","","","","","","fixation","","","","","",""
"d3-animate-choice","213","395445","0.0-76.0-0.26","2506","5251","14","Male","true","false","false","true","""event"",""trial"",""time""
""fullscreenenter"",""5"",""19034""
","
","
","""event"",""trial"",""time""
""fullscreenenter"",""5"",""19034""
","
","411.30000000074506","","48","","","3000","1","","","images/earth.jpg","images/rocket2","images/rocket1","null","images/rocket2","","1","real","null","2","","",""
"d3-animate-choice","214","397697","0.0-76.0-1.26","2506","5251","14","Male","true","false","false","true","""event"",""trial"",""time""
""fullscreenenter"",""5"",""19034""
","
","
","""event"",""trial"",""time""
""fullscreenenter"",""5"",""19034""
","
","246.80000000074506","","49","","","3000","1","","","images/purpleplanet.jpg","images/alien4","images/alien3","images/rocket2","images/alien3","images/t.png","2","real","false","1","rare","1","2022-12-14 03:44:28.608"
"two-step-fixation","215","398700","0.0-76.0-2.26","2506","5251","14","Male","true","false","false","true","""event"",""trial"",""time""
""fullscreenenter"",""5"",""19034""
","
","
","""event"",""trial"",""time""
""fullscreenenter"",""5"",""19034""
","
","","images/earth.jpg","","","","","","","","","","","","","","fixation","","","","","",""
"d3-animate-choice","216","400965","0.0-76.0-0.27","2506","5251","14","Male","true","false","false","true","""event"",""trial"",""time""
""fullscreenenter"",""5"",""19034""
","
","
","""event"",""trial"",""time""
""fullscreenenter"",""5"",""19034""
","
","260.5","","48","","","3000","1","","","images/earth.jpg","images/rocket2","images/rocket1","null","images/rocket2","","1","real","null","2","","",""
"d3-animate-choice","217","403125","0.0-76.0-1.27","2506","5251","14","Male","true","false","false","true","""event"",""trial"",""time""
""fullscreenenter"",""5"",""19034""
","
","
","""event"",""trial"",""time""
""fullscreenenter"",""5"",""19034""
","
","156.09999999776483","","49","","","3000","1","1835.699999999255","48","images/purpleplanet.jpg","images/alien4","images/alien3","images/rocket2","images/alien3","images/t.png","2","real","false","1","rare","1","2022-12-14 03:44:34.036"
"two-step-fixation","218","404129","0.0-76.0-2.27","2506","5251","14","Male","true","false","false","true","""event"",""trial"",""time""
""fullscreenenter"",""5"",""19034""
","
","
","""event"",""trial"",""time""
""fullscreenenter"",""5"",""19034""
","
","","images/earth.jpg","","","","","","","","","","","","","","fixation","","","","","",""
"d3-animate-choice","219","406378","0.0-76.0-0.28","2506","5251","14","Male","true","false","false","true","""event"",""trial"",""time""
""fullscreenenter"",""5"",""19034""
","
","
","""event"",""trial"",""time""
""fullscreenenter"",""5"",""19034""
","
","247.39999999850988","","48","","","3000","1","","","images/earth.jpg","images/rocket2","images/rocket1","null","images/rocket2","","1","real","null","2","","",""
"d3-animate-choice","220","408599","0.0-76.0-1.28","2506","5251","14","Male","true","false","false","true","""event"",""trial"",""time""
""fullscreenenter"",""5"",""19034""
","
","
","""event"",""trial"",""time""
""fullscreenenter"",""5"",""19034""
","
","217.80000000074506","","49","","","3000","1","","","images/redplanet1.jpg","images/alien2","images/alien1","images/rocket2","images/alien1","images/t.png","2","real","true","1","common","1","2022-12-14 03:44:39.510"
"two-step-fixation","221","409603","0.0-76.0-2.28","2506","5251","14","Male","true","false","false","true","""event"",""trial"",""time""
""fullscreenenter"",""5"",""19034""
","
","
","""event"",""trial"",""time""
""fullscreenenter"",""5"",""19034""
","
","","images/earth.jpg","","","","","","","","","","","","","","fixation","","","","","",""
"d3-animate-choice","222","411721","0.0-76.0-0.29","2506","5251","14","Male","true","false","false","true","""event"",""trial"",""time""
""fullscreenenter"",""5"",""19034""
","
","
","""event"",""trial"",""time""
""fullscreenenter"",""5"",""19034""
","
","113.80000000074506","","48","","","3000","1","","","images/earth.jpg","images/rocket2","images/rocket1","null","images/rocket2","","1","real","null","2","","",""
"d3-animate-choice","223","413835","0.0-76.0-1.29","2506","5251","14","Male","true","false","false","true","""event"",""trial"",""time""
""fullscreenenter"",""5"",""19034""
","
","
","""event"",""trial"",""time""
""fullscreenenter"",""5"",""19034""
","
","110","","49","","","3000","1","","","images/purpleplanet.jpg","images/alien4","images/alien3","images/rocket2","images/alien3","images/nothing.png","2","real","false","1","rare","0","2022-12-14 03:44:44.746"
"two-step-fixation","224","414839","0.0-76.0-2.29","2506","5251","14","Male","true","false","false","true","""event"",""trial"",""time""
""fullscreenenter"",""5"",""19034""
","
","
","""event"",""trial"",""time""
""fullscreenenter"",""5"",""19034""
","
","","images/earth.jpg","","","","","","","","","","","","","","fixation","","","","","",""
"d3-animate-choice","225","417269","0.0-76.0-0.30","2506","5251","14","Male","true","false","false","true","""event"",""trial"",""time""
""fullscreenenter"",""5"",""19034""
","
","
","""event"",""trial"",""time""
""fullscreenenter"",""5"",""19034""
","
","427.30000000074506","","48","","","3000","1","","","images/earth.jpg","images/rocket2","images/rocket1","null","images/rocket2","","1","real","null","2","","",""
"d3-animate-choice","226","419534","0.0-76.0-1.30","2506","5251","14","Male","true","false","false","true","""event"",""trial"",""time""
""fullscreenenter"",""5"",""19034""
","
","
","""event"",""trial"",""time""
""fullscreenenter"",""5"",""19034""
","
","263.0999999977648","","49","","","3000","1","","","images/purpleplanet.jpg","images/alien4","images/alien3","images/rocket2","images/alien3","images/t.png","2","real","false","1","rare","1","2022-12-14 03:44:50.445"
"two-step-fixation","227","420536","0.0-76.0-2.30","2506","5251","14","Male","true","false","false","true","""event"",""trial"",""time""
""fullscreenenter"",""5"",""19034""
","
","
","""event"",""trial"",""time""
""fullscreenenter"",""5"",""19034""
","
","","images/earth.jpg","","","","","","","","","","","","","","fixation","","","","","",""
"d3-animate-choice","228","422716","0.0-76.0-0.31","2506","5251","14","Male","true","false","false","true","""event"",""trial"",""time""
""fullscreenenter"",""5"",""19034""
","
","
","""event"",""trial"",""time""
""fullscreenenter"",""5"",""19034""
","
","175.30000000074506","","48","","","3000","1","","","images/earth.jpg","images/rocket2","images/rocket1","null","images/rocket2","","1","real","null","2","","",""
"d3-animate-choice","229","425009","0.0-76.0-1.31","2506","5251","14","Male","true","false","false","true","""event"",""trial"",""time""
""fullscreenenter"",""5"",""19034""
","
","
","""event"",""trial"",""time""
""fullscreenenter"",""5"",""19034""
","
","290.5","","49","","","3000","1","","","images/redplanet1.jpg","images/alien2","images/alien1","images/rocket2","images/alien1","images/t.png","2","real","true","1","common","1","2022-12-14 03:44:55.920"
"two-step-fixation","230","426012","0.0-76.0-2.31","2506","5251","14","Male","true","false","false","true","""event"",""trial"",""time""
""fullscreenenter"",""5"",""19034""
","
","
","""event"",""trial"",""time""
""fullscreenenter"",""5"",""19034""
","
","","images/earth.jpg","","","","","","","","","","","","","","fixation","","","","","",""
"d3-animate-choice","231","428100","0.0-76.0-0.32","2506","5251","14","Male","true","false","false","true","""event"",""trial"",""time""
""fullscreenenter"",""5"",""19034""
","
","
","""event"",""trial"",""time""
""fullscreenenter"",""5"",""19034""
","
","84.39999999850988","","48","","","3000","1","","","images/earth.jpg","images/rocket2","images/rocket1","null","images/rocket2","","1","real","null","2","","",""
"d3-animate-choice","232","430292","0.0-76.0-1.32","2506","5251","14","Male","true","false","false","true","""event"",""trial"",""time""
""fullscreenenter"",""5"",""19034""
","
","
","""event"",""trial"",""time""
""fullscreenenter"",""5"",""19034""
","
","186.69999999925494","","49","","","3000","1","","","images/purpleplanet.jpg","images/alien4","images/alien3","images/rocket2","images/alien3","images/nothing.png","2","real","false","1","rare","0","2022-12-14 03:45:01.203"
"two-step-fixation","233","431298","0.0-76.0-2.32","2506","5251","14","Male","true","false","false","true","""event"",""trial"",""time""
""fullscreenenter"",""5"",""19034""
","
","
","""event"",""trial"",""time""
""fullscreenenter"",""5"",""19034""
","
","","images/earth.jpg","","","","","","","","","","","","","","fixation","","","","","",""
"d3-animate-choice","234","433500","0.0-76.0-0.33","2506","5251","14","Male","true","false","false","true","""event"",""trial"",""time""
""fullscreenenter"",""5"",""19034""
","
","
","""event"",""trial"",""time""
""fullscreenenter"",""5"",""19034""
","
","199.10000000149012","","48","","","3000","1","","","images/earth.jpg","images/rocket2","images/rocket1","null","images/rocket2","","1","real","null","2","","",""
"d3-animate-choice","235","435735","0.0-76.0-1.33","2506","5251","14","Male","true","false","false","true","""event"",""trial"",""time""
""fullscreenenter"",""5"",""19034""
","
","
","""event"",""trial"",""time""
""fullscreenenter"",""5"",""19034""
","
","231.30000000074506","","49","","","3000","1","","","images/redplanet1.jpg","images/alien2","images/alien1","images/rocket2","images/alien1","images/t.png","2","real","true","1","common","1","2022-12-14 03:45:06.646"
"two-step-fixation","236","436737","0.0-76.0-2.33","2506","5251","14","Male","true","false","false","true","""event"",""trial"",""time""
