"trial_type","trial_index","time_elapsed","internal_node_id","participant_id","subject_id","age","gender","rocket_sides","red_planet_first_rocket","red_display_order","purple_display_order","interactions","blur_events","focus_events","fullscreenenter_events","fullscreenexit_events","rt","stimulus","key_press","button_pressed","success","duration","valid_pressed","rts","keys","planet_text","right_text","left_text","center_text","chosen_text","reward_text","trial_stage","practice_trial","transition_type","choice","transition","reward","timestamp"
"pavlovia","0","3","0.0-0.0","1980","2421","14","Male","true","false","true","true","
","
","
","
","
","","","","","","","","","","","","","","","","","","","","","",""
"html-keyboard-response","1","1964","0.0-1.0","1980","2421","14","Male","true","false","true","true","
","
","
","
","
","1960.5","Welcome! Press the space bar to begin.","32","","","","","","","","","","","","","","","","","","",""
"audio-keyboard-response","2","2507","0.0-2.0","1980","2421","14","Male","true","false","true","true","
","
","
","
","
","540","audio/beep_loop.wav","32","","","","","","","","","","","","","","","","","","",""
"audio-button-response","3","4394","0.0-3.0","1980","2421","14","Male","true","false","true","true","
","
","
","
","
","NaN","audio/fish.mp3","","1","","","","","","","","","","","","","","","","","",""
"audio-button-response","4","6559","0.0-4.0","1980","2421","14","Male","true","false","true","true","""event"",""trial"",""time""
""fullscreenenter"",""5"",""10573""
","
","
","""event"",""trial"",""time""
""fullscreenenter"",""5"",""10573""
","
","NaN","audio/tiger.mp3","","4","","","","","","","","","","","","","","","","","",""
"fullscreen","5","11572","0.0-5.0","1980","2421","14","Male","true","false","true","true","""event"",""trial"",""time""
""fullscreenenter"",""5"",""10573""
","
","
","""event"",""trial"",""time""
""fullscreenenter"",""5"",""10573""
","
","","","","","true","","","","","","","","","","","","","","","","",""
"d3-instructions","6","13056","0.0-6.0","1980","2421","14","Male","true","false","true","true","""event"",""trial"",""time""
""fullscreenenter"",""5"",""10573""
","
","
","""event"",""trial"",""time""
""fullscreenenter"",""5"",""10573""
","
","","","","","","","","","","","","","","","","","","","","","",""
"d3-instructions","7","20558","0.0-7.0","1980","2421","14","Male","true","false","true","true","""event"",""trial"",""time""
""fullscreenenter"",""5"",""10573""
","
","
","""event"",""trial"",""time""
""fullscreenenter"",""5"",""10573""
","
","","","","","","","","","","","","","","","","","","","","","",""
"d3-instructions","8","26188","0.0-8.0","1980","2421","14","Male","true","false","true","true","""event"",""trial"",""time""
""fullscreenenter"",""5"",""10573""
","
","
","""event"",""trial"",""time""
""fullscreenenter"",""5"",""10573""
","
","","","","","","","","","","","","","","","","","","","","","",""
"d3-instructions","9","31309","0.0-9.0","1980","2421","14","Male","true","false","true","true","""event"",""trial"",""time""
""fullscreenenter"",""5"",""10573""
","
","
","""event"",""trial"",""time""
""fullscreenenter"",""5"",""10573""
","
","","","","","","","","","","","","","","","","","","","","","",""
"d3-instructions","10","37798","0.0-10.0","1980","2421","14","Male","true","false","true","true","""event"",""trial"",""time""
""fullscreenenter"",""5"",""10573""
","
","
","""event"",""trial"",""time""
""fullscreenenter"",""5"",""10573""
","
","","","","","","","","","","","","","","","","","","","","","",""
"d3-animate-choice","11","40520","0.0-11.0","1980","2421","14","Male","true","false","true","true","""event"",""trial"",""time""
""fullscreenenter"",""5"",""10573""
","
","
","""event"",""trial"",""time""
""fullscreenenter"",""5"",""10573""
","
","715.2999999999302","","48","","","3000","1","","","images/tutgreenplanet.jpg","images/tutalien1","images/tutalien2","null","images/tutalien1","","NA","practice","null","","","",""
"d3-animate-choice","12","43940","0.0-12.0","1980","2421","14","Male","true","false","true","true","""event"",""trial"",""time""
""fullscreenenter"",""5"",""10573""
","
","
","""event"",""trial"",""time""
""fullscreenenter"",""5"",""10573""
","
","1417.4000000000233","","49","","","3000","1","","","images/tutgreenplanet.jpg","images/tutalien1","images/tutalien2","null","images/tutalien2","","NA","practice","null","","","",""
"d3-animate-choice","13","47422","0.0-13.0","1980","2421","14","Male","true","false","true","true","""event"",""trial"",""time""
""fullscreenenter"",""5"",""10573""
","
","
","""event"",""trial"",""time""
""fullscreenenter"",""5"",""10573""
","
","1479.2999999999302","","48","","","3000","1","","","images/tutgreenplanet.jpg","images/tutalien1","images/tutalien2","null","images/tutalien1","","NA","practice","null","","","",""
"d3-animate-choice","14","50065","0.0-14.0","1980","2421","14","Male","true","false","true","true","""event"",""trial"",""time""
""fullscreenenter"",""5"",""10573""
","
","
","""event"",""trial"",""time""
""fullscreenenter"",""5"",""10573""
","
","639.4000000000233","","48","","","3000","1","","","images/tutgreenplanet.jpg","images/tutalien1","images/tutalien2","null","images/tutalien1","","NA","practice","null","","","",""
"d3-instructions","15","55806","0.0-15.0","1980","2421","14","Male","true","false","true","true","""event"",""trial"",""time""
""fullscreenenter"",""5"",""10573""
","
","
","""event"",""trial"",""time""
""fullscreenenter"",""5"",""10573""
","
","","","","","","","","","","","","","","","","","","","","","",""
"d3-instructions","16","59693","0.0-16.0","1980","2421","14","Male","true","false","true","true","""event"",""trial"",""time""
""fullscreenenter"",""5"",""10573""
","
","
","""event"",""trial"",""time""
""fullscreenenter"",""5"",""10573""
","
","","","","","","","","","","","","","","","","","","","","","",""
"d3-instructions","17","66694","0.0-17.0","1980","2421","14","Male","true","false","true","true","""event"",""trial"",""time""
""fullscreenenter"",""5"",""10573""
","
","
","""event"",""trial"",""time""
""fullscreenenter"",""5"",""10573""
","
","","","","","","","","","","","","","","","","","","","","","",""
"d3-instructions","18","72068","0.0-18.0","1980","2421","14","Male","true","false","true","true","""event"",""trial"",""time""
""fullscreenenter"",""5"",""10573""
","
","
","""event"",""trial"",""time""
""fullscreenenter"",""5"",""10573""
","
","","","","","","","","","","","","","","","","","","","","","",""
"d3-instructions","19","85117","0.0-19.0","1980","2421","14","Male","true","false","true","true","""event"",""trial"",""time""
""fullscreenenter"",""5"",""10573""
","
","
","""event"",""trial"",""time""
""fullscreenenter"",""5"",""10573""
","
","","","","","","","","","","","","","","","","","","","","","",""
"d3-animate-choice","20","87867","0.0-20.0","1980","2421","14","Male","true","false","true","true","""event"",""trial"",""time""
""fullscreenenter"",""5"",""10573""
","
","
","""event"",""trial"",""time""
""fullscreenenter"",""5"",""10573""
","
","743.3000000000466","","49","","","3000","1","","","images/tutyellowplanet.jpg","null","images/tutalien3","null","images/tutalien3","images/t.png","NA","practice","null","","","",""
"d3-animate-choice","21","90241","0.0-21.0","1980","2421","14","Male","true","false","true","true","""event"",""trial"",""time""
""fullscreenenter"",""5"",""10573""
","
","
","""event"",""trial"",""time""
""fullscreenenter"",""5"",""10573""
","
","370.39999999990687","","49","","","3000","1","","","images/tutyellowplanet.jpg","null","images/tutalien3","null","images/tutalien3","images/t.png","NA","practice","null","","","",""
"d3-animate-choice","22","92662","0.0-22.0","1980","2421","14","Male","true","false","true","true","""event"",""trial"",""time""
""fullscreenenter"",""5"",""10573""
","
","
","""event"",""trial"",""time""
""fullscreenenter"",""5"",""10573""
","
","415.0999999999767","","49","","","3000","1","","","images/tutyellowplanet.jpg","null","images/tutalien3","null","images/tutalien3","images/nothing.png","NA","practice","null","","","",""
"d3-animate-choice","23","95129","0.0-23.0","1980","2421","14","Male","true","false","true","true","""event"",""trial"",""time""
""fullscreenenter"",""5"",""10573""
","
","
","""event"",""trial"",""time""
""fullscreenenter"",""5"",""10573""
","
","463.19999999995343","","49","","","3000","1","","","images/tutyellowplanet.jpg","null","images/tutalien3","null","images/tutalien3","images/t.png","NA","practice","null","","","",""
"d3-animate-choice","24","97567","0.0-24.0","1980","2421","14","Male","true","false","true","true","""event"",""trial"",""time""
""fullscreenenter"",""5"",""10573""
","
","
","""event"",""trial"",""time""
""fullscreenenter"",""5"",""10573""
","
","436.29999999993015","","49","","","3000","1","","","images/tutyellowplanet.jpg","null","images/tutalien3","null","images/tutalien3","images/nothing.png","NA","practice","null","","","",""
"d3-animate-choice","25","100063","0.0-25.0","1980","2421","14","Male","true","false","true","true","""event"",""trial"",""time""
""fullscreenenter"",""5"",""10573""
","
","
","""event"",""trial"",""time""
""fullscreenenter"",""5"",""10573""
","
","490.4000000000233","","49","","","3000","1","","","images/tutyellowplanet.jpg","null","images/tutalien3","null","images/tutalien3","images/t.png","NA","practice","null","","","",""
"d3-animate-choice","26","102563","0.0-26.0","1980","2421","14","Male","true","false","true","true","""event"",""trial"",""time""
""fullscreenenter"",""5"",""10573""
","
","
","""event"",""trial"",""time""
""fullscreenenter"",""5"",""10573""
","
","497.69999999995343","","49","","","3000","1","","","images/tutyellowplanet.jpg","null","images/tutalien3","null","images/tutalien3","images/t.png","NA","practice","null","","","",""
"d3-animate-choice","27","105206","0.0-27.0","1980","2421","14","Male","true","false","true","true","""event"",""trial"",""time""
""fullscreenenter"",""5"",""10573""
","
","
","""event"",""trial"",""time""
""fullscreenenter"",""5"",""10573""
","
","638","","49","","","3000","1","","","images/tutyellowplanet.jpg","null","images/tutalien3","null","images/tutalien3","images/nothing.png","NA","practice","null","","","",""
"d3-animate-choice","28","107876","0.0-28.0","1980","2421","14","Male","true","false","true","true","""event"",""trial"",""time""
""fullscreenenter"",""5"",""10573""
","
","
","""event"",""trial"",""time""
""fullscreenenter"",""5"",""10573""
","
","668.3000000000466","","49","","","3000","1","","","images/tutyellowplanet.jpg","null","images/tutalien3","null","images/tutalien3","images/nothing.png","NA","practice","null","","","",""
"d3-animate-choice","29","110535","0.0-29.0","1980","2421","14","Male","true","false","true","true","""event"",""trial"",""time""
""fullscreenenter"",""5"",""10573""
","
","
","""event"",""trial"",""time""
""fullscreenenter"",""5"",""10573""
","
","653.8000000000466","","49","","","3000","1","","","images/tutyellowplanet.jpg","null","images/tutalien3","null","images/tutalien3","images/nothing.png","NA","practice","null","","","",""
"d3-instructions","30","113950","0.0-30.0","1980","2421","14","Male","true","false","true","true","""event"",""trial"",""time""
""fullscreenenter"",""5"",""10573""
","
","
","""event"",""trial"",""time""
""fullscreenenter"",""5"",""10573""
","
","","","","","","","","","","","","","","","","","","","","","",""
"d3-instructions","31","119423","0.0-31.0","1980","2421","14","Male","true","false","true","true","""event"",""trial"",""time""
""fullscreenenter"",""5"",""10573""
","
","
","""event"",""trial"",""time""
""fullscreenenter"",""5"",""10573""
","
","","","","","","","","","","","","","","","","","","","","","",""
"d3-instructions","32","125710","0.0-32.0","1980","2421","14","Male","true","false","true","true","""event"",""trial"",""time""
""fullscreenenter"",""5"",""10573""
","
","
","""event"",""trial"",""time""
""fullscreenenter"",""5"",""10573""
","
","","","","","","","","","","","","","","","","","","","","","",""
"d3-instructions","33","129579","0.0-33.0","1980","2421","14","Male","true","false","true","true","""event"",""trial"",""time""
""fullscreenenter"",""5"",""10573""
","
","
","""event"",""trial"",""time""
""fullscreenenter"",""5"",""10573""
","
","","","","","","","","","","","","","","","","","","","","","",""
"d3-animate-choice","34","133340","0.0-34.0","1980","2421","14","Male","true","false","true","true","""event"",""trial"",""time""
""fullscreenenter"",""5"",""10573""
","
","
","""event"",""trial"",""time""
""fullscreenenter"",""5"",""10573""
","
","819.8000000000466","","50","","","3000","1","1758.3000000000466","48","images/tutgreenplanet.jpg","images/tutalien1","images/tutalien2","null","images/tutalien1","images/nothing.png","NA","practice","null","","","",""
"d3-animate-choice","35","135775","0.0-35.0","1980","2421","14","Male","true","false","true","true","""event"",""trial"",""time""
""fullscreenenter"",""5"",""10573""
","
","
","""event"",""trial"",""time""
""fullscreenenter"",""5"",""10573""
","
","431.19999999995343","","48","","","3000","1","","","images/tutgreenplanet.jpg","images/tutalien1","images/tutalien2","null","images/tutalien1","images/nothing.png","NA","practice","null","","","",""
"d3-animate-choice","36","138191","0.0-36.0","1980","2421","14","Male","true","false","true","true","""event"",""trial"",""time""
""fullscreenenter"",""5"",""10573""
","
","
","""event"",""trial"",""time""
""fullscreenenter"",""5"",""10573""
","
","411.29999999981374","","49","","","3000","1","","","images/tutgreenplanet.jpg","images/tutalien1","images/tutalien2","null","images/tutalien2","images/t.png","NA","practice","null","","","",""
"d3-animate-choice","37","140636","0.0-37.0","1980","2421","14","Male","true","false","true","true","""event"",""trial"",""time""
""fullscreenenter"",""5"",""10573""
","
","
","""event"",""trial"",""time""
""fullscreenenter"",""5"",""10573""
","
","443.5999999998603","","49","","","3000","1","","","images/tutgreenplanet.jpg","images/tutalien1","images/tutalien2","null","images/tutalien2","images/t.png","NA","practice","null","","","",""
"d3-animate-choice","38","143113","0.0-38.0","1980","2421","14","Male","true","false","true","true","""event"",""trial"",""time""
""fullscreenenter"",""5"",""10573""
","
","
","""event"",""trial"",""time""
""fullscreenenter"",""5"",""10573""
","
","469.5","","49","","","3000","1","","","images/tutgreenplanet.jpg","images/tutalien1","images/tutalien2","null","images/tutalien2","images/t.png","NA","practice","null","","","",""
"d3-animate-choice","39","145551","0.0-39.0","1980","2421","14","Male","true","false","true","true","""event"",""trial"",""time""
""fullscreenenter"",""5"",""10573""
","
","
","""event"",""trial"",""time""
""fullscreenenter"",""5"",""10573""
","
","432.5","","49","","","3000","1","","","images/tutgreenplanet.jpg","images/tutalien1","images/tutalien2","null","images/tutalien2","images/t.png","NA","practice","null","","","",""
"d3-animate-choice","40","147908","0.0-40.0","1980","2421","14","Male","true","false","true","true","""event"",""trial"",""time""
""fullscreenenter"",""5"",""10573""
","
","
","""event"",""trial"",""time""
""fullscreenenter"",""5"",""10573""
","
","351","","49","","","3000","1","","","images/tutgreenplanet.jpg","images/tutalien1","images/tutalien2","null","images/tutalien2","images/t.png","NA","practice","null","","","",""
"d3-animate-choice","41","150276","0.0-41.0","1980","2421","14","Male","true","false","true","true","""event"",""trial"",""time""
""fullscreenenter"",""5"",""10573""
","
","
","""event"",""trial"",""time""
""fullscreenenter"",""5"",""10573""
","
","364.5999999998603","","49","","","3000","1","","","images/tutgreenplanet.jpg","images/tutalien1","images/tutalien2","null","images/tutalien2","images/t.png","NA","practice","null","","","",""
"d3-animate-choice","42","152654","0.0-42.0","1980","2421","14","Male","true","false","true","true","""event"",""trial"",""time""
""fullscreenenter"",""5"",""10573""
","
","
","""event"",""trial"",""time""
""fullscreenenter"",""5"",""10573""
","
","375.10000000009313","","49","","","3000","1","","","images/tutgreenplanet.jpg","images/tutalien1","images/tutalien2","null","images/tutalien2","images/t.png","NA","practice","null","","","",""
"d3-animate-choice","43","154993","0.0-43.0","1980","2421","14","Male","true","false","true","true","""event"",""trial"",""time""
""fullscreenenter"",""5"",""10573""
","
","
","""event"",""trial"",""time""
""fullscreenenter"",""5"",""10573""
","
","334.29999999981374","","49","","","3000","1","","","images/tutgreenplanet.jpg","images/tutalien1","images/tutalien2","null","images/tutalien2","images/t.png","NA","practice","null","","","",""
"d3-instructions","44","161365","0.0-44.0","1980","2421","14","Male","true","false","true","true","""event"",""trial"",""time""
""fullscreenenter"",""5"",""10573""
","
","
","""event"",""trial"",""time""
""fullscreenenter"",""5"",""10573""
","
","","","","","","","","","","","","","","","","","","","","","",""
"d3-instructions","45","165741","0.0-45.0","1980","2421","14","Male","true","false","true","true","""event"",""trial"",""time""
""fullscreenenter"",""5"",""10573""
","
","
","""event"",""trial"",""time""
""fullscreenenter"",""5"",""10573""
","
","","","","","","","","","","","","","","","","","","","","","",""
"d3-instructions","46","169605","0.0-46.0","1980","2421","14","Male","true","false","true","true","""event"",""trial"",""time""
""fullscreenenter"",""5"",""10573""
","
","
","""event"",""trial"",""time""
""fullscreenenter"",""5"",""10573""
","
","","","","","","","","","","","","","","","","","","","","","",""
"d3-instructions","47","177389","0.0-47.0","1980","2421","14","Male","true","false","true","true","""event"",""trial"",""time""
""fullscreenenter"",""5"",""10573""
","
","
","""event"",""trial"",""time""
""fullscreenenter"",""5"",""10573""
","
","","","","","","","","","","","","","","","","","","","","","",""
"d3-instructions","48","182733","0.0-48.0","1980","2421","14","Male","true","false","true","true","""event"",""trial"",""time""
""fullscreenenter"",""5"",""10573""
","
","
","""event"",""trial"",""time""
""fullscreenenter"",""5"",""10573""
","
","","","","","","","","","","","","","","","","","","","","","",""
"d3-instructions","49","188447","0.0-49.0","1980","2421","14","Male","true","false","true","true","""event"",""trial"",""time""
""fullscreenenter"",""5"",""10573""
","
","
","""event"",""trial"",""time""
""fullscreenenter"",""5"",""10573""
","
","","","","","","","","","","","","","","","","","","","","","",""
"d3-instructions","50","217656","0.0-50.0","1980","2421","14","Male","true","false","true","true","""event"",""trial"",""time""
""fullscreenenter"",""5"",""10573""
","
","
","""event"",""trial"",""time""
""fullscreenenter"",""5"",""10573""
","
","","","","","","","","","","","","","","","","","","","","","",""
"d3-instructions","51","220366","0.0-51.0","1980","2421","14","Male","true","false","true","true","""event"",""trial"",""time""
""fullscreenenter"",""5"",""10573""
","
","
","""event"",""trial"",""time""
""fullscreenenter"",""5"",""10573""
","
","","","","","","","","","","","","","","","","","","","","","",""
"d3-instructions","52","222884","0.0-52.0","1980","2421","14","Male","true","false","true","true","""event"",""trial"",""time""
""fullscreenenter"",""5"",""10573""
","
","
","""event"",""trial"",""time""
""fullscreenenter"",""5"",""10573""
","
","","","","","","","","","","","","","","","","","","","","","",""
"d3-instructions","53","236881","0.0-53.0","1980","2421","14","Male","true","false","true","true","""event"",""trial"",""time""
""fullscreenenter"",""5"",""10573""
","
","
","""event"",""trial"",""time""
""fullscreenenter"",""5"",""10573""
","
","","","","","","","","","","","","","","","","","","","","","",""
"d3-instructions","54","247000","0.0-54.0","1980","2421","14","Male","true","false","true","true","""event"",""trial"",""time""
""fullscreenenter"",""5"",""10573""
","
","
","""event"",""trial"",""time""
""fullscreenenter"",""5"",""10573""
","
","","","","","","","","","","","","","","","","","","","","","",""
"d3-instructions","55","252751","0.0-55.0","1980","2421","14","Male","true","false","true","true","""event"",""trial"",""time""
""fullscreenenter"",""5"",""10573""
","
","
","""event"",""trial"",""time""
""fullscreenenter"",""5"",""10573""
","
","","","","","","","","","","","","","","","","","","","","","",""
"d3-instructions","56","257295","0.0-56.0","1980","2421","14","Male","true","false","true","true","""event"",""trial"",""time""
""fullscreenenter"",""5"",""10573""
","
","
","""event"",""trial"",""time""
""fullscreenenter"",""5"",""10573""
","
","","","","","","","","","","","","","","","","","","","","","",""
"d3-instructions","57","265689","0.0-57.0","1980","2421","14","Male","true","false","true","true","""event"",""trial"",""time""
""fullscreenenter"",""5"",""10573""
","
","
","""event"",""trial"",""time""
""fullscreenenter"",""5"",""10573""
","
","","","","","","","","","","","","","","","","","","","","","",""
"d3-instructions","58","278574","0.0-58.0","1980","2421","14","Male","true","false","true","true","""event"",""trial"",""time""
""fullscreenenter"",""5"",""10573""
","
","
","""event"",""trial"",""time""
""fullscreenenter"",""5"",""10573""
","
","","","","","","","","","","","","","","","","","","","","","",""
"d3-instructions","59","282431","0.0-59.0","1980","2421","14","Male","true","false","true","true","""event"",""trial"",""time""
""fullscreenenter"",""5"",""10573""
","
","
","""event"",""trial"",""time""
""fullscreenenter"",""5"",""10573""
","
","","","","","","","","","","","","","","","","","","","","","",""
"d3-instructions","60","286043","0.0-60.0","1980","2421","14","Male","true","false","true","true","""event"",""trial"",""time""
""fullscreenenter"",""5"",""10573""
","
","
","""event"",""trial"",""time""
""fullscreenenter"",""5"",""10573""
","
","","","","","","","","","","","","","","","","","","","","","",""
"d3-animate-choice","61","288834","0.0-61.0-0.0","1980","2421","14","Male","true","false","true","true","""event"",""trial"",""time""
""fullscreenenter"",""5"",""10573""
","
","
","""event"",""trial"",""time""
""fullscreenenter"",""5"",""10573""
","
","786.1999999999534","","49","","","3000","1","","","images/earth.jpg","images/tutrocket1","images/tutrocket2","null","images/tutrocket2","","1","practice","null","1","","",""
"d3-animate-choice","62","292336","0.0-61.0-1.0","1980","2421","14","Male","true","false","true","true","""event"",""trial"",""time""
""fullscreenenter"",""5"",""10573""
","
","
","""event"",""trial"",""time""
""fullscreenenter"",""5"",""10573""
","
","1498.1999999999534","","49","","","3000","1","","","images/tutgreenplanet.jpg","images/tutalien2","images/tutalien1","images/tutrocket2","images/tutalien1","images/t.png","2","practice","true","1","common","1","2022-07-29 03:32:51.443"
"two-step-fixation","63","293347","0.0-61.0-2.0","1980","2421","14","Male","true","false","true","true","""event"",""trial"",""time""
""fullscreenenter"",""5"",""10573""
","
","
","""event"",""trial"",""time""
""fullscreenenter"",""5"",""10573""
","
","","images/earth.jpg","","","","","","","","","","","","","","fixation","","","","","",""
"d3-animate-choice","64","297350","0.0-61.0-0.1","1980","2421","14","Male","true","false","true","true","""event"",""trial"",""time""
""fullscreenenter"",""5"",""10573""
","
","
","""event"",""trial"",""time""
""fullscreenenter"",""5"",""10573""
","
","637.5","","189","","","3000","1","2045.1000000000931,2828.5","189,48","images/earth.jpg","images/tutrocket1","images/tutrocket2","null","images/tutrocket1","","1","practice","null","","","",""
"d3-animate-choice","65","300654","0.0-61.0-1.1","1980","2421","14","Male","true","false","true","true","""event"",""trial"",""time""
""fullscreenenter"",""5"",""10573""
","
","
","""event"",""trial"",""time""
""fullscreenenter"",""5"",""10573""
","
","1300.8000000000466","","48","","","3000","1","","","images/tutyellowplanet.jpg","images/tutalien4","images/tutalien3","images/tutrocket1","images/tutalien4","images/nothing.png","2","practice","true","2","common","0","2022-07-29 03:32:59.761"
"two-step-fixation","66","301659","0.0-61.0-2.1","1980","2421","14","Male","true","false","true","true","""event"",""trial"",""time""
""fullscreenenter"",""5"",""10573""
","
","
","""event"",""trial"",""time""
""fullscreenenter"",""5"",""10573""
","
","","images/earth.jpg","","","","","","","","","","","","","","fixation","","","","","",""
"d3-animate-choice","67","304089","0.0-61.0-0.2","1980","2421","14","Male","true","false","true","true","""event"",""trial"",""time""
""fullscreenenter"",""5"",""10573""
","
","
","""event"",""trial"",""time""
""fullscreenenter"",""5"",""10573""
","
","426.70000000018626","","49","","","3000","1","","","images/earth.jpg","images/tutrocket1","images/tutrocket2","null","images/tutrocket2","","1","practice","null","1","","",""
"d3-animate-choice","68","306924","0.0-61.0-1.2","1980","2421","14","Male","true","false","true","true","""event"",""trial"",""time""
""fullscreenenter"",""5"",""10573""
","
","
","""event"",""trial"",""time""
""fullscreenenter"",""5"",""10573""
","
","828.3999999999069","","49","","","3000","1","","","images/tutgreenplanet.jpg","images/tutalien2","images/tutalien1","images/tutrocket2","images/tutalien1","images/nothing.png","2","practice","true","1","common","0","2022-07-29 03:33:06.031"
"two-step-fixation","69","307928","0.0-61.0-2.2","1980","2421","14","Male","true","false","true","true","""event"",""trial"",""time""
""fullscreenenter"",""5"",""10573""
","
","
","""event"",""trial"",""time""
""fullscreenenter"",""5"",""10573""
","
","","images/earth.jpg","","","","","","","","","","","","","","fixation","","","","","",""
"d3-animate-choice","70","310970","0.0-61.0-0.3","1980","2421","14","Male","true","false","true","true","""event"",""trial"",""time""
""fullscreenenter"",""5"",""10573""
","
","
","""event"",""trial"",""time""
""fullscreenenter"",""5"",""10573""
","
","1036.5","","48","","","3000","1","","","images/earth.jpg","images/tutrocket1","images/tutrocket2","null","images/tutrocket1","","1","practice","null","2","","",""
"d3-animate-choice","71","313495","0.0-61.0-1.3","1980","2421","14","Male","true","false","true","true","""event"",""trial"",""time""
""fullscreenenter"",""5"",""10573""
","
","
","""event"",""trial"",""time""
""fullscreenenter"",""5"",""10573""
","
","520.2000000001863","","49","","","3000","1","","","images/tutyellowplanet.jpg","images/tutalien4","images/tutalien3","images/tutrocket1","images/tutalien3","images/nothing.png","2","practice","true","1","common","0","2022-07-29 03:33:12.602"
"two-step-fixation","72","314499","0.0-61.0-2.3","1980","2421","14","Male","true","false","true","true","""event"",""trial"",""time""
""fullscreenenter"",""5"",""10573""
","
","
","""event"",""trial"",""time""
""fullscreenenter"",""5"",""10573""
","
","","images/earth.jpg","","","","","","","","","","","","","","fixation","","","","","",""
"d3-animate-choice","73","317281","0.0-61.0-0.4","1980","2421","14","Male","true","false","true","true","""event"",""trial"",""time""
""fullscreenenter"",""5"",""10573""
","
","
","""event"",""trial"",""time""
""fullscreenenter"",""5"",""10573""
","
","774.1000000000931","","49","","","3000","1","","","images/earth.jpg","images/tutrocket1","images/tutrocket2","null","images/tutrocket2","","1","practice","null","1","","",""
"d3-animate-choice","74","319724","0.0-61.0-1.4","1980","2421","14","Male","true","false","true","true","""event"",""trial"",""time""
""fullscreenenter"",""5"",""10573""
","
","
","""event"",""trial"",""time""
""fullscreenenter"",""5"",""10573""
","
","439.30000000004657","","49","","","3000","1","","","images/tutyellowplanet.jpg","images/tutalien4","images/tutalien3","images/tutrocket2","images/tutalien3","images/nothing.png","2","practice","false","1","rare","0","2022-07-29 03:33:18.831"
"two-step-fixation","75","320729","0.0-61.0-2.4","1980","2421","14","Male","true","false","true","true","""event"",""trial"",""time""
""fullscreenenter"",""5"",""10573""
","
","
","""event"",""trial"",""time""
""fullscreenenter"",""5"",""10573""
","
","","images/earth.jpg","","","","","","","","","","","","","","fixation","","","","","",""
"d3-animate-choice","76","323463","0.0-61.0-0.5","1980","2421","14","Male","true","false","true","true","""event"",""trial"",""time""
""fullscreenenter"",""5"",""10573""
","
","
","""event"",""trial"",""time""
""fullscreenenter"",""5"",""10573""
","
","729.3999999999069","","49","","","3000","1","","","images/earth.jpg","images/tutrocket1","images/tutrocket2","null","images/tutrocket2","","1","practice","null","1","","",""
"d3-animate-choice","77","326216","0.0-61.0-1.5","1980","2421","14","Male","true","false","true","true","""event"",""trial"",""time""
""fullscreenenter"",""5"",""10573""
","
","
","""event"",""trial"",""time""
""fullscreenenter"",""5"",""10573""
","
","749.1000000000931","","48","","","3000","1","","","images/tutgreenplanet.jpg","images/tutalien2","images/tutalien1","images/tutrocket2","images/tutalien2","images/t.png","2","practice","true","2","common","1","2022-07-29 03:33:25.324"
"two-step-fixation","78","327219","0.0-61.0-2.5","1980","2421","14","Male","true","false","true","true","""event"",""trial"",""time""
""fullscreenenter"",""5"",""10573""
","
","
","""event"",""trial"",""time""
""fullscreenenter"",""5"",""10573""
","
","","images/earth.jpg","","","","","","","","","","","","","","fixation","","","","","",""
"d3-animate-choice","79","329529","0.0-61.0-0.6","1980","2421","14","Male","true","false","true","true","""event"",""trial"",""time""
""fullscreenenter"",""5"",""10573""
","
","
","""event"",""trial"",""time""
""fullscreenenter"",""5"",""10573""
","
","307","","49","","","3000","1","","","images/earth.jpg","images/tutrocket1","images/tutrocket2","null","images/tutrocket2","","1","practice","null","1","","",""
"d3-animate-choice","80","331915","0.0-61.0-1.6","1980","2421","14","Male","true","false","true","true","""event"",""trial"",""time""
""fullscreenenter"",""5"",""10573""
","
","
","""event"",""trial"",""time""
""fullscreenenter"",""5"",""10573""
","
","377.89999999990687","","48","","","3000","1","","","images/tutyellowplanet.jpg","images/tutalien4","images/tutalien3","images/tutrocket2","images/tutalien4","images/t.png","2","practice","false","2","rare","1","2022-07-29 03:33:31.022"
"two-step-fixation","81","332919","0.0-61.0-2.6","1980","2421","14","Male","true","false","true","true","""event"",""trial"",""time""
""fullscreenenter"",""5"",""10573""
","
","
","""event"",""trial"",""time""
""fullscreenenter"",""5"",""10573""
","
","","images/earth.jpg","","","","","","","","","","","","","","fixation","","","","","",""
"d3-animate-choice","82","335816","0.0-61.0-0.7","1980","2421","14","Male","true","false","true","true","""event"",""trial"",""time""
""fullscreenenter"",""5"",""10573""
","
","
","""event"",""trial"",""time""
""fullscreenenter"",""5"",""10573""
","
","890.3999999999069","","48","","","3000","1","","","images/earth.jpg","images/tutrocket1","images/tutrocket2","null","images/tutrocket1","","1","practice","null","2","","",""
"d3-animate-choice","83","338834","0.0-61.0-1.7","1980","2421","14","Male","true","false","true","true","""event"",""trial"",""time""
""fullscreenenter"",""5"",""10573""
","
","
","""event"",""trial"",""time""
""fullscreenenter"",""5"",""10573""
","
","1012.6000000000931","","48","","","3000","1","","","images/tutgreenplanet.jpg","images/tutalien2","images/tutalien1","images/tutrocket1","images/tutalien2","images/nothing.png","2","practice","false","2","rare","0","2022-07-29 03:33:37.941"
"two-step-fixation","84","339839","0.0-61.0-2.7","1980","2421","14","Male","true","false","true","true","""event"",""trial"",""time""
""fullscreenenter"",""5"",""10573""
","
","
","""event"",""trial"",""time""
""fullscreenenter"",""5"",""10573""
","
","","images/earth.jpg","","","","","","","","","","","","","","fixation","","","","","",""
"d3-animate-choice","85","342277","0.0-61.0-0.8","1980","2421","14","Male","true","false","true","true","""event"",""trial"",""time""
""fullscreenenter"",""5"",""10573""
","
","
","""event"",""trial"",""time""
""fullscreenenter"",""5"",""10573""
","
","433.5999999998603","","48","","","3000","1","","","images/earth.jpg","images/tutrocket1","images/tutrocket2","null","images/tutrocket1","","1","practice","null","2","","",""
"d3-animate-choice","86","345097","0.0-61.0-1.8","1980","2421","14","Male","true","false","true","true","""event"",""trial"",""time""
""fullscreenenter"",""5"",""10573""
","
","
","""event"",""trial"",""time""
""fullscreenenter"",""5"",""10573""
","
","815.1999999999534","","48","","","3000","1","","","images/tutyellowplanet.jpg","images/tutalien4","images/tutalien3","images/tutrocket1","images/tutalien4","images/t.png","2","practice","true","2","common","1","2022-07-29 03:33:44.204"
"two-step-fixation","87","346100","0.0-61.0-2.8","1980","2421","14","Male","true","false","true","true","""event"",""trial"",""time""
""fullscreenenter"",""5"",""10573""
","
","
","""event"",""trial"",""time""
""fullscreenenter"",""5"",""10573""
","
","","images/earth.jpg","","","","","","","","","","","","","","fixation","","","","","",""
"d3-animate-choice","88","348535","0.0-61.0-0.9","1980","2421","14","Male","true","false","true","true","""event"",""trial"",""time""
""fullscreenenter"",""5"",""10573""
","
","
","""event"",""trial"",""time""
""fullscreenenter"",""5"",""10573""
","
","430.39999999990687","","49","","","3000","1","","","images/earth.jpg","images/tutrocket1","images/tutrocket2","null","images/tutrocket2","","1","practice","null","1","","",""
"d3-animate-choice","89","351214","0.0-61.0-1.9","1980","2421","14","Male","true","false","true","true","""event"",""trial"",""time""
""fullscreenenter"",""5"",""10573""
","
","
","""event"",""trial"",""time""
""fullscreenenter"",""5"",""10573""
","
","675.5","","49","","","3000","1","","","images/tutgreenplanet.jpg","images/tutalien2","images/tutalien1","images/tutrocket2","images/tutalien1","images/nothing.png","2","practice","true","1","common","0","2022-07-29 03:33:50.321"
"two-step-fixation","90","352219","0.0-61.0-2.9","1980","2421","14","Male","true","false","true","true","""event"",""trial"",""time""
""fullscreenenter"",""5"",""10573""
","
","
","""event"",""trial"",""time""
""fullscreenenter"",""5"",""10573""
","
","","images/earth.jpg","","","","","","","","","","","","","","fixation","","","","","",""
"d3-animate-choice","91","355059","0.0-61.0-0.10","1980","2421","14","Male","true","false","true","true","""event"",""trial"",""time""
""fullscreenenter"",""5"",""10573""
","
","
","""event"",""trial"",""time""
""fullscreenenter"",""5"",""10573""
","
","834.3999999999069","","48","","","3000","1","","","images/earth.jpg","images/tutrocket1","images/tutrocket2","null","images/tutrocket1","","1","practice","null","2","","",""
"d3-animate-choice","92","357568","0.0-61.0-1.10","1980","2421","14","Male","true","false","true","true","""event"",""trial"",""time""
""fullscreenenter"",""5"",""10573""
","
","
","""event"",""trial"",""time""
""fullscreenenter"",""5"",""10573""
","
","504.30000000004657","","48","","","3000","1","","","images/tutyellowplanet.jpg","images/tutalien4","images/tutalien3","images/tutrocket1","images/tutalien4","images/nothing.png","2","practice","true","2","common","0","2022-07-29 03:33:56.675"
"two-step-fixation","93","358571","0.0-61.0-2.10","1980","2421","14","Male","true","false","true","true","""event"",""trial"",""time""
""fullscreenenter"",""5"",""10573""
","
","
","""event"",""trial"",""time""
""fullscreenenter"",""5"",""10573""
","
","","images/earth.jpg","","","","","","","","","","","","","","fixation","","","","","",""
"d3-animate-choice","94","361016","0.0-61.0-0.11","1980","2421","14","Male","true","false","true","true","""event"",""trial"",""time""
""fullscreenenter"",""5"",""10573""
","
","
","""event"",""trial"",""time""
""fullscreenenter"",""5"",""10573""
","
","439.4000000001397","","49","","","3000","1","598.7000000001863","48","images/earth.jpg","images/tutrocket1","images/tutrocket2","null","images/tutrocket2","","1","practice","null","1","","",""
"d3-animate-choice","95","364039","0.0-61.0-1.11","1980","2421","14","Male","true","false","true","true","""event"",""trial"",""time""
""fullscreenenter"",""5"",""10573""
","
","
","""event"",""trial"",""time""
""fullscreenenter"",""5"",""10573""
","
","1017.8000000000466","","49","","","3000","1","","","images/tutyellowplanet.jpg","images/tutalien4","images/tutalien3","images/tutrocket2","images/tutalien3","images/nothing.png","2","practice","false","1","rare","0","2022-07-29 03:34:03.146"
"two-step-fixation","96","365044","0.0-61.0-2.11","1980","2421","14","Male","true","false","true","true","""event"",""trial"",""time""
""fullscreenenter"",""5"",""10573""
","
","
","""event"",""trial"",""time""
""fullscreenenter"",""5"",""10573""
","
","","images/earth.jpg","","","","","","","","","","","","","","fixation","","","","","",""
"d3-animate-choice","97","367596","0.0-61.0-0.12","1980","2421","14","Male","true","false","true","true","""event"",""trial"",""time""
""fullscreenenter"",""5"",""10573""
","
","
","""event"",""trial"",""time""
""fullscreenenter"",""5"",""10573""
","
","547.9000000001397","","48","","","3000","1","","","images/earth.jpg","images/tutrocket1","images/tutrocket2","null","images/tutrocket1","","1","practice","null","2","","",""
"d3-animate-choice","98","370838","0.0-61.0-1.12","1980","2421","14","Male","true","false","true","true","""event"",""trial"",""time""
""fullscreenenter"",""5"",""10573""
","
","
","""event"",""trial"",""time""
""fullscreenenter"",""5"",""10573""
","
","1234.8999999999069","","48","","","3000","1","","","images/tutgreenplanet.jpg","images/tutalien2","images/tutalien1","images/tutrocket1","images/tutalien2","images/t.png","2","practice","false","2","rare","1","2022-07-29 03:34:09.945"
"two-step-fixation","99","371842","0.0-61.0-2.12","1980","2421","14","Male","true","false","true","true","""event"",""trial"",""time""
""fullscreenenter"",""5"",""10573""
","
","
","""event"",""trial"",""time""
""fullscreenenter"",""5"",""10573""
","
","","images/earth.jpg","","","","","","","","","","","","","","fixation","","","","","",""
"d3-animate-choice","100","374634","0.0-61.0-0.13","1980","2421","14","Male","true","false","true","true","""event"",""trial"",""time""
""fullscreenenter"",""5"",""10573""
","
","
","""event"",""trial"",""time""
""fullscreenenter"",""5"",""10573""
","
","788.5999999998603","","49","","","3000","1","1158.6999999999534","48","images/earth.jpg","images/tutrocket1","images/tutrocket2","null","images/tutrocket2","","1","practice","null","1","","",""
"d3-animate-choice","101","377815","0.0-61.0-1.13","1980","2421","14","Male","true","false","true","true","""event"",""trial"",""time""
""fullscreenenter"",""5"",""10573""
","
","
","""event"",""trial"",""time""
""fullscreenenter"",""5"",""10573""
","
","1173.2999999998137","","48","","","3000","1","","","images/tutgreenplanet.jpg","images/tutalien2","images/tutalien1","images/tutrocket2","images/tutalien2","images/t.png","2","practice","true","2","common","1","2022-07-29 03:34:16.922"
"two-step-fixation","102","378820","0.0-61.0-2.13","1980","2421","14","Male","true","false","true","true","""event"",""trial"",""time""
""fullscreenenter"",""5"",""10573""
","
","
","""event"",""trial"",""time""
""fullscreenenter"",""5"",""10573""
","
","","images/earth.jpg","","","","","","","","","","","","","","fixation","","","","","",""
"d3-animate-choice","103","381211","0.0-61.0-0.14","1980","2421","14","Male","true","false","true","true","""event"",""trial"",""time""
""fullscreenenter"",""5"",""10573""
","
","
","""event"",""trial"",""time""
""fullscreenenter"",""5"",""10573""
","
","385.69999999995343","","49","","","3000","1","","","images/earth.jpg","images/tutrocket1","images/tutrocket2","null","images/tutrocket2","","1","practice","null","1","","",""
"d3-animate-choice","104","383719","0.0-61.0-1.14","1980","2421","14","Male","true","false","true","true","""event"",""trial"",""time""
""fullscreenenter"",""5"",""10573""
","
","
","""event"",""trial"",""time""
""fullscreenenter"",""5"",""10573""
","
","504.19999999995343","","48","","","3000","1","","","images/tutgreenplanet.jpg","images/tutalien2","images/tutalien1","images/tutrocket2","images/tutalien2","images/nothing.png","2","practice","true","2","common","0","2022-07-29 03:34:22.826"
"two-step-fixation","105","384723","0.0-61.0-2.14","1980","2421","14","Male","true","false","true","true","""event"",""trial"",""time""
""fullscreenenter"",""5"",""10573""
","
","
","""event"",""trial"",""time""
""fullscreenenter"",""5"",""10573""
","
","","images/earth.jpg","","","","","","","","","","","","","","fixation","","","","","",""
"d3-animate-choice","106","387132","0.0-61.0-0.15","1980","2421","14","Male","true","false","true","true","""event"",""trial"",""time""
""fullscreenenter"",""5"",""10573""
","
","
","""event"",""trial"",""time""
""fullscreenenter"",""5"",""10573""
","
","402.80000000004657","","49","","","3000","1","","","images/earth.jpg","images/tutrocket1","images/tutrocket2","null","images/tutrocket2","","1","practice","null","1","","",""
"d3-animate-choice","107","390230","0.0-61.0-1.15","1980","2421","14","Male","true","false","true","true","""event"",""trial"",""time""
""fullscreenenter"",""5"",""10573""
","
","
","""event"",""trial"",""time""
""fullscreenenter"",""5"",""10573""
","
","1095","","48","","","3000","1","","","images/tutyellowplanet.jpg","images/tutalien4","images/tutalien3","images/tutrocket2","images/tutalien4","images/t.png","2","practice","false","2","rare","1","2022-07-29 03:34:29.337"
"two-step-fixation","108","391234","0.0-61.0-2.15","1980","2421","14","Male","true","false","true","true","""event"",""trial"",""time""
""fullscreenenter"",""5"",""10573""
","
","
","""event"",""trial"",""time""
""fullscreenenter"",""5"",""10573""
","
","","images/earth.jpg","","","","","","","","","","","","","","fixation","","","","","",""
"d3-animate-choice","109","393638","0.0-61.0-0.16","1980","2421","14","Male","true","false","true","true","""event"",""trial"",""time""
""fullscreenenter"",""5"",""10573""
","
","
","""event"",""trial"",""time""
""fullscreenenter"",""5"",""10573""
","
","397.79999999981374","","49","","","3000","1","","","images/earth.jpg","images/tutrocket1","images/tutrocket2","null","images/tutrocket2","","1","practice","null","1","","",""
"d3-animate-choice","110","396591","0.0-61.0-1.16","1980","2421","14","Male","true","false","true","true","""event"",""trial"",""time""
""fullscreenenter"",""5"",""10573""
","
","
","""event"",""trial"",""time""
""fullscreenenter"",""5"",""10573""
","
","950.5999999998603","","48","","","3000","1","","","images/tutgreenplanet.jpg","images/tutalien2","images/tutalien1","images/tutrocket2","images/tutalien2","images/nothing.png","2","practice","true","2","common","0","2022-07-29 03:34:35.698"
"two-step-fixation","111","397595","0.0-61.0-2.16","1980","2421","14","Male","true","false","true","true","""event"",""trial"",""time""
""fullscreenenter"",""5"",""10573""
","
","
","""event"",""trial"",""time""
""fullscreenenter"",""5"",""10573""
","
","","images/earth.jpg","","","","","","","","","","","","","","fixation","","","","","",""
"d3-animate-choice","112","400083","0.0-61.0-0.17","1980","2421","14","Male","true","false","true","true","""event"",""trial"",""time""
""fullscreenenter"",""5"",""10573""
","
","
","""event"",""trial"",""time""
""fullscreenenter"",""5"",""10573""
","
","484.5","","48","","","3000","1","","","images/earth.jpg","images/tutrocket1","images/tutrocket2","null","images/tutrocket1","","1","practice","null","2","","",""
"d3-animate-choice","113","402461","0.0-61.0-1.17","1980","2421","14","Male","true","false","true","true","""event"",""trial"",""time""
""fullscreenenter"",""5"",""10573""
","
","
","""event"",""trial"",""time""
""fullscreenenter"",""5"",""10573""
","
","374.80000000004657","","48","","","3000","1","","","images/tutgreenplanet.jpg","images/tutalien2","images/tutalien1","images/tutrocket1","images/tutalien2","images/t.png","2","practice","false","2","rare","1","2022-07-29 03:34:41.568"
"two-step-fixation","114","403468","0.0-61.0-2.17","1980","2421","14","Male","true","false","true","true","""event"",""trial"",""time""
""fullscreenenter"",""5"",""10573""
","
","
","""event"",""trial"",""time""
""fullscreenenter"",""5"",""10573""
","
","","images/earth.jpg","","","","","","","","","","","","","","fixation","","","","","",""
"d3-animate-choice","115","405790","0.0-61.0-0.18","1980","2421","14","Male","true","false","true","true","""event"",""trial"",""time""
""fullscreenenter"",""5"",""10573""
","
","
","""event"",""trial"",""time""
""fullscreenenter"",""5"",""10573""
","
","317.10000000009313","","49","","","3000","1","","","images/earth.jpg","images/tutrocket1","images/tutrocket2","null","images/tutrocket2","","1","practice","null","1","","",""
"d3-animate-choice","116","408431","0.0-61.0-1.18","1980","2421","14","Male","true","false","true","true","""event"",""trial"",""time""
""fullscreenenter"",""5"",""10573""
","
","
","""event"",""trial"",""time""
""fullscreenenter"",""5"",""10573""
","
","638.1000000000931","","48","","","3000","1","","","images/tutgreenplanet.jpg","images/tutalien2","images/tutalien1","images/tutrocket2","images/tutalien2","images/t.png","2","practice","true","2","common","1","2022-07-29 03:34:47.538"
"two-step-fixation","117","409435","0.0-61.0-2.18","1980","2421","14","Male","true","false","true","true","""event"",""trial"",""time""
""fullscreenenter"",""5"",""10573""
","
","
","""event"",""trial"",""time""
""fullscreenenter"",""5"",""10573""
","
","","images/earth.jpg","","","","","","","","","","","","","","fixation","","","","","",""
"d3-animate-choice","118","411632","0.0-61.0-0.19","1980","2421","14","Male","true","false","true","true","""event"",""trial"",""time""
""fullscreenenter"",""5"",""10573""
","
","
","""event"",""trial"",""time""
""fullscreenenter"",""5"",""10573""
","
","192","","49","","","3000","1","","","images/earth.jpg","images/tutrocket1","images/tutrocket2","null","images/tutrocket2","","1","practice","null","1","","",""
"d3-animate-choice","119","414007","0.0-61.0-1.19","1980","2421","14","Male","true","false","true","true","""event"",""trial"",""time""
""fullscreenenter"",""5"",""10573""
","
","
","""event"",""trial"",""time""
""fullscreenenter"",""5"",""10573""
","
","372.29999999981374","","48","","","3000","1","","","images/tutyellowplanet.jpg","images/tutalien4","images/tutalien3","images/tutrocket2","images/tutalien4","images/t.png","2","practice","false","2","rare","1","2022-07-29 03:34:53.114"
"two-step-fixation","120","415011","0.0-61.0-2.19","1980","2421","14","Male","true","false","true","true","""event"",""trial"",""time""
""fullscreenenter"",""5"",""10573""
","
","
","""event"",""trial"",""time""
""fullscreenenter"",""5"",""10573""
","
","","images/earth.jpg","","","","","","","","","","","","","","fixation","","","","","",""
"d3-instructions","121","419589","0.0-62.0","1980","2421","14","Male","true","false","true","true","""event"",""trial"",""time""
""fullscreenenter"",""5"",""10573""
","
","
","""event"",""trial"",""time""
""fullscreenenter"",""5"",""10573""
","
","","","","","","","","","","","","","","","","","","","","","",""
"audio-keyboard-response","122","422478","0.0-63.0","1980","2421","14","Male","true","false","true","true","""event"",""trial"",""time""
""fullscreenenter"",""5"",""10573""
","
","
","""event"",""trial"",""time""
""fullscreenenter"",""5"",""10573""
","
","2891","audio/instructions/treasure_feedback.wav","32","","","","","","","","","","","","","","","","","","",""
"d3-instructions","123","431737","0.0-64.0","1980","2421","14","Male","true","false","true","true","""event"",""trial"",""time""
""fullscreenenter"",""5"",""10573""
","
","
","""event"",""trial"",""time""
""fullscreenenter"",""5"",""10573""
","
","","","","","","","","","","","","","","","","","","","","","",""
"d3-instructions","124","446069","0.0-65.0","1980","2421","14","Male","true","false","true","true","""event"",""trial"",""time""
""fullscreenenter"",""5"",""10573""
","
","
","""event"",""trial"",""time""
""fullscreenenter"",""5"",""10573""
","
","","","","","","","","","","","","","","","","","","","","","",""
"d3-instructions","125","470308","0.0-66.0","1980","2421","14","Male","true","false","true","true","""event"",""trial"",""time""
""fullscreenenter"",""5"",""10573""
","
","
","""event"",""trial"",""time""
""fullscreenenter"",""5"",""10573""
","
","","","","","","","","","","","","","","","","","","","","","",""
"d3-instructions","126","479032","0.0-67.0","1980","2421","14","Male","true","false","true","true","""event"",""trial"",""time""
""fullscreenenter"",""5"",""10573""
","
","
","""event"",""trial"",""time""
""fullscreenenter"",""5"",""10573""
","
","","","","","","","","","","","","","","","","","","","","","",""
"d3-instructions","127","484666","0.0-68.0","1980","2421","14","Male","true","false","true","true","""event"",""trial"",""time""
""fullscreenenter"",""5"",""10573""
","
","
","""event"",""trial"",""time""
""fullscreenenter"",""5"",""10573""
","
","","","","","","","","","","","","","","","","","","","","","",""
"instructions-quiz","128","486836","0.0-69.0","1980","2421","14","Male","true","false","true","true","""event"",""trial"",""time""
""fullscreenenter"",""5"",""10573""
","
","
","""event"",""trial"",""time""
""fullscreenenter"",""5"",""10573""
","
","2168.399999999907","audio/quiz/Q1_Prompt.wav","","1","","","","","","","","","","","","","","","","","",""
"audio-keyboard-response","129","488766","0.0-70.0","1980","2421","14","Male","true","false","true","true","""event"",""trial"",""time""
""fullscreenenter"",""5"",""10573""
","
","
","""event"",""trial"",""time""
""fullscreenenter"",""5"",""10573""
","
","1927","audio/quiz/Q1_Correct.wav","32","","","","","","","","","","","","","","","","","","",""
"instructions-quiz","130","492208","0.0-71.0","1980","2421","14","Male","true","false","true","true","""event"",""trial"",""time""
""fullscreenenter"",""5"",""10573""
","
","
","""event"",""trial"",""time""
""fullscreenenter"",""5"",""10573""
","
","3440.399999999907","audio/quiz/Q2_Prompt.wav","","0","","","","","","","","","","","","","","","","","",""
"audio-keyboard-response","131","493276","0.0-72.0","1980","2421","14","Male","true","false","true","true","""event"",""trial"",""time""
""fullscreenenter"",""5"",""10573""
","
","
","""event"",""trial"",""time""
""fullscreenenter"",""5"",""10573""
","
","1068","audio/quiz/Q2_Correct.wav","32","","","","","","","","","","","","","","","","","","",""
"instructions-quiz","132","495872","0.0-73.0","1980","2421","14","Male","true","false","true","true","""event"",""trial"",""time""
""fullscreenenter"",""5"",""10573""
","
","
","""event"",""trial"",""time""
""fullscreenenter"",""5"",""10573""
","
","2594.6999999999534","audio/quiz/Q3_Prompt.wav","","1","","","","","","","","","","","","","","","","","",""
"audio-keyboard-response","133","501446","0.0-74.0","1980","2421","14","Male","true","false","true","true","""event"",""trial"",""time""
""fullscreenenter"",""5"",""10573""
","
","
","""event"",""trial"",""time""
""fullscreenenter"",""5"",""10573""
","
","5573","audio/quiz/Q3_Correct.wav","32","","","","","","","","","","","","","","","","","","",""
"d3-instructions","134","506229","0.0-75.0","1980","2421","14","Male","true","false","true","true","""event"",""trial"",""time""
""fullscreenenter"",""5"",""10573""
","
","
","""event"",""trial"",""time""
""fullscreenenter"",""5"",""10573""
","
","","","","","","","","","","","","","","","","","","","","","",""
"d3-animate-choice","135","509316","0.0-76.0-0.0","1980","2421","14","Male","true","false","true","true","""event"",""trial"",""time""
""fullscreenenter"",""5"",""10573""
","
","
","""event"",""trial"",""time""
""fullscreenenter"",""5"",""10573""
","
","1083.1999999999534","","49","","","3000","1","","","images/earth.jpg","images/rocket2","images/rocket1","null","images/rocket1","","1","real","null","1","","",""
"d3-animate-choice","136","511717","0.0-76.0-1.0","1980","2421","14","Male","true","false","true","true","""event"",""trial"",""time""
""fullscreenenter"",""5"",""10573""
","
","
","""event"",""trial"",""time""
""fullscreenenter"",""5"",""10573""
","
","398.30000000004657","","48","","","3000","1","","","images/purpleplanet.jpg","images/alien4","images/alien3","images/rocket1","images/alien4","images/nothing.png","2","real","true","2","common","0","2022-07-29 03:36:30.824"
"two-step-fixation","137","512720","0.0-76.0-2.0","1980","2421","14","Male","true","false","true","true","""event"",""trial"",""time""
""fullscreenenter"",""5"",""10573""
","
","
","""event"",""trial"",""time""
""fullscreenenter"",""5"",""10573""
","
","","images/earth.jpg","","","","","","","","","","","","","","fixation","","","","","",""
"d3-animate-choice","138","515306","0.0-76.0-0.1","1980","2421","14","Male","true","false","true","true","""event"",""trial"",""time""
""fullscreenenter"",""5"",""10573""
","
","
","""event"",""trial"",""time""
""fullscreenenter"",""5"",""10573""
","
","581.8999999999069","","48","","","3000","1","","","images/earth.jpg","images/rocket2","images/rocket1","null","images/rocket2","","1","real","null","2","","",""
"d3-animate-choice","139","517997","0.0-76.0-1.1","1980","2421","14","Male","true","false","true","true","""event"",""trial"",""time""
""fullscreenenter"",""5"",""10573""
","
","
","""event"",""trial"",""time""
""fullscreenenter"",""5"",""10573""
","
","687.5","","48","","","3000","1","","","images/redplanet1.jpg","images/alien2","images/alien1","images/rocket2","images/alien2","images/t.png","2","real","true","2","common","1","2022-07-29 03:36:37.104"
"two-step-fixation","140","519000","0.0-76.0-2.1","1980","2421","14","Male","true","false","true","true","""event"",""trial"",""time""
""fullscreenenter"",""5"",""10573""
","
","
","""event"",""trial"",""time""
""fullscreenenter"",""5"",""10573""
","
","","images/earth.jpg","","","","","","","","","","","","","","fixation","","","","","",""
"d3-animate-choice","141","521340","0.0-76.0-0.2","1980","2421","14","Male","true","false","true","true","""event"",""trial"",""time""
""fullscreenenter"",""5"",""10573""
","
","
","""event"",""trial"",""time""
""fullscreenenter"",""5"",""10573""
","
","336.79999999981374","","49","","","3000","1","","","images/earth.jpg","images/rocket2","images/rocket1","null","images/rocket1","","1","real","null","1","","",""
"d3-animate-choice","142","523947","0.0-76.0-1.2","1980","2421","14","Male","true","false","true","true","""event"",""trial"",""time""
""fullscreenenter"",""5"",""10573""
","
","
","""event"",""trial"",""time""
""fullscreenenter"",""5"",""10573""
","
","603.3000000000466","","49","","","3000","1","","","images/purpleplanet.jpg","images/alien4","images/alien3","images/rocket1","images/alien3","images/nothing.png","2","real","true","1","common","0","2022-07-29 03:36:43.054"
"two-step-fixation","143","524950","0.0-76.0-2.2","1980","2421","14","Male","true","false","true","true","""event"",""trial"",""time""
""fullscreenenter"",""5"",""10573""
","
","
","""event"",""trial"",""time""
""fullscreenenter"",""5"",""10573""
","
","","images/earth.jpg","","","","","","","","","","","","","","fixation","","","","","",""
"d3-animate-choice","144","527288","0.0-76.0-0.3","1980","2421","14","Male","true","false","true","true","""event"",""trial"",""time""
""fullscreenenter"",""5"",""10573""
","
","
","""event"",""trial"",""time""
""fullscreenenter"",""5"",""10573""
","
","334.29999999981374","","48","","","3000","1","","","images/earth.jpg","images/rocket2","images/rocket1","null","images/rocket2","","1","real","null","2","","",""
"d3-animate-choice","145","530152","0.0-76.0-1.3","1980","2421","14","Male","true","false","true","true","""event"",""trial"",""time""
""fullscreenenter"",""5"",""10573""
","
","
","""event"",""trial"",""time""
""fullscreenenter"",""5"",""10573""
","
","860.1000000000931","","48","","","3000","1","","","images/purpleplanet.jpg","images/alien4","images/alien3","images/rocket2","images/alien4","images/t.png","2","real","false","2","rare","1","2022-07-29 03:36:49.259"
"two-step-fixation","146","531158","0.0-76.0-2.3","1980","2421","14","Male","true","false","true","true","""event"",""trial"",""time""
""fullscreenenter"",""5"",""10573""
","
","
","""event"",""trial"",""time""
""fullscreenenter"",""5"",""10573""
","
","","images/earth.jpg","","","","","","","","","","","","","","fixation","","","","","",""
"d3-animate-choice","147","533453","0.0-76.0-0.4","1980","2421","14","Male","true","false","true","true","""event"",""trial"",""time""
""fullscreenenter"",""5"",""10573""
","
","
","""event"",""trial"",""time""
""fullscreenenter"",""5"",""10573""
","
","289.4000000001397","","48","","","3000","1","","","images/earth.jpg","images/rocket2","images/rocket1","null","images/rocket2","","1","real","null","2","","",""
"d3-animate-choice","148","535921","0.0-76.0-1.4","1980","2421","14","Male","true","false","true","true","""event"",""trial"",""time""
""fullscreenenter"",""5"",""10573""
","
","
","""event"",""trial"",""time""
""fullscreenenter"",""5"",""10573""
","
","463.20000000018626","","48","","","3000","1","","","images/purpleplanet.jpg","images/alien4","images/alien3","images/rocket2","images/alien4","images/nothing.png","2","real","false","2","rare","0","2022-07-29 03:36:55.028"
"two-step-fixation","149","536928","0.0-76.0-2.4","1980","2421","14","Male","true","false","true","true","""event"",""trial"",""time""
""fullscreenenter"",""5"",""10573""
","
","
","""event"",""trial"",""time""
""fullscreenenter"",""5"",""10573""
","
","","images/earth.jpg","","","","","","","","","","","","","","fixation","","","","","",""
"d3-animate-choice","150","539302","0.0-76.0-0.5","1980","2421","14","Male","true","false","true","true","""event"",""trial"",""time""
""fullscreenenter"",""5"",""10573""
","
","
","""event"",""trial"",""time""
""fullscreenenter"",""5"",""10573""
","
","369.19999999995343","","49","","","3000","1","","","images/earth.jpg","images/rocket2","images/rocket1","null","images/rocket1","","1","real","null","1","","",""
"d3-animate-choice","151","541894","0.0-76.0-1.5","1980","2421","14","Male","true","false","true","true","""event"",""trial"",""time""
""fullscreenenter"",""5"",""10573""
","
","
","""event"",""trial"",""time""
""fullscreenenter"",""5"",""10573""
","
","587.2999999998137","","48","","","3000","1","","","images/purpleplanet.jpg","images/alien4","images/alien3","images/rocket1","images/alien4","images/t.png","2","real","true","2","common","1","2022-07-29 03:37:01.001"
"two-step-fixation","152","542901","0.0-76.0-2.5","1980","2421","14","Male","true","false","true","true","""event"",""trial"",""time""
""fullscreenenter"",""5"",""10573""
","
","
","""event"",""trial"",""time""
""fullscreenenter"",""5"",""10573""
","
","","images/earth.jpg","","","","","","","","","","","","","","fixation","","","","","",""
"d3-animate-choice","153","545168","0.0-76.0-0.6","1980","2421","14","Male","true","false","true","true","""event"",""trial"",""time""
""fullscreenenter"",""5"",""10573""
","
","
","""event"",""trial"",""time""
""fullscreenenter"",""5"",""10573""
","
","263.5","","48","","","3000","1","","","images/earth.jpg","images/rocket2","images/rocket1","null","images/rocket2","","1","real","null","2","","",""
"d3-animate-choice","154","547702","0.0-76.0-1.6","1980","2421","14","Male","true","false","true","true","""event"",""trial"",""time""
""fullscreenenter"",""5"",""10573""
","
","
","""event"",""trial"",""time""
""fullscreenenter"",""5"",""10573""
","
","530.8000000000466","","48","","","3000","1","","","images/purpleplanet.jpg","images/alien4","images/alien3","images/rocket2","images/alien4","images/t.png","2","real","false","2","rare","1","2022-07-29 03:37:06.809"
"two-step-fixation","155","548706","0.0-76.0-2.6","1980","2421","14","Male","true","false","true","true","""event"",""trial"",""time""
""fullscreenenter"",""5"",""10573""
","
","
","""event"",""trial"",""time""
""fullscreenenter"",""5"",""10573""
","
","","images/earth.jpg","","","","","","","","","","","","","","fixation","","","","","",""
"d3-animate-choice","156","550948","0.0-76.0-0.7","1980","2421","14","Male","true","false","true","true","""event"",""trial"",""time""
""fullscreenenter"",""5"",""10573""
","
","
","""event"",""trial"",""time""
""fullscreenenter"",""5"",""10573""
","
","238.5","","48","","","3000","1","","","images/earth.jpg","images/rocket2","images/rocket1","null","images/rocket2","","1","real","null","2","","",""
"d3-animate-choice","157","553412","0.0-76.0-1.7","1980","2421","14","Male","true","false","true","true","""event"",""trial"",""time""
""fullscreenenter"",""5"",""10573""
","
","
","""event"",""trial"",""time""
""fullscreenenter"",""5"",""10573""
","
","458.9000000001397","","48","","","3000","1","","","images/redplanet1.jpg","images/alien2","images/alien1","images/rocket2","images/alien2","images/t.png","2","real","true","2","common","1","2022-07-29 03:37:12.519"
"two-step-fixation","158","554418","0.0-76.0-2.7","1980","2421","14","Male","true","false","true","true","""event"",""trial"",""time""
""fullscreenenter"",""5"",""10573""
","
","
","""event"",""trial"",""time""
""fullscreenenter"",""5"",""10573""
","
","","images/earth.jpg","","","","","","","","","","","","","","fixation","","","","","",""
"d3-animate-choice","159","556816","0.0-76.0-0.8","1980","2421","14","Male","true","false","true","true","""event"",""trial"",""time""
""fullscreenenter"",""5"",""10573""
","
","
","""event"",""trial"",""time""
""fullscreenenter"",""5"",""10573""
","
","393.5","","49","","","3000","1","","","images/earth.jpg","images/rocket2","images/rocket1","null","images/rocket1","","1","real","null","1","","",""
"d3-animate-choice","160","559292","0.0-76.0-1.8","1980","2421","14","Male","true","false","true","true","""event"",""trial"",""time""
""fullscreenenter"",""5"",""10573""
","
","
","""event"",""trial"",""time""
""fullscreenenter"",""5"",""10573""
","
","472.5999999998603","","48","","","3000","1","","","images/purpleplanet.jpg","images/alien4","images/alien3","images/rocket1","images/alien4","images/t.png","2","real","true","2","common","1","2022-07-29 03:37:18.399"
"two-step-fixation","161","560296","0.0-76.0-2.8","1980","2421","14","Male","true","false","true","true","""event"",""trial"",""time""
""fullscreenenter"",""5"",""10573""
","
","
","""event"",""trial"",""time""
""fullscreenenter"",""5"",""10573""
","
","","images/earth.jpg","","","","","","","","","","","","","","fixation","","","","","",""
"d3-animate-choice","162","562735","0.0-76.0-0.9","1980","2421","14","Male","true","false","true","true","""event"",""trial"",""time""
""fullscreenenter"",""5"",""10573""
","
","
","""event"",""trial"",""time""
""fullscreenenter"",""5"",""10573""
","
","433","","48","","","3000","1","","","images/earth.jpg","images/rocket2","images/rocket1","null","images/rocket2","","1","real","null","2","","",""
"d3-animate-choice","163","565262","0.0-76.0-1.9","1980","2421","14","Male","true","false","true","true","""event"",""trial"",""time""
""fullscreenenter"",""5"",""10573""
","
","
","""event"",""trial"",""time""
""fullscreenenter"",""5"",""10573""
","
","522.8000000000466","","48","","","3000","1","","","images/redplanet1.jpg","images/alien2","images/alien1","images/rocket2","images/alien2","images/t.png","2","real","true","2","common","1","2022-07-29 03:37:24.369"
"two-step-fixation","164","566266","0.0-76.0-2.9","1980","2421","14","Male","true","false","true","true","""event"",""trial"",""time""
""fullscreenenter"",""5"",""10573""
","
","
","""event"",""trial"",""time""
""fullscreenenter"",""5"",""10573""
","
","","images/earth.jpg","","","","","","","","","","","","","","fixation","","","","","",""
"d3-animate-choice","165","568594","0.0-76.0-0.10","1980","2421","14","Male","true","false","true","true","""event"",""trial"",""time""
""fullscreenenter"",""5"",""10573""
","
","
","""event"",""trial"",""time""
""fullscreenenter"",""5"",""10573""
","
","324.79999999981374","","48","","","3000","1","","","images/earth.jpg","images/rocket2","images/rocket1","null","images/rocket2","","1","real","null","2","","",""
"d3-animate-choice","166","571073","0.0-76.0-1.10","1980","2421","14","Male","true","false","true","true","""event"",""trial"",""time""
""fullscreenenter"",""5"",""10573""
","
","
","""event"",""trial"",""time""
""fullscreenenter"",""5"",""10573""
","
","477.10000000009313","","48","","","3000","1","","","images/redplanet1.jpg","images/alien2","images/alien1","images/rocket2","images/alien2","images/nothing.png","2","real","true","2","common","0","2022-07-29 03:37:30.180"
"two-step-fixation","167","572077","0.0-76.0-2.10","1980","2421","14","Male","true","false","true","true","""event"",""trial"",""time""
""fullscreenenter"",""5"",""10573""
","
","
","""event"",""trial"",""time""
""fullscreenenter"",""5"",""10573""
","
","","images/earth.jpg","","","","","","","","","","","","","","fixation","","","","","",""
"d3-animate-choice","168","574393","0.0-76.0-0.11","1980","2421","14","Male","true","false","true","true","""event"",""trial"",""time""
""fullscreenenter"",""5"",""10573""
","
","
","""event"",""trial"",""time""
""fullscreenenter"",""5"",""10573""
","
","312.10000000009313","","49","","","3000","1","","","images/earth.jpg","images/rocket2","images/rocket1","null","images/rocket1","","1","real","null","1","","",""
"d3-animate-choice","169","576803","0.0-76.0-1.11","1980","2421","14","Male","true","false","true","true","""event"",""trial"",""time""
""fullscreenenter"",""5"",""10573""
","
","
","""event"",""trial"",""time""
""fullscreenenter"",""5"",""10573""
","
","407.19999999995343","","48","","","3000","1","","","images/redplanet1.jpg","images/alien2","images/alien1","images/rocket1","images/alien2","images/nothing.png","2","real","false","2","rare","0","2022-07-29 03:37:35.910"
"two-step-fixation","170","577807","0.0-76.0-2.11","1980","2421","14","Male","true","false","true","true","""event"",""trial"",""time""
""fullscreenenter"",""5"",""10573""
","
","
","""event"",""trial"",""time""
""fullscreenenter"",""5"",""10573""
","
","","images/earth.jpg","","","","","","","","","","","","","","fixation","","","","","",""
"d3-animate-choice","171","580225","0.0-76.0-0.12","1980","2421","14","Male","true","false","true","true","""event"",""trial"",""time""
""fullscreenenter"",""5"",""10573""
","
","
","""event"",""trial"",""time""
""fullscreenenter"",""5"",""10573""
","
","414.9000000001397","","48","","","3000","1","","","images/earth.jpg","images/rocket2","images/rocket1","null","images/rocket2","","1","real","null","2","","",""
"d3-animate-choice","172","582769","0.0-76.0-1.12","1980","2421","14","Male","true","false","true","true","""event"",""trial"",""time""
""fullscreenenter"",""5"",""10573""
","
","
","""event"",""trial"",""time""
""fullscreenenter"",""5"",""10573""
","
","538.8000000000466","","48","","","3000","1","","","images/purpleplanet.jpg","images/alien4","images/alien3","images/rocket2","images/alien4","images/t.png","2","real","false","2","rare","1","2022-07-29 03:37:41.876"
"two-step-fixation","173","583772","0.0-76.0-2.12","1980","2421","14","Male","true","false","true","true","""event"",""trial"",""time""
""fullscreenenter"",""5"",""10573""
","
","
","""event"",""trial"",""time""
""fullscreenenter"",""5"",""10573""
","
","","images/earth.jpg","","","","","","","","","","","","","","fixation","","","","","",""
"d3-animate-choice","174","585994","0.0-76.0-0.13","1980","2421","14","Male","true","false","true","true","""event"",""trial"",""time""
""fullscreenenter"",""5"",""10573""
","
","
","""event"",""trial"",""time""
""fullscreenenter"",""5"",""10573""
","
","217.69999999995343","","48","","","3000","1","","","images/earth.jpg","images/rocket2","images/rocket1","null","images/rocket2","","1","real","null","2","","",""
"d3-animate-choice","175","588546","0.0-76.0-1.13","1980","2421","14","Male","true","false","true","true","""event"",""trial"",""time""
""fullscreenenter"",""5"",""10573""
","
","
","""event"",""trial"",""time""
""fullscreenenter"",""5"",""10573""
","
","543.8000000000466","","48","","","3000","1","","","images/purpleplanet.jpg","images/alien4","images/alien3","images/rocket2","images/alien4","images/nothing.png","2","real","false","2","rare","0","2022-07-29 03:37:47.653"
"two-step-fixation","176","589550","0.0-76.0-2.13","1980","2421","14","Male","true","false","true","true","""event"",""trial"",""time""
""fullscreenenter"",""5"",""10573""
","
","
","""event"",""trial"",""time""
""fullscreenenter"",""5"",""10573""
","
","","images/earth.jpg","","","","","","","","","","","","","","fixation","","","","","",""
"d3-animate-choice","177","591669","0.0-76.0-0.14","1980","2421","14","Male","true","false","true","true","""event"",""trial"",""time""
""fullscreenenter"",""5"",""10573""
","
","
","""event"",""trial"",""time""
""fullscreenenter"",""5"",""10573""
","
","113.10000000009313","","48","","","3000","1","","","images/earth.jpg","images/rocket2","images/rocket1","null","images/rocket2","","1","real","null","2","","",""
"d3-animate-choice","178","594164","0.0-76.0-1.14","1980","2421","14","Male","true","false","true","true","""event"",""trial"",""time""
""fullscreenenter"",""5"",""10573""
","
","
","""event"",""trial"",""time""
""fullscreenenter"",""5"",""10573""
","
","490.5","","49","","","3000","1","","","images/redplanet1.jpg","images/alien2","images/alien1","images/rocket2","images/alien1","images/t.png","2","real","true","1","common","1","2022-07-29 03:37:53.272"
"two-step-fixation","179","595168","0.0-76.0-2.14","1980","2421","14","Male","true","false","true","true","""event"",""trial"",""time""
""fullscreenenter"",""5"",""10573""
","
","
","""event"",""trial"",""time""
""fullscreenenter"",""5"",""10573""
","
","","images/earth.jpg","","","","","","","","","","","","","","fixation","","","","","",""
"d3-animate-choice","180","597586","0.0-76.0-0.15","1980","2421","14","Male","true","false","true","true","""event"",""trial"",""time""
""fullscreenenter"",""5"",""10573""
","
","
","""event"",""trial"",""time""
""fullscreenenter"",""5"",""10573""
","
","413.5","","49","","","3000","1","","","images/earth.jpg","images/rocket2","images/rocket1","null","images/rocket1","","1","real","null","1","","",""
"d3-animate-choice","181","600272","0.0-76.0-1.15","1980","2421","14","Male","true","false","true","true","""event"",""trial"",""time""
""fullscreenenter"",""5"",""10573""
","
","
","""event"",""trial"",""time""
""fullscreenenter"",""5"",""10573""
","
","682.3999999999069","","49","","","3000","1","","","images/redplanet1.jpg","images/alien2","images/alien1","images/rocket1","images/alien1","images/nothing.png","2","real","false","1","rare","0","2022-07-29 03:37:59.379"
"two-step-fixation","182","601276","0.0-76.0-2.15","1980","2421","14","Male","true","false","true","true","""event"",""trial"",""time""
""fullscreenenter"",""5"",""10573""
","
","
","""event"",""trial"",""time""
""fullscreenenter"",""5"",""10573""
","
","","images/earth.jpg","","","","","","","","","","","","","","fixation","","","","","",""
"d3-animate-choice","183","603755","0.0-76.0-0.16","1980","2421","14","Male","true","false","true","true","""event"",""trial"",""time""
""fullscreenenter"",""5"",""10573""
","
","
","""event"",""trial"",""time""
""fullscreenenter"",""5"",""10573""
","
","475.30000000004657","","49","","","3000","1","","","images/earth.jpg","images/rocket2","images/rocket1","null","images/rocket1","","1","real","null","1","","",""
"d3-animate-choice","184","606212","0.0-76.0-1.16","1980","2421","14","Male","true","false","true","true","""event"",""trial"",""time""
""fullscreenenter"",""5"",""10573""
","
","
","""event"",""trial"",""time""
""fullscreenenter"",""5"",""10573""
","
","453.80000000004657","","49","","","3000","1","","","images/redplanet1.jpg","images/alien2","images/alien1","images/rocket1","images/alien1","images/t.png","2","real","false","1","rare","1","2022-07-29 03:38:05.319"
"two-step-fixation","185","607215","0.0-76.0-2.16","1980","2421","14","Male","true","false","true","true","""event"",""trial"",""time""
""fullscreenenter"",""5"",""10573""
","
","
","""event"",""trial"",""time""
""fullscreenenter"",""5"",""10573""
","
","","images/earth.jpg","","","","","","","","","","","","","","fixation","","","","","",""
"d3-animate-choice","186","609694","0.0-76.0-0.17","1980","2421","14","Male","true","false","true","true","""event"",""trial"",""time""
""fullscreenenter"",""5"",""10573""
","
","
","""event"",""trial"",""time""
""fullscreenenter"",""5"",""10573""
","
","475.79999999981374","","49","","","3000","1","1138.0999999998603","48","images/earth.jpg","images/rocket2","images/rocket1","null","images/rocket1","","1","real","null","1","","",""
"d3-animate-choice","187","613019","0.0-76.0-1.17","1980","2421","14","Male","true","false","true","true","""event"",""trial"",""time""
""fullscreenenter"",""5"",""10573""
","
","
","""event"",""trial"",""time""
""fullscreenenter"",""5"",""10573""
","
","1321.3999999999069","","49","","","3000","1","","","images/purpleplanet.jpg","images/alien4","images/alien3","images/rocket1","images/alien3","images/nothing.png","2","real","true","1","common","0","2022-07-29 03:38:12.126"
"two-step-fixation","188","614024","0.0-76.0-2.17","1980","2421","14","Male","true","false","true","true","""event"",""trial"",""time""
""fullscreenenter"",""5"",""10573""
","
","
","""event"",""trial"",""time""
""fullscreenenter"",""5"",""10573""
","
","","images/earth.jpg","","","","","","","","","","","","","","fixation","","","","","",""
"d3-animate-choice","189","616590","0.0-76.0-0.18","1980","2421","14","Male","true","false","true","true","""event"",""trial"",""time""
""fullscreenenter"",""5"",""10573""
","
","
","""event"",""trial"",""time""
""fullscreenenter"",""5"",""10573""
","
","562.3000000000466","","49","","","3000","1","","","images/earth.jpg","images/rocket2","images/rocket1","null","images/rocket1","","1","real","null","1","","",""
"d3-animate-choice","190","619021","0.0-76.0-1.18","1980","2421","14","Male","true","false","true","true","""event"",""trial"",""time""
""fullscreenenter"",""5"",""10573""
","
","
","""event"",""trial"",""time""
""fullscreenenter"",""5"",""10573""
","
","427.5","","48","","","3000","1","","","images/purpleplanet.jpg","images/alien4","images/alien3","images/rocket1","images/alien4","images/nothing.png","2","real","true","2","common","0","2022-07-29 03:38:18.128"
"two-step-fixation","191","620025","0.0-76.0-2.18","1980","2421","14","Male","true","false","true","true","""event"",""trial"",""time""
""fullscreenenter"",""5"",""10573""
","
","
","""event"",""trial"",""time""
""fullscreenenter"",""5"",""10573""
","
","","images/earth.jpg","","","","","","","","","","","","","","fixation","","","","","",""
"d3-animate-choice","192","622329","0.0-76.0-0.19","1980","2421","14","Male","true","false","true","true","""event"",""trial"",""time""
""fullscreenenter"",""5"",""10573""
","
","
","""event"",""trial"",""time""
""fullscreenenter"",""5"",""10573""
","
","300.89999999990687","","48","","","3000","1","","","images/earth.jpg","images/rocket2","images/rocket1","null","images/rocket2","","1","real","null","2","","",""
"d3-animate-choice","193","625082","0.0-76.0-1.19","1980","2421","14","Male","true","false","true","true","""event"",""trial"",""time""
""fullscreenenter"",""5"",""10573""
","
","
","""event"",""trial"",""time""
""fullscreenenter"",""5"",""10573""
","
","748.2999999998137","","48","","","3000","1","","","images/purpleplanet.jpg","images/alien4","images/alien3","images/rocket2","images/alien4","images/t.png","2","real","false","2","rare","1","2022-07-29 03:38:24.189"
"two-step-fixation","194","626087","0.0-76.0-2.19","1980","2421","14","Male","true","false","true","true","""event"",""trial"",""time""
""fullscreenenter"",""5"",""10573""
","
","
","""event"",""trial"",""time""
""fullscreenenter"",""5"",""10573""
","
","","images/earth.jpg","","","","","","","","","","","","","","fixation","","","","","",""
"d3-animate-choice","195","628653","0.0-76.0-0.20","1980","2421","14","Male","true","false","true","true","""event"",""trial"",""time""
""fullscreenenter"",""5"",""10573""
","
","
","""event"",""trial"",""time""
""fullscreenenter"",""5"",""10573""
","
","561.4000000001397","","48","","","3000","1","","","images/earth.jpg","images/rocket2","images/rocket1","null","images/rocket2","","1","real","null","2","","",""
"d3-animate-choice","196","631288","0.0-76.0-1.20","1980","2421","14","Male","true","false","true","true","""event"",""trial"",""time""
""fullscreenenter"",""5"",""10573""
","
","
","""event"",""trial"",""time""
""fullscreenenter"",""5"",""10573""
","
","631.5","","49","","","3000","1","","","images/redplanet1.jpg","images/alien2","images/alien1","images/rocket2","images/alien1","images/nothing.png","2","real","true","1","common","0","2022-07-29 03:38:30.395"
"two-step-fixation","197","632291","0.0-76.0-2.20","1980","2421","14","Male","true","false","true","true","""event"",""trial"",""time""
""fullscreenenter"",""5"",""10573""
","
","
","""event"",""trial"",""time""
""fullscreenenter"",""5"",""10573""
","
","","images/earth.jpg","","","","","","","","","","","","","","fixation","","","","","",""
"d3-animate-choice","198","634632","0.0-76.0-0.21","1980","2421","14","Male","true","false","true","true","""event"",""trial"",""time""
""fullscreenenter"",""5"",""10573""
","
","
","""event"",""trial"",""time""
""fullscreenenter"",""5"",""10573""
","
","337.80000000004657","","48","","","3000","1","","","images/earth.jpg","images/rocket2","images/rocket1","null","images/rocket2","","1","real","null","2","","",""
"d3-animate-choice","199","637279","0.0-76.0-1.21","1980","2421","14","Male","true","false","true","true","""event"",""trial"",""time""
""fullscreenenter"",""5"",""10573""
","
","
","""event"",""trial"",""time""
""fullscreenenter"",""5"",""10573""
","
","644.0999999998603","","49","","","3000","1","","","images/purpleplanet.jpg","images/alien4","images/alien3","images/rocket2","images/alien3","images/nothing.png","2","real","false","1","rare","0","2022-07-29 03:38:36.386"
"two-step-fixation","200","638282","0.0-76.0-2.21","1980","2421","14","Male","true","false","true","true","""event"",""trial"",""time""
""fullscreenenter"",""5"",""10573""
","
","
","""event"",""trial"",""time""
""fullscreenenter"",""5"",""10573""
","
","","images/earth.jpg","","","","","","","","","","","","","","fixation","","","","","",""
"d3-animate-choice","201","640721","0.0-76.0-0.22","1980","2421","14","Male","true","false","true","true","""event"",""trial"",""time""
""fullscreenenter"",""5"",""10573""
","
","
","""event"",""trial"",""time""
""fullscreenenter"",""5"",""10573""
","
","436.30000000004657","","49","","","3000","1","","","images/earth.jpg","images/rocket2","images/rocket1","null","images/rocket1","","1","real","null","1","","",""
"d3-animate-choice","202","643420","0.0-76.0-1.22","1980","2421","14","Male","true","false","true","true","""event"",""trial"",""time""
""fullscreenenter"",""5"",""10573""
","
","
","""event"",""trial"",""time""
""fullscreenenter"",""5"",""10573""
","
","696.6999999999534","","49","","","3000","1","","","images/redplanet1.jpg","images/alien2","images/alien1","images/rocket1","images/alien1","images/nothing.png","2","real","false","1","rare","0","2022-07-29 03:38:42.527"
"two-step-fixation","203","644425","0.0-76.0-2.22","1980","2421","14","Male","true","false","true","true","""event"",""trial"",""time""
""fullscreenenter"",""5"",""10573""
","
","
","""event"",""trial"",""time""
""fullscreenenter"",""5"",""10573""
","
","","images/earth.jpg","","","","","","","","","","","","","","fixation","","","","","",""
"d3-animate-choice","204","646744","0.0-76.0-0.23","1980","2421","14","Male","true","false","true","true","""event"",""trial"",""time""
""fullscreenenter"",""5"",""10573""
","
","
","""event"",""trial"",""time""
""fullscreenenter"",""5"",""10573""
","
","315.69999999995343","","48","","","3000","1","","","images/earth.jpg","images/rocket2","images/rocket1","null","images/rocket2","","1","real","null","2","","",""
"d3-animate-choice","205","649102","0.0-76.0-1.23","1980","2421","14","Male","true","false","true","true","""event"",""trial"",""time""
""fullscreenenter"",""5"",""10573""
","
","
","""event"",""trial"",""time""
""fullscreenenter"",""5"",""10573""
","
","355.30000000004657","","48","","","3000","1","","","images/purpleplanet.jpg","images/alien4","images/alien3","images/rocket2","images/alien4","images/nothing.png","2","real","false","2","rare","0","2022-07-29 03:38:48.209"
"two-step-fixation","206","650105","0.0-76.0-2.23","1980","2421","14","Male","true","false","true","true","""event"",""trial"",""time""
""fullscreenenter"",""5"",""10573""
","
","
","""event"",""trial"",""time""
""fullscreenenter"",""5"",""10573""
","
","","images/earth.jpg","","","","","","","","","","","","","","fixation","","","","","",""
"d3-animate-choice","207","652405","0.0-76.0-0.24","1980","2421","14","Male","true","false","true","true","""event"",""trial"",""time""
""fullscreenenter"",""5"",""10573""
","
","
","""event"",""trial"",""time""
""fullscreenenter"",""5"",""10573""
","
","296.30000000004657","","48","","","3000","1","","","images/earth.jpg","images/rocket2","images/rocket1","null","images/rocket2","","1","real","null","2","","",""
"d3-animate-choice","208","655151","0.0-76.0-1.24","1980","2421","14","Male","true","false","true","true","""event"",""trial"",""time""
""fullscreenenter"",""5"",""10573""
","
","
","""event"",""trial"",""time""
""fullscreenenter"",""5"",""10573""
","
","743.4000000001397","","48","","","3000","1","","","images/purpleplanet.jpg","images/alien4","images/alien3","images/rocket2","images/alien4","images/t.png","2","real","false","2","rare","1","2022-07-29 03:38:54.258"
"two-step-fixation","209","656154","0.0-76.0-2.24","1980","2421","14","Male","true","false","true","true","""event"",""trial"",""time""
""fullscreenenter"",""5"",""10573""
","
","
","""event"",""trial"",""time""
""fullscreenenter"",""5"",""10573""
","
","","images/earth.jpg","","","","","","","","","","","","","","fixation","","","","","",""
"d3-animate-choice","210","658635","0.0-76.0-0.25","1980","2421","14","Male","true","false","true","true","""event"",""trial"",""time""
""fullscreenenter"",""5"",""10573""
","
","
","""event"",""trial"",""time""
""fullscreenenter"",""5"",""10573""
","
","476.60000000009313","","48","","","3000","1","","","images/earth.jpg","images/rocket2","images/rocket1","null","images/rocket2","","1","real","null","2","","",""
"d3-animate-choice","211","661024","0.0-76.0-1.25","1980","2421","14","Male","true","false","true","true","""event"",""trial"",""time""
""fullscreenenter"",""5"",""10573""
","
","
","""event"",""trial"",""time""
""fullscreenenter"",""5"",""10573""
","
","385.5999999998603","","49","","","3000","1","","","images/redplanet1.jpg","images/alien2","images/alien1","images/rocket2","images/alien1","images/t.png","2","real","true","1","common","1","2022-07-29 03:39:00.131"
"two-step-fixation","212","662029","0.0-76.0-2.25","1980","2421","14","Male","true","false","true","true","""event"",""trial"",""time""
""fullscreenenter"",""5"",""10573""
","
","
","""event"",""trial"",""time""
""fullscreenenter"",""5"",""10573""
","
","","images/earth.jpg","","","","","","","","","","","","","","fixation","","","","","",""
"d3-animate-choice","213","664374","0.0-76.0-0.26","1980","2421","14","Male","true","false","true","true","""event"",""trial"",""time""
""fullscreenenter"",""5"",""10573""
","
","
","""event"",""trial"",""time""
""fullscreenenter"",""5"",""10573""
","
","342.30000000004657","","48","","","3000","1","","","images/earth.jpg","images/rocket2","images/rocket1","null","images/rocket2","","1","real","null","2","","",""
"d3-animate-choice","214","666954","0.0-76.0-1.26","1980","2421","14","Male","true","false","true","true","""event"",""trial"",""time""
""fullscreenenter"",""5"",""10573""
","
","
","""event"",""trial"",""time""
""fullscreenenter"",""5"",""10573""
","
","577.1999999999534","","48","","","3000","1","","","images/purpleplanet.jpg","images/alien4","images/alien3","images/rocket2","images/alien4","images/nothing.png","2","real","false","2","rare","0","2022-07-29 03:39:06.061"
"two-step-fixation","215","667957","0.0-76.0-2.26","1980","2421","14","Male","true","false","true","true","""event"",""trial"",""time""
""fullscreenenter"",""5"",""10573""
","
","
","""event"",""trial"",""time""
""fullscreenenter"",""5"",""10573""
","
","","images/earth.jpg","","","","","","","","","","","","","","fixation","","","","","",""
"d3-animate-choice","216","670400","0.0-76.0-0.27","1980","2421","14","Male","true","false","true","true","""event"",""trial"",""time""
""fullscreenenter"",""5"",""10573""
","
","
","""event"",""trial"",""time""
""fullscreenenter"",""5"",""10573""
","
","438.19999999995343","","48","","","3000","1","","","images/earth.jpg","images/rocket2","images/rocket1","null","images/rocket2","","1","real","null","2","","",""
"d3-animate-choice","217","673379","0.0-76.0-1.27","1980","2421","14","Male","true","false","true","true","""event"",""trial"",""time""
""fullscreenenter"",""5"",""10573""
","
","
","""event"",""trial"",""time""
""fullscreenenter"",""5"",""10573""
","
","974.4000000001397","","49","","","3000","1","","","images/redplanet1.jpg","images/alien2","images/alien1","images/rocket2","images/alien1","images/nothing.png","2","real","true","1","common","0","2022-07-29 03:39:12.487"
"two-step-fixation","218","674384","0.0-76.0-2.27","1980","2421","14","Male","true","false","true","true","""event"",""trial"",""time""
""fullscreenenter"",""5"",""10573""
","
","
","""event"",""trial"",""time""
""fullscreenenter"",""5"",""10573""
","
","","images/earth.jpg","","","","","","","","","","","","","","fixation","","","","","",""
"d3-animate-choice","219","676743","0.0-76.0-0.28","1980","2421","14","Male","true","false","true","true","""event"",""trial"",""time""
""fullscreenenter"",""5"",""10573""
","
","
","""event"",""trial"",""time""
""fullscreenenter"",""5"",""10573""
","
","354.5","","48","","","3000","1","","","images/earth.jpg","images/rocket2","images/rocket1","null","images/rocket2","","1","real","null","2","","",""
"d3-animate-choice","220","679855","0.0-76.0-1.28","1980","2421","14","Male","true","false","true","true","""event"",""trial"",""time""
""fullscreenenter"",""5"",""10573""
","
","
","""event"",""trial"",""time""
""fullscreenenter"",""5"",""10573""
","
","649.7999999998137","","50","","","3000","1","1109.5","48","images/redplanet1.jpg","images/alien2","images/alien1","images/rocket2","images/alien2","images/t.png","2","real","true","","common","1","2022-07-29 03:39:18.962"
"two-step-fixation","221","680858","0.0-76.0-2.28","1980","2421","14","Male","true","false","true","true","""event"",""trial"",""time""
""fullscreenenter"",""5"",""10573""
","
","
","""event"",""trial"",""time""
""fullscreenenter"",""5"",""10573""
","
","","images/earth.jpg","","","","","","","","","","","","","","fixation","","","","","",""
"d3-animate-choice","222","683585","0.0-76.0-0.29","1980","2421","14","Male","true","false","true","true","""event"",""trial"",""time""
""fullscreenenter"",""5"",""10573""
","
","
","""event"",""trial"",""time""
""fullscreenenter"",""5"",""10573""
","
","724.7000000001863","","49","","","3000","1","","","images/earth.jpg","images/rocket2","images/rocket1","null","images/rocket1","","1","real","null","1","","",""
"d3-animate-choice","223","686206","0.0-76.0-1.29","1980","2421","14","Male","true","false","true","true","""event"",""trial"",""time""
""fullscreenenter"",""5"",""10573""
","
","
","""event"",""trial"",""time""
""fullscreenenter"",""5"",""10573""
","
","617.8999999999069","","48","","","3000","1","","","images/redplanet1.jpg","images/alien2","images/alien1","images/rocket1","images/alien2","images/t.png","2","real","false","2","rare","1","2022-07-29 03:39:25.313"
"two-step-fixation","224","687210","0.0-76.0-2.29","1980","2421","14","Male","true","false","true","true","""event"",""trial"",""time""
""fullscreenenter"",""5"",""10573""
","
","
","""event"",""trial"",""time""
""fullscreenenter"",""5"",""10573""
","
","","images/earth.jpg","","","","","","","","","","","","","","fixation","","","","","",""
"d3-animate-choice","225","689667","0.0-76.0-0.30","1980","2421","14","Male","true","false","true","true","""event"",""trial"",""time""
""fullscreenenter"",""5"",""10573""
","
","
","""event"",""trial"",""time""
""fullscreenenter"",""5"",""10573""
","
","454.39999999990687","","48","","","3000","1","","","images/earth.jpg","images/rocket2","images/rocket1","null","images/rocket2","","1","real","null","2","","",""
"d3-animate-choice","226","692117","0.0-76.0-1.30","1980","2421","14","Male","true","false","true","true","""event"",""trial"",""time""
""fullscreenenter"",""5"",""10573""
","
","
","""event"",""trial"",""time""
""fullscreenenter"",""5"",""10573""
","
","447.60000000009313","","48","","","3000","1","","","images/redplanet1.jpg","images/alien2","images/alien1","images/rocket2","images/alien2","images/t.png","2","real","true","2","common","1","2022-07-29 03:39:31.224"
"two-step-fixation","227","693120","0.0-76.0-2.30","1980","2421","14","Male","true","false","true","true","""event"",""trial"",""time""
""fullscreenenter"",""5"",""10573""
","
","
","""event"",""trial"",""time""
""fullscreenenter"",""5"",""10573""
","
","","images/earth.jpg","","","","","","","","","","","","","","fixation","","","","","",""
"d3-animate-choice","228","695433","0.0-76.0-0.31","1980","2421","14","Male","true","false","true","true","""event"",""trial"",""time""
""fullscreenenter"",""5"",""10573""
","
","
","""event"",""trial"",""time""
""fullscreenenter"",""5"",""10573""
","
","310.30000000004657","","48","","","3000","1","","","images/earth.jpg","images/rocket2","images/rocket1","null","images/rocket2","","1","real","null","2","","",""
"d3-animate-choice","229","697983","0.0-76.0-1.31","1980","2421","14","Male","true","false","true","true","""event"",""trial"",""time""
""fullscreenenter"",""5"",""10573""
","
","
","""event"",""trial"",""time""
""fullscreenenter"",""5"",""10573""
","
","547.8000000000466","","48","","","3000","1","","","images/redplanet1.jpg","images/alien2","images/alien1","images/rocket2","images/alien2","images/t.png","2","real","true","2","common","1","2022-07-29 03:39:37.090"
"two-step-fixation","230","698986","0.0-76.0-2.31","1980","2421","14","Male","true","false","true","true","""event"",""trial"",""time""
""fullscreenenter"",""5"",""10573""
","
","
","""event"",""trial"",""time""
""fullscreenenter"",""5"",""10573""
","
","","images/earth.jpg","","","","","","","","","","","","","","fixation","","","","","",""
"d3-animate-choice","231","701372","0.0-76.0-0.32","1980","2421","14","Male","true","false","true","true","""event"",""trial"",""time""
""fullscreenenter"",""5"",""10573""
","
","
","""event"",""trial"",""time""
""fullscreenenter"",""5"",""10573""
","
","383.30000000004657","","48","","","3000","1","","","images/earth.jpg","images/rocket2","images/rocket1","null","images/rocket2","","1","real","null","2","","",""
"d3-animate-choice","232","703908","0.0-76.0-1.32","1980","2421","14","Male","true","false","true","true","""event"",""trial"",""time""
""fullscreenenter"",""5"",""10573""
","
","
","""event"",""trial"",""time""
""fullscreenenter"",""5"",""10573""
","
","532.9000000001397","","48","","","3000","1","","","images/redplanet1.jpg","images/alien2","images/alien1","images/rocket2","images/alien2","images/t.png","2","real","true","2","common","1","2022-07-29 03:39:43.015"
"two-step-fixation","233","704912","0.0-76.0-2.32","1980","2421","14","Male","true","false","true","true","""event"",""trial"",""time""
""fullscreenenter"",""5"",""10573""
","
","
","""event"",""trial"",""time""
""fullscreenenter"",""5"",""10573""
","
","","images/earth.jpg","","","","","","","","","","","","","","fixation","","","","","",""
"d3-animate-choice","234","707203","0.0-76.0-0.33","1980","2421","14","Male","true","false","true","true","""event"",""trial"",""time""
""fullscreenenter"",""5"",""10573""
","
","
","""event"",""trial"",""time""
""fullscreenenter"",""5"",""10573""
","
","287.5","","48","","","3000","1","","","images/earth.jpg","images/rocket2","images/rocket1","null","images/rocket2","","1","real","null","2","","",""
"d3-animate-choice","235","709510","0.0-76.0-1.33","1980","2421","14","Male","true","false","true","true","""event"",""trial"",""time""
""fullscreenenter"",""5"",""10573""
","
","
","""event"",""trial"",""time""
""fullscreenenter"",""5"",""10573""
","
","303.4000000001397","","48","","","3000","1","","","images/purpleplanet.jpg","images/alien4","images/alien3","images/rocket2","images/alien4","images/nothing.png","2","real","false","2","rare","0","2022-07-29 03:39:48.617"
"two-step-fixation","236","710514","0.0-76.0-2.33","1980","2421","14","Male","true","false","true","true","""event"",""trial"",""time""
""fullscreenenter"",""5"",""10573""
","
","
","""event"",""trial"",""time""
""fullscreenenter"",""5"",""10573""
","
","","images/earth.jpg","","","","","","","","","","","","","","fixation","","","","","",""
"d3-animate-choice","237","712854","0.0-76.0-0.34","1980","2421","14","Male","true","false","true","true","""event"",""trial"",""time""
""fullscreenenter"",""5"",""10573""
","
","
","""event"",""trial"",""time""
""fullscreenenter"",""5"",""10573""
","
","334.19999999995343","","49","","","3000","1","","","images/earth.jpg","images/rocket2","images/rocket1","null","images/rocket1","","1","real","null","1","","",""
"d3-animate-choice","238","715313","0.0-76.0-1.34","1980","2421","14","Male","true","false","true","true","""event"",""trial"",""time""
""fullscreenenter"",""5"",""10573""
","
","
","""event"",""trial"",""time""
""fullscreenenter"",""5"",""10573""
","
","453.5999999998603","","49","","","3000","1","","","images/purpleplanet.jpg","images/alien4","images/alien3","images/rocket1","images/alien3","images/t.png","2","real","true","1","common","1","2022-07-29 03:39:54.420"
"two-step-fixation","239","716315","0.0-76.0-2.34","1980","2421","14","Male","true","false","true","true","""event"",""trial"",""time""
""fullscreenenter"",""5"",""10573""
","
","
","""event"",""trial"",""time""
""fullscreenenter"",""5"",""10573""
","
","","images/earth.jpg","","","","","","","","","","","","","","fixation","","","","","",""
"d3-animate-choice","240","718525","0.0-76.0-0.35","1980","2421","14","Male","true","false","true","true","""event"",""trial"",""time""
""fullscreenenter"",""5"",""10573""
","
","
","""event"",""trial"",""time""
""fullscreenenter"",""5"",""10573""
","
","207.70000000018626","","48","","","3000","1","","","images/earth.jpg","images/rocket2","images/rocket1","null","images/rocket2","","1","real","null","2","","",""
"d3-animate-choice","241","721159","0.0-76.0-1.35","1980","2421","14","Male","true","false","true","true","""event"",""trial"",""time""
""fullscreenenter"",""5"",""10573""
","
","
","""event"",""trial"",""time""
""fullscreenenter"",""5"",""10573""
","
","628.4000000001397","","48","","","3000","1","933.6000000000931","49","images/purpleplanet.jpg","images/alien4","images/alien3","images/rocket2","images/alien4","images/t.png","2","real","false","2","rare","1","2022-07-29 03:40:00.266"
"two-step-fixation","242","722161","0.0-76.0-2.35","1980","2421","14","Male","true","false","true","true","""event"",""trial"",""time""
""fullscreenenter"",""5"",""10573""
","
","
","""event"",""trial"",""time""
""fullscreenenter"",""5"",""10573""
","
","","images/earth.jpg","","","","","","","","","","","","","","fixation","","","","","",""
"d3-animate-choice","243","724525","0.0-76.0-0.36","1980","2421","14","Male","true","false","true","true","""event"",""trial"",""time""
""fullscreenenter"",""5"",""10573""
","
","
","""event"",""trial"",""time""
""fullscreenenter"",""5"",""10573""
","
","358.19999999995343","","49","","","3000","1","","","images/earth.jpg","images/rocket2","images/rocket1","null","images/rocket1","","1","real","null","1","","",""
"d3-animate-choice","244","727207","0.0-76.0-1.36","1980","2421","14","Male","true","false","true","true","""event"",""trial"",""time""
""fullscreenenter"",""5"",""10573""
","
","
","""event"",""trial"",""time""
""fullscreenenter"",""5"",""10573""
","
","678","","49","","","3000","1","","","images/redplanet1.jpg","images/alien2","images/alien1","images/rocket1","images/alien1","images/t.png","2","real","false","1","rare","1","2022-07-29 03:40:06.314"
"two-step-fixation","245","728210","0.0-76.0-2.36","1980","2421","14","Male","true","false","true","true","""event"",""trial"",""time""
""fullscreenenter"",""5"",""10573""
","
","
","""event"",""trial"",""time""
""fullscreenenter"",""5"",""10573""
","
","","images/earth.jpg","","","","","","","","","","","","","","fixation","","","","","",""
"d3-animate-choice","246","730624","0.0-76.0-0.37","1980","2421","14","Male","true","false","true","true","""event"",""trial"",""time""
""fullscreenenter"",""5"",""10573""
","
","
","""event"",""trial"",""time""
""fullscreenenter"",""5"",""10573""
","
","409.79999999981374","","48","","","3000","1","","","images/earth.jpg","images/rocket2","images/rocket1","null","images/rocket2","","1","real","null","2","","",""
