"trial_type","trial_index","time_elapsed","internal_node_id","participant_id","subject_id","age","gender","rocket_sides","red_planet_first_rocket","red_display_order","purple_display_order","interactions","blur_events","focus_events","fullscreenenter_events","fullscreenexit_events","rt","stimulus","key_press","button_pressed","success","duration","valid_pressed","rts","keys","planet_text","right_text","left_text","center_text","chosen_text","reward_text","trial_stage","practice_trial","transition_type","choice","transition","reward","timestamp"
"pavlovia","0","6","0.0-0.0","1462","4963","10","Male","true","false","false","false","
","
","
","
","
","","","","","","","","","","","","","","","","","","","","","",""
"html-keyboard-response","1","1689","0.0-1.0","1462","4963","10","Male","true","false","false","false","
","
","
","
","
","1681.1000000014901","Welcome! Press the space bar to begin.","32","","","","","","","","","","","","","","","","","","",""
"audio-keyboard-response","2","3234","0.0-2.0","1462","4963","10","Male","true","false","false","false","
","
","
","
","
","1539","audio/beep_loop.wav","32","","","","","","","","","","","","","","","","","","",""
"audio-button-response","3","5557","0.0-3.0","1462","4963","10","Male","true","false","false","false","
","
","
","
","
","NaN","audio/fish.mp3","","1","","","","","","","","","","","","","","","","","",""
"audio-button-response","4","8760","0.0-4.0","1462","4963","10","Male","true","false","false","false","""event"",""trial"",""time""
""fullscreenenter"",""5"",""11739""
","
","
","""event"",""trial"",""time""
""fullscreenenter"",""5"",""11739""
","
","NaN","audio/tiger.mp3","","4","","","","","","","","","","","","","","","","","",""
"fullscreen","5","12692","0.0-5.0","1462","4963","10","Male","true","false","false","false","""event"",""trial"",""time""
""fullscreenenter"",""5"",""11739""
","
","
","""event"",""trial"",""time""
""fullscreenenter"",""5"",""11739""
","
","","","","","true","","","","","","","","","","","","","","","","",""
"d3-instructions","6","17327","0.0-6.0","1462","4963","10","Male","true","false","false","false","""event"",""trial"",""time""
""fullscreenenter"",""5"",""11739""
","
","
","""event"",""trial"",""time""
""fullscreenenter"",""5"",""11739""
","
","","","","","","","","","","","","","","","","","","","","","",""
"d3-instructions","7","24210","0.0-7.0","1462","4963","10","Male","true","false","false","false","""event"",""trial"",""time""
""fullscreenenter"",""5"",""11739""
","
","
","""event"",""trial"",""time""
""fullscreenenter"",""5"",""11739""
","
","","","","","","","","","","","","","","","","","","","","","",""
"d3-instructions","8","28494","0.0-8.0","1462","4963","10","Male","true","false","false","false","""event"",""trial"",""time""
""fullscreenenter"",""5"",""11739""
","
","
","""event"",""trial"",""time""
""fullscreenenter"",""5"",""11739""
","
","","","","","","","","","","","","","","","","","","","","","",""
"d3-instructions","9","38463","0.0-9.0","1462","4963","10","Male","true","false","false","false","""event"",""trial"",""time""
""fullscreenenter"",""5"",""11739""
","
","
","""event"",""trial"",""time""
""fullscreenenter"",""5"",""11739""
","
","","","","","","","","","","","","","","","","","","","","","",""
"d3-instructions","10","51067","0.0-10.0","1462","4963","10","Male","true","false","false","false","""event"",""trial"",""time""
""fullscreenenter"",""5"",""11739""
","
","
","""event"",""trial"",""time""
""fullscreenenter"",""5"",""11739""
","
","","","","","","","","","","","","","","","","","","","","","",""
"d3-animate-choice","11","56664","0.0-11.0","1462","4963","10","Male","true","false","false","false","""event"",""trial"",""time""
""fullscreenenter"",""5"",""11739""
","
","
","""event"",""trial"",""time""
""fullscreenenter"",""5"",""11739""
","
","3562.2999999970198","","49","","","3000","1","","","images/tutgreenplanet.jpg","images/tutalien1","images/tutalien2","null","images/tutalien2","","NA","practice","null","","","",""
"d3-animate-choice","12","59455","0.0-12.0","1462","4963","10","Male","true","false","false","false","""event"",""trial"",""time""
""fullscreenenter"",""5"",""11739""
","
","
","""event"",""trial"",""time""
""fullscreenenter"",""5"",""11739""
","
","776.9000000022352","","48","","","3000","1","","","images/tutgreenplanet.jpg","images/tutalien1","images/tutalien2","null","images/tutalien1","","NA","practice","null","","","",""
"d3-animate-choice","13","61734","0.0-13.0","1462","4963","10","Male","true","false","false","false","""event"",""trial"",""time""
""fullscreenenter"",""5"",""11739""
","
","
","""event"",""trial"",""time""
""fullscreenenter"",""5"",""11739""
","
","265.9000000022352","","49","","","3000","1","2237.2000000029802","48","images/tutgreenplanet.jpg","images/tutalien1","images/tutalien2","null","images/tutalien2","","NA","practice","null","","","",""
"d3-animate-choice","14","64665","0.0-14.0","1462","4963","10","Male","true","false","false","false","""event"",""trial"",""time""
""fullscreenenter"",""5"",""11739""
","
","
","""event"",""trial"",""time""
""fullscreenenter"",""5"",""11739""
","
","912.0999999977648","","48","","","3000","1","","","images/tutgreenplanet.jpg","images/tutalien1","images/tutalien2","null","images/tutalien1","","NA","practice","null","","","",""
"d3-instructions","15","68838","0.0-15.0","1462","4963","10","Male","true","false","false","false","""event"",""trial"",""time""
""fullscreenenter"",""5"",""11739""
","
","
","""event"",""trial"",""time""
""fullscreenenter"",""5"",""11739""
","
","","","","","","","","","","","","","","","","","","","","","",""
"d3-instructions","16","74453","0.0-16.0","1462","4963","10","Male","true","false","false","false","""event"",""trial"",""time""
""fullscreenenter"",""5"",""11739""
","
","
","""event"",""trial"",""time""
""fullscreenenter"",""5"",""11739""
","
","","","","","","","","","","","","","","","","","","","","","",""
"d3-instructions","17","81541","0.0-17.0","1462","4963","10","Male","true","false","false","false","""event"",""trial"",""time""
""fullscreenenter"",""5"",""11739""
","
","
","""event"",""trial"",""time""
""fullscreenenter"",""5"",""11739""
","
","","","","","","","","","","","","","","","","","","","","","",""
"d3-instructions","18","91870","0.0-18.0","1462","4963","10","Male","true","false","false","false","""event"",""trial"",""time""
""fullscreenenter"",""5"",""11739""
","
","
","""event"",""trial"",""time""
""fullscreenenter"",""5"",""11739""
","
","","","","","","","","","","","","","","","","","","","","","",""
"d3-instructions","19","105118","0.0-19.0","1462","4963","10","Male","true","false","false","false","""event"",""trial"",""time""
""fullscreenenter"",""5"",""11739""
","
","
","""event"",""trial"",""time""
""fullscreenenter"",""5"",""11739""
","
","","","","","","","","","","","","","","","","","","","","","",""
"d3-animate-choice","20","108582","0.0-20.0","1462","4963","10","Male","true","false","false","false","""event"",""trial"",""time""
""fullscreenenter"",""5"",""11739""
","
","
","""event"",""trial"",""time""
""fullscreenenter"",""5"",""11739""
","
","1431.8999999985099","","49","","","3000","1","2911.10000000149","49","images/tutyellowplanet.jpg","null","images/tutalien3","null","images/tutalien3","images/t.png","NA","practice","null","","","",""
"d3-animate-choice","21","110701","0.0-21.0","1462","4963","10","Male","true","false","false","false","""event"",""trial"",""time""
""fullscreenenter"",""5"",""11739""
","
","
","""event"",""trial"",""time""
""fullscreenenter"",""5"",""11739""
","
","89","","49","","","3000","1","","","images/tutyellowplanet.jpg","null","images/tutalien3","null","images/tutalien3","images/nothing.png","NA","practice","null","","","",""
"d3-animate-choice","22","113042","0.0-22.0","1462","4963","10","Male","true","false","false","false","""event"",""trial"",""time""
""fullscreenenter"",""5"",""11739""
","
","
","""event"",""trial"",""time""
""fullscreenenter"",""5"",""11739""
","
","312","","49","","","3000","1","","","images/tutyellowplanet.jpg","null","images/tutalien3","null","images/tutalien3","images/t.png","NA","practice","null","","","",""
"d3-animate-choice","23","115581","0.0-23.0","1462","4963","10","Male","true","false","false","false","""event"",""trial"",""time""
""fullscreenenter"",""5"",""11739""
","
","
","""event"",""trial"",""time""
""fullscreenenter"",""5"",""11739""
","
","524.8999999985099","","49","","","3000","1","","","images/tutyellowplanet.jpg","null","images/tutalien3","null","images/tutalien3","images/t.png","NA","practice","null","","","",""
"d3-animate-choice","24","118331","0.0-24.0","1462","4963","10","Male","true","false","false","false","""event"",""trial"",""time""
""fullscreenenter"",""5"",""11739""
","
","
","""event"",""trial"",""time""
""fullscreenenter"",""5"",""11739""
","
","735.3000000007451","","49","","","3000","1","","","images/tutyellowplanet.jpg","null","images/tutalien3","null","images/tutalien3","images/nothing.png","NA","practice","null","","","",""
"d3-animate-choice","25","120821","0.0-25.0","1462","4963","10","Male","true","false","false","false","""event"",""trial"",""time""
""fullscreenenter"",""5"",""11739""
","
","
","""event"",""trial"",""time""
""fullscreenenter"",""5"",""11739""
","
","469.80000000074506","","49","","","3000","1","","","images/tutyellowplanet.jpg","null","images/tutalien3","null","images/tutalien3","images/t.png","NA","practice","null","","","",""
"d3-animate-choice","26","123272","0.0-26.0","1462","4963","10","Male","true","false","false","false","""event"",""trial"",""time""
""fullscreenenter"",""5"",""11739""
","
","
","""event"",""trial"",""time""
""fullscreenenter"",""5"",""11739""
","
","430.5","","49","","","3000","1","","","images/tutyellowplanet.jpg","null","images/tutalien3","null","images/tutalien3","images/t.png","NA","practice","null","","","",""
"d3-animate-choice","27","125701","0.0-27.0","1462","4963","10","Male","true","false","false","false","""event"",""trial"",""time""
""fullscreenenter"",""5"",""11739""
","
","
","""event"",""trial"",""time""
""fullscreenenter"",""5"",""11739""
","
","421","","49","","","3000","1","","","images/tutyellowplanet.jpg","null","images/tutalien3","null","images/tutalien3","images/t.png","NA","practice","null","","","",""
"d3-animate-choice","28","128331","0.0-28.0","1462","4963","10","Male","true","false","false","false","""event"",""trial"",""time""
""fullscreenenter"",""5"",""11739""
","
","
","""event"",""trial"",""time""
""fullscreenenter"",""5"",""11739""
","
","604.1999999992549","","49","","","3000","1","","","images/tutyellowplanet.jpg","null","images/tutalien3","null","images/tutalien3","images/t.png","NA","practice","null","","","",""
"d3-animate-choice","29","130661","0.0-29.0","1462","4963","10","Male","true","false","false","false","""event"",""trial"",""time""
""fullscreenenter"",""5"",""11739""
","
","
","""event"",""trial"",""time""
""fullscreenenter"",""5"",""11739""
","
","310.3999999985099","","49","","","3000","1","","","images/tutyellowplanet.jpg","null","images/tutalien3","null","images/tutalien3","images/t.png","NA","practice","null","","","",""
"d3-instructions","30","139613","0.0-30.0","1462","4963","10","Male","true","false","false","false","""event"",""trial"",""time""
""fullscreenenter"",""5"",""11739""
","
","
","""event"",""trial"",""time""
""fullscreenenter"",""5"",""11739""
","
","","","","","","","","","","","","","","","","","","","","","",""
"d3-instructions","31","149507","0.0-31.0","1462","4963","10","Male","true","false","false","false","""event"",""trial"",""time""
""fullscreenenter"",""5"",""11739""
","
","
","""event"",""trial"",""time""
""fullscreenenter"",""5"",""11739""
","
","","","","","","","","","","","","","","","","","","","","","",""
"d3-instructions","32","158583","0.0-32.0","1462","4963","10","Male","true","false","false","false","""event"",""trial"",""time""
""fullscreenenter"",""5"",""11739""
","
","
","""event"",""trial"",""time""
""fullscreenenter"",""5"",""11739""
","
","","","","","","","","","","","","","","","","","","","","","",""
"d3-instructions","33","165023","0.0-33.0","1462","4963","10","Male","true","false","false","false","""event"",""trial"",""time""
""fullscreenenter"",""5"",""11739""
","
","
","""event"",""trial"",""time""
""fullscreenenter"",""5"",""11739""
","
","","","","","","","","","","","","","","","","","","","","","",""
"d3-animate-choice","34","168949","0.0-34.0","1462","4963","10","Male","true","false","false","false","""event"",""trial"",""time""
""fullscreenenter"",""5"",""11739""
","
","
","""event"",""trial"",""time""
""fullscreenenter"",""5"",""11739""
","
","1906.3999999985099","","49","","","3000","1","","","images/tutgreenplanet.jpg","images/tutalien1","images/tutalien2","null","images/tutalien2","images/t.png","NA","practice","null","","","",""
"d3-animate-choice","35","172098","0.0-35.0","1462","4963","10","Male","true","false","false","false","""event"",""trial"",""time""
""fullscreenenter"",""5"",""11739""
","
","
","""event"",""trial"",""time""
""fullscreenenter"",""5"",""11739""
","
","1134.6000000014901","","49","","","3000","1","","","images/tutgreenplanet.jpg","images/tutalien1","images/tutalien2","null","images/tutalien2","images/t.png","NA","practice","null","","","",""
"d3-animate-choice","36","174478","0.0-36.0","1462","4963","10","Male","true","false","false","false","""event"",""trial"",""time""
""fullscreenenter"",""5"",""11739""
","
","
","""event"",""trial"",""time""
""fullscreenenter"",""5"",""11739""
","
","360.20000000298023","","49","","","3000","1","1790.1000000014901","49","images/tutgreenplanet.jpg","images/tutalien1","images/tutalien2","null","images/tutalien2","images/t.png","NA","practice","null","","","",""
"d3-animate-choice","37","176788","0.0-37.0","1462","4963","10","Male","true","false","false","false","""event"",""trial"",""time""
""fullscreenenter"",""5"",""11739""
","
","
","""event"",""trial"",""time""
""fullscreenenter"",""5"",""11739""
","
","299.30000000074506","","49","","","3000","1","","","images/tutgreenplanet.jpg","images/tutalien1","images/tutalien2","null","images/tutalien2","images/t.png","NA","practice","null","","","",""
"d3-animate-choice","38","179169","0.0-38.0","1462","4963","10","Male","true","false","false","false","""event"",""trial"",""time""
""fullscreenenter"",""5"",""11739""
","
","
","""event"",""trial"",""time""
""fullscreenenter"",""5"",""11739""
","
","372.30000000074506","","49","","","3000","1","","","images/tutgreenplanet.jpg","images/tutalien1","images/tutalien2","null","images/tutalien2","images/t.png","NA","practice","null","","","",""
"d3-animate-choice","39","181487","0.0-39.0","1462","4963","10","Male","true","false","false","false","""event"",""trial"",""time""
""fullscreenenter"",""5"",""11739""
","
","
","""event"",""trial"",""time""
""fullscreenenter"",""5"",""11739""
","
","305.3999999985099","","49","","","3000","1","","","images/tutgreenplanet.jpg","images/tutalien1","images/tutalien2","null","images/tutalien2","images/t.png","NA","practice","null","","","",""
"d3-animate-choice","40","183780","0.0-40.0","1462","4963","10","Male","true","false","false","false","""event"",""trial"",""time""
""fullscreenenter"",""5"",""11739""
","
","
","""event"",""trial"",""time""
""fullscreenenter"",""5"",""11739""
","
","280.6000000014901","","49","","","3000","1","","","images/tutgreenplanet.jpg","images/tutalien1","images/tutalien2","null","images/tutalien2","images/t.png","NA","practice","null","","","",""
"d3-animate-choice","41","186170","0.0-41.0","1462","4963","10","Male","true","false","false","false","""event"",""trial"",""time""
""fullscreenenter"",""5"",""11739""
","
","
","""event"",""trial"",""time""
""fullscreenenter"",""5"",""11739""
","
","368.29999999701977","","49","","","3000","1","","","images/tutgreenplanet.jpg","images/tutalien1","images/tutalien2","null","images/tutalien2","images/nothing.png","NA","practice","null","","","",""
"d3-animate-choice","42","188416","0.0-42.0","1462","4963","10","Male","true","false","false","false","""event"",""trial"",""time""
""fullscreenenter"",""5"",""11739""
","
","
","""event"",""trial"",""time""
""fullscreenenter"",""5"",""11739""
","
","232","","48","","","3000","1","","","images/tutgreenplanet.jpg","images/tutalien1","images/tutalien2","null","images/tutalien1","images/nothing.png","NA","practice","null","","","",""
"d3-animate-choice","43","190699","0.0-43.0","1462","4963","10","Male","true","false","false","false","""event"",""trial"",""time""
""fullscreenenter"",""5"",""11739""
","
","
","""event"",""trial"",""time""
""fullscreenenter"",""5"",""11739""
","
","263.8999999985099","","49","","","3000","1","","","images/tutgreenplanet.jpg","images/tutalien1","images/tutalien2","null","images/tutalien2","images/t.png","NA","practice","null","","","",""
"d3-instructions","44","206966","0.0-44.0","1462","4963","10","Male","true","false","false","false","""event"",""trial"",""time""
""fullscreenenter"",""5"",""11739""
","
","
","""event"",""trial"",""time""
""fullscreenenter"",""5"",""11739""
","
","","","","","","","","","","","","","","","","","","","","","",""
"d3-instructions","45","215332","0.0-45.0","1462","4963","10","Male","true","false","false","false","""event"",""trial"",""time""
""fullscreenenter"",""5"",""11739""
","
","
","""event"",""trial"",""time""
""fullscreenenter"",""5"",""11739""
","
","","","","","","","","","","","","","","","","","","","","","",""
"d3-instructions","46","218441","0.0-46.0","1462","4963","10","Male","true","false","false","false","""event"",""trial"",""time""
""fullscreenenter"",""5"",""11739""
","
","
","""event"",""trial"",""time""
""fullscreenenter"",""5"",""11739""
","
","","","","","","","","","","","","","","","","","","","","","",""
"d3-instructions","47","235953","0.0-47.0","1462","4963","10","Male","true","false","false","false","""event"",""trial"",""time""
""fullscreenenter"",""5"",""11739""
","
","
","""event"",""trial"",""time""
""fullscreenenter"",""5"",""11739""
","
","","","","","","","","","","","","","","","","","","","","","",""
"d3-instructions","48","242148","0.0-48.0","1462","4963","10","Male","true","false","false","false","""event"",""trial"",""time""
""fullscreenenter"",""5"",""11739""
","
","
","""event"",""trial"",""time""
""fullscreenenter"",""5"",""11739""
","
","","","","","","","","","","","","","","","","","","","","","",""
"d3-instructions","49","253849","0.0-49.0","1462","4963","10","Male","true","false","false","false","""event"",""trial"",""time""
""fullscreenenter"",""5"",""11739""
","
","
","""event"",""trial"",""time""
""fullscreenenter"",""5"",""11739""
","
","","","","","","","","","","","","","","","","","","","","","",""
"d3-instructions","50","259731","0.0-50.0","1462","4963","10","Male","true","false","false","false","""event"",""trial"",""time""
""fullscreenenter"",""5"",""11739""
","
","
","""event"",""trial"",""time""
""fullscreenenter"",""5"",""11739""
","
","","","","","","","","","","","","","","","","","","","","","",""
"d3-instructions","51","262019","0.0-51.0","1462","4963","10","Male","true","false","false","false","""event"",""trial"",""time""
""fullscreenenter"",""5"",""11739""
","
","
","""event"",""trial"",""time""
""fullscreenenter"",""5"",""11739""
","
","","","","","","","","","","","","","","","","","","","","","",""
"d3-instructions","52","263725","0.0-52.0","1462","4963","10","Male","true","false","false","false","""event"",""trial"",""time""
""fullscreenenter"",""5"",""11739""
","
","
","""event"",""trial"",""time""
""fullscreenenter"",""5"",""11739""
","
","","","","","","","","","","","","","","","","","","","","","",""
"d3-instructions","53","274661","0.0-53.0","1462","4963","10","Male","true","false","false","false","""event"",""trial"",""time""
""fullscreenenter"",""5"",""11739""
","
","
","""event"",""trial"",""time""
""fullscreenenter"",""5"",""11739""
","
","","","","","","","","","","","","","","","","","","","","","",""
"d3-instructions","54","294739","0.0-54.0","1462","4963","10","Male","true","false","false","false","""event"",""trial"",""time""
""fullscreenenter"",""5"",""11739""
","
","
","""event"",""trial"",""time""
""fullscreenenter"",""5"",""11739""
","
","","","","","","","","","","","","","","","","","","","","","",""
"d3-instructions","55","316463","0.0-55.0","1462","4963","10","Male","true","false","false","false","""event"",""trial"",""time""
""fullscreenenter"",""5"",""11739""
","
","
","""event"",""trial"",""time""
""fullscreenenter"",""5"",""11739""
","
","","","","","","","","","","","","","","","","","","","","","",""
"d3-instructions","56","328680","0.0-56.0","1462","4963","10","Male","true","false","false","false","""event"",""trial"",""time""
""fullscreenenter"",""5"",""11739""
","
","
","""event"",""trial"",""time""
""fullscreenenter"",""5"",""11739""
","
","","","","","","","","","","","","","","","","","","","","","",""
"d3-instructions","57","340234","0.0-57.0","1462","4963","10","Male","true","false","false","false","""event"",""trial"",""time""
""fullscreenenter"",""5"",""11739""
","
","
","""event"",""trial"",""time""
""fullscreenenter"",""5"",""11739""
","
","","","","","","","","","","","","","","","","","","","","","",""
"d3-instructions","58","342149","0.0-58.0","1462","4963","10","Male","true","false","false","false","""event"",""trial"",""time""
""fullscreenenter"",""5"",""11739""
","
","
","""event"",""trial"",""time""
""fullscreenenter"",""5"",""11739""
","
","","","","","","","","","","","","","","","","","","","","","",""
"d3-instructions","59","343713","0.0-59.0","1462","4963","10","Male","true","false","false","false","""event"",""trial"",""time""
""fullscreenenter"",""5"",""11739""
","
","
","""event"",""trial"",""time""
""fullscreenenter"",""5"",""11739""
","
","","","","","","","","","","","","","","","","","","","","","",""
"d3-instructions","60","345160","0.0-60.0","1462","4963","10","Male","true","false","false","false","""event"",""trial"",""time""
""fullscreenenter"",""5"",""11739""
","
","
","""event"",""trial"",""time""
""fullscreenenter"",""5"",""11739""
","
","","","","","","","","","","","","","","","","","","","","","",""
"d3-animate-choice","61","348503","0.0-61.0-0.0","1462","4963","10","Male","true","false","false","false","""event"",""trial"",""time""
""fullscreenenter"",""5"",""11739""
","
","
","""event"",""trial"",""time""
""fullscreenenter"",""5"",""11739""
","
","1329.0999999977648","","49","","","3000","1","2262.2999999970198,2284.5","48,48","images/earth.jpg","images/tutrocket2","images/tutrocket1","null","images/tutrocket1","","1","practice","null","1","","",""
"d3-animate-choice","62","351213","0.0-61.0-1.0","1462","4963","10","Male","true","false","false","false","""event"",""trial"",""time""
""fullscreenenter"",""5"",""11739""
","
","
","""event"",""trial"",""time""
""fullscreenenter"",""5"",""11739""
","
","677.6999999992549","","49","","","3000","1","","","images/tutyellowplanet.jpg","images/tutalien4","images/tutalien3","images/tutrocket1","images/tutalien3","images/nothing.png","2","practice","true","1","common","0","2022-12-06 02:51:32.611"
"two-step-fixation","63","352243","0.0-61.0-2.0","1462","4963","10","Male","true","false","false","false","""event"",""trial"",""time""
""fullscreenenter"",""5"",""11739""
","
","
","""event"",""trial"",""time""
""fullscreenenter"",""5"",""11739""
","
","","images/earth.jpg","","","","","","","","","","","","","","fixation","","","","","",""
"d3-animate-choice","64","354599","0.0-61.0-0.1","1462","4963","10","Male","true","false","false","false","""event"",""trial"",""time""
""fullscreenenter"",""5"",""11739""
","
","
","""event"",""trial"",""time""
""fullscreenenter"",""5"",""11739""
","
","341.1000000014901","","49","","","3000","1","","","images/earth.jpg","images/tutrocket2","images/tutrocket1","null","images/tutrocket1","","1","practice","null","1","","",""
"d3-animate-choice","65","357172","0.0-61.0-1.1","1462","4963","10","Male","true","false","false","false","""event"",""trial"",""time""
""fullscreenenter"",""5"",""11739""
","
","
","""event"",""trial"",""time""
""fullscreenenter"",""5"",""11739""
","
","548.4000000022352","","48","","","3000","1","","","images/tutyellowplanet.jpg","images/tutalien4","images/tutalien3","images/tutrocket1","images/tutalien4","images/t.png","2","practice","true","2","common","1","2022-12-06 02:51:38.571"
"two-step-fixation","66","358202","0.0-61.0-2.1","1462","4963","10","Male","true","false","false","false","""event"",""trial"",""time""
""fullscreenenter"",""5"",""11739""
","
","
","""event"",""trial"",""time""
""fullscreenenter"",""5"",""11739""
","
","","images/earth.jpg","","","","","","","","","","","","","","fixation","","","","","",""
"d3-animate-choice","67","360522","0.0-61.0-0.2","1462","4963","10","Male","true","false","false","false","""event"",""trial"",""time""
""fullscreenenter"",""5"",""11739""
","
","
","""event"",""trial"",""time""
""fullscreenenter"",""5"",""11739""
","
","297.69999999925494","","49","","","3000","1","","","images/earth.jpg","images/tutrocket2","images/tutrocket1","null","images/tutrocket1","","1","practice","null","1","","",""
"d3-animate-choice","68","363133","0.0-61.0-1.2","1462","4963","10","Male","true","false","false","false","""event"",""trial"",""time""
""fullscreenenter"",""5"",""11739""
","
","
","""event"",""trial"",""time""
""fullscreenenter"",""5"",""11739""
","
","592.6999999992549","","48","","","3000","1","","","images/tutyellowplanet.jpg","images/tutalien4","images/tutalien3","images/tutrocket1","images/tutalien4","images/t.png","2","practice","true","2","common","1","2022-12-06 02:51:44.531"
"two-step-fixation","69","364144","0.0-61.0-2.2","1462","4963","10","Male","true","false","false","false","""event"",""trial"",""time""
""fullscreenenter"",""5"",""11739""
","
","
","""event"",""trial"",""time""
""fullscreenenter"",""5"",""11739""
","
","","images/earth.jpg","","","","","","","","","","","","","","fixation","","","","","",""
"d3-animate-choice","70","366938","0.0-61.0-0.3","1462","4963","10","Male","true","false","false","false","""event"",""trial"",""time""
""fullscreenenter"",""5"",""11739""
","
","
","""event"",""trial"",""time""
""fullscreenenter"",""5"",""11739""
","
","784.8000000007451","","49","","","3000","1","","","images/earth.jpg","images/tutrocket2","images/tutrocket1","null","images/tutrocket1","","1","practice","null","1","","",""
"d3-animate-choice","71","369581","0.0-61.0-1.3","1462","4963","10","Male","true","false","false","false","""event"",""trial"",""time""
""fullscreenenter"",""5"",""11739""
","
","
","""event"",""trial"",""time""
""fullscreenenter"",""5"",""11739""
","
","621.3000000007451","","48","","","3000","1","","","images/tutyellowplanet.jpg","images/tutalien4","images/tutalien3","images/tutrocket1","images/tutalien4","images/nothing.png","2","practice","true","2","common","0","2022-12-06 02:51:50.979"
"two-step-fixation","72","370590","0.0-61.0-2.3","1462","4963","10","Male","true","false","false","false","""event"",""trial"",""time""
""fullscreenenter"",""5"",""11739""
","
","
","""event"",""trial"",""time""
""fullscreenenter"",""5"",""11739""
","
","","images/earth.jpg","","","","","","","","","","","","","","fixation","","","","","",""
"d3-animate-choice","73","372861","0.0-61.0-0.4","1462","4963","10","Male","true","false","false","false","""event"",""trial"",""time""
""fullscreenenter"",""5"",""11739""
","
","
","""event"",""trial"",""time""
""fullscreenenter"",""5"",""11739""
","
","245.89999999850988","","48","","","3000","1","","","images/earth.jpg","images/tutrocket2","images/tutrocket1","null","images/tutrocket2","","1","practice","null","2","","",""
"d3-animate-choice","74","375533","0.0-61.0-1.4","1462","4963","10","Male","true","false","false","false","""event"",""trial"",""time""
""fullscreenenter"",""5"",""11739""
","
","
","""event"",""trial"",""time""
""fullscreenenter"",""5"",""11739""
","
","659.1000000014901","","48","","","3000","1","","","images/tutyellowplanet.jpg","images/tutalien4","images/tutalien3","images/tutrocket2","images/tutalien4","images/t.png","2","practice","false","2","rare","1","2022-12-06 02:51:56.931"
"two-step-fixation","75","376542","0.0-61.0-2.4","1462","4963","10","Male","true","false","false","false","""event"",""trial"",""time""
""fullscreenenter"",""5"",""11739""
","
","
","""event"",""trial"",""time""
""fullscreenenter"",""5"",""11739""
","
","","images/earth.jpg","","","","","","","","","","","","","","fixation","","","","","",""
"d3-animate-choice","76","379066","0.0-61.0-0.5","1462","4963","10","Male","true","false","false","false","""event"",""trial"",""time""
""fullscreenenter"",""5"",""11739""
","
","
","""event"",""trial"",""time""
""fullscreenenter"",""5"",""11739""
","
","505.30000000074506","","48","","","3000","1","","","images/earth.jpg","images/tutrocket2","images/tutrocket1","null","images/tutrocket2","","1","practice","null","2","","",""
"d3-animate-choice","77","382107","0.0-61.0-1.5","1462","4963","10","Male","true","false","false","false","""event"",""trial"",""time""
""fullscreenenter"",""5"",""11739""
","
","
","""event"",""trial"",""time""
""fullscreenenter"",""5"",""11739""
","
","1018.5","","49","","","3000","1","","","images/tutgreenplanet.jpg","images/tutalien2","images/tutalien1","images/tutrocket2","images/tutalien1","images/nothing.png","2","practice","true","1","common","0","2022-12-06 02:52:03.505"
"two-step-fixation","78","383121","0.0-61.0-2.5","1462","4963","10","Male","true","false","false","false","""event"",""trial"",""time""
""fullscreenenter"",""5"",""11739""
","
","
","""event"",""trial"",""time""
""fullscreenenter"",""5"",""11739""
","
","","images/earth.jpg","","","","","","","","","","","","","","fixation","","","","","",""
"d3-animate-choice","79","385449","0.0-61.0-0.6","1462","4963","10","Male","true","false","false","false","""event"",""trial"",""time""
""fullscreenenter"",""5"",""11739""
","
","
","""event"",""trial"",""time""
""fullscreenenter"",""5"",""11739""
","
","310.29999999701977","","48","","","3000","1","","","images/earth.jpg","images/tutrocket2","images/tutrocket1","null","images/tutrocket2","","1","practice","null","2","","",""
"d3-animate-choice","80","388002","0.0-61.0-1.6","1462","4963","10","Male","true","false","false","false","""event"",""trial"",""time""
""fullscreenenter"",""5"",""11739""
","
","
","""event"",""trial"",""time""
""fullscreenenter"",""5"",""11739""
","
","535.1000000014901","","48","","","3000","1","","","images/tutyellowplanet.jpg","images/tutalien4","images/tutalien3","images/tutrocket2","images/tutalien4","images/t.png","2","practice","false","2","rare","1","2022-12-06 02:52:09.400"
"two-step-fixation","81","389012","0.0-61.0-2.6","1462","4963","10","Male","true","false","false","false","""event"",""trial"",""time""
""fullscreenenter"",""5"",""11739""
","
","
","""event"",""trial"",""time""
""fullscreenenter"",""5"",""11739""
","
","","images/earth.jpg","","","","","","","","","","","","","","fixation","","","","","",""
"d3-animate-choice","82","391370","0.0-61.0-0.7","1462","4963","10","Male","true","false","false","false","""event"",""trial"",""time""
""fullscreenenter"",""5"",""11739""
","
","
","""event"",""trial"",""time""
""fullscreenenter"",""5"",""11739""
","
","348.69999999925494","","48","","","3000","1","","","images/earth.jpg","images/tutrocket2","images/tutrocket1","null","images/tutrocket2","","1","practice","null","2","","",""
"d3-animate-choice","83","394132","0.0-61.0-1.7","1462","4963","10","Male","true","false","false","false","""event"",""trial"",""time""
""fullscreenenter"",""5"",""11739""
","
","
","""event"",""trial"",""time""
""fullscreenenter"",""5"",""11739""
","
","750.8000000007451","","49","","","3000","1","","","images/tutgreenplanet.jpg","images/tutalien2","images/tutalien1","images/tutrocket2","images/tutalien1","images/nothing.png","2","practice","true","1","common","0","2022-12-06 02:52:15.530"
"two-step-fixation","84","395146","0.0-61.0-2.7","1462","4963","10","Male","true","false","false","false","""event"",""trial"",""time""
""fullscreenenter"",""5"",""11739""
","
","
","""event"",""trial"",""time""
""fullscreenenter"",""5"",""11739""
","
","","images/earth.jpg","","","","","","","","","","","","","","fixation","","","","","",""
"d3-animate-choice","85","397215","0.0-61.0-0.8","1462","4963","10","Male","true","false","false","false","""event"",""trial"",""time""
""fullscreenenter"",""5"",""11739""
","
","
","""event"",""trial"",""time""
""fullscreenenter"",""5"",""11739""
","
","62.900000002235174","","48","","","3000","1","","","images/earth.jpg","images/tutrocket2","images/tutrocket1","null","images/tutrocket2","","1","practice","null","2","","",""
"d3-animate-choice","86","399932","0.0-61.0-1.8","1462","4963","10","Male","true","false","false","false","""event"",""trial"",""time""
""fullscreenenter"",""5"",""11739""
","
","
","""event"",""trial"",""time""
""fullscreenenter"",""5"",""11739""
","
","706.3999999985099","","48","","","3000","1","","","images/tutyellowplanet.jpg","images/tutalien4","images/tutalien3","images/tutrocket2","images/tutalien4","images/t.png","2","practice","false","2","rare","1","2022-12-06 02:52:21.330"
"two-step-fixation","87","400944","0.0-61.0-2.8","1462","4963","10","Male","true","false","false","false","""event"",""trial"",""time""
""fullscreenenter"",""5"",""11739""
","
","
","""event"",""trial"",""time""
""fullscreenenter"",""5"",""11739""
","
","","images/earth.jpg","","","","","","","","","","","","","","fixation","","","","","",""
"d3-animate-choice","88","403515","0.0-61.0-0.9","1462","4963","10","Male","true","false","false","false","""event"",""trial"",""time""
""fullscreenenter"",""5"",""11739""
","
","
","""event"",""trial"",""time""
""fullscreenenter"",""5"",""11739""
","
","561.9000000022352","","48","","","3000","1","","","images/earth.jpg","images/tutrocket2","images/tutrocket1","null","images/tutrocket2","","1","practice","null","2","","",""
"d3-animate-choice","89","406298","0.0-61.0-1.9","1462","4963","10","Male","true","false","false","false","""event"",""trial"",""time""
""fullscreenenter"",""5"",""11739""
","
","
","""event"",""trial"",""time""
""fullscreenenter"",""5"",""11739""
","
","770.1999999992549","","48","","","3000","1","","","images/tutgreenplanet.jpg","images/tutalien2","images/tutalien1","images/tutrocket2","images/tutalien2","images/t.png","2","practice","true","2","common","1","2022-12-06 02:52:27.696"
"two-step-fixation","90","407305","0.0-61.0-2.9","1462","4963","10","Male","true","false","false","false","""event"",""trial"",""time""
""fullscreenenter"",""5"",""11739""
","
","
","""event"",""trial"",""time""
""fullscreenenter"",""5"",""11739""
","
","","images/earth.jpg","","","","","","","","","","","","","","fixation","","","","","",""
"d3-animate-choice","91","409765","0.0-61.0-0.10","1462","4963","10","Male","true","false","false","false","""event"",""trial"",""time""
""fullscreenenter"",""5"",""11739""
","
","
","""event"",""trial"",""time""
""fullscreenenter"",""5"",""11739""
","
","445","","49","","","3000","1","","","images/earth.jpg","images/tutrocket2","images/tutrocket1","null","images/tutrocket1","","1","practice","null","1","","",""
"d3-animate-choice","92","413074","0.0-61.0-1.10","1462","4963","10","Male","true","false","false","false","""event"",""trial"",""time""
""fullscreenenter"",""5"",""11739""
","
","
","""event"",""trial"",""time""
""fullscreenenter"",""5"",""11739""
","
","1293.7000000029802","","48","","","3000","1","","","images/tutgreenplanet.jpg","images/tutalien2","images/tutalien1","images/tutrocket1","images/tutalien2","images/t.png","2","practice","false","2","rare","1","2022-12-06 02:52:34.472"
"two-step-fixation","93","414090","0.0-61.0-2.10","1462","4963","10","Male","true","false","false","false","""event"",""trial"",""time""
""fullscreenenter"",""5"",""11739""
","
","
","""event"",""trial"",""time""
""fullscreenenter"",""5"",""11739""
","
","","images/earth.jpg","","","","","","","","","","","","","","fixation","","","","","",""
"d3-animate-choice","94","416342","0.0-61.0-0.11","1462","4963","10","Male","true","false","false","false","""event"",""trial"",""time""
""fullscreenenter"",""5"",""11739""
","
","
","""event"",""trial"",""time""
""fullscreenenter"",""5"",""11739""
","
","235.80000000074506","","48","","","3000","1","","","images/earth.jpg","images/tutrocket2","images/tutrocket1","null","images/tutrocket2","","1","practice","null","2","","",""
"d3-animate-choice","95","419359","0.0-61.0-1.11","1462","4963","10","Male","true","false","false","false","""event"",""trial"",""time""
""fullscreenenter"",""5"",""11739""
","
","
","""event"",""trial"",""time""
""fullscreenenter"",""5"",""11739""
","
","1007.3000000007451","","48","","","3000","1","","","images/tutgreenplanet.jpg","images/tutalien2","images/tutalien1","images/tutrocket2","images/tutalien2","images/nothing.png","2","practice","true","2","common","0","2022-12-06 02:52:40.757"
"two-step-fixation","96","420367","0.0-61.0-2.11","1462","4963","10","Male","true","false","false","false","""event"",""trial"",""time""
""fullscreenenter"",""5"",""11739""
","
","
","""event"",""trial"",""time""
""fullscreenenter"",""5"",""11739""
","
","","images/earth.jpg","","","","","","","","","","","","","","fixation","","","","","",""
"d3-animate-choice","97","422731","0.0-61.0-0.12","1462","4963","10","Male","true","false","false","false","""event"",""trial"",""time""
""fullscreenenter"",""5"",""11739""
","
","
","""event"",""trial"",""time""
""fullscreenenter"",""5"",""11739""
","
","355.69999999925494","","48","","","3000","1","","","images/earth.jpg","images/tutrocket2","images/tutrocket1","null","images/tutrocket2","","1","practice","null","2","","",""
"d3-animate-choice","98","425252","0.0-61.0-1.12","1462","4963","10","Male","true","false","false","false","""event"",""trial"",""time""
""fullscreenenter"",""5"",""11739""
","
","
","""event"",""trial"",""time""
""fullscreenenter"",""5"",""11739""
","
","504.3999999985099","","49","","","3000","1","","","images/tutgreenplanet.jpg","images/tutalien2","images/tutalien1","images/tutrocket2","images/tutalien1","images/nothing.png","2","practice","true","1","common","0","2022-12-06 02:52:46.651"
"two-step-fixation","99","426264","0.0-61.0-2.12","1462","4963","10","Male","true","false","false","false","""event"",""trial"",""time""
""fullscreenenter"",""5"",""11739""
","
","
","""event"",""trial"",""time""
""fullscreenenter"",""5"",""11739""
","
","","images/earth.jpg","","","","","","","","","","","","","","fixation","","","","","",""
"d3-animate-choice","100","428747","0.0-61.0-0.13","1462","4963","10","Male","true","false","false","false","""event"",""trial"",""time""
""fullscreenenter"",""5"",""11739""
","
","
","""event"",""trial"",""time""
""fullscreenenter"",""5"",""11739""
","
","475.5","","49","","","3000","1","","","images/earth.jpg","images/tutrocket2","images/tutrocket1","null","images/tutrocket1","","1","practice","null","1","","",""
"d3-animate-choice","101","431697","0.0-61.0-1.13","1462","4963","10","Male","true","false","false","false","""event"",""trial"",""time""
""fullscreenenter"",""5"",""11739""
","
","
","""event"",""trial"",""time""
""fullscreenenter"",""5"",""11739""
","
","936.6000000014901","","48","","","3000","1","","","images/tutyellowplanet.jpg","images/tutalien4","images/tutalien3","images/tutrocket1","images/tutalien4","images/t.png","2","practice","true","2","common","1","2022-12-06 02:52:53.095"
"two-step-fixation","102","432708","0.0-61.0-2.13","1462","4963","10","Male","true","false","false","false","""event"",""trial"",""time""
""fullscreenenter"",""5"",""11739""
","
","
","""event"",""trial"",""time""
""fullscreenenter"",""5"",""11739""
","
","","images/earth.jpg","","","","","","","","","","","","","","fixation","","","","","",""
"d3-animate-choice","103","435873","0.0-61.0-0.14","1462","4963","10","Male","true","false","false","false","""event"",""trial"",""time""
""fullscreenenter"",""5"",""11739""
","
","
","""event"",""trial"",""time""
""fullscreenenter"",""5"",""11739""
","
","1143.9000000022352","","48","","","3000","1","","","images/earth.jpg","images/tutrocket2","images/tutrocket1","null","images/tutrocket2","","1","practice","null","2","","",""
"d3-animate-choice","104","439357","0.0-61.0-1.14","1462","4963","10","Male","true","false","false","false","""event"",""trial"",""time""
""fullscreenenter"",""5"",""11739""
","
","
","""event"",""trial"",""time""
""fullscreenenter"",""5"",""11739""
","
","1465.2000000029802","","48","","","3000","1","","","images/tutgreenplanet.jpg","images/tutalien2","images/tutalien1","images/tutrocket2","images/tutalien2","images/t.png","2","practice","true","2","common","1","2022-12-06 02:53:00.755"
"two-step-fixation","105","440365","0.0-61.0-2.14","1462","4963","10","Male","true","false","false","false","""event"",""trial"",""time""
""fullscreenenter"",""5"",""11739""
","
","
","""event"",""trial"",""time""
""fullscreenenter"",""5"",""11739""
","
","","images/earth.jpg","","","","","","","","","","","","","","fixation","","","","","",""
"d3-animate-choice","106","442637","0.0-61.0-0.15","1462","4963","10","Male","true","false","false","false","""event"",""trial"",""time""
""fullscreenenter"",""5"",""11739""
","
","
","""event"",""trial"",""time""
""fullscreenenter"",""5"",""11739""
","
","258.29999999701977","","48","","","3000","1","","","images/earth.jpg","images/tutrocket2","images/tutrocket1","null","images/tutrocket2","","1","practice","null","2","","",""
"d3-animate-choice","107","445129","0.0-61.0-1.15","1462","4963","10","Male","true","false","false","false","""event"",""trial"",""time""
""fullscreenenter"",""5"",""11739""
","
","
","""event"",""trial"",""time""
""fullscreenenter"",""5"",""11739""
","
","478","","48","","","3000","1","","","images/tutgreenplanet.jpg","images/tutalien2","images/tutalien1","images/tutrocket2","images/tutalien2","images/t.png","2","practice","true","2","common","1","2022-12-06 02:53:06.527"
"two-step-fixation","108","446144","0.0-61.0-2.15","1462","4963","10","Male","true","false","false","false","""event"",""trial"",""time""
""fullscreenenter"",""5"",""11739""
","
","
","""event"",""trial"",""time""
""fullscreenenter"",""5"",""11739""
","
","","images/earth.jpg","","","","","","","","","","","","","","fixation","","","","","",""
"d3-animate-choice","109","448423","0.0-61.0-0.16","1462","4963","10","Male","true","false","false","false","""event"",""trial"",""time""
""fullscreenenter"",""5"",""11739""
","
","
","""event"",""trial"",""time""
""fullscreenenter"",""5"",""11739""
","
","265.1000000014901","","48","","","3000","1","","","images/earth.jpg","images/tutrocket2","images/tutrocket1","null","images/tutrocket2","","1","practice","null","2","","",""
"d3-animate-choice","110","450836","0.0-61.0-1.16","1462","4963","10","Male","true","false","false","false","""event"",""trial"",""time""
""fullscreenenter"",""5"",""11739""
","
","
","""event"",""trial"",""time""
""fullscreenenter"",""5"",""11739""
","
","396.9000000022352","","48","","","3000","1","","","images/tutyellowplanet.jpg","images/tutalien4","images/tutalien3","images/tutrocket2","images/tutalien4","images/t.png","2","practice","false","2","rare","1","2022-12-06 02:53:12.235"
"two-step-fixation","111","451855","0.0-61.0-2.16","1462","4963","10","Male","true","false","false","false","""event"",""trial"",""time""
""fullscreenenter"",""5"",""11739""
","
","
","""event"",""trial"",""time""
""fullscreenenter"",""5"",""11739""
","
","","images/earth.jpg","","","","","","","","","","","","","","fixation","","","","","",""
"d3-animate-choice","112","454193","0.0-61.0-0.17","1462","4963","10","Male","true","false","false","false","""event"",""trial"",""time""
""fullscreenenter"",""5"",""11739""
","
","
","""event"",""trial"",""time""
""fullscreenenter"",""5"",""11739""
","
","320.19999999925494","","48","","","3000","1","","","images/earth.jpg","images/tutrocket2","images/tutrocket1","null","images/tutrocket2","","1","practice","null","2","","",""
"d3-animate-choice","113","457016","0.0-61.0-1.17","1462","4963","10","Male","true","false","false","false","""event"",""trial"",""time""
""fullscreenenter"",""5"",""11739""
","
","
","""event"",""trial"",""time""
""fullscreenenter"",""5"",""11739""
","
","806","","48","","","3000","1","","","images/tutgreenplanet.jpg","images/tutalien2","images/tutalien1","images/tutrocket2","images/tutalien2","images/nothing.png","2","practice","true","2","common","0","2022-12-06 02:53:18.415"
"two-step-fixation","114","458032","0.0-61.0-2.17","1462","4963","10","Male","true","false","false","false","""event"",""trial"",""time""
""fullscreenenter"",""5"",""11739""
","
","
","""event"",""trial"",""time""
""fullscreenenter"",""5"",""11739""
","
","","images/earth.jpg","","","","","","","","","","","","","","fixation","","","","","",""
"d3-animate-choice","115","460444","0.0-61.0-0.18","1462","4963","10","Male","true","false","false","false","""event"",""trial"",""time""
""fullscreenenter"",""5"",""11739""
","
","
","""event"",""trial"",""time""
""fullscreenenter"",""5"",""11739""
","
","402","","49","","","3000","1","","","images/earth.jpg","images/tutrocket2","images/tutrocket1","null","images/tutrocket1","","1","practice","null","1","","",""
"d3-animate-choice","116","463293","0.0-61.0-1.18","1462","4963","10","Male","true","false","false","false","""event"",""trial"",""time""
""fullscreenenter"",""5"",""11739""
","
","
","""event"",""trial"",""time""
""fullscreenenter"",""5"",""11739""
","
","838.2999999970198","","48","","","3000","1","","","images/tutyellowplanet.jpg","images/tutalien4","images/tutalien3","images/tutrocket1","images/tutalien4","images/nothing.png","2","practice","true","2","common","0","2022-12-06 02:53:24.692"
"two-step-fixation","117","464310","0.0-61.0-2.18","1462","4963","10","Male","true","false","false","false","""event"",""trial"",""time""
""fullscreenenter"",""5"",""11739""
","
","
","""event"",""trial"",""time""
""fullscreenenter"",""5"",""11739""
","
","","images/earth.jpg","","","","","","","","","","","","","","fixation","","","","","",""
"d3-animate-choice","118","466646","0.0-61.0-0.19","1462","4963","10","Male","true","false","false","false","""event"",""trial"",""time""
""fullscreenenter"",""5"",""11739""
","
","
","""event"",""trial"",""time""
""fullscreenenter"",""5"",""11739""
","
","321","","49","","","3000","1","","","images/earth.jpg","images/tutrocket2","images/tutrocket1","null","images/tutrocket1","","1","practice","null","1","","",""
"d3-animate-choice","119","469245","0.0-61.0-1.19","1462","4963","10","Male","true","false","false","false","""event"",""trial"",""time""
""fullscreenenter"",""5"",""11739""
","
","
","""event"",""trial"",""time""
""fullscreenenter"",""5"",""11739""
","
","587.3000000007451","","48","","","3000","1","","","images/tutyellowplanet.jpg","images/tutalien4","images/tutalien3","images/tutrocket1","images/tutalien4","images/t.png","2","practice","true","2","common","1","2022-12-06 02:53:30.643"
"two-step-fixation","120","470259","0.0-61.0-2.19","1462","4963","10","Male","true","false","false","false","""event"",""trial"",""time""
""fullscreenenter"",""5"",""11739""
","
","
","""event"",""trial"",""time""
""fullscreenenter"",""5"",""11739""
","
","","images/earth.jpg","","","","","","","","","","","","","","fixation","","","","","",""
"d3-instructions","121","474784","0.0-62.0","1462","4963","10","Male","true","false","false","false","""event"",""trial"",""time""
""fullscreenenter"",""5"",""11739""
","
","
","""event"",""trial"",""time""
""fullscreenenter"",""5"",""11739""
","
","","","","","","","","","","","","","","","","","","","","","",""
"audio-keyboard-response","122","476646","0.0-63.0","1462","4963","10","Male","true","false","false","false","""event"",""trial"",""time""
""fullscreenenter"",""5"",""11739""
","
","
","""event"",""trial"",""time""
""fullscreenenter"",""5"",""11739""
","
","1859","audio/instructions/treasure_feedback.wav","32","","","","","","","","","","","","","","","","","","",""
"d3-instructions","123","483355","0.0-64.0","1462","4963","10","Male","true","false","false","false","""event"",""trial"",""time""
""fullscreenenter"",""5"",""11739""
","
","
","""event"",""trial"",""time""
""fullscreenenter"",""5"",""11739""
","
","","","","","","","","","","","","","","","","","","","","","",""
"d3-instructions","124","491038","0.0-65.0","1462","4963","10","Male","true","false","false","false","""event"",""trial"",""time""
""fullscreenenter"",""5"",""11739""
","
","
","""event"",""trial"",""time""
""fullscreenenter"",""5"",""11739""
","
","","","","","","","","","","","","","","","","","","","","","",""
"d3-instructions","125","492362","0.0-66.0","1462","4963","10","Male","true","false","false","false","""event"",""trial"",""time""
""fullscreenenter"",""5"",""11739""
","
","
","""event"",""trial"",""time""
""fullscreenenter"",""5"",""11739""
","
","","","","","","","","","","","","","","","","","","","","","",""
"d3-instructions","126","495604","0.0-67.0","1462","4963","10","Male","true","false","false","false","""event"",""trial"",""time""
""fullscreenenter"",""5"",""11739""
","
","
","""event"",""trial"",""time""
""fullscreenenter"",""5"",""11739""
","
","","","","","","","","","","","","","","","","","","","","","",""
"d3-instructions","127","497223","0.0-68.0","1462","4963","10","Male","true","false","false","false","""event"",""trial"",""time""
""fullscreenenter"",""5"",""11739""
","
","
","""event"",""trial"",""time""
""fullscreenenter"",""5"",""11739""
","
","","","","","","","","","","","","","","","","","","","","","",""
"instructions-quiz","128","500731","0.0-69.0","1462","4963","10","Male","true","false","false","false","""event"",""trial"",""time""
""fullscreenenter"",""5"",""11739""
","
","
","""event"",""trial"",""time""
""fullscreenenter"",""5"",""11739""
","
","3505.2000000029802","audio/quiz/Q1_Prompt.wav","","1","","","","","","","","","","","","","","","","","",""
"audio-keyboard-response","129","509901","0.0-70.0","1462","4963","10","Male","true","false","false","false","""event"",""trial"",""time""
""fullscreenenter"",""5"",""11739""
","
","
","""event"",""trial"",""time""
""fullscreenenter"",""5"",""11739""
","
","null","audio/quiz/Q1_Correct.wav","null","","","","","","","","","","","","","","","","","","",""
"instructions-quiz","130","515682","0.0-71.0","1462","4963","10","Male","true","false","false","false","""event"",""trial"",""time""
""fullscreenenter"",""5"",""11739""
","
","
","""event"",""trial"",""time""
""fullscreenenter"",""5"",""11739""
","
","5778.800000000745","audio/quiz/Q2_Prompt.wav","","0","","","","","","","","","","","","","","","","","",""
"audio-keyboard-response","131","528551","0.0-72.0","1462","4963","10","Male","true","false","false","false","""event"",""trial"",""time""
""fullscreenenter"",""5"",""11739""
","
","
","""event"",""trial"",""time""
""fullscreenenter"",""5"",""11739""
","
","null","audio/quiz/Q2_Correct.wav","null","","","","","","","","","","","","","","","","","","",""
"instructions-quiz","132","536212","0.0-73.0","1462","4963","10","Male","true","false","false","false","""event"",""trial"",""time""
""fullscreenenter"",""5"",""11739""
","
","
","""event"",""trial"",""time""
""fullscreenenter"",""5"",""11739""
","
","7658.800000000745","audio/quiz/Q3_Prompt.wav","","1","","","","","","","","","","","","","","","","","",""
"audio-keyboard-response","133","542011","0.0-74.0","1462","4963","10","Male","true","false","false","false","""event"",""trial"",""time""
""fullscreenenter"",""5"",""11739""
","
","
","""event"",""trial"",""time""
""fullscreenenter"",""5"",""11739""
","
","null","audio/quiz/Q3_Correct.wav","null","","","","","","","","","","","","","","","","","","",""
"d3-instructions","134","553767","0.0-75.0","1462","4963","10","Male","true","false","false","false","""event"",""trial"",""time""
""fullscreenenter"",""5"",""11739""
","
","
","""event"",""trial"",""time""
""fullscreenenter"",""5"",""11739""
","
","","","","","","","","","","","","","","","","","","","","","",""
"d3-animate-choice","135","556868","0.0-76.0-0.0","1462","4963","10","Male","true","false","false","false","""event"",""trial"",""time""
""fullscreenenter"",""5"",""11739""
","
","
","""event"",""trial"",""time""
""fullscreenenter"",""5"",""11739""
","
","1083.3999999985099","","49","","","3000","1","","","images/earth.jpg","images/rocket2","images/rocket1","null","images/rocket1","","1","real","null","1","","",""
"d3-animate-choice","136","559917","0.0-76.0-1.0","1462","4963","10","Male","true","false","false","false","""event"",""trial"",""time""
""fullscreenenter"",""5"",""11739""
","
","
","""event"",""trial"",""time""
""fullscreenenter"",""5"",""11739""
","
","1031.199999999255","","49","","","3000","1","","","images/purpleplanet.jpg","images/alien4","images/alien3","images/rocket1","images/alien3","images/t.png","2","real","true","1","common","1","2022-12-06 02:55:01.315"
"two-step-fixation","137","560932","0.0-76.0-2.0","1462","4963","10","Male","true","false","false","false","""event"",""trial"",""time""
""fullscreenenter"",""5"",""11739""
","
","
","""event"",""trial"",""time""
""fullscreenenter"",""5"",""11739""
","
","","images/earth.jpg","","","","","","","","","","","","","","fixation","","","","","",""
"d3-animate-choice","138","563587","0.0-76.0-0.1","1462","4963","10","Male","true","false","false","false","""event"",""trial"",""time""
""fullscreenenter"",""5"",""11739""
","
","
","""event"",""trial"",""time""
""fullscreenenter"",""5"",""11739""
","
","640.3000000007451","","49","","","3000","1","","","images/earth.jpg","images/rocket2","images/rocket1","null","images/rocket1","","1","real","null","1","","",""
"d3-animate-choice","139","566118","0.0-76.0-1.1","1462","4963","10","Male","true","false","false","false","""event"",""trial"",""time""
""fullscreenenter"",""5"",""11739""
","
","
","""event"",""trial"",""time""
""fullscreenenter"",""5"",""11739""
","
","520.5999999977648","","49","","","3000","1","","","images/purpleplanet.jpg","images/alien4","images/alien3","images/rocket1","images/alien3","images/t.png","2","real","true","1","common","1","2022-12-06 02:55:07.517"
"two-step-fixation","140","567128","0.0-76.0-2.1","1462","4963","10","Male","true","false","false","false","""event"",""trial"",""time""
""fullscreenenter"",""5"",""11739""
","
","
","""event"",""trial"",""time""
""fullscreenenter"",""5"",""11739""
","
","","images/earth.jpg","","","","","","","","","","","","","","fixation","","","","","",""
"d3-animate-choice","141","569418","0.0-76.0-0.2","1462","4963","10","Male","true","false","false","false","""event"",""trial"",""time""
""fullscreenenter"",""5"",""11739""
","
","
","""event"",""trial"",""time""
""fullscreenenter"",""5"",""11739""
","
","261.3999999985099","","49","","","3000","1","","","images/earth.jpg","images/rocket2","images/rocket1","null","images/rocket1","","1","real","null","1","","",""
"d3-animate-choice","142","572059","0.0-76.0-1.2","1462","4963","10","Male","true","false","false","false","""event"",""trial"",""time""
""fullscreenenter"",""5"",""11739""
","
","
","""event"",""trial"",""time""
""fullscreenenter"",""5"",""11739""
","
","620.6999999992549","","49","","","3000","1","","","images/purpleplanet.jpg","images/alien4","images/alien3","images/rocket1","images/alien3","images/nothing.png","2","real","true","1","common","0","2022-12-06 02:55:13.457"
"two-step-fixation","143","573078","0.0-76.0-2.2","1462","4963","10","Male","true","false","false","false","""event"",""trial"",""time""
""fullscreenenter"",""5"",""11739""
","
","
","""event"",""trial"",""time""
""fullscreenenter"",""5"",""11739""
","
","","images/earth.jpg","","","","","","","","","","","","","","fixation","","","","","",""
"d3-animate-choice","144","575588","0.0-76.0-0.3","1462","4963","10","Male","true","false","false","false","""event"",""trial"",""time""
""fullscreenenter"",""5"",""11739""
","
","
","""event"",""trial"",""time""
""fullscreenenter"",""5"",""11739""
","
","496.80000000074506","","48","","","3000","1","","","images/earth.jpg","images/rocket2","images/rocket1","null","images/rocket2","","1","real","null","2","","",""
"d3-animate-choice","145","578418","0.0-76.0-1.3","1462","4963","10","Male","true","false","false","false","""event"",""trial"",""time""
""fullscreenenter"",""5"",""11739""
","
","
","""event"",""trial"",""time""
""fullscreenenter"",""5"",""11739""
","
","814.1999999992549","","49","","","3000","1","","","images/redplanet1.jpg","images/alien2","images/alien1","images/rocket2","images/alien1","images/t.png","2","real","true","1","common","1","2022-12-06 02:55:19.816"
"two-step-fixation","146","579421","0.0-76.0-2.3","1462","4963","10","Male","true","false","false","false","""event"",""trial"",""time""
""fullscreenenter"",""5"",""11739""
","
","
","""event"",""trial"",""time""
""fullscreenenter"",""5"",""11739""
","
","","images/earth.jpg","","","","","","","","","","","","","","fixation","","","","","",""
"d3-animate-choice","147","581755","0.0-76.0-0.4","1462","4963","10","Male","true","false","false","false","""event"",""trial"",""time""
""fullscreenenter"",""5"",""11739""
","
","
","""event"",""trial"",""time""
""fullscreenenter"",""5"",""11739""
","
","327","","48","","","3000","1","","","images/earth.jpg","images/rocket2","images/rocket1","null","images/rocket2","","1","real","null","2","","",""
"d3-animate-choice","148","584273","0.0-76.0-1.4","1462","4963","10","Male","true","false","false","false","""event"",""trial"",""time""
""fullscreenenter"",""5"",""11739""
","
","
","""event"",""trial"",""time""
""fullscreenenter"",""5"",""11739""
","
","504.19999999925494","","49","","","3000","1","","","images/redplanet1.jpg","images/alien2","images/alien1","images/rocket2","images/alien1","images/nothing.png","2","real","true","1","common","0","2022-12-06 02:55:25.671"
"two-step-fixation","149","585287","0.0-76.0-2.4","1462","4963","10","Male","true","false","false","false","""event"",""trial"",""time""
""fullscreenenter"",""5"",""11739""
","
","
","""event"",""trial"",""time""
""fullscreenenter"",""5"",""11739""
","
","","images/earth.jpg","","","","","","","","","","","","","","fixation","","","","","",""
"d3-animate-choice","150","587845","0.0-76.0-0.5","1462","4963","10","Male","true","false","false","false","""event"",""trial"",""time""
""fullscreenenter"",""5"",""11739""
","
","
","""event"",""trial"",""time""
""fullscreenenter"",""5"",""11739""
","
","546.8999999985099","","48","","","3000","1","","","images/earth.jpg","images/rocket2","images/rocket1","null","images/rocket2","","1","real","null","2","","",""
"d3-animate-choice","151","590450","0.0-76.0-1.5","1462","4963","10","Male","true","false","false","false","""event"",""trial"",""time""
""fullscreenenter"",""5"",""11739""
","
","
","""event"",""trial"",""time""
""fullscreenenter"",""5"",""11739""
","
","592.5999999977648","","48","","","3000","1","","","images/redplanet1.jpg","images/alien2","images/alien1","images/rocket2","images/alien2","images/t.png","2","real","true","2","common","1","2022-12-06 02:55:31.848"
"two-step-fixation","152","591463","0.0-76.0-2.5","1462","4963","10","Male","true","false","false","false","""event"",""trial"",""time""
""fullscreenenter"",""5"",""11739""
","
","
","""event"",""trial"",""time""
""fullscreenenter"",""5"",""11739""
","
","","images/earth.jpg","","","","","","","","","","","","","","fixation","","","","","",""
"d3-animate-choice","153","593786","0.0-76.0-0.6","1462","4963","10","Male","true","false","false","false","""event"",""trial"",""time""
""fullscreenenter"",""5"",""11739""
","
","
","""event"",""trial"",""time""
""fullscreenenter"",""5"",""11739""
","
","307.69999999925494","","48","","","3000","1","","","images/earth.jpg","images/rocket2","images/rocket1","null","images/rocket2","","1","real","null","2","","",""
"d3-animate-choice","154","596251","0.0-76.0-1.6","1462","4963","10","Male","true","false","false","false","""event"",""trial"",""time""
""fullscreenenter"",""5"",""11739""
","
","
","""event"",""trial"",""time""
""fullscreenenter"",""5"",""11739""
","
","450.80000000074506","","48","","","3000","1","","","images/redplanet1.jpg","images/alien2","images/alien1","images/rocket2","images/alien2","images/t.png","2","real","true","2","common","1","2022-12-06 02:55:37.649"
"two-step-fixation","155","597267","0.0-76.0-2.6","1462","4963","10","Male","true","false","false","false","""event"",""trial"",""time""
""fullscreenenter"",""5"",""11739""
","
","
","""event"",""trial"",""time""
""fullscreenenter"",""5"",""11739""
","
","","images/earth.jpg","","","","","","","","","","","","","","fixation","","","","","",""
"d3-animate-choice","156","599521","0.0-76.0-0.7","1462","4963","10","Male","true","false","false","false","""event"",""trial"",""time""
""fullscreenenter"",""5"",""11739""
","
","
","""event"",""trial"",""time""
""fullscreenenter"",""5"",""11739""
","
","244.60000000149012","","48","","","3000","1","","","images/earth.jpg","images/rocket2","images/rocket1","null","images/rocket2","","1","real","null","2","","",""
"d3-animate-choice","157","601999","0.0-76.0-1.7","1462","4963","10","Male","true","false","false","false","""event"",""trial"",""time""
""fullscreenenter"",""5"",""11739""
","
","
","""event"",""trial"",""time""
""fullscreenenter"",""5"",""11739""
","
","460.29999999701977","","48","","","3000","1","","","images/redplanet1.jpg","images/alien2","images/alien1","images/rocket2","images/alien2","images/nothing.png","2","real","true","2","common","0","2022-12-06 02:55:43.397"
"two-step-fixation","158","603004","0.0-76.0-2.7","1462","4963","10","Male","true","false","false","false","""event"",""trial"",""time""
""fullscreenenter"",""5"",""11739""
","
","
","""event"",""trial"",""time""
""fullscreenenter"",""5"",""11739""
","
","","images/earth.jpg","","","","","","","","","","","","","","fixation","","","","","",""
"d3-animate-choice","159","605126","0.0-76.0-0.8","1462","4963","10","Male","true","false","false","false","""event"",""trial"",""time""
""fullscreenenter"",""5"",""11739""
","
","
","""event"",""trial"",""time""
""fullscreenenter"",""5"",""11739""
","
","104.80000000074506","","49","","","3000","1","","","images/earth.jpg","images/rocket2","images/rocket1","null","images/rocket1","","1","real","null","1","","",""
"d3-animate-choice","160","607795","0.0-76.0-1.8","1462","4963","10","Male","true","false","false","false","""event"",""trial"",""time""
""fullscreenenter"",""5"",""11739""
","
","
","""event"",""trial"",""time""
""fullscreenenter"",""5"",""11739""
","
","647.5999999977648","","48","","","3000","1","","","images/purpleplanet.jpg","images/alien4","images/alien3","images/rocket1","images/alien4","images/t.png","2","real","true","2","common","1","2022-12-06 02:55:49.193"
"two-step-fixation","161","608804","0.0-76.0-2.8","1462","4963","10","Male","true","false","false","false","""event"",""trial"",""time""
""fullscreenenter"",""5"",""11739""
","
","
","""event"",""trial"",""time""
""fullscreenenter"",""5"",""11739""
","
","","images/earth.jpg","","","","","","","","","","","","","","fixation","","","","","",""
"d3-animate-choice","162","611084","0.0-76.0-0.9","1462","4963","10","Male","true","false","false","false","""event"",""trial"",""time""
""fullscreenenter"",""5"",""11739""
","
","
","""event"",""trial"",""time""
""fullscreenenter"",""5"",""11739""
","
","266.3999999985099","","49","","","3000","1","","","images/earth.jpg","images/rocket2","images/rocket1","null","images/rocket1","","1","real","null","1","","",""
"d3-animate-choice","163","613454","0.0-76.0-1.9","1462","4963","10","Male","true","false","false","false","""event"",""trial"",""time""
""fullscreenenter"",""5"",""11739""
","
","
","""event"",""trial"",""time""
""fullscreenenter"",""5"",""11739""
","
","358.19999999925494","","48","","","3000","1","","","images/purpleplanet.jpg","images/alien4","images/alien3","images/rocket1","images/alien4","images/nothing.png","2","real","true","2","common","0","2022-12-06 02:55:54.852"
"two-step-fixation","164","614471","0.0-76.0-2.9","1462","4963","10","Male","true","false","false","false","""event"",""trial"",""time""
""fullscreenenter"",""5"",""11739""
","
","
","""event"",""trial"",""time""
""fullscreenenter"",""5"",""11739""
","
","","images/earth.jpg","","","","","","","","","","","","","","fixation","","","","","",""
"d3-animate-choice","165","616768","0.0-76.0-0.10","1462","4963","10","Male","true","false","false","false","""event"",""trial"",""time""
""fullscreenenter"",""5"",""11739""
","
","
","""event"",""trial"",""time""
""fullscreenenter"",""5"",""11739""
","
","283.69999999925494","","49","","","3000","1","","","images/earth.jpg","images/rocket2","images/rocket1","null","images/rocket1","","1","real","null","1","","",""
"d3-animate-choice","166","619061","0.0-76.0-1.10","1462","4963","10","Male","true","false","false","false","""event"",""trial"",""time""
""fullscreenenter"",""5"",""11739""
","
","
","""event"",""trial"",""time""
""fullscreenenter"",""5"",""11739""
","
","271.3999999985099","","49","","","3000","1","","","images/redplanet1.jpg","images/alien2","images/alien1","images/rocket1","images/alien1","images/t.png","2","real","false","1","rare","1","2022-12-06 02:56:00.459"
"two-step-fixation","167","620075","0.0-76.0-2.10","1462","4963","10","Male","true","false","false","false","""event"",""trial"",""time""
""fullscreenenter"",""5"",""11739""
","
","
","""event"",""trial"",""time""
""fullscreenenter"",""5"",""11739""
","
","","images/earth.jpg","","","","","","","","","","","","","","fixation","","","","","",""
"d3-animate-choice","168","622401","0.0-76.0-0.11","1462","4963","10","Male","true","false","false","false","""event"",""trial"",""time""
""fullscreenenter"",""5"",""11739""
","
","
","""event"",""trial"",""time""
""fullscreenenter"",""5"",""11739""
","
","308.80000000074506","","49","","","3000","1","","","images/earth.jpg","images/rocket2","images/rocket1","null","images/rocket1","","1","real","null","1","","",""
"d3-animate-choice","169","625185","0.0-76.0-1.11","1462","4963","10","Male","true","false","false","false","""event"",""trial"",""time""
""fullscreenenter"",""5"",""11739""
","
","
","""event"",""trial"",""time""
""fullscreenenter"",""5"",""11739""
","
","773.8000000007451","","49","","","3000","1","","","images/purpleplanet.jpg","images/alien4","images/alien3","images/rocket1","images/alien3","images/nothing.png","2","real","true","1","common","0","2022-12-06 02:56:06.584"
"two-step-fixation","170","626200","0.0-76.0-2.11","1462","4963","10","Male","true","false","false","false","""event"",""trial"",""time""
""fullscreenenter"",""5"",""11739""
","
","
","""event"",""trial"",""time""
""fullscreenenter"",""5"",""11739""
","
","","images/earth.jpg","","","","","","","","","","","","","","fixation","","","","","",""
"d3-animate-choice","171","628525","0.0-76.0-0.12","1462","4963","10","Male","true","false","false","false","""event"",""trial"",""time""
""fullscreenenter"",""5"",""11739""
","
","
","""event"",""trial"",""time""
""fullscreenenter"",""5"",""11739""
","
","316.1000000014901","","49","","","3000","1","","","images/earth.jpg","images/rocket2","images/rocket1","null","images/rocket1","","1","real","null","1","","",""
"d3-animate-choice","172","631107","0.0-76.0-1.12","1462","4963","10","Male","true","false","false","false","""event"",""trial"",""time""
""fullscreenenter"",""5"",""11739""
","
","
","""event"",""trial"",""time""
""fullscreenenter"",""5"",""11739""
","
","563.6000000014901","","49","","","3000","1","","","images/redplanet1.jpg","images/alien2","images/alien1","images/rocket1","images/alien1","images/nothing.png","2","real","false","1","rare","0","2022-12-06 02:56:12.505"
"two-step-fixation","173","632123","0.0-76.0-2.12","1462","4963","10","Male","true","false","false","false","""event"",""trial"",""time""
""fullscreenenter"",""5"",""11739""
","
","
","""event"",""trial"",""time""
""fullscreenenter"",""5"",""11739""
","
","","images/earth.jpg","","","","","","","","","","","","","","fixation","","","","","",""
"d3-animate-choice","174","634468","0.0-76.0-0.13","1462","4963","10","Male","true","false","false","false","""event"",""trial"",""time""
""fullscreenenter"",""5"",""11739""
","
","
","""event"",""trial"",""time""
""fullscreenenter"",""5"",""11739""
","
","334.8999999985099","","49","","","3000","1","","","images/earth.jpg","images/rocket2","images/rocket1","null","images/rocket1","","1","real","null","1","","",""
"d3-animate-choice","175","637363","0.0-76.0-1.13","1462","4963","10","Male","true","false","false","false","""event"",""trial"",""time""
""fullscreenenter"",""5"",""11739""
","
","
","""event"",""trial"",""time""
""fullscreenenter"",""5"",""11739""
","
","882.8999999985099","","49","","","3000","1","","","images/purpleplanet.jpg","images/alien4","images/alien3","images/rocket1","images/alien3","images/t.png","2","real","true","1","common","1","2022-12-06 02:56:18.761"
"two-step-fixation","176","638367","0.0-76.0-2.13","1462","4963","10","Male","true","false","false","false","""event"",""trial"",""time""
""fullscreenenter"",""5"",""11739""
","
","
","""event"",""trial"",""time""
""fullscreenenter"",""5"",""11739""
","
","","images/earth.jpg","","","","","","","","","","","","","","fixation","","","","","",""
"d3-animate-choice","177","640717","0.0-76.0-0.14","1462","4963","10","Male","true","false","false","false","""event"",""trial"",""time""
""fullscreenenter"",""5"",""11739""
","
","
","""event"",""trial"",""time""
""fullscreenenter"",""5"",""11739""
","
","340.80000000074506","","49","","","3000","1","","","images/earth.jpg","images/rocket2","images/rocket1","null","images/rocket1","","1","real","null","1","","",""
"d3-animate-choice","178","643323","0.0-76.0-1.14","1462","4963","10","Male","true","false","false","false","""event"",""trial"",""time""
""fullscreenenter"",""5"",""11739""
","
","
","""event"",""trial"",""time""
""fullscreenenter"",""5"",""11739""
","
","588.1000000014901","","49","","","3000","1","","","images/redplanet1.jpg","images/alien2","images/alien1","images/rocket1","images/alien1","images/t.png","2","real","false","1","rare","1","2022-12-06 02:56:24.721"
"two-step-fixation","179","644342","0.0-76.0-2.14","1462","4963","10","Male","true","false","false","false","""event"",""trial"",""time""
""fullscreenenter"",""5"",""11739""
","
","
","""event"",""trial"",""time""
""fullscreenenter"",""5"",""11739""
","
","","images/earth.jpg","","","","","","","","","","","","","","fixation","","","","","",""
"d3-animate-choice","180","646683","0.0-76.0-0.15","1462","4963","10","Male","true","false","false","false","""event"",""trial"",""time""
""fullscreenenter"",""5"",""11739""
","
","
","""event"",""trial"",""time""
""fullscreenenter"",""5"",""11739""
","
","331.6000000014901","","49","","","3000","1","","","images/earth.jpg","images/rocket2","images/rocket1","null","images/rocket1","","1","real","null","1","","",""
"d3-animate-choice","181","649516","0.0-76.0-1.15","1462","4963","10","Male","true","false","false","false","""event"",""trial"",""time""
""fullscreenenter"",""5"",""11739""
","
","
","""event"",""trial"",""time""
""fullscreenenter"",""5"",""11739""
","
","823.7000000029802","","49","","","3000","1","","","images/purpleplanet.jpg","images/alien4","images/alien3","images/rocket1","images/alien3","images/nothing.png","2","real","true","1","common","0","2022-12-06 02:56:30.914"
"two-step-fixation","182","650528","0.0-76.0-2.15","1462","4963","10","Male","true","false","false","false","""event"",""trial"",""time""
""fullscreenenter"",""5"",""11739""
","
","
","""event"",""trial"",""time""
""fullscreenenter"",""5"",""11739""
","
","","images/earth.jpg","","","","","","","","","","","","","","fixation","","","","","",""
"d3-animate-choice","183","653291","0.0-76.0-0.16","1462","4963","10","Male","true","false","false","false","""event"",""trial"",""time""
""fullscreenenter"",""5"",""11739""
","
","
","""event"",""trial"",""time""
""fullscreenenter"",""5"",""11739""
","
","749.0999999977648","","48","","","3000","1","","","images/earth.jpg","images/rocket2","images/rocket1","null","images/rocket2","","1","real","null","2","","",""
"d3-animate-choice","184","655933","0.0-76.0-1.16","1462","4963","10","Male","true","false","false","false","""event"",""trial"",""time""
""fullscreenenter"",""5"",""11739""
","
","
","""event"",""trial"",""time""
""fullscreenenter"",""5"",""11739""
","
","623.3999999985099","","48","","","3000","1","","","images/redplanet1.jpg","images/alien2","images/alien1","images/rocket2","images/alien2","images/nothing.png","2","real","true","2","common","0","2022-12-06 02:56:37.331"
"two-step-fixation","185","656949","0.0-76.0-2.16","1462","4963","10","Male","true","false","false","false","""event"",""trial"",""time""
""fullscreenenter"",""5"",""11739""
","
","
","""event"",""trial"",""time""
""fullscreenenter"",""5"",""11739""
","
","","images/earth.jpg","","","","","","","","","","","","","","fixation","","","","","",""
"d3-animate-choice","186","659338","0.0-76.0-0.17","1462","4963","10","Male","true","false","false","false","""event"",""trial"",""time""
""fullscreenenter"",""5"",""11739""
","
","
","""event"",""trial"",""time""
""fullscreenenter"",""5"",""11739""
","
","372.19999999925494","","48","","","3000","1","","","images/earth.jpg","images/rocket2","images/rocket1","null","images/rocket2","","1","real","null","2","","",""
"d3-animate-choice","187","662046","0.0-76.0-1.17","1462","4963","10","Male","true","false","false","false","""event"",""trial"",""time""
""fullscreenenter"",""5"",""11739""
","
","
","""event"",""trial"",""time""
""fullscreenenter"",""5"",""11739""
","
","689","","48","","","3000","1","","","images/purpleplanet.jpg","images/alien4","images/alien3","images/rocket2","images/alien4","images/nothing.png","2","real","false","2","rare","0","2022-12-06 02:56:43.444"
"two-step-fixation","188","663064","0.0-76.0-2.17","1462","4963","10","Male","true","false","false","false","""event"",""trial"",""time""
""fullscreenenter"",""5"",""11739""
","
","
","""event"",""trial"",""time""
""fullscreenenter"",""5"",""11739""
","
","","images/earth.jpg","","","","","","","","","","","","","","fixation","","","","","",""
"d3-animate-choice","189","665466","0.0-76.0-0.18","1462","4963","10","Male","true","false","false","false","""event"",""trial"",""time""
""fullscreenenter"",""5"",""11739""
","
","
","""event"",""trial"",""time""
""fullscreenenter"",""5"",""11739""
","
","393.80000000074506","","48","","","3000","1","","","images/earth.jpg","images/rocket2","images/rocket1","null","images/rocket2","","1","real","null","2","","",""
"d3-animate-choice","190","667898","0.0-76.0-1.18","1462","4963","10","Male","true","false","false","false","""event"",""trial"",""time""
""fullscreenenter"",""5"",""11739""
","
","
","""event"",""trial"",""time""
""fullscreenenter"",""5"",""11739""
","
","415.5999999977648","","48","","","3000","1","","","images/redplanet1.jpg","images/alien2","images/alien1","images/rocket2","images/alien2","images/nothing.png","2","real","true","2","common","0","2022-12-06 02:56:49.297"
"two-step-fixation","191","668908","0.0-76.0-2.18","1462","4963","10","Male","true","false","false","false","""event"",""trial"",""time""
""fullscreenenter"",""5"",""11739""
","
","
","""event"",""trial"",""time""
""fullscreenenter"",""5"",""11739""
","
","","images/earth.jpg","","","","","","","","","","","","","","fixation","","","","","",""
"d3-animate-choice","192","671633","0.0-76.0-0.19","1462","4963","10","Male","true","false","false","false","""event"",""trial"",""time""
""fullscreenenter"",""5"",""11739""
","
","
","""event"",""trial"",""time""
""fullscreenenter"",""5"",""11739""
","
","716.0999999977648","","48","","","3000","1","","","images/earth.jpg","images/rocket2","images/rocket1","null","images/rocket2","","1","real","null","2","","",""
"d3-animate-choice","193","673988","0.0-76.0-1.19","1462","4963","10","Male","true","false","false","false","""event"",""trial"",""time""
""fullscreenenter"",""5"",""11739""
","
","
","""event"",""trial"",""time""
""fullscreenenter"",""5"",""11739""
","
","338.5","","49","","","3000","1","","","images/redplanet1.jpg","images/alien2","images/alien1","images/rocket2","images/alien1","images/t.png","2","real","true","1","common","1","2022-12-06 02:56:55.386"
"two-step-fixation","194","675001","0.0-76.0-2.19","1462","4963","10","Male","true","false","false","false","""event"",""trial"",""time""
""fullscreenenter"",""5"",""11739""
","
","
","""event"",""trial"",""time""
""fullscreenenter"",""5"",""11739""
","
","","images/earth.jpg","","","","","","","","","","","","","","fixation","","","","","",""
"d3-animate-choice","195","677294","0.0-76.0-0.20","1462","4963","10","Male","true","false","false","false","""event"",""trial"",""time""
""fullscreenenter"",""5"",""11739""
","
","
","""event"",""trial"",""time""
""fullscreenenter"",""5"",""11739""
","
","276.19999999925494","","49","","","3000","1","","","images/earth.jpg","images/rocket2","images/rocket1","null","images/rocket1","","1","real","null","1","","",""
"d3-animate-choice","196","680043","0.0-76.0-1.20","1462","4963","10","Male","true","false","false","false","""event"",""trial"",""time""
""fullscreenenter"",""5"",""11739""
","
","
","""event"",""trial"",""time""
""fullscreenenter"",""5"",""11739""
","
","735.3000000007451","","49","","","3000","1","","","images/purpleplanet.jpg","images/alien4","images/alien3","images/rocket1","images/alien3","images/nothing.png","2","real","true","1","common","0","2022-12-06 02:57:01.441"
"two-step-fixation","197","681060","0.0-76.0-2.20","1462","4963","10","Male","true","false","false","false","""event"",""trial"",""time""
""fullscreenenter"",""5"",""11739""
","
","
","""event"",""trial"",""time""
""fullscreenenter"",""5"",""11739""
","
","","images/earth.jpg","","","","","","","","","","","","","","fixation","","","","","",""
"d3-animate-choice","198","683418","0.0-76.0-0.21","1462","4963","10","Male","true","false","false","false","""event"",""trial"",""time""
""fullscreenenter"",""5"",""11739""
","
","
","""event"",""trial"",""time""
""fullscreenenter"",""5"",""11739""
","
","348.80000000074506","","49","","","3000","1","","","images/earth.jpg","images/rocket2","images/rocket1","null","images/rocket1","","1","real","null","1","","",""
"d3-animate-choice","199","686115","0.0-76.0-1.21","1462","4963","10","Male","true","false","false","false","""event"",""trial"",""time""
""fullscreenenter"",""5"",""11739""
","
","
","""event"",""trial"",""time""
""fullscreenenter"",""5"",""11739""
","
","675.3000000007451","","48","","","3000","1","","","images/purpleplanet.jpg","images/alien4","images/alien3","images/rocket1","images/alien4","images/t.png","2","real","true","2","common","1","2022-12-06 02:57:07.513"
"two-step-fixation","200","687122","0.0-76.0-2.21","1462","4963","10","Male","true","false","false","false","""event"",""trial"",""time""
""fullscreenenter"",""5"",""11739""
","
","
","""event"",""trial"",""time""
""fullscreenenter"",""5"",""11739""
","
","","images/earth.jpg","","","","","","","","","","","","","","fixation","","","","","",""
"d3-animate-choice","201","689631","0.0-76.0-0.22","1462","4963","10","Male","true","false","false","false","""event"",""trial"",""time""
""fullscreenenter"",""5"",""11739""
","
","
","""event"",""trial"",""time""
""fullscreenenter"",""5"",""11739""
","
","496.9000000022352","","49","","","3000","1","","","images/earth.jpg","images/rocket2","images/rocket1","null","images/rocket1","","1","real","null","1","","",""
"d3-animate-choice","202","692072","0.0-76.0-1.22","1462","4963","10","Male","true","false","false","false","""event"",""trial"",""time""
""fullscreenenter"",""5"",""11739""
","
","
","""event"",""trial"",""time""
""fullscreenenter"",""5"",""11739""
","
","425.80000000074506","","48","","","3000","1","","","images/purpleplanet.jpg","images/alien4","images/alien3","images/rocket1","images/alien4","images/t.png","2","real","true","2","common","1","2022-12-06 02:57:13.471"
"two-step-fixation","203","693084","0.0-76.0-2.22","1462","4963","10","Male","true","false","false","false","""event"",""trial"",""time""
""fullscreenenter"",""5"",""11739""
","
","
","""event"",""trial"",""time""
""fullscreenenter"",""5"",""11739""
","
","","images/earth.jpg","","","","","","","","","","","","","","fixation","","","","","",""
"d3-animate-choice","204","695398","0.0-76.0-0.23","1462","4963","10","Male","true","false","false","false","""event"",""trial"",""time""
""fullscreenenter"",""5"",""11739""
","
","
","""event"",""trial"",""time""
""fullscreenenter"",""5"",""11739""
","
","302.80000000074506","","49","","","3000","1","","","images/earth.jpg","images/rocket2","images/rocket1","null","images/rocket1","","1","real","null","1","","",""
"d3-animate-choice","205","697890","0.0-76.0-1.23","1462","4963","10","Male","true","false","false","false","""event"",""trial"",""time""
""fullscreenenter"",""5"",""11739""
","
","
","""event"",""trial"",""time""
""fullscreenenter"",""5"",""11739""
","
","480.6000000014901","","48","","","3000","1","","","images/purpleplanet.jpg","images/alien4","images/alien3","images/rocket1","images/alien4","images/t.png","2","real","true","2","common","1","2022-12-06 02:57:19.289"
"two-step-fixation","206","698904","0.0-76.0-2.23","1462","4963","10","Male","true","false","false","false","""event"",""trial"",""time""
""fullscreenenter"",""5"",""11739""
","
","
","""event"",""trial"",""time""
""fullscreenenter"",""5"",""11739""
","
","","images/earth.jpg","","","","","","","","","","","","","","fixation","","","","","",""
"d3-animate-choice","207","701187","0.0-76.0-0.24","1462","4963","10","Male","true","false","false","false","""event"",""trial"",""time""
""fullscreenenter"",""5"",""11739""
","
","
","""event"",""trial"",""time""
""fullscreenenter"",""5"",""11739""
","
","268","","49","","","3000","1","","","images/earth.jpg","images/rocket2","images/rocket1","null","images/rocket1","","1","real","null","1","","",""
"d3-animate-choice","208","703597","0.0-76.0-1.24","1462","4963","10","Male","true","false","false","false","""event"",""trial"",""time""
""fullscreenenter"",""5"",""11739""
","
","
","""event"",""trial"",""time""
""fullscreenenter"",""5"",""11739""
","
","398.69999999925494","","48","","","3000","1","","","images/purpleplanet.jpg","images/alien4","images/alien3","images/rocket1","images/alien4","images/t.png","2","real","true","2","common","1","2022-12-06 02:57:24.995"
"two-step-fixation","209","704614","0.0-76.0-2.24","1462","4963","10","Male","true","false","false","false","""event"",""trial"",""time""
""fullscreenenter"",""5"",""11739""
","
","
","""event"",""trial"",""time""
""fullscreenenter"",""5"",""11739""
","
","","images/earth.jpg","","","","","","","","","","","","","","fixation","","","","","",""
"d3-animate-choice","210","706877","0.0-76.0-0.25","1462","4963","10","Male","true","false","false","false","""event"",""trial"",""time""
""fullscreenenter"",""5"",""11739""
","
","
","""event"",""trial"",""time""
""fullscreenenter"",""5"",""11739""
","
","245.30000000074506","","49","","","3000","1","2087.39999999851","48","images/earth.jpg","images/rocket2","images/rocket1","null","images/rocket1","","1","real","null","1","","",""
"d3-animate-choice","211","709163","0.0-76.0-1.25","1462","4963","10","Male","true","false","false","false","""event"",""trial"",""time""
""fullscreenenter"",""5"",""11739""
","
","
","""event"",""trial"",""time""
""fullscreenenter"",""5"",""11739""
","
","273.20000000298023","","48","","","3000","1","","","images/purpleplanet.jpg","images/alien4","images/alien3","images/rocket1","images/alien4","images/t.png","2","real","true","2","common","1","2022-12-06 02:57:30.562"
"two-step-fixation","212","710177","0.0-76.0-2.25","1462","4963","10","Male","true","false","false","false","""event"",""trial"",""time""
""fullscreenenter"",""5"",""11739""
","
","
","""event"",""trial"",""time""
""fullscreenenter"",""5"",""11739""
","
","","images/earth.jpg","","","","","","","","","","","","","","fixation","","","","","",""
"d3-animate-choice","213","712480","0.0-76.0-0.26","1462","4963","10","Male","true","false","false","false","""event"",""trial"",""time""
""fullscreenenter"",""5"",""11739""
","
","
","""event"",""trial"",""time""
""fullscreenenter"",""5"",""11739""
","
","288.80000000074506","","49","","","3000","1","","","images/earth.jpg","images/rocket2","images/rocket1","null","images/rocket1","","1","real","null","1","","",""
"d3-animate-choice","214","714631","0.0-76.0-1.26","1462","4963","10","Male","true","false","false","false","""event"",""trial"",""time""
""fullscreenenter"",""5"",""11739""
","
","
","""event"",""trial"",""time""
""fullscreenenter"",""5"",""11739""
","
","129.89999999850988","","48","","","3000","1","","","images/purpleplanet.jpg","images/alien4","images/alien3","images/rocket1","images/alien4","images/t.png","2","real","true","2","common","1","2022-12-06 02:57:36.029"
"two-step-fixation","215","715647","0.0-76.0-2.26","1462","4963","10","Male","true","false","false","false","""event"",""trial"",""time""
""fullscreenenter"",""5"",""11739""
","
","
","""event"",""trial"",""time""
""fullscreenenter"",""5"",""11739""
","
","","images/earth.jpg","","","","","","","","","","","","","","fixation","","","","","",""
"d3-animate-choice","216","718009","0.0-76.0-0.27","1462","4963","10","Male","true","false","false","false","""event"",""trial"",""time""
""fullscreenenter"",""5"",""11739""
","
","
","""event"",""trial"",""time""
""fullscreenenter"",""5"",""11739""
","
","349.8999999985099","","49","","","3000","1","","","images/earth.jpg","images/rocket2","images/rocket1","null","images/rocket1","","1","real","null","1","","",""
"d3-animate-choice","217","720576","0.0-76.0-1.27","1462","4963","10","Male","true","false","false","false","""event"",""trial"",""time""
""fullscreenenter"",""5"",""11739""
","
","
","""event"",""trial"",""time""
""fullscreenenter"",""5"",""11739""
","
","552.1000000014901","","48","","","3000","1","","","images/purpleplanet.jpg","images/alien4","images/alien3","images/rocket1","images/alien4","images/t.png","2","real","true","2","common","1","2022-12-06 02:57:41.974"
"two-step-fixation","218","721585","0.0-76.0-2.27","1462","4963","10","Male","true","false","false","false","""event"",""trial"",""time""
""fullscreenenter"",""5"",""11739""
","
","
","""event"",""trial"",""time""
""fullscreenenter"",""5"",""11739""
","
","","images/earth.jpg","","","","","","","","","","","","","","fixation","","","","","",""
"d3-animate-choice","219","723912","0.0-76.0-0.28","1462","4963","10","Male","true","false","false","false","""event"",""trial"",""time""
""fullscreenenter"",""5"",""11739""
","
","
","""event"",""trial"",""time""
""fullscreenenter"",""5"",""11739""
","
","319.0999999977648","","49","","","3000","1","2264","48","images/earth.jpg","images/rocket2","images/rocket1","null","images/rocket1","","1","real","null","1","","",""
"d3-animate-choice","220","726404","0.0-76.0-1.28","1462","4963","10","Male","true","false","false","false","""event"",""trial"",""time""
""fullscreenenter"",""5"",""11739""
","
","
","""event"",""trial"",""time""
""fullscreenenter"",""5"",""11739""
","
","479.6000000014901","","48","","","3000","1","","","images/purpleplanet.jpg","images/alien4","images/alien3","images/rocket1","images/alien4","images/t.png","2","real","true","2","common","1","2022-12-06 02:57:47.802"
"two-step-fixation","221","727412","0.0-76.0-2.28","1462","4963","10","Male","true","false","false","false","""event"",""trial"",""time""
""fullscreenenter"",""5"",""11739""
","
","
","""event"",""trial"",""time""
""fullscreenenter"",""5"",""11739""
","
","","images/earth.jpg","","","","","","","","","","","","","","fixation","","","","","",""
"d3-animate-choice","222","730452","0.0-76.0-0.29","1462","4963","10","Male","true","false","false","false","""event"",""trial"",""time""
""fullscreenenter"",""5"",""11739""
","
","
","""event"",""trial"",""time""
""fullscreenenter"",""5"",""11739""
","
","1027.8999999985099","","49","","","3000","1","","","images/earth.jpg","images/rocket2","images/rocket1","null","images/rocket1","","1","real","null","1","","",""
"d3-animate-choice","223","732909","0.0-76.0-1.29","1462","4963","10","Male","true","false","false","false","""event"",""trial"",""time""
""fullscreenenter"",""5"",""11739""
","
","
","""event"",""trial"",""time""
""fullscreenenter"",""5"",""11739""
","
","438.5","","48","","","3000","1","","","images/purpleplanet.jpg","images/alien4","images/alien3","images/rocket1","images/alien4","images/t.png","2","real","true","2","common","1","2022-12-06 02:57:54.308"
"two-step-fixation","224","733926","0.0-76.0-2.29","1462","4963","10","Male","true","false","false","false","""event"",""trial"",""time""
""fullscreenenter"",""5"",""11739""
","
","
","""event"",""trial"",""time""
""fullscreenenter"",""5"",""11739""
","
","","images/earth.jpg","","","","","","","","","","","","","","fixation","","","","","",""
"d3-animate-choice","225","736257","0.0-76.0-0.30","1462","4963","10","Male","true","false","false","false","""event"",""trial"",""time""
""fullscreenenter"",""5"",""11739""
","
","
","""event"",""trial"",""time""
""fullscreenenter"",""5"",""11739""
","
","321.8999999985099","","49","","","3000","1","","","images/earth.jpg","images/rocket2","images/rocket1","null","images/rocket1","","1","real","null","1","","",""
"d3-animate-choice","226","738782","0.0-76.0-1.30","1462","4963","10","Male","true","false","false","false","""event"",""trial"",""time""
""fullscreenenter"",""5"",""11739""
","
","
","""event"",""trial"",""time""
""fullscreenenter"",""5"",""11739""
","
","513.3000000007451","","48","","","3000","1","","","images/purpleplanet.jpg","images/alien4","images/alien3","images/rocket1","images/alien4","images/t.png","2","real","true","2","common","1","2022-12-06 02:58:00.181"
"two-step-fixation","227","739791","0.0-76.0-2.30","1462","4963","10","Male","true","false","false","false","""event"",""trial"",""time""
""fullscreenenter"",""5"",""11739""
","
","
","""event"",""trial"",""time""
""fullscreenenter"",""5"",""11739""
","
","","images/earth.jpg","","","","","","","","","","","","","","fixation","","","","","",""
"d3-animate-choice","228","742344","0.0-76.0-0.31","1462","4963","10","Male","true","false","false","false","""event"",""trial"",""time""
""fullscreenenter"",""5"",""11739""
","
","
","""event"",""trial"",""time""
""fullscreenenter"",""5"",""11739""
","
","538.5999999977648","","49","","","3000","1","","","images/earth.jpg","images/rocket2","images/rocket1","null","images/rocket1","","1","real","null","1","","",""
"d3-animate-choice","229","744793","0.0-76.0-1.31","1462","4963","10","Male","true","false","false","false","""event"",""trial"",""time""
""fullscreenenter"",""5"",""11739""
","
","
","""event"",""trial"",""time""
""fullscreenenter"",""5"",""11739""
","
","439.19999999925494","","48","","","3000","1","","","images/purpleplanet.jpg","images/alien4","images/alien3","images/rocket1","images/alien4","images/nothing.png","2","real","true","2","common","0","2022-12-06 02:58:06.192"
"two-step-fixation","230","745810","0.0-76.0-2.31","1462","4963","10","Male","true","false","false","false","""event"",""trial"",""time""
""fullscreenenter"",""5"",""11739""
","
","
","""event"",""trial"",""time""
""fullscreenenter"",""5"",""11739""
","
","","images/earth.jpg","","","","","","","","","","","","","","fixation","","","","","",""
"d3-animate-choice","231","748048","0.0-76.0-0.32","1462","4963","10","Male","true","false","false","false","""event"",""trial"",""time""
""fullscreenenter"",""5"",""11739""
","
","
","""event"",""trial"",""time""
""fullscreenenter"",""5"",""11739""
","
","227.5","","48","","","3000","1","","","images/earth.jpg","images/rocket2","images/rocket1","null","images/rocket2","","1","real","null","2","","",""
"d3-animate-choice","232","751114","0.0-76.0-1.32","1462","4963","10","Male","true","false","false","false","""event"",""trial"",""time""
""fullscreenenter"",""5"",""11739""
","
","
","""event"",""trial"",""time""
""fullscreenenter"",""5"",""11739""
","
","1048.1000000014901","","48","","","3000","1","","","images/purpleplanet.jpg","images/alien4","images/alien3","images/rocket2","images/alien4","images/t.png","2","real","false","2","rare","1","2022-12-06 02:58:12.512"
"two-step-fixation","233","752121","0.0-76.0-2.32","1462","4963","10","Male","true","false","false","false","""event"",""trial"",""time""
""fullscreenenter"",""5"",""11739""
","
","
","""event"",""trial"",""time""
""fullscreenenter"",""5"",""11739""
","
","","images/earth.jpg","","","","","","","","","","","","","","fixation","","","","","",""
"d3-animate-choice","234","755016","0.0-76.0-0.33","1462","4963","10","Male","true","false","false","false","""event"",""trial"",""time""
""fullscreenenter"",""5"",""11739""
","
","
","""event"",""trial"",""time""
""fullscreenenter"",""5"",""11739""
","
","882.5","","48","","","3000","1","","","images/earth.jpg","images/rocket2","images/rocket1","null","images/rocket2","","1","real","null","2","","",""
"d3-animate-choice","235","757676","0.0-76.0-1.33","1462","4963","10","Male","true","false","false","false","""event"",""trial"",""time""
""fullscreenenter"",""5"",""11739""
","
","
","""event"",""trial"",""time""
""fullscreenenter"",""5"",""11739""
","
","643.8000000007451","","48","","","3000","1","","","images/redplanet1.jpg","images/alien2","images/alien1","images/rocket2","images/alien2","images/t.png","2","real","true","2","common","1","2022-12-06 02:58:19.074"
"two-step-fixation","236","758690","0.0-76.0-2.33","1462","4963","10","Male","true","false","false","false","""event"",""trial"",""time""
""fullscreenenter"",""5"",""11739""
","
","
","""event"",""trial"",""time""
""fullscreenenter"",""5"",""11739""
","
","","images/earth.jpg","","","","","","","","","","","","","","fixation","","","","","",""
"d3-animate-choice","237","760885","0.0-76.0-0.34","1462","4963","10","Male","true","false","false","false","""event"",""trial"",""time""
""fullscreenenter"",""5"",""11739""
","
","
","""event"",""trial"",""time""
""fullscreenenter"",""5"",""11739""
","
","187.39999999850988","","48","","","3000","1","","","images/earth.jpg","images/rocket2","images/rocket1","null","images/rocket2","","1","real","null","2","","",""
"d3-animate-choice","238","763476","0.0-76.0-1.34","1462","4963","10","Male","true","false","false","false","""event"",""trial"",""time""
""fullscreenenter"",""5"",""11739""
","
","
","""event"",""trial"",""time""
""fullscreenenter"",""5"",""11739""
","
","579.1999999992549","","48","","","3000","1","","","images/redplanet1.jpg","images/alien2","images/alien1","images/rocket2","images/alien2","images/nothing.png","2","real","true","2","common","0","2022-12-06 02:58:24.874"
"two-step-fixation","239","764493","0.0-76.0-2.34","1462","4963","10","Male","true","false","false","false","""event"",""trial"",""time""
""fullscreenenter"",""5"",""11739""
","
","
","""event"",""trial"",""time""
""fullscreenenter"",""5"",""11739""
","
","","images/earth.jpg","","","","","","","","","","","","","","fixation","","","","","",""
"d3-animate-choice","240","766919","0.0-76.0-0.35","1462","4963","10","Male","true","false","false","false","""event"",""trial"",""time""
""fullscreenenter"",""5"",""11739""
","
","
","""event"",""trial"",""time""
""fullscreenenter"",""5"",""11739""
","
","417.5","","49","","","3000","1","","","images/earth.jpg","images/rocket2","images/rocket1","null","images/rocket1","","1","real","null","1","","",""
"d3-animate-choice","241","769515","0.0-76.0-1.35","1462","4963","10","Male","true","false","false","false","""event"",""trial"",""time""
""fullscreenenter"",""5"",""11739""
","
","
","""event"",""trial"",""time""
""fullscreenenter"",""5"",""11739""
","
","581.5","","48","","","3000","1","","","images/redplanet1.jpg","images/alien2","images/alien1","images/rocket1","images/alien2","images/t.png","2","real","false","2","rare","1","2022-12-06 02:58:30.913"
"two-step-fixation","242","770526","0.0-76.0-2.35","1462","4963","10","Male","true","false","false","false","""event"",""trial"",""time""
""fullscreenenter"",""5"",""11739""
","
","
","""event"",""trial"",""time""
""fullscreenenter"",""5"",""11739""
","
","","images/earth.jpg","","","","","","","","","","","","","","fixation","","","","","",""
"d3-animate-choice","243","772849","0.0-76.0-0.36","1462","4963","10","Male","true","false","false","false","""event"",""trial"",""time""
""fullscreenenter"",""5"",""11739""
","
","
","""event"",""trial"",""time""
""fullscreenenter"",""5"",""11739""
","
","312.5999999977648","","49","","","3000","1","","","images/earth.jpg","images/rocket2","images/rocket1","null","images/rocket1","","1","real","null","1","","",""
"d3-animate-choice","244","775324","0.0-76.0-1.36","1462","4963","10","Male","true","false","false","false","""event"",""trial"",""time""
""fullscreenenter"",""5"",""11739""
","
","
","""event"",""trial"",""time""
""fullscreenenter"",""5"",""11739""
","
","457.19999999925494","","48","","","3000","1","","","images/purpleplanet.jpg","images/alien4","images/alien3","images/rocket1","images/alien4","images/t.png","2","real","true","2","common","1","2022-12-06 02:58:36.722"
"two-step-fixation","245","776339","0.0-76.0-2.36","1462","4963","10","Male","true","false","false","false","""event"",""trial"",""time""
""fullscreenenter"",""5"",""11739""
","
","
","""event"",""trial"",""time""
""fullscreenenter"",""5"",""11739""
","
","","images/earth.jpg","","","","","","","","","","","","","","fixation","","","","","",""