"trial_type","trial_index","time_elapsed","internal_node_id","participant_id","subject_id","age","gender","rocket_sides","red_planet_first_rocket","red_display_order","purple_display_order","interactions","blur_events","focus_events","fullscreenenter_events","fullscreenexit_events","rt","stimulus","key_press","button_pressed","success","duration","valid_pressed","rts","keys","planet_text","right_text","left_text","center_text","chosen_text","reward_text","trial_stage","practice_trial","transition_type","choice","transition","reward","timestamp"
"pavlovia","0","15","0.0-0.0","804","1111","14","Male","true","true","true","true","
","
","
","
","
","","","","","","","","","","","","","","","","","","","","","",""
"html-keyboard-response","1","1738","0.0-1.0","804","1111","14","Male","true","true","true","true","""event"",""trial"",""time""
""blur"",""2"",""5209""
""focus"",""2"",""6401""
","""event"",""trial"",""time""
""blur"",""2"",""5209""
","""event"",""trial"",""time""
""focus"",""2"",""6401""
","
","
","1717.800000011921","Welcome! Press the space bar to begin.","32","","","","","","","","","","","","","","","","","","",""
"audio-keyboard-response","2","8466","0.0-2.0","804","1111","14","Male","true","true","true","true","""event"",""trial"",""time""
""blur"",""2"",""5209""
""focus"",""2"",""6401""
","""event"",""trial"",""time""
""blur"",""2"",""5209""
","""event"",""trial"",""time""
""focus"",""2"",""6401""
","
","
","6624","audio/beep_loop.wav","32","","","","","","","","","","","","","","","","","","",""
"audio-button-response","3","12679","0.0-3.0","804","1111","14","Male","true","true","true","true","""event"",""trial"",""time""
""blur"",""2"",""5209""
""focus"",""2"",""6401""
","""event"",""trial"",""time""
""blur"",""2"",""5209""
","""event"",""trial"",""time""
""focus"",""2"",""6401""
","
","
","NaN","audio/fish.mp3","","1","","","","","","","","","","","","","","","","","",""
"audio-button-response","4","15704","0.0-4.0","804","1111","14","Male","true","true","true","true","""event"",""trial"",""time""
""blur"",""2"",""5209""
""focus"",""2"",""6401""
""fullscreenenter"",""5"",""19053""
","""event"",""trial"",""time""
""blur"",""2"",""5209""
","""event"",""trial"",""time""
""focus"",""2"",""6401""
","""event"",""trial"",""time""
""fullscreenenter"",""5"",""19053""
","
","NaN","audio/tiger.mp3","","4","","","","","","","","","","","","","","","","","",""
"fullscreen","5","19955","0.0-5.0","804","1111","14","Male","true","true","true","true","""event"",""trial"",""time""
""blur"",""2"",""5209""
""focus"",""2"",""6401""
""fullscreenenter"",""5"",""19053""
","""event"",""trial"",""time""
""blur"",""2"",""5209""
","""event"",""trial"",""time""
""focus"",""2"",""6401""
","""event"",""trial"",""time""
""fullscreenenter"",""5"",""19053""
","
","","","","","true","","","","","","","","","","","","","","","","",""
"d3-instructions","6","34721","0.0-6.0","804","1111","14","Male","true","true","true","true","""event"",""trial"",""time""
""blur"",""2"",""5209""
""focus"",""2"",""6401""
""fullscreenenter"",""5"",""19053""
","""event"",""trial"",""time""
""blur"",""2"",""5209""
","""event"",""trial"",""time""
""focus"",""2"",""6401""
","""event"",""trial"",""time""
""fullscreenenter"",""5"",""19053""
","
","","","","","","","","","","","","","","","","","","","","","",""
"d3-instructions","7","44239","0.0-7.0","804","1111","14","Male","true","true","true","true","""event"",""trial"",""time""
""blur"",""2"",""5209""
""focus"",""2"",""6401""
""fullscreenenter"",""5"",""19053""
","""event"",""trial"",""time""
""blur"",""2"",""5209""
","""event"",""trial"",""time""
""focus"",""2"",""6401""
","""event"",""trial"",""time""
""fullscreenenter"",""5"",""19053""
","
","","","","","","","","","","","","","","","","","","","","","",""
"d3-instructions","8","50655","0.0-8.0","804","1111","14","Male","true","true","true","true","""event"",""trial"",""time""
""blur"",""2"",""5209""
""focus"",""2"",""6401""
""fullscreenenter"",""5"",""19053""
","""event"",""trial"",""time""
""blur"",""2"",""5209""
","""event"",""trial"",""time""
""focus"",""2"",""6401""
","""event"",""trial"",""time""
""fullscreenenter"",""5"",""19053""
","
","","","","","","","","","","","","","","","","","","","","","",""
"d3-instructions","9","62026","0.0-9.0","804","1111","14","Male","true","true","true","true","""event"",""trial"",""time""
""blur"",""2"",""5209""
""focus"",""2"",""6401""
""fullscreenenter"",""5"",""19053""
","""event"",""trial"",""time""
""blur"",""2"",""5209""
","""event"",""trial"",""time""
""focus"",""2"",""6401""
","""event"",""trial"",""time""
""fullscreenenter"",""5"",""19053""
","
","","","","","","","","","","","","","","","","","","","","","",""
"d3-instructions","10","82268","0.0-10.0","804","1111","14","Male","true","true","true","true","""event"",""trial"",""time""
""blur"",""2"",""5209""
""focus"",""2"",""6401""
""fullscreenenter"",""5"",""19053""
","""event"",""trial"",""time""
""blur"",""2"",""5209""
","""event"",""trial"",""time""
""focus"",""2"",""6401""
","""event"",""trial"",""time""
""fullscreenenter"",""5"",""19053""
","
","","","","","","","","","","","","","","","","","","","","","",""
"d3-animate-choice","11","88095","0.0-11.0","804","1111","14","Male","true","true","true","true","""event"",""trial"",""time""
""blur"",""2"",""5209""
""focus"",""2"",""6401""
""fullscreenenter"",""5"",""19053""
","""event"",""trial"",""time""
""blur"",""2"",""5209""
","""event"",""trial"",""time""
""focus"",""2"",""6401""
","""event"",""trial"",""time""
""fullscreenenter"",""5"",""19053""
","
","3801.7000000178814","","49","","","3000","1","4914.800000011921,5671.600000023842","48,49","images/tutgreenplanet.jpg","images/tutalien1","images/tutalien2","null","images/tutalien2","","NA","practice","null","","","",""
"d3-animate-choice","12","90384","0.0-12.0","804","1111","14","Male","true","true","true","true","""event"",""trial"",""time""
""blur"",""2"",""5209""
""focus"",""2"",""6401""
""fullscreenenter"",""5"",""19053""
","""event"",""trial"",""time""
""blur"",""2"",""5209""
","""event"",""trial"",""time""
""focus"",""2"",""6401""
","""event"",""trial"",""time""
""fullscreenenter"",""5"",""19053""
","
","278.59999999403954","","48","","","3000","1","1191.5999999940395,2039.5999999940395","48,48","images/tutgreenplanet.jpg","images/tutalien1","images/tutalien2","null","images/tutalien1","","NA","practice","null","","","",""
"d3-animate-choice","13","92955","0.0-13.0","804","1111","14","Male","true","true","true","true","""event"",""trial"",""time""
""blur"",""2"",""5209""
""focus"",""2"",""6401""
""fullscreenenter"",""5"",""19053""
","""event"",""trial"",""time""
""blur"",""2"",""5209""
","""event"",""trial"",""time""
""focus"",""2"",""6401""
","""event"",""trial"",""time""
""fullscreenenter"",""5"",""19053""
","
","559.2000000178814","","48","","","3000","1","1065.300000011921,1600.7000000178814,2110.5","48,48,48","images/tutgreenplanet.jpg","images/tutalien1","images/tutalien2","null","images/tutalien1","","NA","practice","null","","","",""
"d3-animate-choice","14","95595","0.0-14.0","804","1111","14","Male","true","true","true","true","""event"",""trial"",""time""
""blur"",""2"",""5209""
""focus"",""2"",""6401""
""fullscreenenter"",""5"",""19053""
","""event"",""trial"",""time""
""blur"",""2"",""5209""
","""event"",""trial"",""time""
""focus"",""2"",""6401""
","""event"",""trial"",""time""
""fullscreenenter"",""5"",""19053""
","
","625.1000000238419","","48","","","3000","1","1426.2000000178814","48","images/tutgreenplanet.jpg","images/tutalien1","images/tutalien2","null","images/tutalien1","","NA","practice","null","","","",""
"d3-instructions","15","105113","0.0-15.0","804","1111","14","Male","true","true","true","true","""event"",""trial"",""time""
""blur"",""2"",""5209""
""focus"",""2"",""6401""
""fullscreenenter"",""5"",""19053""
","""event"",""trial"",""time""
""blur"",""2"",""5209""
","""event"",""trial"",""time""
""focus"",""2"",""6401""
","""event"",""trial"",""time""
""fullscreenenter"",""5"",""19053""
","
","","","","","","","","","","","","","","","","","","","","","",""
"d3-instructions","16","113381","0.0-16.0","804","1111","14","Male","true","true","true","true","""event"",""trial"",""time""
""blur"",""2"",""5209""
""focus"",""2"",""6401""
""fullscreenenter"",""5"",""19053""
","""event"",""trial"",""time""
""blur"",""2"",""5209""
","""event"",""trial"",""time""
""focus"",""2"",""6401""
","""event"",""trial"",""time""
""fullscreenenter"",""5"",""19053""
","
","","","","","","","","","","","","","","","","","","","","","",""
"d3-instructions","17","121765","0.0-17.0","804","1111","14","Male","true","true","true","true","""event"",""trial"",""time""
""blur"",""2"",""5209""
""focus"",""2"",""6401""
""fullscreenenter"",""5"",""19053""
","""event"",""trial"",""time""
""blur"",""2"",""5209""
","""event"",""trial"",""time""
""focus"",""2"",""6401""
","""event"",""trial"",""time""
""fullscreenenter"",""5"",""19053""
","
","","","","","","","","","","","","","","","","","","","","","",""
"d3-instructions","18","134772","0.0-18.0","804","1111","14","Male","true","true","true","true","""event"",""trial"",""time""
""blur"",""2"",""5209""
""focus"",""2"",""6401""
""fullscreenenter"",""5"",""19053""
","""event"",""trial"",""time""
""blur"",""2"",""5209""
","""event"",""trial"",""time""
""focus"",""2"",""6401""
","""event"",""trial"",""time""
""fullscreenenter"",""5"",""19053""
","
","","","","","","","","","","","","","","","","","","","","","",""
"d3-instructions","19","148816","0.0-19.0","804","1111","14","Male","true","true","true","true","""event"",""trial"",""time""
""blur"",""2"",""5209""
""focus"",""2"",""6401""
""fullscreenenter"",""5"",""19053""
","""event"",""trial"",""time""
""blur"",""2"",""5209""
","""event"",""trial"",""time""
""focus"",""2"",""6401""
","""event"",""trial"",""time""
""fullscreenenter"",""5"",""19053""
","
","","","","","","","","","","","","","","","","","","","","","",""
"d3-animate-choice","20","152155","0.0-20.0","804","1111","14","Male","true","true","true","true","""event"",""trial"",""time""
""blur"",""2"",""5209""
""focus"",""2"",""6401""
""fullscreenenter"",""5"",""19053""
","""event"",""trial"",""time""
""blur"",""2"",""5209""
","""event"",""trial"",""time""
""focus"",""2"",""6401""
","""event"",""trial"",""time""
""fullscreenenter"",""5"",""19053""
","
","1328.7999999821186","","49","","","3000","1","","","images/tutyellowplanet.jpg","null","images/tutalien3","null","images/tutalien3","images/t.png","NA","practice","null","","","",""
"d3-animate-choice","21","154634","0.0-21.0","804","1111","14","Male","true","true","true","true","""event"",""trial"",""time""
""blur"",""2"",""5209""
""focus"",""2"",""6401""
""fullscreenenter"",""5"",""19053""
","""event"",""trial"",""time""
""blur"",""2"",""5209""
","""event"",""trial"",""time""
""focus"",""2"",""6401""
","""event"",""trial"",""time""
""fullscreenenter"",""5"",""19053""
","
","465.90000000596046","","49","","","3000","1","","","images/tutyellowplanet.jpg","null","images/tutalien3","null","images/tutalien3","images/nothing.png","NA","practice","null","","","",""
"d3-animate-choice","22","156985","0.0-22.0","804","1111","14","Male","true","true","true","true","""event"",""trial"",""time""
""blur"",""2"",""5209""
""focus"",""2"",""6401""
""fullscreenenter"",""5"",""19053""
","""event"",""trial"",""time""
""blur"",""2"",""5209""
","""event"",""trial"",""time""
""focus"",""2"",""6401""
","""event"",""trial"",""time""
""fullscreenenter"",""5"",""19053""
","
","337.69999998807907","","49","","","3000","1","","","images/tutyellowplanet.jpg","null","images/tutalien3","null","images/tutalien3","images/t.png","NA","practice","null","","","",""
"d3-animate-choice","23","159346","0.0-23.0","804","1111","14","Male","true","true","true","true","""event"",""trial"",""time""
""blur"",""2"",""5209""
""focus"",""2"",""6401""
""fullscreenenter"",""5"",""19053""
","""event"",""trial"",""time""
""blur"",""2"",""5209""
","""event"",""trial"",""time""
""focus"",""2"",""6401""
","""event"",""trial"",""time""
""fullscreenenter"",""5"",""19053""
","
","348","","49","","","3000","1","","","images/tutyellowplanet.jpg","null","images/tutalien3","null","images/tutalien3","images/t.png","NA","practice","null","","","",""
"d3-animate-choice","24","161800","0.0-24.0","804","1111","14","Male","true","true","true","true","""event"",""trial"",""time""
""blur"",""2"",""5209""
""focus"",""2"",""6401""
""fullscreenenter"",""5"",""19053""
","""event"",""trial"",""time""
""blur"",""2"",""5209""
","""event"",""trial"",""time""
""focus"",""2"",""6401""
","""event"",""trial"",""time""
""fullscreenenter"",""5"",""19053""
","
","439.5","","49","","","3000","1","","","images/tutyellowplanet.jpg","null","images/tutalien3","null","images/tutalien3","images/t.png","NA","practice","null","","","",""
"d3-animate-choice","25","164183","0.0-25.0","804","1111","14","Male","true","true","true","true","""event"",""trial"",""time""
""blur"",""2"",""5209""
""focus"",""2"",""6401""
""fullscreenenter"",""5"",""19053""
","""event"",""trial"",""time""
""blur"",""2"",""5209""
","""event"",""trial"",""time""
""focus"",""2"",""6401""
","""event"",""trial"",""time""
""fullscreenenter"",""5"",""19053""
","
","371.09999999403954","","49","","","3000","1","","","images/tutyellowplanet.jpg","null","images/tutalien3","null","images/tutalien3","images/t.png","NA","practice","null","","","",""
"d3-animate-choice","26","166630","0.0-26.0","804","1111","14","Male","true","true","true","true","""event"",""trial"",""time""
""blur"",""2"",""5209""
""focus"",""2"",""6401""
""fullscreenenter"",""5"",""19053""
","""event"",""trial"",""time""
""blur"",""2"",""5209""
","""event"",""trial"",""time""
""focus"",""2"",""6401""
","""event"",""trial"",""time""
""fullscreenenter"",""5"",""19053""
","
","431","","49","","","3000","1","","","images/tutyellowplanet.jpg","null","images/tutalien3","null","images/tutalien3","images/t.png","NA","practice","null","","","",""
"d3-animate-choice","27","169158","0.0-27.0","804","1111","14","Male","true","true","true","true","""event"",""trial"",""time""
""blur"",""2"",""5209""
""focus"",""2"",""6401""
""fullscreenenter"",""5"",""19053""
","""event"",""trial"",""time""
""blur"",""2"",""5209""
","""event"",""trial"",""time""
""focus"",""2"",""6401""
","""event"",""trial"",""time""
""fullscreenenter"",""5"",""19053""
","
","515.5999999940395","","49","","","3000","1","","","images/tutyellowplanet.jpg","null","images/tutalien3","null","images/tutalien3","images/nothing.png","NA","practice","null","","","",""
"d3-animate-choice","28","171629","0.0-28.0","804","1111","14","Male","true","true","true","true","""event"",""trial"",""time""
""blur"",""2"",""5209""
""focus"",""2"",""6401""
""fullscreenenter"",""5"",""19053""
","""event"",""trial"",""time""
""blur"",""2"",""5209""
","""event"",""trial"",""time""
""focus"",""2"",""6401""
","""event"",""trial"",""time""
""fullscreenenter"",""5"",""19053""
","
","456.7000000178814","","49","","","3000","1","","","images/tutyellowplanet.jpg","null","images/tutalien3","null","images/tutalien3","images/t.png","NA","practice","null","","","",""
"d3-animate-choice","29","174065","0.0-29.0","804","1111","14","Male","true","true","true","true","""event"",""trial"",""time""
""blur"",""2"",""5209""
""focus"",""2"",""6401""
""fullscreenenter"",""5"",""19053""
","""event"",""trial"",""time""
""blur"",""2"",""5209""
","""event"",""trial"",""time""
""focus"",""2"",""6401""
","""event"",""trial"",""time""
""fullscreenenter"",""5"",""19053""
","
","422.69999998807907","","49","","","3000","1","","","images/tutyellowplanet.jpg","null","images/tutalien3","null","images/tutalien3","images/nothing.png","NA","practice","null","","","",""
"d3-instructions","30","181241","0.0-30.0","804","1111","14","Male","true","true","true","true","""event"",""trial"",""time""
""blur"",""2"",""5209""
""focus"",""2"",""6401""
""fullscreenenter"",""5"",""19053""
","""event"",""trial"",""time""
""blur"",""2"",""5209""
","""event"",""trial"",""time""
""focus"",""2"",""6401""
","""event"",""trial"",""time""
""fullscreenenter"",""5"",""19053""
","
","","","","","","","","","","","","","","","","","","","","","",""
"d3-instructions","31","190756","0.0-31.0","804","1111","14","Male","true","true","true","true","""event"",""trial"",""time""
""blur"",""2"",""5209""
""focus"",""2"",""6401""
""fullscreenenter"",""5"",""19053""
","""event"",""trial"",""time""
""blur"",""2"",""5209""
","""event"",""trial"",""time""
""focus"",""2"",""6401""
","""event"",""trial"",""time""
""fullscreenenter"",""5"",""19053""
","
","","","","","","","","","","","","","","","","","","","","","",""
"d3-instructions","32","197805","0.0-32.0","804","1111","14","Male","true","true","true","true","""event"",""trial"",""time""
""blur"",""2"",""5209""
""focus"",""2"",""6401""
""fullscreenenter"",""5"",""19053""
","""event"",""trial"",""time""
""blur"",""2"",""5209""
","""event"",""trial"",""time""
""focus"",""2"",""6401""
","""event"",""trial"",""time""
""fullscreenenter"",""5"",""19053""
","
","","","","","","","","","","","","","","","","","","","","","",""
"d3-instructions","33","207800","0.0-33.0","804","1111","14","Male","true","true","true","true","""event"",""trial"",""time""
""blur"",""2"",""5209""
""focus"",""2"",""6401""
""fullscreenenter"",""5"",""19053""
","""event"",""trial"",""time""
""blur"",""2"",""5209""
","""event"",""trial"",""time""
""focus"",""2"",""6401""
","""event"",""trial"",""time""
""fullscreenenter"",""5"",""19053""
","
","","","","","","","","","","","","","","","","","","","","","",""
"d3-animate-choice","34","211590","0.0-34.0","804","1111","14","Male","true","true","true","true","""event"",""trial"",""time""
""blur"",""2"",""5209""
""focus"",""2"",""6401""
""fullscreenenter"",""5"",""19053""
","""event"",""trial"",""time""
""blur"",""2"",""5209""
","""event"",""trial"",""time""
""focus"",""2"",""6401""
","""event"",""trial"",""time""
""fullscreenenter"",""5"",""19053""
","
","1777","","49","","","3000","1","","","images/tutgreenplanet.jpg","images/tutalien1","images/tutalien2","null","images/tutalien2","images/t.png","NA","practice","null","","","",""
"d3-animate-choice","35","214095","0.0-35.0","804","1111","14","Male","true","true","true","true","""event"",""trial"",""time""
""blur"",""2"",""5209""
""focus"",""2"",""6401""
""fullscreenenter"",""5"",""19053""
","""event"",""trial"",""time""
""blur"",""2"",""5209""
","""event"",""trial"",""time""
""focus"",""2"",""6401""
","""event"",""trial"",""time""
""fullscreenenter"",""5"",""19053""
","
","485.90000000596046","","49","","","3000","1","","","images/tutgreenplanet.jpg","images/tutalien1","images/tutalien2","null","images/tutalien2","images/t.png","NA","practice","null","","","",""
"d3-animate-choice","36","216420","0.0-36.0","804","1111","14","Male","true","true","true","true","""event"",""trial"",""time""
""blur"",""2"",""5209""
""focus"",""2"",""6401""
""fullscreenenter"",""5"",""19053""
","""event"",""trial"",""time""
""blur"",""2"",""5209""
","""event"",""trial"",""time""
""focus"",""2"",""6401""
","""event"",""trial"",""time""
""fullscreenenter"",""5"",""19053""
","
","309.7000000178814","","49","","","3000","1","","","images/tutgreenplanet.jpg","images/tutalien1","images/tutalien2","null","images/tutalien2","images/nothing.png","NA","practice","null","","","",""
"d3-animate-choice","37","218798","0.0-37.0","804","1111","14","Male","true","true","true","true","""event"",""trial"",""time""
""blur"",""2"",""5209""
""focus"",""2"",""6401""
""fullscreenenter"",""5"",""19053""
","""event"",""trial"",""time""
""blur"",""2"",""5209""
","""event"",""trial"",""time""
""focus"",""2"",""6401""
","""event"",""trial"",""time""
""fullscreenenter"",""5"",""19053""
","
","366.7000000178814","","49","","","3000","1","","","images/tutgreenplanet.jpg","images/tutalien1","images/tutalien2","null","images/tutalien2","images/t.png","NA","practice","null","","","",""
"d3-animate-choice","38","221149","0.0-38.0","804","1111","14","Male","true","true","true","true","""event"",""trial"",""time""
""blur"",""2"",""5209""
""focus"",""2"",""6401""
""fullscreenenter"",""5"",""19053""
","""event"",""trial"",""time""
""blur"",""2"",""5209""
","""event"",""trial"",""time""
""focus"",""2"",""6401""
","""event"",""trial"",""time""
""fullscreenenter"",""5"",""19053""
","
","337.5","","49","","","3000","1","","","images/tutgreenplanet.jpg","images/tutalien1","images/tutalien2","null","images/tutalien2","images/t.png","NA","practice","null","","","",""
"d3-animate-choice","39","223470","0.0-39.0","804","1111","14","Male","true","true","true","true","""event"",""trial"",""time""
""blur"",""2"",""5209""
""focus"",""2"",""6401""
""fullscreenenter"",""5"",""19053""
","""event"",""trial"",""time""
""blur"",""2"",""5209""
","""event"",""trial"",""time""
""focus"",""2"",""6401""
","""event"",""trial"",""time""
""fullscreenenter"",""5"",""19053""
","
","308","","49","","","3000","1","","","images/tutgreenplanet.jpg","images/tutalien1","images/tutalien2","null","images/tutalien2","images/t.png","NA","practice","null","","","",""
"d3-animate-choice","40","225741","0.0-40.0","804","1111","14","Male","true","true","true","true","""event"",""trial"",""time""
""blur"",""2"",""5209""
""focus"",""2"",""6401""
""fullscreenenter"",""5"",""19053""
","""event"",""trial"",""time""
""blur"",""2"",""5209""
","""event"",""trial"",""time""
""focus"",""2"",""6401""
","""event"",""trial"",""time""
""fullscreenenter"",""5"",""19053""
","
","258.80000001192093","","49","","","3000","1","","","images/tutgreenplanet.jpg","images/tutalien1","images/tutalien2","null","images/tutalien2","images/t.png","NA","practice","null","","","",""
"d3-animate-choice","41","228069","0.0-41.0","804","1111","14","Male","true","true","true","true","""event"",""trial"",""time""
""blur"",""2"",""5209""
""focus"",""2"",""6401""
""fullscreenenter"",""5"",""19053""
","""event"",""trial"",""time""
""blur"",""2"",""5209""
","""event"",""trial"",""time""
""focus"",""2"",""6401""
","""event"",""trial"",""time""
""fullscreenenter"",""5"",""19053""
","
","315.09999999403954","","49","","","3000","1","","","images/tutgreenplanet.jpg","images/tutalien1","images/tutalien2","null","images/tutalien2","images/t.png","NA","practice","null","","","",""
"d3-animate-choice","42","230351","0.0-42.0","804","1111","14","Male","true","true","true","true","""event"",""trial"",""time""
""blur"",""2"",""5209""
""focus"",""2"",""6401""
""fullscreenenter"",""5"",""19053""
","""event"",""trial"",""time""
""blur"",""2"",""5209""
","""event"",""trial"",""time""
""focus"",""2"",""6401""
","""event"",""trial"",""time""
""fullscreenenter"",""5"",""19053""
","
","268.59999999403954","","49","","","3000","1","","","images/tutgreenplanet.jpg","images/tutalien1","images/tutalien2","null","images/tutalien2","images/t.png","NA","practice","null","","","",""
"d3-animate-choice","43","232395","0.0-43.0","804","1111","14","Male","true","true","true","true","""event"",""trial"",""time""
""blur"",""2"",""5209""
""focus"",""2"",""6401""
""fullscreenenter"",""5"",""19053""
","""event"",""trial"",""time""
""blur"",""2"",""5209""
","""event"",""trial"",""time""
""focus"",""2"",""6401""
","""event"",""trial"",""time""
""fullscreenenter"",""5"",""19053""
","
","27.19999998807907","","49","","","3000","1","","","images/tutgreenplanet.jpg","images/tutalien1","images/tutalien2","null","images/tutalien2","images/t.png","NA","practice","null","","","",""
"d3-instructions","44","245539","0.0-44.0","804","1111","14","Male","true","true","true","true","""event"",""trial"",""time""
""blur"",""2"",""5209""
""focus"",""2"",""6401""
""fullscreenenter"",""5"",""19053""
","""event"",""trial"",""time""
""blur"",""2"",""5209""
","""event"",""trial"",""time""
""focus"",""2"",""6401""
","""event"",""trial"",""time""
""fullscreenenter"",""5"",""19053""
","
","","","","","","","","","","","","","","","","","","","","","",""
"d3-instructions","45","251687","0.0-45.0","804","1111","14","Male","true","true","true","true","""event"",""trial"",""time""
""blur"",""2"",""5209""
""focus"",""2"",""6401""
""fullscreenenter"",""5"",""19053""
","""event"",""trial"",""time""
""blur"",""2"",""5209""
","""event"",""trial"",""time""
""focus"",""2"",""6401""
","""event"",""trial"",""time""
""fullscreenenter"",""5"",""19053""
","
","","","","","","","","","","","","","","","","","","","","","",""
"d3-instructions","46","256055","0.0-46.0","804","1111","14","Male","true","true","true","true","""event"",""trial"",""time""
""blur"",""2"",""5209""
""focus"",""2"",""6401""
""fullscreenenter"",""5"",""19053""
","""event"",""trial"",""time""
""blur"",""2"",""5209""
","""event"",""trial"",""time""
""focus"",""2"",""6401""
","""event"",""trial"",""time""
""fullscreenenter"",""5"",""19053""
","
","","","","","","","","","","","","","","","","","","","","","",""
"d3-instructions","47","272871","0.0-47.0","804","1111","14","Male","true","true","true","true","""event"",""trial"",""time""
""blur"",""2"",""5209""
""focus"",""2"",""6401""
""fullscreenenter"",""5"",""19053""
","""event"",""trial"",""time""
""blur"",""2"",""5209""
","""event"",""trial"",""time""
""focus"",""2"",""6401""
","""event"",""trial"",""time""
""fullscreenenter"",""5"",""19053""
","
","","","","","","","","","","","","","","","","","","","","","",""
"d3-instructions","48","279754","0.0-48.0","804","1111","14","Male","true","true","true","true","""event"",""trial"",""time""
""blur"",""2"",""5209""
""focus"",""2"",""6401""
""fullscreenenter"",""5"",""19053""
","""event"",""trial"",""time""
""blur"",""2"",""5209""
","""event"",""trial"",""time""
""focus"",""2"",""6401""
","""event"",""trial"",""time""
""fullscreenenter"",""5"",""19053""
","
","","","","","","","","","","","","","","","","","","","","","",""
"d3-instructions","49","290888","0.0-49.0","804","1111","14","Male","true","true","true","true","""event"",""trial"",""time""
""blur"",""2"",""5209""
""focus"",""2"",""6401""
""fullscreenenter"",""5"",""19053""
","""event"",""trial"",""time""
""blur"",""2"",""5209""
","""event"",""trial"",""time""
""focus"",""2"",""6401""
","""event"",""trial"",""time""
""fullscreenenter"",""5"",""19053""
","
","","","","","","","","","","","","","","","","","","","","","",""
"d3-instructions","50","301396","0.0-50.0","804","1111","14","Male","true","true","true","true","""event"",""trial"",""time""
""blur"",""2"",""5209""
""focus"",""2"",""6401""
""fullscreenenter"",""5"",""19053""
","""event"",""trial"",""time""
""blur"",""2"",""5209""
","""event"",""trial"",""time""
""focus"",""2"",""6401""
","""event"",""trial"",""time""
""fullscreenenter"",""5"",""19053""
","
","","","","","","","","","","","","","","","","","","","","","",""
"d3-instructions","51","306013","0.0-51.0","804","1111","14","Male","true","true","true","true","""event"",""trial"",""time""
""blur"",""2"",""5209""
""focus"",""2"",""6401""
""fullscreenenter"",""5"",""19053""
","""event"",""trial"",""time""
""blur"",""2"",""5209""
","""event"",""trial"",""time""
""focus"",""2"",""6401""
","""event"",""trial"",""time""
""fullscreenenter"",""5"",""19053""
","
","","","","","","","","","","","","","","","","","","","","","",""
"d3-instructions","52","308508","0.0-52.0","804","1111","14","Male","true","true","true","true","""event"",""trial"",""time""
""blur"",""2"",""5209""
""focus"",""2"",""6401""
""fullscreenenter"",""5"",""19053""
","""event"",""trial"",""time""
""blur"",""2"",""5209""
","""event"",""trial"",""time""
""focus"",""2"",""6401""
","""event"",""trial"",""time""
""fullscreenenter"",""5"",""19053""
","
","","","","","","","","","","","","","","","","","","","","","",""
"d3-instructions","53","322061","0.0-53.0","804","1111","14","Male","true","true","true","true","""event"",""trial"",""time""
""blur"",""2"",""5209""
""focus"",""2"",""6401""
""fullscreenenter"",""5"",""19053""
","""event"",""trial"",""time""
""blur"",""2"",""5209""
","""event"",""trial"",""time""
""focus"",""2"",""6401""
","""event"",""trial"",""time""
""fullscreenenter"",""5"",""19053""
","
","","","","","","","","","","","","","","","","","","","","","",""
"d3-instructions","54","334669","0.0-54.0","804","1111","14","Male","true","true","true","true","""event"",""trial"",""time""
""blur"",""2"",""5209""
""focus"",""2"",""6401""
""fullscreenenter"",""5"",""19053""
","""event"",""trial"",""time""
""blur"",""2"",""5209""
","""event"",""trial"",""time""
""focus"",""2"",""6401""
","""event"",""trial"",""time""
""fullscreenenter"",""5"",""19053""
","
","","","","","","","","","","","","","","","","","","","","","",""
"d3-instructions","55","344723","0.0-55.0","804","1111","14","Male","true","true","true","true","""event"",""trial"",""time""
""blur"",""2"",""5209""
""focus"",""2"",""6401""
""fullscreenenter"",""5"",""19053""
","""event"",""trial"",""time""
""blur"",""2"",""5209""
","""event"",""trial"",""time""
""focus"",""2"",""6401""
","""event"",""trial"",""time""
""fullscreenenter"",""5"",""19053""
","
","","","","","","","","","","","","","","","","","","","","","",""
"d3-instructions","56","355587","0.0-56.0","804","1111","14","Male","true","true","true","true","""event"",""trial"",""time""
""blur"",""2"",""5209""
""focus"",""2"",""6401""
""fullscreenenter"",""5"",""19053""
","""event"",""trial"",""time""
""blur"",""2"",""5209""
","""event"",""trial"",""time""
""focus"",""2"",""6401""
","""event"",""trial"",""time""
""fullscreenenter"",""5"",""19053""
","
","","","","","","","","","","","","","","","","","","","","","",""
"d3-instructions","57","366978","0.0-57.0","804","1111","14","Male","true","true","true","true","""event"",""trial"",""time""
""blur"",""2"",""5209""
""focus"",""2"",""6401""
""fullscreenenter"",""5"",""19053""
","""event"",""trial"",""time""
""blur"",""2"",""5209""
","""event"",""trial"",""time""
""focus"",""2"",""6401""
","""event"",""trial"",""time""
""fullscreenenter"",""5"",""19053""
","
","","","","","","","","","","","","","","","","","","","","","",""
"d3-instructions","58","376670","0.0-58.0","804","1111","14","Male","true","true","true","true","""event"",""trial"",""time""
""blur"",""2"",""5209""
""focus"",""2"",""6401""
""fullscreenenter"",""5"",""19053""
","""event"",""trial"",""time""
""blur"",""2"",""5209""
","""event"",""trial"",""time""
""focus"",""2"",""6401""
","""event"",""trial"",""time""
""fullscreenenter"",""5"",""19053""
","
","","","","","","","","","","","","","","","","","","","","","",""
"d3-instructions","59","380929","0.0-59.0","804","1111","14","Male","true","true","true","true","""event"",""trial"",""time""
""blur"",""2"",""5209""
""focus"",""2"",""6401""
""fullscreenenter"",""5"",""19053""
","""event"",""trial"",""time""
""blur"",""2"",""5209""
","""event"",""trial"",""time""
""focus"",""2"",""6401""
","""event"",""trial"",""time""
""fullscreenenter"",""5"",""19053""
","
","","","","","","","","","","","","","","","","","","","","","",""
"d3-instructions","60","384119","0.0-60.0","804","1111","14","Male","true","true","true","true","""event"",""trial"",""time""
""blur"",""2"",""5209""
""focus"",""2"",""6401""
""fullscreenenter"",""5"",""19053""
","""event"",""trial"",""time""
""blur"",""2"",""5209""
","""event"",""trial"",""time""
""focus"",""2"",""6401""
","""event"",""trial"",""time""
""fullscreenenter"",""5"",""19053""
","
","","","","","","","","","","","","","","","","","","","","","",""
"d3-animate-choice","61","388133","0.0-61.0-0.0","804","1111","14","Male","true","true","true","true","""event"",""trial"",""time""
""blur"",""2"",""5209""
""focus"",""2"",""6401""
""fullscreenenter"",""5"",""19053""
","""event"",""trial"",""time""
""blur"",""2"",""5209""
","""event"",""trial"",""time""
""focus"",""2"",""6401""
","""event"",""trial"",""time""
""fullscreenenter"",""5"",""19053""
","
","2409.199999988079","","49","","","3000","1","","","images/earth.jpg","images/tutrocket1","images/tutrocket2","null","images/tutrocket2","","1","practice","null","1","","",""
"d3-animate-choice","62","391351","0.0-61.0-1.0","804","1111","14","Male","true","true","true","true","""event"",""trial"",""time""
""blur"",""2"",""5209""
""focus"",""2"",""6401""
""fullscreenenter"",""5"",""19053""
","""event"",""trial"",""time""
""blur"",""2"",""5209""
","""event"",""trial"",""time""
""focus"",""2"",""6401""
","""event"",""trial"",""time""
""fullscreenenter"",""5"",""19053""
","
","1195.4000000059605","","49","","","3000","1","","","images/tutyellowplanet.jpg","images/tutalien4","images/tutalien3","images/tutrocket2","images/tutalien3","images/nothing.png","2","practice","true","1","common","0","2022-03-21 01:28:56.580"
"two-step-fixation","63","392369","0.0-61.0-2.0","804","1111","14","Male","true","true","true","true","""event"",""trial"",""time""
""blur"",""2"",""5209""
""focus"",""2"",""6401""
""fullscreenenter"",""5"",""19053""
","""event"",""trial"",""time""
""blur"",""2"",""5209""
","""event"",""trial"",""time""
""focus"",""2"",""6401""
","""event"",""trial"",""time""
""fullscreenenter"",""5"",""19053""
","
","","images/earth.jpg","","","","","","","","","","","","","","fixation","","","","","",""
"d3-animate-choice","64","394813","0.0-61.0-0.1","804","1111","14","Male","true","true","true","true","""event"",""trial"",""time""
""blur"",""2"",""5209""
""focus"",""2"",""6401""
""fullscreenenter"",""5"",""19053""
","""event"",""trial"",""time""
""blur"",""2"",""5209""
","""event"",""trial"",""time""
""focus"",""2"",""6401""
","""event"",""trial"",""time""
""fullscreenenter"",""5"",""19053""
","
","429.69999998807907","","49","","","3000","1","","","images/earth.jpg","images/tutrocket1","images/tutrocket2","null","images/tutrocket2","","1","practice","null","1","","",""
"d3-animate-choice","65","397338","0.0-61.0-1.1","804","1111","14","Male","true","true","true","true","""event"",""trial"",""time""
""blur"",""2"",""5209""
""focus"",""2"",""6401""
""fullscreenenter"",""5"",""19053""
","""event"",""trial"",""time""
""blur"",""2"",""5209""
","""event"",""trial"",""time""
""focus"",""2"",""6401""
","""event"",""trial"",""time""
""fullscreenenter"",""5"",""19053""
","
","506.7000000178814","","48","","","3000","1","","","images/tutyellowplanet.jpg","images/tutalien4","images/tutalien3","images/tutrocket2","images/tutalien4","images/t.png","2","practice","true","2","common","1","2022-03-21 01:29:02.566"
"two-step-fixation","66","398348","0.0-61.0-2.1","804","1111","14","Male","true","true","true","true","""event"",""trial"",""time""
""blur"",""2"",""5209""
""focus"",""2"",""6401""
""fullscreenenter"",""5"",""19053""
","""event"",""trial"",""time""
""blur"",""2"",""5209""
","""event"",""trial"",""time""
""focus"",""2"",""6401""
","""event"",""trial"",""time""
""fullscreenenter"",""5"",""19053""
","
","","images/earth.jpg","","","","","","","","","","","","","","fixation","","","","","",""
"d3-animate-choice","67","400655","0.0-61.0-0.2","804","1111","14","Male","true","true","true","true","""event"",""trial"",""time""
""blur"",""2"",""5209""
""focus"",""2"",""6401""
""fullscreenenter"",""5"",""19053""
","""event"",""trial"",""time""
""blur"",""2"",""5209""
","""event"",""trial"",""time""
""focus"",""2"",""6401""
","""event"",""trial"",""time""
""fullscreenenter"",""5"",""19053""
","
","294","","49","","","3000","1","","","images/earth.jpg","images/tutrocket1","images/tutrocket2","null","images/tutrocket2","","1","practice","null","1","","",""
"d3-animate-choice","68","403082","0.0-61.0-1.2","804","1111","14","Male","true","true","true","true","""event"",""trial"",""time""
""blur"",""2"",""5209""
""focus"",""2"",""6401""
""fullscreenenter"",""5"",""19053""
","""event"",""trial"",""time""
""blur"",""2"",""5209""
","""event"",""trial"",""time""
""focus"",""2"",""6401""
","""event"",""trial"",""time""
""fullscreenenter"",""5"",""19053""
","
","412.19999998807907","","48","","","3000","1","","","images/tutyellowplanet.jpg","images/tutalien4","images/tutalien3","images/tutrocket2","images/tutalien4","images/nothing.png","2","practice","true","2","common","0","2022-03-21 01:29:08.310"
"two-step-fixation","69","404091","0.0-61.0-2.2","804","1111","14","Male","true","true","true","true","""event"",""trial"",""time""
""blur"",""2"",""5209""
""focus"",""2"",""6401""
""fullscreenenter"",""5"",""19053""
","""event"",""trial"",""time""
""blur"",""2"",""5209""
","""event"",""trial"",""time""
""focus"",""2"",""6401""
","""event"",""trial"",""time""
""fullscreenenter"",""5"",""19053""
","
","","images/earth.jpg","","","","","","","","","","","","","","fixation","","","","","",""
"d3-animate-choice","70","406495","0.0-61.0-0.3","804","1111","14","Male","true","true","true","true","""event"",""trial"",""time""
""blur"",""2"",""5209""
""focus"",""2"",""6401""
""fullscreenenter"",""5"",""19053""
","""event"",""trial"",""time""
""blur"",""2"",""5209""
","""event"",""trial"",""time""
""focus"",""2"",""6401""
","""event"",""trial"",""time""
""fullscreenenter"",""5"",""19053""
","
","388.5","","48","","","3000","1","","","images/earth.jpg","images/tutrocket1","images/tutrocket2","null","images/tutrocket1","","1","practice","null","2","","",""
"d3-animate-choice","71","408974","0.0-61.0-1.3","804","1111","14","Male","true","true","true","true","""event"",""trial"",""time""
""blur"",""2"",""5209""
""focus"",""2"",""6401""
""fullscreenenter"",""5"",""19053""
","""event"",""trial"",""time""
""blur"",""2"",""5209""
","""event"",""trial"",""time""
""focus"",""2"",""6401""
","""event"",""trial"",""time""
""fullscreenenter"",""5"",""19053""
","
","462.7000000178814","","49","","","3000","1","","","images/tutyellowplanet.jpg","images/tutalien4","images/tutalien3","images/tutrocket1","images/tutalien3","images/nothing.png","2","practice","false","1","rare","0","2022-03-21 01:29:14.202"
"two-step-fixation","72","409986","0.0-61.0-2.3","804","1111","14","Male","true","true","true","true","""event"",""trial"",""time""
""blur"",""2"",""5209""
""focus"",""2"",""6401""
""fullscreenenter"",""5"",""19053""
","""event"",""trial"",""time""
""blur"",""2"",""5209""
","""event"",""trial"",""time""
""focus"",""2"",""6401""
","""event"",""trial"",""time""
""fullscreenenter"",""5"",""19053""
","
","","images/earth.jpg","","","","","","","","","","","","","","fixation","","","","","",""
"d3-animate-choice","73","412363","0.0-61.0-0.4","804","1111","14","Male","true","true","true","true","""event"",""trial"",""time""
""blur"",""2"",""5209""
""focus"",""2"",""6401""
""fullscreenenter"",""5"",""19053""
","""event"",""trial"",""time""
""blur"",""2"",""5209""
","""event"",""trial"",""time""
""focus"",""2"",""6401""
","""event"",""trial"",""time""
""fullscreenenter"",""5"",""19053""
","
","361","","48","","","3000","1","","","images/earth.jpg","images/tutrocket1","images/tutrocket2","null","images/tutrocket1","","1","practice","null","2","","",""
"d3-animate-choice","74","415444","0.0-61.0-1.4","804","1111","14","Male","true","true","true","true","""event"",""trial"",""time""
""blur"",""2"",""5209""
""focus"",""2"",""6401""
""fullscreenenter"",""5"",""19053""
","""event"",""trial"",""time""
""blur"",""2"",""5209""
","""event"",""trial"",""time""
""focus"",""2"",""6401""
","""event"",""trial"",""time""
""fullscreenenter"",""5"",""19053""
","
","1066.3999999761581","","48","","","3000","1","","","images/tutyellowplanet.jpg","images/tutalien4","images/tutalien3","images/tutrocket1","images/tutalien4","images/nothing.png","2","practice","false","2","rare","0","2022-03-21 01:29:20.672"
"two-step-fixation","75","416455","0.0-61.0-2.4","804","1111","14","Male","true","true","true","true","""event"",""trial"",""time""
""blur"",""2"",""5209""
""focus"",""2"",""6401""
""fullscreenenter"",""5"",""19053""
","""event"",""trial"",""time""
""blur"",""2"",""5209""
","""event"",""trial"",""time""
""focus"",""2"",""6401""
","""event"",""trial"",""time""
""fullscreenenter"",""5"",""19053""
","
","","images/earth.jpg","","","","","","","","","","","","","","fixation","","","","","",""
"d3-animate-choice","76","418814","0.0-61.0-0.5","804","1111","14","Male","true","true","true","true","""event"",""trial"",""time""
""blur"",""2"",""5209""
""focus"",""2"",""6401""
""fullscreenenter"",""5"",""19053""
","""event"",""trial"",""time""
""blur"",""2"",""5209""
","""event"",""trial"",""time""
""focus"",""2"",""6401""
","""event"",""trial"",""time""
""fullscreenenter"",""5"",""19053""
","
","344.19999998807907","","49","","","3000","1","","","images/earth.jpg","images/tutrocket1","images/tutrocket2","null","images/tutrocket2","","1","practice","null","1","","",""
"d3-animate-choice","77","421712","0.0-61.0-1.5","804","1111","14","Male","true","true","true","true","""event"",""trial"",""time""
""blur"",""2"",""5209""
""focus"",""2"",""6401""
""fullscreenenter"",""5"",""19053""
","""event"",""trial"",""time""
""blur"",""2"",""5209""
","""event"",""trial"",""time""
""focus"",""2"",""6401""
","""event"",""trial"",""time""
""fullscreenenter"",""5"",""19053""
","
","880.5999999940395","","48","","","3000","1","","","images/tutgreenplanet.jpg","images/tutalien2","images/tutalien1","images/tutrocket2","images/tutalien2","images/t.png","2","practice","false","2","rare","1","2022-03-21 01:29:26.940"
"two-step-fixation","78","422722","0.0-61.0-2.5","804","1111","14","Male","true","true","true","true","""event"",""trial"",""time""
""blur"",""2"",""5209""
""focus"",""2"",""6401""
""fullscreenenter"",""5"",""19053""
","""event"",""trial"",""time""
""blur"",""2"",""5209""
","""event"",""trial"",""time""
""focus"",""2"",""6401""
","""event"",""trial"",""time""
""fullscreenenter"",""5"",""19053""
","
","","images/earth.jpg","","","","","","","","","","","","","","fixation","","","","","",""
"d3-animate-choice","79","425114","0.0-61.0-0.6","804","1111","14","Male","true","true","true","true","""event"",""trial"",""time""
""blur"",""2"",""5209""
""focus"",""2"",""6401""
""fullscreenenter"",""5"",""19053""
","""event"",""trial"",""time""
""blur"",""2"",""5209""
","""event"",""trial"",""time""
""focus"",""2"",""6401""
","""event"",""trial"",""time""
""fullscreenenter"",""5"",""19053""
","
","384.40000000596046","","49","","","3000","1","","","images/earth.jpg","images/tutrocket1","images/tutrocket2","null","images/tutrocket2","","1","practice","null","1","","",""
"d3-animate-choice","80","427711","0.0-61.0-1.6","804","1111","14","Male","true","true","true","true","""event"",""trial"",""time""
""blur"",""2"",""5209""
""focus"",""2"",""6401""
""fullscreenenter"",""5"",""19053""
","""event"",""trial"",""time""
""blur"",""2"",""5209""
","""event"",""trial"",""time""
""focus"",""2"",""6401""
","""event"",""trial"",""time""
""fullscreenenter"",""5"",""19053""
","
","581.4000000059605","","48","","","3000","1","","","images/tutgreenplanet.jpg","images/tutalien2","images/tutalien1","images/tutrocket2","images/tutalien2","images/nothing.png","2","practice","false","2","rare","0","2022-03-21 01:29:32.939"
"two-step-fixation","81","428723","0.0-61.0-2.6","804","1111","14","Male","true","true","true","true","""event"",""trial"",""time""
""blur"",""2"",""5209""
""focus"",""2"",""6401""
""fullscreenenter"",""5"",""19053""
","""event"",""trial"",""time""
""blur"",""2"",""5209""
","""event"",""trial"",""time""
""focus"",""2"",""6401""
","""event"",""trial"",""time""
""fullscreenenter"",""5"",""19053""
","
","","images/earth.jpg","","","","","","","","","","","","","","fixation","","","","","",""
"d3-animate-choice","82","431061","0.0-61.0-0.7","804","1111","14","Male","true","true","true","true","""event"",""trial"",""time""
""blur"",""2"",""5209""
""focus"",""2"",""6401""
""fullscreenenter"",""5"",""19053""
","""event"",""trial"",""time""
""blur"",""2"",""5209""
","""event"",""trial"",""time""
""focus"",""2"",""6401""
","""event"",""trial"",""time""
""fullscreenenter"",""5"",""19053""
","
","320.2999999821186","","49","","","3000","1","","","images/earth.jpg","images/tutrocket1","images/tutrocket2","null","images/tutrocket2","","1","practice","null","1","","",""
"d3-animate-choice","83","433950","0.0-61.0-1.7","804","1111","14","Male","true","true","true","true","""event"",""trial"",""time""
""blur"",""2"",""5209""
""focus"",""2"",""6401""
""fullscreenenter"",""5"",""19053""
","""event"",""trial"",""time""
""blur"",""2"",""5209""
","""event"",""trial"",""time""
""focus"",""2"",""6401""
","""event"",""trial"",""time""
""fullscreenenter"",""5"",""19053""
","
","876.0999999940395","","49","","","3000","1","","","images/tutyellowplanet.jpg","images/tutalien4","images/tutalien3","images/tutrocket2","images/tutalien3","images/nothing.png","2","practice","true","1","common","0","2022-03-21 01:29:39.178"
"two-step-fixation","84","434958","0.0-61.0-2.7","804","1111","14","Male","true","true","true","true","""event"",""trial"",""time""
""blur"",""2"",""5209""
""focus"",""2"",""6401""
""fullscreenenter"",""5"",""19053""
","""event"",""trial"",""time""
""blur"",""2"",""5209""
","""event"",""trial"",""time""
""focus"",""2"",""6401""
","""event"",""trial"",""time""
""fullscreenenter"",""5"",""19053""
","
","","images/earth.jpg","","","","","","","","","","","","","","fixation","","","","","",""
"d3-animate-choice","85","437346","0.0-61.0-0.8","804","1111","14","Male","true","true","true","true","""event"",""trial"",""time""
""blur"",""2"",""5209""
""focus"",""2"",""6401""
""fullscreenenter"",""5"",""19053""
","""event"",""trial"",""time""
""blur"",""2"",""5209""
","""event"",""trial"",""time""
""focus"",""2"",""6401""
","""event"",""trial"",""time""
""fullscreenenter"",""5"",""19053""
","
","375.90000000596046","","48","","","3000","1","","","images/earth.jpg","images/tutrocket1","images/tutrocket2","null","images/tutrocket1","","1","practice","null","2","","",""
"d3-animate-choice","86","439971","0.0-61.0-1.8","804","1111","14","Male","true","true","true","true","""event"",""trial"",""time""
""blur"",""2"",""5209""
""focus"",""2"",""6401""
""fullscreenenter"",""5"",""19053""
","""event"",""trial"",""time""
""blur"",""2"",""5209""
","""event"",""trial"",""time""
""focus"",""2"",""6401""
","""event"",""trial"",""time""
""fullscreenenter"",""5"",""19053""
","
","612.8000000119209","","49","","","3000","1","","","images/tutgreenplanet.jpg","images/tutalien2","images/tutalien1","images/tutrocket1","images/tutalien1","images/nothing.png","2","practice","true","1","common","0","2022-03-21 01:29:45.200"
"two-step-fixation","87","440982","0.0-61.0-2.8","804","1111","14","Male","true","true","true","true","""event"",""trial"",""time""
""blur"",""2"",""5209""
""focus"",""2"",""6401""
""fullscreenenter"",""5"",""19053""
","""event"",""trial"",""time""
""blur"",""2"",""5209""
","""event"",""trial"",""time""
""focus"",""2"",""6401""
","""event"",""trial"",""time""
""fullscreenenter"",""5"",""19053""
","
","","images/earth.jpg","","","","","","","","","","","","","","fixation","","","","","",""
"d3-animate-choice","88","443363","0.0-61.0-0.9","804","1111","14","Male","true","true","true","true","""event"",""trial"",""time""
""blur"",""2"",""5209""
""focus"",""2"",""6401""
""fullscreenenter"",""5"",""19053""
","""event"",""trial"",""time""
""blur"",""2"",""5209""
","""event"",""trial"",""time""
""focus"",""2"",""6401""
","""event"",""trial"",""time""
""fullscreenenter"",""5"",""19053""
","
","364.2000000178814","","48","","","3000","1","","","images/earth.jpg","images/tutrocket1","images/tutrocket2","null","images/tutrocket1","","1","practice","null","2","","",""
"d3-animate-choice","89","445815","0.0-61.0-1.9","804","1111","14","Male","true","true","true","true","""event"",""trial"",""time""
""blur"",""2"",""5209""
""focus"",""2"",""6401""
""fullscreenenter"",""5"",""19053""
","""event"",""trial"",""time""
""blur"",""2"",""5209""
","""event"",""trial"",""time""
""focus"",""2"",""6401""
","""event"",""trial"",""time""
""fullscreenenter"",""5"",""19053""
","
","433.90000000596046","","48","","","3000","1","","","images/tutyellowplanet.jpg","images/tutalien4","images/tutalien3","images/tutrocket1","images/tutalien4","images/t.png","2","practice","false","2","rare","1","2022-03-21 01:29:51.043"
"two-step-fixation","90","446826","0.0-61.0-2.9","804","1111","14","Male","true","true","true","true","""event"",""trial"",""time""
""blur"",""2"",""5209""
""focus"",""2"",""6401""
""fullscreenenter"",""5"",""19053""
","""event"",""trial"",""time""
""blur"",""2"",""5209""
","""event"",""trial"",""time""
""focus"",""2"",""6401""
","""event"",""trial"",""time""
""fullscreenenter"",""5"",""19053""
","
","","images/earth.jpg","","","","","","","","","","","","","","fixation","","","","","",""
"d3-animate-choice","91","449147","0.0-61.0-0.10","804","1111","14","Male","true","true","true","true","""event"",""trial"",""time""
""blur"",""2"",""5209""
""focus"",""2"",""6401""
""fullscreenenter"",""5"",""19053""
","""event"",""trial"",""time""
""blur"",""2"",""5209""
","""event"",""trial"",""time""
""focus"",""2"",""6401""
","""event"",""trial"",""time""
""fullscreenenter"",""5"",""19053""
","
","302.40000000596046","","49","","","3000","1","","","images/earth.jpg","images/tutrocket1","images/tutrocket2","null","images/tutrocket2","","1","practice","null","1","","",""
"d3-animate-choice","92","451743","0.0-61.0-1.10","804","1111","14","Male","true","true","true","true","""event"",""trial"",""time""
""blur"",""2"",""5209""
""focus"",""2"",""6401""
""fullscreenenter"",""5"",""19053""
","""event"",""trial"",""time""
""blur"",""2"",""5209""
","""event"",""trial"",""time""
""focus"",""2"",""6401""
","""event"",""trial"",""time""
""fullscreenenter"",""5"",""19053""
","
","583.2000000178814","","48","","","3000","1","","","images/tutyellowplanet.jpg","images/tutalien4","images/tutalien3","images/tutrocket2","images/tutalien4","images/nothing.png","2","practice","true","2","common","0","2022-03-21 01:29:56.972"
"two-step-fixation","93","452754","0.0-61.0-2.10","804","1111","14","Male","true","true","true","true","""event"",""trial"",""time""
""blur"",""2"",""5209""
""focus"",""2"",""6401""
""fullscreenenter"",""5"",""19053""
","""event"",""trial"",""time""
""blur"",""2"",""5209""
","""event"",""trial"",""time""
""focus"",""2"",""6401""
","""event"",""trial"",""time""
""fullscreenenter"",""5"",""19053""
","
","","images/earth.jpg","","","","","","","","","","","","","","fixation","","","","","",""
"d3-animate-choice","94","455069","0.0-61.0-0.11","804","1111","14","Male","true","true","true","true","""event"",""trial"",""time""
""blur"",""2"",""5209""
""focus"",""2"",""6401""
""fullscreenenter"",""5"",""19053""
","""event"",""trial"",""time""
""blur"",""2"",""5209""
","""event"",""trial"",""time""
""focus"",""2"",""6401""
","""event"",""trial"",""time""
""fullscreenenter"",""5"",""19053""
","
","297.2999999821186","","49","","","3000","1","","","images/earth.jpg","images/tutrocket1","images/tutrocket2","null","images/tutrocket2","","1","practice","null","1","","",""
"d3-animate-choice","95","457627","0.0-61.0-1.11","804","1111","14","Male","true","true","true","true","""event"",""trial"",""time""
""blur"",""2"",""5209""
""focus"",""2"",""6401""
""fullscreenenter"",""5"",""19053""
","""event"",""trial"",""time""
""blur"",""2"",""5209""
","""event"",""trial"",""time""
""focus"",""2"",""6401""
","""event"",""trial"",""time""
""fullscreenenter"",""5"",""19053""
","
","544.6999999880791","","48","","","3000","1","","","images/tutyellowplanet.jpg","images/tutalien4","images/tutalien3","images/tutrocket2","images/tutalien4","images/t.png","2","practice","true","2","common","1","2022-03-21 01:30:02.856"
"two-step-fixation","96","458639","0.0-61.0-2.11","804","1111","14","Male","true","true","true","true","""event"",""trial"",""time""
""blur"",""2"",""5209""
""focus"",""2"",""6401""
""fullscreenenter"",""5"",""19053""
","""event"",""trial"",""time""
""blur"",""2"",""5209""
","""event"",""trial"",""time""
""focus"",""2"",""6401""
","""event"",""trial"",""time""
""fullscreenenter"",""5"",""19053""
","
","","images/earth.jpg","","","","","","","","","","","","","","fixation","","","","","",""
"d3-animate-choice","97","461255","0.0-61.0-0.12","804","1111","14","Male","true","true","true","true","""event"",""trial"",""time""
""blur"",""2"",""5209""
""focus"",""2"",""6401""
""fullscreenenter"",""5"",""19053""
","""event"",""trial"",""time""
""blur"",""2"",""5209""
","""event"",""trial"",""time""
""focus"",""2"",""6401""
","""event"",""trial"",""time""
""fullscreenenter"",""5"",""19053""
","
","599.4000000059605","","49","","","3000","1","","","images/earth.jpg","images/tutrocket1","images/tutrocket2","null","images/tutrocket2","","1","practice","null","1","","",""
"d3-animate-choice","98","463789","0.0-61.0-1.12","804","1111","14","Male","true","true","true","true","""event"",""trial"",""time""
""blur"",""2"",""5209""
""focus"",""2"",""6401""
""fullscreenenter"",""5"",""19053""
","""event"",""trial"",""time""
""blur"",""2"",""5209""
","""event"",""trial"",""time""
""focus"",""2"",""6401""
","""event"",""trial"",""time""
""fullscreenenter"",""5"",""19053""
","
","521.4000000059605","","48","","","3000","1","","","images/tutyellowplanet.jpg","images/tutalien4","images/tutalien3","images/tutrocket2","images/tutalien4","images/t.png","2","practice","true","2","common","1","2022-03-21 01:30:09.018"
"two-step-fixation","99","464801","0.0-61.0-2.12","804","1111","14","Male","true","true","true","true","""event"",""trial"",""time""
""blur"",""2"",""5209""
""focus"",""2"",""6401""
""fullscreenenter"",""5"",""19053""
","""event"",""trial"",""time""
""blur"",""2"",""5209""
","""event"",""trial"",""time""
""focus"",""2"",""6401""
","""event"",""trial"",""time""
""fullscreenenter"",""5"",""19053""
","
","","images/earth.jpg","","","","","","","","","","","","","","fixation","","","","","",""
"d3-animate-choice","100","467126","0.0-61.0-0.13","804","1111","14","Male","true","true","true","true","""event"",""trial"",""time""
""blur"",""2"",""5209""
""focus"",""2"",""6401""
""fullscreenenter"",""5"",""19053""
","""event"",""trial"",""time""
""blur"",""2"",""5209""
","""event"",""trial"",""time""
""focus"",""2"",""6401""
","""event"",""trial"",""time""
""fullscreenenter"",""5"",""19053""
","
","309.59999999403954","","49","","","3000","1","","","images/earth.jpg","images/tutrocket1","images/tutrocket2","null","images/tutrocket2","","1","practice","null","1","","",""
"d3-animate-choice","101","469469","0.0-61.0-1.13","804","1111","14","Male","true","true","true","true","""event"",""trial"",""time""
""blur"",""2"",""5209""
""focus"",""2"",""6401""
""fullscreenenter"",""5"",""19053""
","""event"",""trial"",""time""
""blur"",""2"",""5209""
","""event"",""trial"",""time""
""focus"",""2"",""6401""
","""event"",""trial"",""time""
""fullscreenenter"",""5"",""19053""
","
","326.7999999821186","","48","","","3000","1","","","images/tutyellowplanet.jpg","images/tutalien4","images/tutalien3","images/tutrocket2","images/tutalien4","images/nothing.png","2","practice","true","2","common","0","2022-03-21 01:30:14.697"
"two-step-fixation","102","470480","0.0-61.0-2.13","804","1111","14","Male","true","true","true","true","""event"",""trial"",""time""
""blur"",""2"",""5209""
""focus"",""2"",""6401""
""fullscreenenter"",""5"",""19053""
","""event"",""trial"",""time""
""blur"",""2"",""5209""
","""event"",""trial"",""time""
""focus"",""2"",""6401""
","""event"",""trial"",""time""
""fullscreenenter"",""5"",""19053""
","
","","images/earth.jpg","","","","","","","","","","","","","","fixation","","","","","",""
"d3-animate-choice","103","472856","0.0-61.0-0.14","804","1111","14","Male","true","true","true","true","""event"",""trial"",""time""
""blur"",""2"",""5209""
""focus"",""2"",""6401""
""fullscreenenter"",""5"",""19053""
","""event"",""trial"",""time""
""blur"",""2"",""5209""
","""event"",""trial"",""time""
""focus"",""2"",""6401""
","""event"",""trial"",""time""
""fullscreenenter"",""5"",""19053""
","
","362","","48","","","3000","1","","","images/earth.jpg","images/tutrocket1","images/tutrocket2","null","images/tutrocket1","","1","practice","null","2","","",""
"d3-animate-choice","104","475452","0.0-61.0-1.14","804","1111","14","Male","true","true","true","true","""event"",""trial"",""time""
""blur"",""2"",""5209""
""focus"",""2"",""6401""
""fullscreenenter"",""5"",""19053""
","""event"",""trial"",""time""
""blur"",""2"",""5209""
","""event"",""trial"",""time""
""focus"",""2"",""6401""
","""event"",""trial"",""time""
""fullscreenenter"",""5"",""19053""
","
","586","","48","","","3000","1","","","images/tutgreenplanet.jpg","images/tutalien2","images/tutalien1","images/tutrocket1","images/tutalien2","images/nothing.png","2","practice","true","2","common","0","2022-03-21 01:30:20.680"
"two-step-fixation","105","476460","0.0-61.0-2.14","804","1111","14","Male","true","true","true","true","""event"",""trial"",""time""
""blur"",""2"",""5209""
""focus"",""2"",""6401""
""fullscreenenter"",""5"",""19053""
","""event"",""trial"",""time""
""blur"",""2"",""5209""
","""event"",""trial"",""time""
""focus"",""2"",""6401""
","""event"",""trial"",""time""
""fullscreenenter"",""5"",""19053""
","
","","images/earth.jpg","","","","","","","","","","","","","","fixation","","","","","",""
"d3-animate-choice","106","478790","0.0-61.0-0.15","804","1111","14","Male","true","true","true","true","""event"",""trial"",""time""
""blur"",""2"",""5209""
""focus"",""2"",""6401""
""fullscreenenter"",""5"",""19053""
","""event"",""trial"",""time""
""blur"",""2"",""5209""
","""event"",""trial"",""time""
""focus"",""2"",""6401""
","""event"",""trial"",""time""
""fullscreenenter"",""5"",""19053""
","
","315.5","","49","","","3000","1","","","images/earth.jpg","images/tutrocket1","images/tutrocket2","null","images/tutrocket2","","1","practice","null","1","","",""
"d3-animate-choice","107","481527","0.0-61.0-1.15","804","1111","14","Male","true","true","true","true","""event"",""trial"",""time""
""blur"",""2"",""5209""
""focus"",""2"",""6401""
""fullscreenenter"",""5"",""19053""
","""event"",""trial"",""time""
""blur"",""2"",""5209""
","""event"",""trial"",""time""
""focus"",""2"",""6401""
","""event"",""trial"",""time""
""fullscreenenter"",""5"",""19053""
","
","721.9000000059605","","48","","","3000","1","","","images/tutyellowplanet.jpg","images/tutalien4","images/tutalien3","images/tutrocket2","images/tutalien4","images/nothing.png","2","practice","true","2","common","0","2022-03-21 01:30:26.756"
"two-step-fixation","108","482537","0.0-61.0-2.15","804","1111","14","Male","true","true","true","true","""event"",""trial"",""time""
""blur"",""2"",""5209""
""focus"",""2"",""6401""
""fullscreenenter"",""5"",""19053""
","""event"",""trial"",""time""
""blur"",""2"",""5209""
","""event"",""trial"",""time""
""focus"",""2"",""6401""
","""event"",""trial"",""time""
""fullscreenenter"",""5"",""19053""
","
","","images/earth.jpg","","","","","","","","","","","","","","fixation","","","","","",""
"d3-animate-choice","109","484871","0.0-61.0-0.16","804","1111","14","Male","true","true","true","true","""event"",""trial"",""time""
""blur"",""2"",""5209""
""focus"",""2"",""6401""
""fullscreenenter"",""5"",""19053""
","""event"",""trial"",""time""
""blur"",""2"",""5209""
","""event"",""trial"",""time""
""focus"",""2"",""6401""
","""event"",""trial"",""time""
""fullscreenenter"",""5"",""19053""
","
","316.09999999403954","","49","","","3000","1","","","images/earth.jpg","images/tutrocket1","images/tutrocket2","null","images/tutrocket2","","1","practice","null","1","","",""
"d3-animate-choice","110","487315","0.0-61.0-1.16","804","1111","14","Male","true","true","true","true","""event"",""trial"",""time""
""blur"",""2"",""5209""
""focus"",""2"",""6401""
""fullscreenenter"",""5"",""19053""
","""event"",""trial"",""time""
""blur"",""2"",""5209""
","""event"",""trial"",""time""
""focus"",""2"",""6401""
","""event"",""trial"",""time""
""fullscreenenter"",""5"",""19053""
","
","433.19999998807907","","48","","","3000","1","","","images/tutyellowplanet.jpg","images/tutalien4","images/tutalien3","images/tutrocket2","images/tutalien4","images/nothing.png","2","practice","true","2","common","0","2022-03-21 01:30:32.544"
"two-step-fixation","111","488325","0.0-61.0-2.16","804","1111","14","Male","true","true","true","true","""event"",""trial"",""time""
""blur"",""2"",""5209""
""focus"",""2"",""6401""
""fullscreenenter"",""5"",""19053""
","""event"",""trial"",""time""
""blur"",""2"",""5209""
","""event"",""trial"",""time""
""focus"",""2"",""6401""
","""event"",""trial"",""time""
""fullscreenenter"",""5"",""19053""
","
","","images/earth.jpg","","","","","","","","","","","","","","fixation","","","","","",""
"d3-animate-choice","112","490957","0.0-61.0-0.17","804","1111","14","Male","true","true","true","true","""event"",""trial"",""time""
""blur"",""2"",""5209""
""focus"",""2"",""6401""
""fullscreenenter"",""5"",""19053""
","""event"",""trial"",""time""
""blur"",""2"",""5209""
","""event"",""trial"",""time""
""focus"",""2"",""6401""
","""event"",""trial"",""time""
""fullscreenenter"",""5"",""19053""
","
","614.5999999940395","","49","","","3000","1","","","images/earth.jpg","images/tutrocket1","images/tutrocket2","null","images/tutrocket2","","1","practice","null","1","","",""
"d3-animate-choice","113","493838","0.0-61.0-1.17","804","1111","14","Male","true","true","true","true","""event"",""trial"",""time""
""blur"",""2"",""5209""
""focus"",""2"",""6401""
""fullscreenenter"",""5"",""19053""
","""event"",""trial"",""time""
""blur"",""2"",""5209""
","""event"",""trial"",""time""
""focus"",""2"",""6401""
","""event"",""trial"",""time""
""fullscreenenter"",""5"",""19053""
","
","865.9000000059605","","48","","","3000","1","","","images/tutyellowplanet.jpg","images/tutalien4","images/tutalien3","images/tutrocket2","images/tutalien4","images/t.png","2","practice","true","2","common","1","2022-03-21 01:30:39.067"
"two-step-fixation","114","494844","0.0-61.0-2.17","804","1111","14","Male","true","true","true","true","""event"",""trial"",""time""
""blur"",""2"",""5209""
""focus"",""2"",""6401""
""fullscreenenter"",""5"",""19053""
","""event"",""trial"",""time""
""blur"",""2"",""5209""
","""event"",""trial"",""time""
""focus"",""2"",""6401""
","""event"",""trial"",""time""
""fullscreenenter"",""5"",""19053""
","
","","images/earth.jpg","","","","","","","","","","","","","","fixation","","","","","",""
"d3-animate-choice","115","497300","0.0-61.0-0.18","804","1111","14","Male","true","true","true","true","""event"",""trial"",""time""
""blur"",""2"",""5209""
""focus"",""2"",""6401""
""fullscreenenter"",""5"",""19053""
","""event"",""trial"",""time""
""blur"",""2"",""5209""
","""event"",""trial"",""time""
""focus"",""2"",""6401""
","""event"",""trial"",""time""
""fullscreenenter"",""5"",""19053""
","
","443","","49","","","3000","1","","","images/earth.jpg","images/tutrocket1","images/tutrocket2","null","images/tutrocket2","","1","practice","null","1","","",""
"d3-animate-choice","116","499681","0.0-61.0-1.18","804","1111","14","Male","true","true","true","true","""event"",""trial"",""time""
""blur"",""2"",""5209""
""focus"",""2"",""6401""
""fullscreenenter"",""5"",""19053""
","""event"",""trial"",""time""
""blur"",""2"",""5209""
","""event"",""trial"",""time""
""focus"",""2"",""6401""
","""event"",""trial"",""time""
""fullscreenenter"",""5"",""19053""
","
","373.2000000178814","","48","","","3000","1","","","images/tutyellowplanet.jpg","images/tutalien4","images/tutalien3","images/tutrocket2","images/tutalien4","images/t.png","2","practice","true","2","common","1","2022-03-21 01:30:44.909"
"two-step-fixation","117","500687","0.0-61.0-2.18","804","1111","14","Male","true","true","true","true","""event"",""trial"",""time""
""blur"",""2"",""5209""
""focus"",""2"",""6401""
""fullscreenenter"",""5"",""19053""
","""event"",""trial"",""time""
""blur"",""2"",""5209""
","""event"",""trial"",""time""
""focus"",""2"",""6401""
","""event"",""trial"",""time""
""fullscreenenter"",""5"",""19053""
","
","","images/earth.jpg","","","","","","","","","","","","","","fixation","","","","","",""
"d3-animate-choice","118","503222","0.0-61.0-0.19","804","1111","14","Male","true","true","true","true","""event"",""trial"",""time""
""blur"",""2"",""5209""
""focus"",""2"",""6401""
""fullscreenenter"",""5"",""19053""
","""event"",""trial"",""time""
""blur"",""2"",""5209""
","""event"",""trial"",""time""
""focus"",""2"",""6401""
","""event"",""trial"",""time""
""fullscreenenter"",""5"",""19053""
","
","523.5999999940395","","49","","","3000","1","","","images/earth.jpg","images/tutrocket1","images/tutrocket2","null","images/tutrocket2","","1","practice","null","1","","",""
"d3-animate-choice","119","505487","0.0-61.0-1.19","804","1111","14","Male","true","true","true","true","""event"",""trial"",""time""
""blur"",""2"",""5209""
""focus"",""2"",""6401""
""fullscreenenter"",""5"",""19053""
","""event"",""trial"",""time""
""blur"",""2"",""5209""
","""event"",""trial"",""time""
""focus"",""2"",""6401""
","""event"",""trial"",""time""
""fullscreenenter"",""5"",""19053""
","
","246.90000000596046","","48","","","3000","1","","","images/tutyellowplanet.jpg","images/tutalien4","images/tutalien3","images/tutrocket2","images/tutalien4","images/nothing.png","2","practice","true","2","common","0","2022-03-21 01:30:50.715"
"two-step-fixation","120","506498","0.0-61.0-2.19","804","1111","14","Male","true","true","true","true","""event"",""trial"",""time""
""blur"",""2"",""5209""
""focus"",""2"",""6401""
""fullscreenenter"",""5"",""19053""
","""event"",""trial"",""time""
""blur"",""2"",""5209""
","""event"",""trial"",""time""
""focus"",""2"",""6401""
","""event"",""trial"",""time""
""fullscreenenter"",""5"",""19053""
","
","","images/earth.jpg","","","","","","","","","","","","","","fixation","","","","","",""
"d3-instructions","121","514195","0.0-62.0","804","1111","14","Male","true","true","true","true","""event"",""trial"",""time""
""blur"",""2"",""5209""
""focus"",""2"",""6401""
""fullscreenenter"",""5"",""19053""
","""event"",""trial"",""time""
""blur"",""2"",""5209""
","""event"",""trial"",""time""
""focus"",""2"",""6401""
","""event"",""trial"",""time""
""fullscreenenter"",""5"",""19053""
","
","","","","","","","","","","","","","","","","","","","","","",""
"audio-keyboard-response","122","516717","0.0-63.0","804","1111","14","Male","true","true","true","true","""event"",""trial"",""time""
""blur"",""2"",""5209""
""focus"",""2"",""6401""
""fullscreenenter"",""5"",""19053""
","""event"",""trial"",""time""
""blur"",""2"",""5209""
","""event"",""trial"",""time""
""focus"",""2"",""6401""
","""event"",""trial"",""time""
""fullscreenenter"",""5"",""19053""
","
","2517","audio/instructions/treasure_feedback.wav","32","","","","","","","","","","","","","","","","","","",""
"d3-instructions","123","549573","0.0-64.0","804","1111","14","Male","true","true","true","true","""event"",""trial"",""time""
""blur"",""2"",""5209""
""focus"",""2"",""6401""
""fullscreenenter"",""5"",""19053""
","""event"",""trial"",""time""
""blur"",""2"",""5209""
","""event"",""trial"",""time""
""focus"",""2"",""6401""
","""event"",""trial"",""time""
""fullscreenenter"",""5"",""19053""
","
","","","","","","","","","","","","","","","","","","","","","",""
"d3-instructions","124","566784","0.0-65.0","804","1111","14","Male","true","true","true","true","""event"",""trial"",""time""
""blur"",""2"",""5209""
""focus"",""2"",""6401""
""fullscreenenter"",""5"",""19053""
","""event"",""trial"",""time""
""blur"",""2"",""5209""
","""event"",""trial"",""time""
""focus"",""2"",""6401""
","""event"",""trial"",""time""
""fullscreenenter"",""5"",""19053""
","
","","","","","","","","","","","","","","","","","","","","","",""
"d3-instructions","125","592878","0.0-66.0","804","1111","14","Male","true","true","true","true","""event"",""trial"",""time""
""blur"",""2"",""5209""
""focus"",""2"",""6401""
""fullscreenenter"",""5"",""19053""
","""event"",""trial"",""time""
""blur"",""2"",""5209""
","""event"",""trial"",""time""
""focus"",""2"",""6401""
","""event"",""trial"",""time""
""fullscreenenter"",""5"",""19053""
","
","","","","","","","","","","","","","","","","","","","","","",""
"d3-instructions","126","608756","0.0-67.0","804","1111","14","Male","true","true","true","true","""event"",""trial"",""time""
""blur"",""2"",""5209""
""focus"",""2"",""6401""
""fullscreenenter"",""5"",""19053""
","""event"",""trial"",""time""
""blur"",""2"",""5209""
","""event"",""trial"",""time""
""focus"",""2"",""6401""
","""event"",""trial"",""time""
""fullscreenenter"",""5"",""19053""
","
","","","","","","","","","","","","","","","","","","","","","",""
"d3-instructions","127","617407","0.0-68.0","804","1111","14","Male","true","true","true","true","""event"",""trial"",""time""
""blur"",""2"",""5209""
""focus"",""2"",""6401""
""fullscreenenter"",""5"",""19053""
","""event"",""trial"",""time""
""blur"",""2"",""5209""
","""event"",""trial"",""time""
""focus"",""2"",""6401""
","""event"",""trial"",""time""
""fullscreenenter"",""5"",""19053""
","
","","","","","","","","","","","","","","","","","","","","","",""
"instructions-quiz","128","622169","0.0-69.0","804","1111","14","Male","true","true","true","true","""event"",""trial"",""time""
""blur"",""2"",""5209""
""focus"",""2"",""6401""
""fullscreenenter"",""5"",""19053""
","""event"",""trial"",""time""
""blur"",""2"",""5209""
","""event"",""trial"",""time""
""focus"",""2"",""6401""
","""event"",""trial"",""time""
""fullscreenenter"",""5"",""19053""
","
","4751.199999988079","audio/quiz/Q1_Prompt.wav","","1","","","","","","","","","","","","","","","","","",""
"audio-keyboard-response","129","625398","0.0-70.0","804","1111","14","Male","true","true","true","true","""event"",""trial"",""time""
""blur"",""2"",""5209""
""focus"",""2"",""6401""
""fullscreenenter"",""5"",""19053""
","""event"",""trial"",""time""
""blur"",""2"",""5209""
","""event"",""trial"",""time""
""focus"",""2"",""6401""
","""event"",""trial"",""time""
""fullscreenenter"",""5"",""19053""
","
","3221","audio/quiz/Q1_Correct.wav","32","","","","","","","","","","","","","","","","","","",""
"instructions-quiz","130","631707","0.0-71.0","804","1111","14","Male","true","true","true","true","""event"",""trial"",""time""
""blur"",""2"",""5209""
""focus"",""2"",""6401""
""fullscreenenter"",""5"",""19053""
","""event"",""trial"",""time""
""blur"",""2"",""5209""
","""event"",""trial"",""time""
""focus"",""2"",""6401""
","""event"",""trial"",""time""
""fullscreenenter"",""5"",""19053""
","
","6300.5","audio/quiz/Q2_Prompt.wav","","1","","","","","","","","","","","","","","","","","",""
"audio-keyboard-response","131","632208","0.0-72.0","804","1111","14","Male","true","true","true","true","""event"",""trial"",""time""
""blur"",""2"",""5209""
""focus"",""2"",""6401""
""fullscreenenter"",""5"",""19053""
","""event"",""trial"",""time""
""blur"",""2"",""5209""
","""event"",""trial"",""time""
""focus"",""2"",""6401""
","""event"",""trial"",""time""
""fullscreenenter"",""5"",""19053""
","
","501","audio/quiz/Q2_Incorrect.wav","32","","","","","","","","","","","","","","","","","","",""
"instructions-quiz","132","636995","0.0-73.0","804","1111","14","Male","true","true","true","true","""event"",""trial"",""time""
""blur"",""2"",""5209""
""focus"",""2"",""6401""
""fullscreenenter"",""5"",""19053""
","""event"",""trial"",""time""
""blur"",""2"",""5209""
","""event"",""trial"",""time""
""focus"",""2"",""6401""
","""event"",""trial"",""time""
""fullscreenenter"",""5"",""19053""
","
","4782","audio/quiz/Q3_Prompt.wav","","1","","","","","","","","","","","","","","","","","",""
"audio-keyboard-response","133","639005","0.0-74.0","804","1111","14","Male","true","true","true","true","""event"",""trial"",""time""
""blur"",""2"",""5209""
""focus"",""2"",""6401""
""fullscreenenter"",""5"",""19053""
","""event"",""trial"",""time""
""blur"",""2"",""5209""
","""event"",""trial"",""time""
""focus"",""2"",""6401""
","""event"",""trial"",""time""
""fullscreenenter"",""5"",""19053""
","
","2005","audio/quiz/Q3_Correct.wav","32","","","","","","","","","","","","","","","","","","",""
"d3-instructions","134","652529","0.0-75.0","804","1111","14","Male","true","true","true","true","""event"",""trial"",""time""
""blur"",""2"",""5209""
""focus"",""2"",""6401""
""fullscreenenter"",""5"",""19053""
","""event"",""trial"",""time""
""blur"",""2"",""5209""
","""event"",""trial"",""time""
""focus"",""2"",""6401""
","""event"",""trial"",""time""
""fullscreenenter"",""5"",""19053""
","
","","","","","","","","","","","","","","","","","","","","","",""
"d3-animate-choice","135","656539","0.0-76.0-0.0","804","1111","14","Male","true","true","true","true","""event"",""trial"",""time""
""blur"",""2"",""5209""
""focus"",""2"",""6401""
""fullscreenenter"",""5"",""19053""
","""event"",""trial"",""time""
""blur"",""2"",""5209""
","""event"",""trial"",""time""
""focus"",""2"",""6401""
","""event"",""trial"",""time""
""fullscreenenter"",""5"",""19053""
","
","2851.300000011921","","49","","","3000","1","","","images/earth.jpg","images/rocket2","images/rocket1","null","images/rocket1","","1","real","null","1","","",""
"d3-animate-choice","136","659532","0.0-76.0-1.0","804","1111","14","Male","true","true","true","true","""event"",""trial"",""time""
""blur"",""2"",""5209""
""focus"",""2"",""6401""
""fullscreenenter"",""5"",""19053""
","""event"",""trial"",""time""
""blur"",""2"",""5209""
","""event"",""trial"",""time""
""focus"",""2"",""6401""
","""event"",""trial"",""time""
""fullscreenenter"",""5"",""19053""
","
","976.7999999821186","","49","","","3000","1","","","images/redplanet1.jpg","images/alien2","images/alien1","images/rocket1","images/alien1","images/t.png","2","real","true","1","common","1","2022-03-21 01:33:24.761"
"two-step-fixation","137","660544","0.0-76.0-2.0","804","1111","14","Male","true","true","true","true","""event"",""trial"",""time""
""blur"",""2"",""5209""
""focus"",""2"",""6401""
""fullscreenenter"",""5"",""19053""
","""event"",""trial"",""time""
""blur"",""2"",""5209""
","""event"",""trial"",""time""
""focus"",""2"",""6401""
","""event"",""trial"",""time""
""fullscreenenter"",""5"",""19053""
","
","","images/earth.jpg","","","","","","","","","","","","","","fixation","","","","","",""
"d3-animate-choice","138","662673","0.0-76.0-0.1","804","1111","14","Male","true","true","true","true","""event"",""trial"",""time""
""blur"",""2"",""5209""
""focus"",""2"",""6401""
""fullscreenenter"",""5"",""19053""
","""event"",""trial"",""time""
""blur"",""2"",""5209""
","""event"",""trial"",""time""
""focus"",""2"",""6401""
","""event"",""trial"",""time""
""fullscreenenter"",""5"",""19053""
","
","110.5","","49","","","3000","1","","","images/earth.jpg","images/rocket2","images/rocket1","null","images/rocket1","","1","real","null","1","","",""
"d3-animate-choice","139","665096","0.0-76.0-1.1","804","1111","14","Male","true","true","true","true","""event"",""trial"",""time""
""blur"",""2"",""5209""
""focus"",""2"",""6401""
""fullscreenenter"",""5"",""19053""
","""event"",""trial"",""time""
""blur"",""2"",""5209""
","""event"",""trial"",""time""
""focus"",""2"",""6401""
","""event"",""trial"",""time""
""fullscreenenter"",""5"",""19053""
","
","408.40000000596046","","49","","","3000","1","","","images/redplanet1.jpg","images/alien2","images/alien1","images/rocket1","images/alien1","images/nothing.png","2","real","true","1","common","0","2022-03-21 01:33:30.324"
"two-step-fixation","140","666105","0.0-76.0-2.1","804","1111","14","Male","true","true","true","true","""event"",""trial"",""time""
""blur"",""2"",""5209""
""focus"",""2"",""6401""
""fullscreenenter"",""5"",""19053""
","""event"",""trial"",""time""
""blur"",""2"",""5209""
","""event"",""trial"",""time""
""focus"",""2"",""6401""
","""event"",""trial"",""time""
""fullscreenenter"",""5"",""19053""
","
","","images/earth.jpg","","","","","","","","","","","","","","fixation","","","","","",""
"d3-animate-choice","141","668613","0.0-76.0-0.2","804","1111","14","Male","true","true","true","true","""event"",""trial"",""time""
""blur"",""2"",""5209""
""focus"",""2"",""6401""
""fullscreenenter"",""5"",""19053""
","""event"",""trial"",""time""
""blur"",""2"",""5209""
","""event"",""trial"",""time""
""focus"",""2"",""6401""
","""event"",""trial"",""time""
""fullscreenenter"",""5"",""19053""
","
","493.30000001192093","","49","","","3000","1","","","images/earth.jpg","images/rocket2","images/rocket1","null","images/rocket1","","1","real","null","1","","",""
"d3-animate-choice","142","671055","0.0-76.0-1.2","804","1111","14","Male","true","true","true","true","""event"",""trial"",""time""
""blur"",""2"",""5209""
""focus"",""2"",""6401""
""fullscreenenter"",""5"",""19053""
","""event"",""trial"",""time""
""blur"",""2"",""5209""
","""event"",""trial"",""time""
""focus"",""2"",""6401""
","""event"",""trial"",""time""
""fullscreenenter"",""5"",""19053""
","
","430","","48","","","3000","1","","","images/purpleplanet.jpg","images/alien4","images/alien3","images/rocket1","images/alien4","images/t.png","2","real","false","2","rare","1","2022-03-21 01:33:36.283"
"two-step-fixation","143","672064","0.0-76.0-2.2","804","1111","14","Male","true","true","true","true","""event"",""trial"",""time""
""blur"",""2"",""5209""
""focus"",""2"",""6401""
""fullscreenenter"",""5"",""19053""
","""event"",""trial"",""time""
""blur"",""2"",""5209""
","""event"",""trial"",""time""
""focus"",""2"",""6401""
","""event"",""trial"",""time""
""fullscreenenter"",""5"",""19053""
","
","","images/earth.jpg","","","","","","","","","","","","","","fixation","","","","","",""
"d3-animate-choice","144","674423","0.0-76.0-0.3","804","1111","14","Male","true","true","true","true","""event"",""trial"",""time""
""blur"",""2"",""5209""
""focus"",""2"",""6401""
""fullscreenenter"",""5"",""19053""
","""event"",""trial"",""time""
""blur"",""2"",""5209""
","""event"",""trial"",""time""
""focus"",""2"",""6401""
","""event"",""trial"",""time""
""fullscreenenter"",""5"",""19053""
","
","345.40000000596046","","49","","","3000","1","","","images/earth.jpg","images/rocket2","images/rocket1","null","images/rocket1","","1","real","null","1","","",""
"d3-animate-choice","145","677008","0.0-76.0-1.3","804","1111","14","Male","true","true","true","true","""event"",""trial"",""time""
""blur"",""2"",""5209""
""focus"",""2"",""6401""
""fullscreenenter"",""5"",""19053""
","""event"",""trial"",""time""
""blur"",""2"",""5209""
","""event"",""trial"",""time""
""focus"",""2"",""6401""
","""event"",""trial"",""time""
""fullscreenenter"",""5"",""19053""
","
","567.3000000119209","","49","","","3000","1","","","images/redplanet1.jpg","images/alien2","images/alien1","images/rocket1","images/alien1","images/nothing.png","2","real","true","1","common","0","2022-03-21 01:33:42.236"
"two-step-fixation","146","678017","0.0-76.0-2.3","804","1111","14","Male","true","true","true","true","""event"",""trial"",""time""
""blur"",""2"",""5209""
""focus"",""2"",""6401""
""fullscreenenter"",""5"",""19053""
","""event"",""trial"",""time""
""blur"",""2"",""5209""
","""event"",""trial"",""time""
""focus"",""2"",""6401""
","""event"",""trial"",""time""
""fullscreenenter"",""5"",""19053""
","
","","images/earth.jpg","","","","","","","","","","","","","","fixation","","","","","",""
"d3-animate-choice","147","680393","0.0-76.0-0.4","804","1111","14","Male","true","true","true","true","""event"",""trial"",""time""
""blur"",""2"",""5209""
""focus"",""2"",""6401""
""fullscreenenter"",""5"",""19053""
","""event"",""trial"",""time""
""blur"",""2"",""5209""
","""event"",""trial"",""time""
""focus"",""2"",""6401""
","""event"",""trial"",""time""
""fullscreenenter"",""5"",""19053""
","
","361.40000000596046","","49","","","3000","1","","","images/earth.jpg","images/rocket2","images/rocket1","null","images/rocket1","","1","real","null","1","","",""
"d3-animate-choice","148","683027","0.0-76.0-1.4","804","1111","14","Male","true","true","true","true","""event"",""trial"",""time""
""blur"",""2"",""5209""
""focus"",""2"",""6401""
""fullscreenenter"",""5"",""19053""
","""event"",""trial"",""time""
""blur"",""2"",""5209""
","""event"",""trial"",""time""
""focus"",""2"",""6401""
","""event"",""trial"",""time""
""fullscreenenter"",""5"",""19053""
","
","616.5999999940395","","48","","","3000","1","","","images/redplanet1.jpg","images/alien2","images/alien1","images/rocket1","images/alien2","images/nothing.png","2","real","true","2","common","0","2022-03-21 01:33:48.256"
"two-step-fixation","149","684046","0.0-76.0-2.4","804","1111","14","Male","true","true","true","true","""event"",""trial"",""time""
""blur"",""2"",""5209""
""focus"",""2"",""6401""
""fullscreenenter"",""5"",""19053""
","""event"",""trial"",""time""
""blur"",""2"",""5209""
","""event"",""trial"",""time""
""focus"",""2"",""6401""
","""event"",""trial"",""time""
""fullscreenenter"",""5"",""19053""
","
","","images/earth.jpg","","","","","","","","","","","","","","fixation","","","","","",""
"d3-animate-choice","150","686365","0.0-76.0-0.5","804","1111","14","Male","true","true","true","true","""event"",""trial"",""time""
""blur"",""2"",""5209""
""focus"",""2"",""6401""
""fullscreenenter"",""5"",""19053""
","""event"",""trial"",""time""
""blur"",""2"",""5209""
","""event"",""trial"",""time""
""focus"",""2"",""6401""
","""event"",""trial"",""time""
""fullscreenenter"",""5"",""19053""
","
","296.59999999403954","","48","","","3000","1","","","images/earth.jpg","images/rocket2","images/rocket1","null","images/rocket2","","1","real","null","2","","",""
"d3-animate-choice","151","689090","0.0-76.0-1.5","804","1111","14","Male","true","true","true","true","""event"",""trial"",""time""
""blur"",""2"",""5209""
""focus"",""2"",""6401""
""fullscreenenter"",""5"",""19053""
","""event"",""trial"",""time""
""blur"",""2"",""5209""
","""event"",""trial"",""time""
""focus"",""2"",""6401""
","""event"",""trial"",""time""
""fullscreenenter"",""5"",""19053""
","
","713.9000000059605","","49","","","3000","1","","","images/purpleplanet.jpg","images/alien4","images/alien3","images/rocket2","images/alien3","images/t.png","2","real","true","1","common","1","2022-03-21 01:33:54.319"
"two-step-fixation","152","690101","0.0-76.0-2.5","804","1111","14","Male","true","true","true","true","""event"",""trial"",""time""
""blur"",""2"",""5209""
""focus"",""2"",""6401""
""fullscreenenter"",""5"",""19053""
","""event"",""trial"",""time""
""blur"",""2"",""5209""
","""event"",""trial"",""time""
""focus"",""2"",""6401""
","""event"",""trial"",""time""
""fullscreenenter"",""5"",""19053""
","
","","images/earth.jpg","","","","","","","","","","","","","","fixation","","","","","",""
"d3-animate-choice","153","692366","0.0-76.0-0.6","804","1111","14","Male","true","true","true","true","""event"",""trial"",""time""
""blur"",""2"",""5209""
""focus"",""2"",""6401""
""fullscreenenter"",""5"",""19053""
","""event"",""trial"",""time""
""blur"",""2"",""5209""
","""event"",""trial"",""time""
""focus"",""2"",""6401""
","""event"",""trial"",""time""
""fullscreenenter"",""5"",""19053""
","
","250.80000001192093","","48","","","3000","1","","","images/earth.jpg","images/rocket2","images/rocket1","null","images/rocket2","","1","real","null","2","","",""
"d3-animate-choice","154","694756","0.0-76.0-1.6","804","1111","14","Male","true","true","true","true","""event"",""trial"",""time""
""blur"",""2"",""5209""
""focus"",""2"",""6401""
""fullscreenenter"",""5"",""19053""
","""event"",""trial"",""time""
""blur"",""2"",""5209""
","""event"",""trial"",""time""
""focus"",""2"",""6401""
","""event"",""trial"",""time""
""fullscreenenter"",""5"",""19053""
","
","371.59999999403954","","49","","","3000","1","","","images/redplanet1.jpg","images/alien2","images/alien1","images/rocket2","images/alien1","images/t.png","2","real","false","1","rare","1","2022-03-21 01:33:59.984"
"two-step-fixation","155","695767","0.0-76.0-2.6","804","1111","14","Male","true","true","true","true","""event"",""trial"",""time""
""blur"",""2"",""5209""
""focus"",""2"",""6401""
""fullscreenenter"",""5"",""19053""
","""event"",""trial"",""time""
""blur"",""2"",""5209""
","""event"",""trial"",""time""
""focus"",""2"",""6401""
","""event"",""trial"",""time""
""fullscreenenter"",""5"",""19053""
","
","","images/earth.jpg","","","","","","","","","","","","","","fixation","","","","","",""
"d3-animate-choice","156","698068","0.0-76.0-0.7","804","1111","14","Male","true","true","true","true","""event"",""trial"",""time""
""blur"",""2"",""5209""
""focus"",""2"",""6401""
""fullscreenenter"",""5"",""19053""
","""event"",""trial"",""time""
""blur"",""2"",""5209""
","""event"",""trial"",""time""
""focus"",""2"",""6401""
","""event"",""trial"",""time""
""fullscreenenter"",""5"",""19053""
","
","288","","48","","","3000","1","","","images/earth.jpg","images/rocket2","images/rocket1","null","images/rocket2","","1","real","null","2","","",""
"d3-animate-choice","157","701287","0.0-76.0-1.7","804","1111","14","Male","true","true","true","true","""event"",""trial"",""time""
""blur"",""2"",""5209""
""focus"",""2"",""6401""
""fullscreenenter"",""5"",""19053""
","""event"",""trial"",""time""
""blur"",""2"",""5209""
","""event"",""trial"",""time""
""focus"",""2"",""6401""
","""event"",""trial"",""time""
""fullscreenenter"",""5"",""19053""
","
","1205.5999999940395","","48","","","3000","1","","","images/redplanet1.jpg","images/alien2","images/alien1","images/rocket2","images/alien2","images/t.png","2","real","false","2","rare","1","2022-03-21 01:34:06.516"
"two-step-fixation","158","702299","0.0-76.0-2.7","804","1111","14","Male","true","true","true","true","""event"",""trial"",""time""
""blur"",""2"",""5209""
""focus"",""2"",""6401""
""fullscreenenter"",""5"",""19053""
","""event"",""trial"",""time""
""blur"",""2"",""5209""
","""event"",""trial"",""time""
""focus"",""2"",""6401""
","""event"",""trial"",""time""
""fullscreenenter"",""5"",""19053""
","
","","images/earth.jpg","","","","","","","","","","","","","","fixation","","","","","",""
"d3-animate-choice","159","704689","0.0-76.0-0.8","804","1111","14","Male","true","true","true","true","""event"",""trial"",""time""
""blur"",""2"",""5209""
""focus"",""2"",""6401""
""fullscreenenter"",""5"",""19053""
","""event"",""trial"",""time""
""blur"",""2"",""5209""
","""event"",""trial"",""time""
""focus"",""2"",""6401""
","""event"",""trial"",""time""
""fullscreenenter"",""5"",""19053""
","
","376.09999999403954","","48","","","3000","1","1302.8999999761581","8","images/earth.jpg","images/rocket2","images/rocket1","null","images/rocket2","","1","real","null","2","","",""
"d3-animate-choice","160","707274","0.0-76.0-1.8","804","1111","14","Male","true","true","true","true","""event"",""trial"",""time""
""blur"",""2"",""5209""
""focus"",""2"",""6401""
""fullscreenenter"",""5"",""19053""
","""event"",""trial"",""time""
""blur"",""2"",""5209""
","""event"",""trial"",""time""
""focus"",""2"",""6401""
","""event"",""trial"",""time""
""fullscreenenter"",""5"",""19053""
","
","567","","48","","","3000","1","","","images/purpleplanet.jpg","images/alien4","images/alien3","images/rocket2","images/alien4","images/nothing.png","2","real","true","2","common","0","2022-03-21 01:34:12.502"
"two-step-fixation","161","708286","0.0-76.0-2.8","804","1111","14","Male","true","true","true","true","""event"",""trial"",""time""
""blur"",""2"",""5209""
""focus"",""2"",""6401""
""fullscreenenter"",""5"",""19053""
","""event"",""trial"",""time""
""blur"",""2"",""5209""
","""event"",""trial"",""time""
""focus"",""2"",""6401""
","""event"",""trial"",""time""
""fullscreenenter"",""5"",""19053""
","
","","images/earth.jpg","","","","","","","","","","","","","","fixation","","","","","",""
"d3-animate-choice","162","710621","0.0-76.0-0.9","804","1111","14","Male","true","true","true","true","""event"",""trial"",""time""
""blur"",""2"",""5209""
""focus"",""2"",""6401""
""fullscreenenter"",""5"",""19053""
","""event"",""trial"",""time""
""blur"",""2"",""5209""
","""event"",""trial"",""time""
""focus"",""2"",""6401""
","""event"",""trial"",""time""
""fullscreenenter"",""5"",""19053""
","
","313.5","","48","","","3000","1","","","images/earth.jpg","images/rocket2","images/rocket1","null","images/rocket2","","1","real","null","2","","",""
"d3-animate-choice","163","713149","0.0-76.0-1.9","804","1111","14","Male","true","true","true","true","""event"",""trial"",""time""
""blur"",""2"",""5209""
""focus"",""2"",""6401""
""fullscreenenter"",""5"",""19053""
","""event"",""trial"",""time""
""blur"",""2"",""5209""
","""event"",""trial"",""time""
""focus"",""2"",""6401""
","""event"",""trial"",""time""
""fullscreenenter"",""5"",""19053""
","
","512","","49","","","3000","1","","","images/purpleplanet.jpg","images/alien4","images/alien3","images/rocket2","images/alien3","images/nothing.png","2","real","true","1","common","0","2022-03-21 01:34:18.377"
"two-step-fixation","164","714161","0.0-76.0-2.9","804","1111","14","Male","true","true","true","true","""event"",""trial"",""time""
""blur"",""2"",""5209""
""focus"",""2"",""6401""
""fullscreenenter"",""5"",""19053""
","""event"",""trial"",""time""
""blur"",""2"",""5209""
","""event"",""trial"",""time""
""focus"",""2"",""6401""
","""event"",""trial"",""time""
""fullscreenenter"",""5"",""19053""
","
","","images/earth.jpg","","","","","","","","","","","","","","fixation","","","","","",""
"d3-animate-choice","165","716784","0.0-76.0-0.10","804","1111","14","Male","true","true","true","true","""event"",""trial"",""time""
""blur"",""2"",""5209""
""focus"",""2"",""6401""
""fullscreenenter"",""5"",""19053""
","""event"",""trial"",""time""
""blur"",""2"",""5209""
","""event"",""trial"",""time""
""focus"",""2"",""6401""
","""event"",""trial"",""time""
""fullscreenenter"",""5"",""19053""
","
","612.2000000178814","","48","","","3000","1","","","images/earth.jpg","images/rocket2","images/rocket1","null","images/rocket2","","1","real","null","2","","",""
"d3-animate-choice","166","719119","0.0-76.0-1.10","804","1111","14","Male","true","true","true","true","""event"",""trial"",""time""
""blur"",""2"",""5209""
""focus"",""2"",""6401""
""fullscreenenter"",""5"",""19053""
","""event"",""trial"",""time""
""blur"",""2"",""5209""
","""event"",""trial"",""time""
""focus"",""2"",""6401""
","""event"",""trial"",""time""
""fullscreenenter"",""5"",""19053""
","
","317.59999999403954","","48","","","3000","1","","","images/purpleplanet.jpg","images/alien4","images/alien3","images/rocket2","images/alien4","images/t.png","2","real","true","2","common","1","2022-03-21 01:34:24.348"
"two-step-fixation","167","720129","0.0-76.0-2.10","804","1111","14","Male","true","true","true","true","""event"",""trial"",""time""
""blur"",""2"",""5209""
""focus"",""2"",""6401""
""fullscreenenter"",""5"",""19053""
","""event"",""trial"",""time""
""blur"",""2"",""5209""
","""event"",""trial"",""time""
""focus"",""2"",""6401""
","""event"",""trial"",""time""
""fullscreenenter"",""5"",""19053""
","
","","images/earth.jpg","","","","","","","","","","","","","","fixation","","","","","",""
"d3-animate-choice","168","722461","0.0-76.0-0.11","804","1111","14","Male","true","true","true","true","""event"",""trial"",""time""
""blur"",""2"",""5209""
""focus"",""2"",""6401""
""fullscreenenter"",""5"",""19053""
","""event"",""trial"",""time""
""blur"",""2"",""5209""
","""event"",""trial"",""time""
""focus"",""2"",""6401""
","""event"",""trial"",""time""
""fullscreenenter"",""5"",""19053""
","
","319.59999999403954","","48","","","3000","1","","","images/earth.jpg","images/rocket2","images/rocket1","null","images/rocket2","","1","real","null","2","","",""
"d3-animate-choice","169","724910","0.0-76.0-1.11","804","1111","14","Male","true","true","true","true","""event"",""trial"",""time""
""blur"",""2"",""5209""
""focus"",""2"",""6401""
""fullscreenenter"",""5"",""19053""
","""event"",""trial"",""time""
""blur"",""2"",""5209""
","""event"",""trial"",""time""
""focus"",""2"",""6401""
","""event"",""trial"",""time""
""fullscreenenter"",""5"",""19053""
","
","430.7999999821186","","48","","","3000","1","","","images/redplanet1.jpg","images/alien2","images/alien1","images/rocket2","images/alien2","images/t.png","2","real","false","2","rare","1","2022-03-21 01:34:30.139"
"two-step-fixation","170","725920","0.0-76.0-2.11","804","1111","14","Male","true","true","true","true","""event"",""trial"",""time""
""blur"",""2"",""5209""
""focus"",""2"",""6401""
""fullscreenenter"",""5"",""19053""
","""event"",""trial"",""time""
""blur"",""2"",""5209""
","""event"",""trial"",""time""
""focus"",""2"",""6401""
","""event"",""trial"",""time""
""fullscreenenter"",""5"",""19053""
","
","","images/earth.jpg","","","","","","","","","","","","","","fixation","","","","","",""
"d3-animate-choice","171","728275","0.0-76.0-0.12","804","1111","14","Male","true","true","true","true","""event"",""trial"",""time""
""blur"",""2"",""5209""
""focus"",""2"",""6401""
""fullscreenenter"",""5"",""19053""
","""event"",""trial"",""time""
""blur"",""2"",""5209""
","""event"",""trial"",""time""
""focus"",""2"",""6401""
","""event"",""trial"",""time""
""fullscreenenter"",""5"",""19053""
","
","332.5","","48","","","3000","1","","","images/earth.jpg","images/rocket2","images/rocket1","null","images/rocket2","","1","real","null","2","","",""
"d3-animate-choice","172","730785","0.0-76.0-1.12","804","1111","14","Male","true","true","true","true","""event"",""trial"",""time""
""blur"",""2"",""5209""
""focus"",""2"",""6401""
""fullscreenenter"",""5"",""19053""
","""event"",""trial"",""time""
""blur"",""2"",""5209""
","""event"",""trial"",""time""
""focus"",""2"",""6401""
","""event"",""trial"",""time""
""fullscreenenter"",""5"",""19053""
","
","490.09999999403954","","48","","","3000","1","","","images/purpleplanet.jpg","images/alien4","images/alien3","images/rocket2","images/alien4","images/t.png","2","real","true","2","common","1","2022-03-21 01:34:36.014"
"two-step-fixation","173","731800","0.0-76.0-2.12","804","1111","14","Male","true","true","true","true","""event"",""trial"",""time""
""blur"",""2"",""5209""
""focus"",""2"",""6401""
""fullscreenenter"",""5"",""19053""
","""event"",""trial"",""time""
""blur"",""2"",""5209""
","""event"",""trial"",""time""
""focus"",""2"",""6401""
","""event"",""trial"",""time""
""fullscreenenter"",""5"",""19053""
","
","","images/earth.jpg","","","","","","","","","","","","","","fixation","","","","","",""
"d3-animate-choice","174","734274","0.0-76.0-0.13","804","1111","14","Male","true","true","true","true","""event"",""trial"",""time""
""blur"",""2"",""5209""
""focus"",""2"",""6401""
""fullscreenenter"",""5"",""19053""
","""event"",""trial"",""time""
""blur"",""2"",""5209""
","""event"",""trial"",""time""
""focus"",""2"",""6401""
","""event"",""trial"",""time""
""fullscreenenter"",""5"",""19053""
","
","155.5","","32","","","3000","1","457.59999999403954","48","images/earth.jpg","images/rocket2","images/rocket1","null","images/rocket2","","1","real","null","","","",""
"d3-animate-choice","175","736804","0.0-76.0-1.13","804","1111","14","Male","true","true","true","true","""event"",""trial"",""time""
""blur"",""2"",""5209""
""focus"",""2"",""6401""
""fullscreenenter"",""5"",""19053""
","""event"",""trial"",""time""
""blur"",""2"",""5209""
","""event"",""trial"",""time""
""focus"",""2"",""6401""
","""event"",""trial"",""time""
""fullscreenenter"",""5"",""19053""
","
","520.5","","48","","","3000","1","","","images/purpleplanet.jpg","images/alien4","images/alien3","images/rocket2","images/alien4","images/t.png","2","real","true","2","common","1","2022-03-21 01:34:42.033"
"two-step-fixation","176","737814","0.0-76.0-2.13","804","1111","14","Male","true","true","true","true","""event"",""trial"",""time""
""blur"",""2"",""5209""
""focus"",""2"",""6401""
""fullscreenenter"",""5"",""19053""
","""event"",""trial"",""time""
""blur"",""2"",""5209""
","""event"",""trial"",""time""
""focus"",""2"",""6401""
","""event"",""trial"",""time""
""fullscreenenter"",""5"",""19053""
","
","","images/earth.jpg","","","","","","","","","","","","","","fixation","","","","","",""
"d3-animate-choice","177","740240","0.0-76.0-0.14","804","1111","14","Male","true","true","true","true","""event"",""trial"",""time""
""blur"",""2"",""5209""
""focus"",""2"",""6401""
""fullscreenenter"",""5"",""19053""
","""event"",""trial"",""time""
""blur"",""2"",""5209""
","""event"",""trial"",""time""
""focus"",""2"",""6401""
","""event"",""trial"",""time""
""fullscreenenter"",""5"",""19053""
","
","408.2999999821186","","48","","","3000","1","","","images/earth.jpg","images/rocket2","images/rocket1","null","images/rocket2","","1","real","null","2","","",""
"d3-animate-choice","178","742958","0.0-76.0-1.14","804","1111","14","Male","true","true","true","true","""event"",""trial"",""time""
""blur"",""2"",""5209""
""focus"",""2"",""6401""
""fullscreenenter"",""5"",""19053""
","""event"",""trial"",""time""
""blur"",""2"",""5209""
","""event"",""trial"",""time""
""focus"",""2"",""6401""
","""event"",""trial"",""time""
""fullscreenenter"",""5"",""19053""
","
","702.5","","48","","","3000","1","","","images/redplanet1.jpg","images/alien2","images/alien1","images/rocket2","images/alien2","images/t.png","2","real","false","2","rare","1","2022-03-21 01:34:48.186"
"two-step-fixation","179","743966","0.0-76.0-2.14","804","1111","14","Male","true","true","true","true","""event"",""trial"",""time""
""blur"",""2"",""5209""
""focus"",""2"",""6401""
""fullscreenenter"",""5"",""19053""
","""event"",""trial"",""time""
""blur"",""2"",""5209""
","""event"",""trial"",""time""
""focus"",""2"",""6401""
","""event"",""trial"",""time""
""fullscreenenter"",""5"",""19053""
","
","","images/earth.jpg","","","","","","","","","","","","","","fixation","","","","","",""
