"trial_type","trial_index","time_elapsed","internal_node_id","participant_id","subject_id","age","gender","rocket_sides","red_planet_first_rocket","red_display_order","purple_display_order","interactions","blur_events","focus_events","fullscreenenter_events","fullscreenexit_events","rt","stimulus","key_press","button_pressed","success","duration","valid_pressed","rts","keys","planet_text","right_text","left_text","center_text","chosen_text","reward_text","trial_stage","practice_trial","transition_type","choice","transition","reward","timestamp"
"pavlovia","0","6","0.0-0.0","891","686","23","Female","true","false","false","true","
","
","
","
","
","","","","","","","","","","","","","","","","","","","","","",""
"html-keyboard-response","1","1770","0.0-1.0","891","686","23","Female","true","false","false","true","
","
","
","
","
","1763.3000001907349","Welcome! Press the space bar to begin.","32","","","","","","","","","","","","","","","","","","",""
"audio-keyboard-response","2","4813","0.0-2.0","891","686","23","Female","true","false","false","true","
","
","
","
","
","2869","audio/beep_loop.wav","32","","","","","","","","","","","","","","","","","","",""
"audio-button-response","3","8397","0.0-3.0","891","686","23","Female","true","false","false","true","
","
","
","
","
","NaN","audio/fish.mp3","","1","","","","","","","","","","","","","","","","","",""
"audio-button-response","4","12141","0.0-4.0","891","686","23","Female","true","false","false","true","""event"",""trial"",""time""
""fullscreenenter"",""5"",""15623""
","
","
","""event"",""trial"",""time""
""fullscreenenter"",""5"",""15623""
","
","NaN","audio/tiger.mp3","","4","","","","","","","","","","","","","","","","","",""
"fullscreen","5","16438","0.0-5.0","891","686","23","Female","true","false","false","true","""event"",""trial"",""time""
""fullscreenenter"",""5"",""15623""
""blur"",""6"",""21742""
""focus"",""6"",""32643""
","""event"",""trial"",""time""
""blur"",""6"",""21742""
","""event"",""trial"",""time""
""focus"",""6"",""32643""
","""event"",""trial"",""time""
""fullscreenenter"",""5"",""15623""
","
","","","","","true","","","","","","","","","","","","","","","","",""
"d3-instructions","6","34211","0.0-6.0","891","686","23","Female","true","false","false","true","""event"",""trial"",""time""
""fullscreenenter"",""5"",""15623""
""blur"",""6"",""21742""
""focus"",""6"",""32643""
","""event"",""trial"",""time""
""blur"",""6"",""21742""
","""event"",""trial"",""time""
""focus"",""6"",""32643""
","""event"",""trial"",""time""
""fullscreenenter"",""5"",""15623""
","
","","","","","","","","","","","","","","","","","","","","","",""
"d3-instructions","7","45710","0.0-7.0","891","686","23","Female","true","false","false","true","""event"",""trial"",""time""
""fullscreenenter"",""5"",""15623""
""blur"",""6"",""21742""
""focus"",""6"",""32643""
","""event"",""trial"",""time""
""blur"",""6"",""21742""
","""event"",""trial"",""time""
""focus"",""6"",""32643""
","""event"",""trial"",""time""
""fullscreenenter"",""5"",""15623""
","
","","","","","","","","","","","","","","","","","","","","","",""
"d3-instructions","8","53576","0.0-8.0","891","686","23","Female","true","false","false","true","""event"",""trial"",""time""
""fullscreenenter"",""5"",""15623""
""blur"",""6"",""21742""
""focus"",""6"",""32643""
","""event"",""trial"",""time""
""blur"",""6"",""21742""
","""event"",""trial"",""time""
""focus"",""6"",""32643""
","""event"",""trial"",""time""
""fullscreenenter"",""5"",""15623""
","
","","","","","","","","","","","","","","","","","","","","","",""
"d3-instructions","9","64072","0.0-9.0","891","686","23","Female","true","false","false","true","""event"",""trial"",""time""
""fullscreenenter"",""5"",""15623""
""blur"",""6"",""21742""
""focus"",""6"",""32643""
","""event"",""trial"",""time""
""blur"",""6"",""21742""
","""event"",""trial"",""time""
""focus"",""6"",""32643""
","""event"",""trial"",""time""
""fullscreenenter"",""5"",""15623""
","
","","","","","","","","","","","","","","","","","","","","","",""
"d3-instructions","10","74304","0.0-10.0","891","686","23","Female","true","false","false","true","""event"",""trial"",""time""
""fullscreenenter"",""5"",""15623""
""blur"",""6"",""21742""
""focus"",""6"",""32643""
","""event"",""trial"",""time""
""blur"",""6"",""21742""
","""event"",""trial"",""time""
""focus"",""6"",""32643""
","""event"",""trial"",""time""
""fullscreenenter"",""5"",""15623""
","
","","","","","","","","","","","","","","","","","","","","","",""
"d3-animate-choice","11","79100","0.0-11.0","891","686","23","Female","true","false","false","true","""event"",""trial"",""time""
""fullscreenenter"",""5"",""15623""
""blur"",""6"",""21742""
""focus"",""6"",""32643""
","""event"",""trial"",""time""
""blur"",""6"",""21742""
","""event"",""trial"",""time""
""focus"",""6"",""32643""
","""event"",""trial"",""time""
""fullscreenenter"",""5"",""15623""
","
","2774.600000143051","","49","","","3000","1","4567.900000095367","48","images/tutgreenplanet.jpg","images/tutalien1","images/tutalien2","null","images/tutalien2","","NA","practice","null","","","",""
"d3-animate-choice","12","81921","0.0-12.0","891","686","23","Female","true","false","false","true","""event"",""trial"",""time""
""fullscreenenter"",""5"",""15623""
""blur"",""6"",""21742""
""focus"",""6"",""32643""
","""event"",""trial"",""time""
""blur"",""6"",""21742""
","""event"",""trial"",""time""
""focus"",""6"",""32643""
","""event"",""trial"",""time""
""fullscreenenter"",""5"",""15623""
","
","806","","48","","","3000","1","","","images/tutgreenplanet.jpg","images/tutalien1","images/tutalien2","null","images/tutalien1","","NA","practice","null","","","",""
"d3-animate-choice","13","87070","0.0-13.0","891","686","23","Female","true","false","false","true","""event"",""trial"",""time""
""fullscreenenter"",""5"",""15623""
""blur"",""6"",""21742""
""focus"",""6"",""32643""
","""event"",""trial"",""time""
""blur"",""6"",""21742""
","""event"",""trial"",""time""
""focus"",""6"",""32643""
","""event"",""trial"",""time""
""fullscreenenter"",""5"",""15623""
","
","3137.7000000476837","","49","","","3000","1","","","images/tutgreenplanet.jpg","images/tutalien1","images/tutalien2","null","images/tutalien2","","NA","practice","null","","","",""
"d3-animate-choice","14","90407","0.0-14.0","891","686","23","Female","true","false","false","true","""event"",""trial"",""time""
""fullscreenenter"",""5"",""15623""
""blur"",""6"",""21742""
""focus"",""6"",""32643""
","""event"",""trial"",""time""
""blur"",""6"",""21742""
","""event"",""trial"",""time""
""focus"",""6"",""32643""
","""event"",""trial"",""time""
""fullscreenenter"",""5"",""15623""
","
","1323.7999999523163","","48","","","3000","1","","","images/tutgreenplanet.jpg","images/tutalien1","images/tutalien2","null","images/tutalien1","","NA","practice","null","","","",""
"d3-instructions","15","95538","0.0-15.0","891","686","23","Female","true","false","false","true","""event"",""trial"",""time""
""fullscreenenter"",""5"",""15623""
""blur"",""6"",""21742""
""focus"",""6"",""32643""
","""event"",""trial"",""time""
""blur"",""6"",""21742""
","""event"",""trial"",""time""
""focus"",""6"",""32643""
","""event"",""trial"",""time""
""fullscreenenter"",""5"",""15623""
","
","","","","","","","","","","","","","","","","","","","","","",""
"d3-instructions","16","97685","0.0-16.0","891","686","23","Female","true","false","false","true","""event"",""trial"",""time""
""fullscreenenter"",""5"",""15623""
""blur"",""6"",""21742""
""focus"",""6"",""32643""
","""event"",""trial"",""time""
""blur"",""6"",""21742""
","""event"",""trial"",""time""
""focus"",""6"",""32643""
","""event"",""trial"",""time""
""fullscreenenter"",""5"",""15623""
","
","","","","","","","","","","","","","","","","","","","","","",""
"d3-instructions","17","103408","0.0-17.0","891","686","23","Female","true","false","false","true","""event"",""trial"",""time""
""fullscreenenter"",""5"",""15623""
""blur"",""6"",""21742""
""focus"",""6"",""32643""
","""event"",""trial"",""time""
""blur"",""6"",""21742""
","""event"",""trial"",""time""
""focus"",""6"",""32643""
","""event"",""trial"",""time""
""fullscreenenter"",""5"",""15623""
","
","","","","","","","","","","","","","","","","","","","","","",""
"d3-instructions","18","111971","0.0-18.0","891","686","23","Female","true","false","false","true","""event"",""trial"",""time""
""fullscreenenter"",""5"",""15623""
""blur"",""6"",""21742""
""focus"",""6"",""32643""
","""event"",""trial"",""time""
""blur"",""6"",""21742""
","""event"",""trial"",""time""
""focus"",""6"",""32643""
","""event"",""trial"",""time""
""fullscreenenter"",""5"",""15623""
","
","","","","","","","","","","","","","","","","","","","","","",""
"d3-instructions","19","120894","0.0-19.0","891","686","23","Female","true","false","false","true","""event"",""trial"",""time""
""fullscreenenter"",""5"",""15623""
""blur"",""6"",""21742""
""focus"",""6"",""32643""
","""event"",""trial"",""time""
""blur"",""6"",""21742""
","""event"",""trial"",""time""
""focus"",""6"",""32643""
","""event"",""trial"",""time""
""fullscreenenter"",""5"",""15623""
","
","","","","","","","","","","","","","","","","","","","","","",""
"d3-animate-choice","20","123510","0.0-20.0","891","686","23","Female","true","false","false","true","""event"",""trial"",""time""
""fullscreenenter"",""5"",""15623""
""blur"",""6"",""21742""
""focus"",""6"",""32643""
","""event"",""trial"",""time""
""blur"",""6"",""21742""
","""event"",""trial"",""time""
""focus"",""6"",""32643""
","""event"",""trial"",""time""
""fullscreenenter"",""5"",""15623""
","
","599.5999999046326","","49","","","3000","1","","","images/tutyellowplanet.jpg","null","images/tutalien3","null","images/tutalien3","images/t.png","NA","practice","null","","","",""
"d3-animate-choice","21","125917","0.0-21.0","891","686","23","Female","true","false","false","true","""event"",""trial"",""time""
""fullscreenenter"",""5"",""15623""
""blur"",""6"",""21742""
""focus"",""6"",""32643""
","""event"",""trial"",""time""
""blur"",""6"",""21742""
","""event"",""trial"",""time""
""focus"",""6"",""32643""
","""event"",""trial"",""time""
""fullscreenenter"",""5"",""15623""
","
","398.30000019073486","","49","","","3000","1","","","images/tutyellowplanet.jpg","null","images/tutalien3","null","images/tutalien3","images/t.png","NA","practice","null","","","",""
"d3-animate-choice","22","128118","0.0-22.0","891","686","23","Female","true","false","false","true","""event"",""trial"",""time""
""fullscreenenter"",""5"",""15623""
""blur"",""6"",""21742""
""focus"",""6"",""32643""
","""event"",""trial"",""time""
""blur"",""6"",""21742""
","""event"",""trial"",""time""
""focus"",""6"",""32643""
","""event"",""trial"",""time""
""fullscreenenter"",""5"",""15623""
","
","191.5","","49","","","3000","1","","","images/tutyellowplanet.jpg","null","images/tutalien3","null","images/tutalien3","images/t.png","NA","practice","null","","","",""
"d3-animate-choice","23","130402","0.0-23.0","891","686","23","Female","true","false","false","true","""event"",""trial"",""time""
""fullscreenenter"",""5"",""15623""
""blur"",""6"",""21742""
""focus"",""6"",""32643""
","""event"",""trial"",""time""
""blur"",""6"",""21742""
","""event"",""trial"",""time""
""focus"",""6"",""32643""
","""event"",""trial"",""time""
""fullscreenenter"",""5"",""15623""
","
","281.7999999523163","","49","","","3000","1","","","images/tutyellowplanet.jpg","null","images/tutalien3","null","images/tutalien3","images/nothing.png","NA","practice","null","","","",""
"d3-animate-choice","24","133039","0.0-24.0","891","686","23","Female","true","false","false","true","""event"",""trial"",""time""
""fullscreenenter"",""5"",""15623""
""blur"",""6"",""21742""
""focus"",""6"",""32643""
","""event"",""trial"",""time""
""blur"",""6"",""21742""
","""event"",""trial"",""time""
""focus"",""6"",""32643""
","""event"",""trial"",""time""
""fullscreenenter"",""5"",""15623""
","
","628.7000000476837","","49","","","3000","1","","","images/tutyellowplanet.jpg","null","images/tutalien3","null","images/tutalien3","images/t.png","NA","practice","null","","","",""
"d3-animate-choice","25","135344","0.0-25.0","891","686","23","Female","true","false","false","true","""event"",""trial"",""time""
""fullscreenenter"",""5"",""15623""
""blur"",""6"",""21742""
""focus"",""6"",""32643""
","""event"",""trial"",""time""
""blur"",""6"",""21742""
","""event"",""trial"",""time""
""focus"",""6"",""32643""
","""event"",""trial"",""time""
""fullscreenenter"",""5"",""15623""
","
","302.7999999523163","","49","","","3000","1","","","images/tutyellowplanet.jpg","null","images/tutalien3","null","images/tutalien3","images/t.png","NA","practice","null","","","",""
"d3-animate-choice","26","138100","0.0-26.0","891","686","23","Female","true","false","false","true","""event"",""trial"",""time""
""fullscreenenter"",""5"",""15623""
""blur"",""6"",""21742""
""focus"",""6"",""32643""
","""event"",""trial"",""time""
""blur"",""6"",""21742""
","""event"",""trial"",""time""
""focus"",""6"",""32643""
","""event"",""trial"",""time""
""fullscreenenter"",""5"",""15623""
","
","747.6999998092651","","49","","","3000","1","","","images/tutyellowplanet.jpg","null","images/tutalien3","null","images/tutalien3","images/t.png","NA","practice","null","","","",""
"d3-animate-choice","27","140504","0.0-27.0","891","686","23","Female","true","false","false","true","""event"",""trial"",""time""
""fullscreenenter"",""5"",""15623""
""blur"",""6"",""21742""
""focus"",""6"",""32643""
","""event"",""trial"",""time""
""blur"",""6"",""21742""
","""event"",""trial"",""time""
""focus"",""6"",""32643""
","""event"",""trial"",""time""
""fullscreenenter"",""5"",""15623""
","
","387.2000000476837","","49","","","3000","1","","","images/tutyellowplanet.jpg","null","images/tutalien3","null","images/tutalien3","images/nothing.png","NA","practice","null","","","",""
"d3-animate-choice","28","142839","0.0-28.0","891","686","23","Female","true","false","false","true","""event"",""trial"",""time""
""fullscreenenter"",""5"",""15623""
""blur"",""6"",""21742""
""focus"",""6"",""32643""
","""event"",""trial"",""time""
""blur"",""6"",""21742""
","""event"",""trial"",""time""
""focus"",""6"",""32643""
","""event"",""trial"",""time""
""fullscreenenter"",""5"",""15623""
","
","327.2999999523163","","49","","","3000","1","","","images/tutyellowplanet.jpg","null","images/tutalien3","null","images/tutalien3","images/t.png","NA","practice","null","","","",""
"d3-animate-choice","29","145179","0.0-29.0","891","686","23","Female","true","false","false","true","""event"",""trial"",""time""
""fullscreenenter"",""5"",""15623""
""blur"",""6"",""21742""
""focus"",""6"",""32643""
","""event"",""trial"",""time""
""blur"",""6"",""21742""
","""event"",""trial"",""time""
""focus"",""6"",""32643""
","""event"",""trial"",""time""
""fullscreenenter"",""5"",""15623""
","
","324","","49","","","3000","1","","","images/tutyellowplanet.jpg","null","images/tutalien3","null","images/tutalien3","images/t.png","NA","practice","null","","","",""
"d3-instructions","30","149056","0.0-30.0","891","686","23","Female","true","false","false","true","""event"",""trial"",""time""
""fullscreenenter"",""5"",""15623""
""blur"",""6"",""21742""
""focus"",""6"",""32643""
","""event"",""trial"",""time""
""blur"",""6"",""21742""
","""event"",""trial"",""time""
""focus"",""6"",""32643""
","""event"",""trial"",""time""
""fullscreenenter"",""5"",""15623""
","
","","","","","","","","","","","","","","","","","","","","","",""
"d3-instructions","31","153531","0.0-31.0","891","686","23","Female","true","false","false","true","""event"",""trial"",""time""
""fullscreenenter"",""5"",""15623""
""blur"",""6"",""21742""
""focus"",""6"",""32643""
","""event"",""trial"",""time""
""blur"",""6"",""21742""
","""event"",""trial"",""time""
""focus"",""6"",""32643""
","""event"",""trial"",""time""
""fullscreenenter"",""5"",""15623""
","
","","","","","","","","","","","","","","","","","","","","","",""
"d3-instructions","32","157911","0.0-32.0","891","686","23","Female","true","false","false","true","""event"",""trial"",""time""
""fullscreenenter"",""5"",""15623""
""blur"",""6"",""21742""
""focus"",""6"",""32643""
","""event"",""trial"",""time""
""blur"",""6"",""21742""
","""event"",""trial"",""time""
""focus"",""6"",""32643""
","""event"",""trial"",""time""
""fullscreenenter"",""5"",""15623""
","
","","","","","","","","","","","","","","","","","","","","","",""
"d3-instructions","33","159885","0.0-33.0","891","686","23","Female","true","false","false","true","""event"",""trial"",""time""
""fullscreenenter"",""5"",""15623""
""blur"",""6"",""21742""
""focus"",""6"",""32643""
","""event"",""trial"",""time""
""blur"",""6"",""21742""
","""event"",""trial"",""time""
""focus"",""6"",""32643""
","""event"",""trial"",""time""
""fullscreenenter"",""5"",""15623""
","
","","","","","","","","","","","","","","","","","","","","","",""
"d3-animate-choice","34","162927","0.0-34.0","891","686","23","Female","true","false","false","true","""event"",""trial"",""time""
""fullscreenenter"",""5"",""15623""
""blur"",""6"",""21742""
""focus"",""6"",""32643""
","""event"",""trial"",""time""
""blur"",""6"",""21742""
","""event"",""trial"",""time""
""focus"",""6"",""32643""
","""event"",""trial"",""time""
""fullscreenenter"",""5"",""15623""
","
","1030.9000000953674","","49","","","3000","1","","","images/tutgreenplanet.jpg","images/tutalien1","images/tutalien2","null","images/tutalien2","images/t.png","NA","practice","null","","","",""
"d3-animate-choice","35","166507","0.0-35.0","891","686","23","Female","true","false","false","true","""event"",""trial"",""time""
""fullscreenenter"",""5"",""15623""
""blur"",""6"",""21742""
""focus"",""6"",""32643""
","""event"",""trial"",""time""
""blur"",""6"",""21742""
","""event"",""trial"",""time""
""focus"",""6"",""32643""
","""event"",""trial"",""time""
""fullscreenenter"",""5"",""15623""
","
","1575","","49","","","3000","1","","","images/tutgreenplanet.jpg","images/tutalien1","images/tutalien2","null","images/tutalien2","images/t.png","NA","practice","null","","","",""
"d3-animate-choice","36","168950","0.0-36.0","891","686","23","Female","true","false","false","true","""event"",""trial"",""time""
""fullscreenenter"",""5"",""15623""
""blur"",""6"",""21742""
""focus"",""6"",""32643""
","""event"",""trial"",""time""
""blur"",""6"",""21742""
","""event"",""trial"",""time""
""focus"",""6"",""32643""
","""event"",""trial"",""time""
""fullscreenenter"",""5"",""15623""
","
","427.7000000476837","","49","","","3000","1","","","images/tutgreenplanet.jpg","images/tutalien1","images/tutalien2","null","images/tutalien2","images/nothing.png","NA","practice","null","","","",""
"d3-animate-choice","37","171251","0.0-37.0","891","686","23","Female","true","false","false","true","""event"",""trial"",""time""
""fullscreenenter"",""5"",""15623""
""blur"",""6"",""21742""
""focus"",""6"",""32643""
","""event"",""trial"",""time""
""blur"",""6"",""21742""
","""event"",""trial"",""time""
""focus"",""6"",""32643""
","""event"",""trial"",""time""
""fullscreenenter"",""5"",""15623""
","
","298.59999990463257","","49","","","3000","1","","","images/tutgreenplanet.jpg","images/tutalien1","images/tutalien2","null","images/tutalien2","images/t.png","NA","practice","null","","","",""
"d3-animate-choice","38","173607","0.0-38.0","891","686","23","Female","true","false","false","true","""event"",""trial"",""time""
""fullscreenenter"",""5"",""15623""
""blur"",""6"",""21742""
""focus"",""6"",""32643""
","""event"",""trial"",""time""
""blur"",""6"",""21742""
","""event"",""trial"",""time""
""focus"",""6"",""32643""
","""event"",""trial"",""time""
""fullscreenenter"",""5"",""15623""
","
","352.7999999523163","","49","","","3000","1","","","images/tutgreenplanet.jpg","images/tutalien1","images/tutalien2","null","images/tutalien2","images/t.png","NA","practice","null","","","",""
"d3-animate-choice","39","175932","0.0-39.0","891","686","23","Female","true","false","false","true","""event"",""trial"",""time""
""fullscreenenter"",""5"",""15623""
""blur"",""6"",""21742""
""focus"",""6"",""32643""
","""event"",""trial"",""time""
""blur"",""6"",""21742""
","""event"",""trial"",""time""
""focus"",""6"",""32643""
","""event"",""trial"",""time""
""fullscreenenter"",""5"",""15623""
","
","310.7999999523163","","49","","","3000","1","","","images/tutgreenplanet.jpg","images/tutalien1","images/tutalien2","null","images/tutalien2","images/t.png","NA","practice","null","","","",""
"d3-animate-choice","40","178270","0.0-40.0","891","686","23","Female","true","false","false","true","""event"",""trial"",""time""
""fullscreenenter"",""5"",""15623""
""blur"",""6"",""21742""
""focus"",""6"",""32643""
","""event"",""trial"",""time""
""blur"",""6"",""21742""
","""event"",""trial"",""time""
""focus"",""6"",""32643""
","""event"",""trial"",""time""
""fullscreenenter"",""5"",""15623""
","
","335.09999990463257","","49","","","3000","1","","","images/tutgreenplanet.jpg","images/tutalien1","images/tutalien2","null","images/tutalien2","images/t.png","NA","practice","null","","","",""
"d3-animate-choice","41","180578","0.0-41.0","891","686","23","Female","true","false","false","true","""event"",""trial"",""time""
""fullscreenenter"",""5"",""15623""
""blur"",""6"",""21742""
""focus"",""6"",""32643""
","""event"",""trial"",""time""
""blur"",""6"",""21742""
","""event"",""trial"",""time""
""focus"",""6"",""32643""
","""event"",""trial"",""time""
""fullscreenenter"",""5"",""15623""
","
","305.2000000476837","","49","","","3000","1","","","images/tutgreenplanet.jpg","images/tutalien1","images/tutalien2","null","images/tutalien2","images/t.png","NA","practice","null","","","",""
"d3-animate-choice","42","183043","0.0-42.0","891","686","23","Female","true","false","false","true","""event"",""trial"",""time""
""fullscreenenter"",""5"",""15623""
""blur"",""6"",""21742""
""focus"",""6"",""32643""
","""event"",""trial"",""time""
""blur"",""6"",""21742""
","""event"",""trial"",""time""
""focus"",""6"",""32643""
","""event"",""trial"",""time""
""fullscreenenter"",""5"",""15623""
","
","462.5","","49","","","3000","1","","","images/tutgreenplanet.jpg","images/tutalien1","images/tutalien2","null","images/tutalien2","images/t.png","NA","practice","null","","","",""
"d3-animate-choice","43","185458","0.0-43.0","891","686","23","Female","true","false","false","true","""event"",""trial"",""time""
""fullscreenenter"",""5"",""15623""
""blur"",""6"",""21742""
""focus"",""6"",""32643""
","""event"",""trial"",""time""
""blur"",""6"",""21742""
","""event"",""trial"",""time""
""focus"",""6"",""32643""
","""event"",""trial"",""time""
""fullscreenenter"",""5"",""15623""
","
","407.09999990463257","","49","","","3000","1","","","images/tutgreenplanet.jpg","images/tutalien1","images/tutalien2","null","images/tutalien2","images/t.png","NA","practice","null","","","",""
"d3-instructions","44","190261","0.0-44.0","891","686","23","Female","true","false","false","true","""event"",""trial"",""time""
""fullscreenenter"",""5"",""15623""
""blur"",""6"",""21742""
""focus"",""6"",""32643""
","""event"",""trial"",""time""
""blur"",""6"",""21742""
","""event"",""trial"",""time""
""focus"",""6"",""32643""
","""event"",""trial"",""time""
""fullscreenenter"",""5"",""15623""
","
","","","","","","","","","","","","","","","","","","","","","",""
"d3-instructions","45","192861","0.0-45.0","891","686","23","Female","true","false","false","true","""event"",""trial"",""time""
""fullscreenenter"",""5"",""15623""
""blur"",""6"",""21742""
""focus"",""6"",""32643""
","""event"",""trial"",""time""
""blur"",""6"",""21742""
","""event"",""trial"",""time""
""focus"",""6"",""32643""
","""event"",""trial"",""time""
""fullscreenenter"",""5"",""15623""
","
","","","","","","","","","","","","","","","","","","","","","",""
"d3-instructions","46","195622","0.0-46.0","891","686","23","Female","true","false","false","true","""event"",""trial"",""time""
""fullscreenenter"",""5"",""15623""
""blur"",""6"",""21742""
""focus"",""6"",""32643""
","""event"",""trial"",""time""
""blur"",""6"",""21742""
","""event"",""trial"",""time""
""focus"",""6"",""32643""
","""event"",""trial"",""time""
""fullscreenenter"",""5"",""15623""
","
","","","","","","","","","","","","","","","","","","","","","",""
"d3-instructions","47","203755","0.0-47.0","891","686","23","Female","true","false","false","true","""event"",""trial"",""time""
""fullscreenenter"",""5"",""15623""
""blur"",""6"",""21742""
""focus"",""6"",""32643""
","""event"",""trial"",""time""
""blur"",""6"",""21742""
","""event"",""trial"",""time""
""focus"",""6"",""32643""
","""event"",""trial"",""time""
""fullscreenenter"",""5"",""15623""
","
","","","","","","","","","","","","","","","","","","","","","",""
"d3-instructions","48","206824","0.0-48.0","891","686","23","Female","true","false","false","true","""event"",""trial"",""time""
""fullscreenenter"",""5"",""15623""
""blur"",""6"",""21742""
""focus"",""6"",""32643""
","""event"",""trial"",""time""
""blur"",""6"",""21742""
","""event"",""trial"",""time""
""focus"",""6"",""32643""
","""event"",""trial"",""time""
""fullscreenenter"",""5"",""15623""
","
","","","","","","","","","","","","","","","","","","","","","",""
"d3-instructions","49","209244","0.0-49.0","891","686","23","Female","true","false","false","true","""event"",""trial"",""time""
""fullscreenenter"",""5"",""15623""
""blur"",""6"",""21742""
""focus"",""6"",""32643""
","""event"",""trial"",""time""
""blur"",""6"",""21742""
","""event"",""trial"",""time""
""focus"",""6"",""32643""
","""event"",""trial"",""time""
""fullscreenenter"",""5"",""15623""
","
","","","","","","","","","","","","","","","","","","","","","",""
"d3-instructions","50","211908","0.0-50.0","891","686","23","Female","true","false","false","true","""event"",""trial"",""time""
""fullscreenenter"",""5"",""15623""
""blur"",""6"",""21742""
""focus"",""6"",""32643""
","""event"",""trial"",""time""
""blur"",""6"",""21742""
","""event"",""trial"",""time""
""focus"",""6"",""32643""
","""event"",""trial"",""time""
""fullscreenenter"",""5"",""15623""
","
","","","","","","","","","","","","","","","","","","","","","",""
"d3-instructions","51","215036","0.0-51.0","891","686","23","Female","true","false","false","true","""event"",""trial"",""time""
""fullscreenenter"",""5"",""15623""
""blur"",""6"",""21742""
""focus"",""6"",""32643""
","""event"",""trial"",""time""
""blur"",""6"",""21742""
","""event"",""trial"",""time""
""focus"",""6"",""32643""
","""event"",""trial"",""time""
""fullscreenenter"",""5"",""15623""
","
","","","","","","","","","","","","","","","","","","","","","",""
"d3-instructions","52","216045","0.0-52.0","891","686","23","Female","true","false","false","true","""event"",""trial"",""time""
""fullscreenenter"",""5"",""15623""
""blur"",""6"",""21742""
""focus"",""6"",""32643""
","""event"",""trial"",""time""
""blur"",""6"",""21742""
","""event"",""trial"",""time""
""focus"",""6"",""32643""
","""event"",""trial"",""time""
""fullscreenenter"",""5"",""15623""
","
","","","","","","","","","","","","","","","","","","","","","",""
"d3-instructions","53","221322","0.0-53.0","891","686","23","Female","true","false","false","true","""event"",""trial"",""time""
""fullscreenenter"",""5"",""15623""
""blur"",""6"",""21742""
""focus"",""6"",""32643""
","""event"",""trial"",""time""
""blur"",""6"",""21742""
","""event"",""trial"",""time""
""focus"",""6"",""32643""
","""event"",""trial"",""time""
""fullscreenenter"",""5"",""15623""
","
","","","","","","","","","","","","","","","","","","","","","",""
"d3-instructions","54","229945","0.0-54.0","891","686","23","Female","true","false","false","true","""event"",""trial"",""time""
""fullscreenenter"",""5"",""15623""
""blur"",""6"",""21742""
""focus"",""6"",""32643""
","""event"",""trial"",""time""
""blur"",""6"",""21742""
","""event"",""trial"",""time""
""focus"",""6"",""32643""
","""event"",""trial"",""time""
""fullscreenenter"",""5"",""15623""
","
","","","","","","","","","","","","","","","","","","","","","",""
"d3-instructions","55","235185","0.0-55.0","891","686","23","Female","true","false","false","true","""event"",""trial"",""time""
""fullscreenenter"",""5"",""15623""
""blur"",""6"",""21742""
""focus"",""6"",""32643""
","""event"",""trial"",""time""
""blur"",""6"",""21742""
","""event"",""trial"",""time""
""focus"",""6"",""32643""
","""event"",""trial"",""time""
""fullscreenenter"",""5"",""15623""
","
","","","","","","","","","","","","","","","","","","","","","",""
"d3-instructions","56","236876","0.0-56.0","891","686","23","Female","true","false","false","true","""event"",""trial"",""time""
""fullscreenenter"",""5"",""15623""
""blur"",""6"",""21742""
""focus"",""6"",""32643""
","""event"",""trial"",""time""
""blur"",""6"",""21742""
","""event"",""trial"",""time""
""focus"",""6"",""32643""
","""event"",""trial"",""time""
""fullscreenenter"",""5"",""15623""
","
","","","","","","","","","","","","","","","","","","","","","",""
"d3-instructions","57","245190","0.0-57.0","891","686","23","Female","true","false","false","true","""event"",""trial"",""time""
""fullscreenenter"",""5"",""15623""
""blur"",""6"",""21742""
""focus"",""6"",""32643""
","""event"",""trial"",""time""
""blur"",""6"",""21742""
","""event"",""trial"",""time""
""focus"",""6"",""32643""
","""event"",""trial"",""time""
""fullscreenenter"",""5"",""15623""
","
","","","","","","","","","","","","","","","","","","","","","",""
"d3-instructions","58","247865","0.0-58.0","891","686","23","Female","true","false","false","true","""event"",""trial"",""time""
""fullscreenenter"",""5"",""15623""
""blur"",""6"",""21742""
""focus"",""6"",""32643""
","""event"",""trial"",""time""
""blur"",""6"",""21742""
","""event"",""trial"",""time""
""focus"",""6"",""32643""
","""event"",""trial"",""time""
""fullscreenenter"",""5"",""15623""
","
","","","","","","","","","","","","","","","","","","","","","",""
"d3-instructions","59","249466","0.0-59.0","891","686","23","Female","true","false","false","true","""event"",""trial"",""time""
""fullscreenenter"",""5"",""15623""
""blur"",""6"",""21742""
""focus"",""6"",""32643""
","""event"",""trial"",""time""
""blur"",""6"",""21742""
","""event"",""trial"",""time""
""focus"",""6"",""32643""
","""event"",""trial"",""time""
""fullscreenenter"",""5"",""15623""
","
","","","","","","","","","","","","","","","","","","","","","",""
"d3-instructions","60","250725","0.0-60.0","891","686","23","Female","true","false","false","true","""event"",""trial"",""time""
""fullscreenenter"",""5"",""15623""
""blur"",""6"",""21742""
""focus"",""6"",""32643""
","""event"",""trial"",""time""
""blur"",""6"",""21742""
","""event"",""trial"",""time""
""focus"",""6"",""32643""
","""event"",""trial"",""time""
""fullscreenenter"",""5"",""15623""
","
","","","","","","","","","","","","","","","","","","","","","",""
"d3-animate-choice","61","253301","0.0-61.0-0.0","891","686","23","Female","true","false","false","true","""event"",""trial"",""time""
""fullscreenenter"",""5"",""15623""
""blur"",""6"",""21742""
""focus"",""6"",""32643""
","""event"",""trial"",""time""
""blur"",""6"",""21742""
","""event"",""trial"",""time""
""focus"",""6"",""32643""
","""event"",""trial"",""time""
""fullscreenenter"",""5"",""15623""
","
","572.5","","49","","","3000","1","","","images/earth.jpg","images/tutrocket2","images/tutrocket1","null","images/tutrocket1","","1","practice","null","1","","",""
"d3-animate-choice","62","257315","0.0-61.0-1.0","891","686","23","Female","true","false","false","true","""event"",""trial"",""time""
""fullscreenenter"",""5"",""15623""
""blur"",""6"",""21742""
""focus"",""6"",""32643""
","""event"",""trial"",""time""
""blur"",""6"",""21742""
","""event"",""trial"",""time""
""focus"",""6"",""32643""
","""event"",""trial"",""time""
""fullscreenenter"",""5"",""15623""
","
","2682.0999999046326","","49","","","3000","1","","","images/tutyellowplanet.jpg","images/tutalien4","images/tutalien3","images/tutrocket1","images/tutalien3","","2","practice","true","1","common","0","2022-02-08 03:24:01.861"
"two-step-fixation","63","258325","0.0-61.0-2.0","891","686","23","Female","true","false","false","true","""event"",""trial"",""time""
""fullscreenenter"",""5"",""15623""
""blur"",""6"",""21742""
""focus"",""6"",""32643""
","""event"",""trial"",""time""
""blur"",""6"",""21742""
","""event"",""trial"",""time""
""focus"",""6"",""32643""
","""event"",""trial"",""time""
""fullscreenenter"",""5"",""15623""
","
","","images/earth.jpg","","","","","","","","","","","","","","fixation","","","","","",""
"d3-animate-choice","64","262181","0.0-61.0-0.1","891","686","23","Female","true","false","false","true","""event"",""trial"",""time""
""fullscreenenter"",""5"",""15623""
""blur"",""6"",""21742""
""focus"",""6"",""32643""
","""event"",""trial"",""time""
""blur"",""6"",""21742""
","""event"",""trial"",""time""
""focus"",""6"",""32643""
","""event"",""trial"",""time""
""fullscreenenter"",""5"",""15623""
","
","1853.9000000953674","","48","","","3000","1","","","images/earth.jpg","images/tutrocket2","images/tutrocket1","null","images/tutrocket2","","1","practice","null","2","","",""
"d3-animate-choice","65","265616","0.0-61.0-1.1","891","686","23","Female","true","false","false","true","""event"",""trial"",""time""
""fullscreenenter"",""5"",""15623""
""blur"",""6"",""21742""
""focus"",""6"",""32643""
","""event"",""trial"",""time""
""blur"",""6"",""21742""
","""event"",""trial"",""time""
""focus"",""6"",""32643""
","""event"",""trial"",""time""
""fullscreenenter"",""5"",""15623""
","
","1433.2000000476837","","48","","","3000","1","","","images/tutgreenplanet.jpg","images/tutalien2","images/tutalien1","images/tutrocket2","images/tutalien2","images/nothing.png","2","practice","true","2","common","0","2022-02-08 03:24:10.163"
"two-step-fixation","66","266619","0.0-61.0-2.1","891","686","23","Female","true","false","false","true","""event"",""trial"",""time""
""fullscreenenter"",""5"",""15623""
""blur"",""6"",""21742""
""focus"",""6"",""32643""
","""event"",""trial"",""time""
""blur"",""6"",""21742""
","""event"",""trial"",""time""
""focus"",""6"",""32643""
","""event"",""trial"",""time""
""fullscreenenter"",""5"",""15623""
","
","","images/earth.jpg","","","","","","","","","","","","","","fixation","","","","","",""
"d3-animate-choice","67","269190","0.0-61.0-0.2","891","686","23","Female","true","false","false","true","""event"",""trial"",""time""
""fullscreenenter"",""5"",""15623""
""blur"",""6"",""21742""
""focus"",""6"",""32643""
","""event"",""trial"",""time""
""blur"",""6"",""21742""
","""event"",""trial"",""time""
""focus"",""6"",""32643""
","""event"",""trial"",""time""
""fullscreenenter"",""5"",""15623""
","
","566.6000001430511","","49","","","3000","1","","","images/earth.jpg","images/tutrocket2","images/tutrocket1","null","images/tutrocket1","","1","practice","null","1","","",""
"d3-animate-choice","68","273199","0.0-61.0-1.2","891","686","23","Female","true","false","false","true","""event"",""trial"",""time""
""fullscreenenter"",""5"",""15623""
""blur"",""6"",""21742""
""focus"",""6"",""32643""
","""event"",""trial"",""time""
""blur"",""6"",""21742""
","""event"",""trial"",""time""
""focus"",""6"",""32643""
","""event"",""trial"",""time""
""fullscreenenter"",""5"",""15623""
","
","2305.2999999523163","","49","","","3000","1","","","images/tutgreenplanet.jpg","images/tutalien2","images/tutalien1","images/tutrocket1","images/tutalien1","images/nothing.png","2","practice","false","1","rare","0","2022-02-08 03:24:17.745"
"two-step-fixation","69","274203","0.0-61.0-2.2","891","686","23","Female","true","false","false","true","""event"",""trial"",""time""
""fullscreenenter"",""5"",""15623""
""blur"",""6"",""21742""
""focus"",""6"",""32643""
","""event"",""trial"",""time""
""blur"",""6"",""21742""
","""event"",""trial"",""time""
""focus"",""6"",""32643""
","""event"",""trial"",""time""
""fullscreenenter"",""5"",""15623""
","
","","images/earth.jpg","","","","","","","","","","","","","","fixation","","","","","",""
"d3-animate-choice","70","276521","0.0-61.0-0.3","891","686","23","Female","true","false","false","true","""event"",""trial"",""time""
""fullscreenenter"",""5"",""15623""
""blur"",""6"",""21742""
""focus"",""6"",""32643""
","""event"",""trial"",""time""
""blur"",""6"",""21742""
","""event"",""trial"",""time""
""focus"",""6"",""32643""
","""event"",""trial"",""time""
""fullscreenenter"",""5"",""15623""
","
","314.40000009536743","","48","","","3000","1","","","images/earth.jpg","images/tutrocket2","images/tutrocket1","null","images/tutrocket2","","1","practice","null","2","","",""
"d3-animate-choice","71","280536","0.0-61.0-1.3","891","686","23","Female","true","false","false","true","""event"",""trial"",""time""
""fullscreenenter"",""5"",""15623""
""blur"",""6"",""21742""
""focus"",""6"",""32643""
","""event"",""trial"",""time""
""blur"",""6"",""21742""
","""event"",""trial"",""time""
""focus"",""6"",""32643""
","""event"",""trial"",""time""
""fullscreenenter"",""5"",""15623""
","
","4001.9000000953674","","49","","","3000","0","","","images/tutgreenplanet.jpg","images/tutalien2","images/tutalien1","images/tutrocket2","","","2","practice","true","1","common","0","2022-02-08 03:24:25.083"
"two-step-fixation","72","281540","0.0-61.0-2.3","891","686","23","Female","true","false","false","true","""event"",""trial"",""time""
""fullscreenenter"",""5"",""15623""
""blur"",""6"",""21742""
""focus"",""6"",""32643""
","""event"",""trial"",""time""
""blur"",""6"",""21742""
","""event"",""trial"",""time""
""focus"",""6"",""32643""
","""event"",""trial"",""time""
""fullscreenenter"",""5"",""15623""
","
","","images/earth.jpg","","","","","","","","","","","","","","fixation","","","","","",""
"d3-animate-choice","73","283772","0.0-61.0-0.4","891","686","23","Female","true","false","false","true","""event"",""trial"",""time""
""fullscreenenter"",""5"",""15623""
""blur"",""6"",""21742""
""focus"",""6"",""32643""
","""event"",""trial"",""time""
""blur"",""6"",""21742""
","""event"",""trial"",""time""
""focus"",""6"",""32643""
","""event"",""trial"",""time""
""fullscreenenter"",""5"",""15623""
","
","226.90000009536743","","49","","","3000","1","","","images/earth.jpg","images/tutrocket2","images/tutrocket1","null","images/tutrocket1","","1","practice","null","1","","",""
"d3-animate-choice","74","286551","0.0-61.0-1.4","891","686","23","Female","true","false","false","true","""event"",""trial"",""time""
""fullscreenenter"",""5"",""15623""
""blur"",""6"",""21742""
""focus"",""6"",""32643""
","""event"",""trial"",""time""
""blur"",""6"",""21742""
","""event"",""trial"",""time""
""focus"",""6"",""32643""
","""event"",""trial"",""time""
""fullscreenenter"",""5"",""15623""
","
","775.4000000953674","","49","","","3000","1","","","images/tutyellowplanet.jpg","images/tutalien4","images/tutalien3","images/tutrocket1","images/tutalien3","images/nothing.png","2","practice","true","1","common","0","2022-02-08 03:24:31.098"
"two-step-fixation","75","287555","0.0-61.0-2.4","891","686","23","Female","true","false","false","true","""event"",""trial"",""time""
""fullscreenenter"",""5"",""15623""
""blur"",""6"",""21742""
""focus"",""6"",""32643""
","""event"",""trial"",""time""
""blur"",""6"",""21742""
","""event"",""trial"",""time""
""focus"",""6"",""32643""
","""event"",""trial"",""time""
""fullscreenenter"",""5"",""15623""
","
","","images/earth.jpg","","","","","","","","","","","","","","fixation","","","","","",""
"d3-animate-choice","76","289897","0.0-61.0-0.5","891","686","23","Female","true","false","false","true","""event"",""trial"",""time""
""fullscreenenter"",""5"",""15623""
""blur"",""6"",""21742""
""focus"",""6"",""32643""
","""event"",""trial"",""time""
""blur"",""6"",""21742""
","""event"",""trial"",""time""
""focus"",""6"",""32643""
","""event"",""trial"",""time""
""fullscreenenter"",""5"",""15623""
","
","339.59999990463257","","48","","","3000","1","","","images/earth.jpg","images/tutrocket2","images/tutrocket1","null","images/tutrocket2","","1","practice","null","2","","",""
"d3-animate-choice","77","293901","0.0-61.0-1.5","891","686","23","Female","true","false","false","true","""event"",""trial"",""time""
""fullscreenenter"",""5"",""15623""
""blur"",""6"",""21742""
""focus"",""6"",""32643""
","""event"",""trial"",""time""
""blur"",""6"",""21742""
","""event"",""trial"",""time""
""focus"",""6"",""32643""
","""event"",""trial"",""time""
""fullscreenenter"",""5"",""15623""
","
","2797.2999999523163","","49","","","3000","1","","","images/tutgreenplanet.jpg","images/tutalien2","images/tutalien1","images/tutrocket2","images/tutalien1","","2","practice","true","1","common","0","2022-02-08 03:24:38.447"
"two-step-fixation","78","294904","0.0-61.0-2.5","891","686","23","Female","true","false","false","true","""event"",""trial"",""time""
""fullscreenenter"",""5"",""15623""
""blur"",""6"",""21742""
""focus"",""6"",""32643""
","""event"",""trial"",""time""
""blur"",""6"",""21742""
","""event"",""trial"",""time""
""focus"",""6"",""32643""
","""event"",""trial"",""time""
""fullscreenenter"",""5"",""15623""
","
","","images/earth.jpg","","","","","","","","","","","","","","fixation","","","","","",""
"d3-animate-choice","79","297284","0.0-61.0-0.6","891","686","23","Female","true","false","false","true","""event"",""trial"",""time""
""fullscreenenter"",""5"",""15623""
""blur"",""6"",""21742""
""focus"",""6"",""32643""
","""event"",""trial"",""time""
""blur"",""6"",""21742""
","""event"",""trial"",""time""
""focus"",""6"",""32643""
","""event"",""trial"",""time""
""fullscreenenter"",""5"",""15623""
","
","375.2999999523163","","49","","","3000","1","","","images/earth.jpg","images/tutrocket2","images/tutrocket1","null","images/tutrocket1","","1","practice","null","1","","",""
"d3-animate-choice","80","300047","0.0-61.0-1.6","891","686","23","Female","true","false","false","true","""event"",""trial"",""time""
""fullscreenenter"",""5"",""15623""
""blur"",""6"",""21742""
""focus"",""6"",""32643""
","""event"",""trial"",""time""
""blur"",""6"",""21742""
","""event"",""trial"",""time""
""focus"",""6"",""32643""
","""event"",""trial"",""time""
""fullscreenenter"",""5"",""15623""
","
","758.4000000953674","","48","","","3000","1","","","images/tutyellowplanet.jpg","images/tutalien4","images/tutalien3","images/tutrocket1","images/tutalien4","images/t.png","2","practice","true","2","common","1","2022-02-08 03:24:44.593"
"two-step-fixation","81","301049","0.0-61.0-2.6","891","686","23","Female","true","false","false","true","""event"",""trial"",""time""
""fullscreenenter"",""5"",""15623""
""blur"",""6"",""21742""
""focus"",""6"",""32643""
","""event"",""trial"",""time""
""blur"",""6"",""21742""
","""event"",""trial"",""time""
""focus"",""6"",""32643""
","""event"",""trial"",""time""
""fullscreenenter"",""5"",""15623""
","
","","images/earth.jpg","","","","","","","","","","","","","","fixation","","","","","",""
"d3-animate-choice","82","303843","0.0-61.0-0.7","891","686","23","Female","true","false","false","true","""event"",""trial"",""time""
""fullscreenenter"",""5"",""15623""
""blur"",""6"",""21742""
""focus"",""6"",""32643""
","""event"",""trial"",""time""
""blur"",""6"",""21742""
","""event"",""trial"",""time""
""focus"",""6"",""32643""
","""event"",""trial"",""time""
""fullscreenenter"",""5"",""15623""
","
","790.2999999523163","","48","","","3000","1","","","images/earth.jpg","images/tutrocket2","images/tutrocket1","null","images/tutrocket2","","1","practice","null","2","","",""
"d3-animate-choice","83","306509","0.0-61.0-1.7","891","686","23","Female","true","false","false","true","""event"",""trial"",""time""
""fullscreenenter"",""5"",""15623""
""blur"",""6"",""21742""
""focus"",""6"",""32643""
","""event"",""trial"",""time""
""blur"",""6"",""21742""
","""event"",""trial"",""time""
""focus"",""6"",""32643""
","""event"",""trial"",""time""
""fullscreenenter"",""5"",""15623""
","
","662.1000001430511","","48","","","3000","1","","","images/tutgreenplanet.jpg","images/tutalien2","images/tutalien1","images/tutrocket2","images/tutalien2","images/nothing.png","2","practice","true","2","common","0","2022-02-08 03:24:51.055"
"two-step-fixation","84","307511","0.0-61.0-2.7","891","686","23","Female","true","false","false","true","""event"",""trial"",""time""
""fullscreenenter"",""5"",""15623""
""blur"",""6"",""21742""
""focus"",""6"",""32643""
","""event"",""trial"",""time""
""blur"",""6"",""21742""
","""event"",""trial"",""time""
""focus"",""6"",""32643""
","""event"",""trial"",""time""
""fullscreenenter"",""5"",""15623""
","
","","images/earth.jpg","","","","","","","","","","","","","","fixation","","","","","",""
"d3-animate-choice","85","309842","0.0-61.0-0.8","891","686","23","Female","true","false","false","true","""event"",""trial"",""time""
""fullscreenenter"",""5"",""15623""
""blur"",""6"",""21742""
""focus"",""6"",""32643""
","""event"",""trial"",""time""
""blur"",""6"",""21742""
","""event"",""trial"",""time""
""focus"",""6"",""32643""
","""event"",""trial"",""time""
""fullscreenenter"",""5"",""15623""
","
","327.2999999523163","","49","","","3000","1","","","images/earth.jpg","images/tutrocket2","images/tutrocket1","null","images/tutrocket1","","1","practice","null","1","","",""
"d3-animate-choice","86","312212","0.0-61.0-1.8","891","686","23","Female","true","false","false","true","""event"",""trial"",""time""
""fullscreenenter"",""5"",""15623""
""blur"",""6"",""21742""
""focus"",""6"",""32643""
","""event"",""trial"",""time""
""blur"",""6"",""21742""
","""event"",""trial"",""time""
""focus"",""6"",""32643""
","""event"",""trial"",""time""
""fullscreenenter"",""5"",""15623""
","
","367.09999990463257","","48","","","3000","1","","","images/tutyellowplanet.jpg","images/tutalien4","images/tutalien3","images/tutrocket1","images/tutalien4","images/nothing.png","2","practice","true","2","common","0","2022-02-08 03:24:56.758"
"two-step-fixation","87","313214","0.0-61.0-2.8","891","686","23","Female","true","false","false","true","""event"",""trial"",""time""
""fullscreenenter"",""5"",""15623""
""blur"",""6"",""21742""
""focus"",""6"",""32643""
","""event"",""trial"",""time""
""blur"",""6"",""21742""
","""event"",""trial"",""time""
""focus"",""6"",""32643""
","""event"",""trial"",""time""
""fullscreenenter"",""5"",""15623""
","
","","images/earth.jpg","","","","","","","","","","","","","","fixation","","","","","",""
"d3-animate-choice","88","315542","0.0-61.0-0.9","891","686","23","Female","true","false","false","true","""event"",""trial"",""time""
""fullscreenenter"",""5"",""15623""
""blur"",""6"",""21742""
""focus"",""6"",""32643""
","""event"",""trial"",""time""
""blur"",""6"",""21742""
","""event"",""trial"",""time""
""focus"",""6"",""32643""
","""event"",""trial"",""time""
""fullscreenenter"",""5"",""15623""
","
","325","","48","","","3000","1","","","images/earth.jpg","images/tutrocket2","images/tutrocket1","null","images/tutrocket2","","1","practice","null","2","","",""
"d3-animate-choice","89","318060","0.0-61.0-1.9","891","686","23","Female","true","false","false","true","""event"",""trial"",""time""
""fullscreenenter"",""5"",""15623""
""blur"",""6"",""21742""
""focus"",""6"",""32643""
","""event"",""trial"",""time""
""blur"",""6"",""21742""
","""event"",""trial"",""time""
""focus"",""6"",""32643""
","""event"",""trial"",""time""
""fullscreenenter"",""5"",""15623""
","
","515.4000000953674","","48","","","3000","1","","","images/tutgreenplanet.jpg","images/tutalien2","images/tutalien1","images/tutrocket2","images/tutalien2","images/t.png","2","practice","true","2","common","1","2022-02-08 03:25:02.606"
"two-step-fixation","90","319063","0.0-61.0-2.9","891","686","23","Female","true","false","false","true","""event"",""trial"",""time""
""fullscreenenter"",""5"",""15623""
""blur"",""6"",""21742""
""focus"",""6"",""32643""
","""event"",""trial"",""time""
""blur"",""6"",""21742""
","""event"",""trial"",""time""
""focus"",""6"",""32643""
","""event"",""trial"",""time""
""fullscreenenter"",""5"",""15623""
","
","","images/earth.jpg","","","","","","","","","","","","","","fixation","","","","","",""
"d3-animate-choice","91","321469","0.0-61.0-0.10","891","686","23","Female","true","false","false","true","""event"",""trial"",""time""
""fullscreenenter"",""5"",""15623""
""blur"",""6"",""21742""
""focus"",""6"",""32643""
","""event"",""trial"",""time""
""blur"",""6"",""21742""
","""event"",""trial"",""time""
""focus"",""6"",""32643""
","""event"",""trial"",""time""
""fullscreenenter"",""5"",""15623""
","
","402.39999985694885","","49","","","3000","1","","","images/earth.jpg","images/tutrocket2","images/tutrocket1","null","images/tutrocket1","","1","practice","null","1","","",""
"d3-animate-choice","92","323743","0.0-61.0-1.10","891","686","23","Female","true","false","false","true","""event"",""trial"",""time""
""fullscreenenter"",""5"",""15623""
""blur"",""6"",""21742""
""focus"",""6"",""32643""
","""event"",""trial"",""time""
""blur"",""6"",""21742""
","""event"",""trial"",""time""
""focus"",""6"",""32643""
","""event"",""trial"",""time""
""fullscreenenter"",""5"",""15623""
","
","270.60000014305115","","48","","","3000","1","","","images/tutgreenplanet.jpg","images/tutalien2","images/tutalien1","images/tutrocket1","images/tutalien2","images/nothing.png","2","practice","false","2","rare","0","2022-02-08 03:25:08.289"
"two-step-fixation","93","324746","0.0-61.0-2.10","891","686","23","Female","true","false","false","true","""event"",""trial"",""time""
""fullscreenenter"",""5"",""15623""
""blur"",""6"",""21742""
""focus"",""6"",""32643""
","""event"",""trial"",""time""
""blur"",""6"",""21742""
","""event"",""trial"",""time""
""focus"",""6"",""32643""
","""event"",""trial"",""time""
""fullscreenenter"",""5"",""15623""
","
","","images/earth.jpg","","","","","","","","","","","","","","fixation","","","","","",""
"d3-animate-choice","94","326995","0.0-61.0-0.11","891","686","23","Female","true","false","false","true","""event"",""trial"",""time""
""fullscreenenter"",""5"",""15623""
""blur"",""6"",""21742""
""focus"",""6"",""32643""
","""event"",""trial"",""time""
""blur"",""6"",""21742""
","""event"",""trial"",""time""
""focus"",""6"",""32643""
","""event"",""trial"",""time""
""fullscreenenter"",""5"",""15623""
","
","246","","48","","","3000","1","","","images/earth.jpg","images/tutrocket2","images/tutrocket1","null","images/tutrocket2","","1","practice","null","2","","",""
"d3-animate-choice","95","329325","0.0-61.0-1.11","891","686","23","Female","true","false","false","true","""event"",""trial"",""time""
""fullscreenenter"",""5"",""15623""
""blur"",""6"",""21742""
""focus"",""6"",""32643""
","""event"",""trial"",""time""
""blur"",""6"",""21742""
","""event"",""trial"",""time""
""focus"",""6"",""32643""
","""event"",""trial"",""time""
""fullscreenenter"",""5"",""15623""
","
","326.40000009536743","","48","","","3000","1","","","images/tutyellowplanet.jpg","images/tutalien4","images/tutalien3","images/tutrocket2","images/tutalien4","images/t.png","2","practice","false","2","rare","1","2022-02-08 03:25:13.871"
"two-step-fixation","96","330329","0.0-61.0-2.11","891","686","23","Female","true","false","false","true","""event"",""trial"",""time""
""fullscreenenter"",""5"",""15623""
""blur"",""6"",""21742""
""focus"",""6"",""32643""
","""event"",""trial"",""time""
""blur"",""6"",""21742""
","""event"",""trial"",""time""
""focus"",""6"",""32643""
","""event"",""trial"",""time""
""fullscreenenter"",""5"",""15623""
","
","","images/earth.jpg","","","","","","","","","","","","","","fixation","","","","","",""
"d3-animate-choice","97","332648","0.0-61.0-0.12","891","686","23","Female","true","false","false","true","""event"",""trial"",""time""
""fullscreenenter"",""5"",""15623""
""blur"",""6"",""21742""
""focus"",""6"",""32643""
","""event"",""trial"",""time""
""blur"",""6"",""21742""
","""event"",""trial"",""time""
""focus"",""6"",""32643""
","""event"",""trial"",""time""
""fullscreenenter"",""5"",""15623""
","
","315.80000019073486","","49","","","3000","1","","","images/earth.jpg","images/tutrocket2","images/tutrocket1","null","images/tutrocket1","","1","practice","null","1","","",""
"d3-animate-choice","98","335147","0.0-61.0-1.12","891","686","23","Female","true","false","false","true","""event"",""trial"",""time""
""fullscreenenter"",""5"",""15623""
""blur"",""6"",""21742""
""focus"",""6"",""32643""
","""event"",""trial"",""time""
""blur"",""6"",""21742""
","""event"",""trial"",""time""
""focus"",""6"",""32643""
","""event"",""trial"",""time""
""fullscreenenter"",""5"",""15623""
","
","494","","48","","","3000","1","","","images/tutyellowplanet.jpg","images/tutalien4","images/tutalien3","images/tutrocket1","images/tutalien4","images/nothing.png","2","practice","true","2","common","0","2022-02-08 03:25:19.693"
"two-step-fixation","99","336150","0.0-61.0-2.12","891","686","23","Female","true","false","false","true","""event"",""trial"",""time""
""fullscreenenter"",""5"",""15623""
""blur"",""6"",""21742""
""focus"",""6"",""32643""
","""event"",""trial"",""time""
""blur"",""6"",""21742""
","""event"",""trial"",""time""
""focus"",""6"",""32643""
","""event"",""trial"",""time""
""fullscreenenter"",""5"",""15623""
","
","","images/earth.jpg","","","","","","","","","","","","","","fixation","","","","","",""
"d3-animate-choice","100","338412","0.0-61.0-0.13","891","686","23","Female","true","false","false","true","""event"",""trial"",""time""
""fullscreenenter"",""5"",""15623""
""blur"",""6"",""21742""
""focus"",""6"",""32643""
","""event"",""trial"",""time""
""blur"",""6"",""21742""
","""event"",""trial"",""time""
""focus"",""6"",""32643""
","""event"",""trial"",""time""
""fullscreenenter"",""5"",""15623""
","
","258.5","","48","","","3000","1","","","images/earth.jpg","images/tutrocket2","images/tutrocket1","null","images/tutrocket2","","1","practice","null","2","","",""
"d3-animate-choice","101","340658","0.0-61.0-1.13","891","686","23","Female","true","false","false","true","""event"",""trial"",""time""
""fullscreenenter"",""5"",""15623""
""blur"",""6"",""21742""
""focus"",""6"",""32643""
","""event"",""trial"",""time""
""blur"",""6"",""21742""
","""event"",""trial"",""time""
""focus"",""6"",""32643""
","""event"",""trial"",""time""
""fullscreenenter"",""5"",""15623""
","
","241.60000014305115","","48","","","3000","1","","","images/tutyellowplanet.jpg","images/tutalien4","images/tutalien3","images/tutrocket2","images/tutalien4","images/t.png","2","practice","false","2","rare","1","2022-02-08 03:25:25.204"
"two-step-fixation","102","341660","0.0-61.0-2.13","891","686","23","Female","true","false","false","true","""event"",""trial"",""time""
""fullscreenenter"",""5"",""15623""
""blur"",""6"",""21742""
""focus"",""6"",""32643""
","""event"",""trial"",""time""
""blur"",""6"",""21742""
","""event"",""trial"",""time""
""focus"",""6"",""32643""
","""event"",""trial"",""time""
""fullscreenenter"",""5"",""15623""
","
","","images/earth.jpg","","","","","","","","","","","","","","fixation","","","","","",""
"d3-animate-choice","103","343909","0.0-61.0-0.14","891","686","23","Female","true","false","false","true","""event"",""trial"",""time""
""fullscreenenter"",""5"",""15623""
""blur"",""6"",""21742""
""focus"",""6"",""32643""
","""event"",""trial"",""time""
""blur"",""6"",""21742""
","""event"",""trial"",""time""
""focus"",""6"",""32643""
","""event"",""trial"",""time""
""fullscreenenter"",""5"",""15623""
","
","246.59999990463257","","48","","","3000","1","","","images/earth.jpg","images/tutrocket2","images/tutrocket1","null","images/tutrocket2","","1","practice","null","2","","",""
"d3-animate-choice","104","346383","0.0-61.0-1.14","891","686","23","Female","true","false","false","true","""event"",""trial"",""time""
""fullscreenenter"",""5"",""15623""
""blur"",""6"",""21742""
""focus"",""6"",""32643""
","""event"",""trial"",""time""
""blur"",""6"",""21742""
","""event"",""trial"",""time""
""focus"",""6"",""32643""
","""event"",""trial"",""time""
""fullscreenenter"",""5"",""15623""
","
","469.90000009536743","","48","","","3000","1","","","images/tutgreenplanet.jpg","images/tutalien2","images/tutalien1","images/tutrocket2","images/tutalien2","images/nothing.png","2","practice","true","2","common","0","2022-02-08 03:25:30.929"
"two-step-fixation","105","347386","0.0-61.0-2.14","891","686","23","Female","true","false","false","true","""event"",""trial"",""time""
""fullscreenenter"",""5"",""15623""
""blur"",""6"",""21742""
""focus"",""6"",""32643""
","""event"",""trial"",""time""
""blur"",""6"",""21742""
","""event"",""trial"",""time""
""focus"",""6"",""32643""
","""event"",""trial"",""time""
""fullscreenenter"",""5"",""15623""
","
","","images/earth.jpg","","","","","","","","","","","","","","fixation","","","","","",""
"d3-animate-choice","106","349684","0.0-61.0-0.15","891","686","23","Female","true","false","false","true","""event"",""trial"",""time""
""fullscreenenter"",""5"",""15623""
""blur"",""6"",""21742""
""focus"",""6"",""32643""
","""event"",""trial"",""time""
""blur"",""6"",""21742""
","""event"",""trial"",""time""
""focus"",""6"",""32643""
","""event"",""trial"",""time""
""fullscreenenter"",""5"",""15623""
","
","295.10000014305115","","48","","","3000","1","","","images/earth.jpg","images/tutrocket2","images/tutrocket1","null","images/tutrocket2","","1","practice","null","2","","",""
"d3-animate-choice","107","352066","0.0-61.0-1.15","891","686","23","Female","true","false","false","true","""event"",""trial"",""time""
""fullscreenenter"",""5"",""15623""
""blur"",""6"",""21742""
""focus"",""6"",""32643""
","""event"",""trial"",""time""
""blur"",""6"",""21742""
","""event"",""trial"",""time""
""focus"",""6"",""32643""
","""event"",""trial"",""time""
""fullscreenenter"",""5"",""15623""
","
","379","","48","","","3000","1","","","images/tutgreenplanet.jpg","images/tutalien2","images/tutalien1","images/tutrocket2","images/tutalien2","images/nothing.png","2","practice","true","2","common","0","2022-02-08 03:25:36.612"
"two-step-fixation","108","353069","0.0-61.0-2.15","891","686","23","Female","true","false","false","true","""event"",""trial"",""time""
""fullscreenenter"",""5"",""15623""
""blur"",""6"",""21742""
""focus"",""6"",""32643""
","""event"",""trial"",""time""
""blur"",""6"",""21742""
","""event"",""trial"",""time""
""focus"",""6"",""32643""
","""event"",""trial"",""time""
""fullscreenenter"",""5"",""15623""
","
","","images/earth.jpg","","","","","","","","","","","","","","fixation","","","","","",""
"d3-animate-choice","109","355191","0.0-61.0-0.16","891","686","23","Female","true","false","false","true","""event"",""trial"",""time""
""fullscreenenter"",""5"",""15623""
""blur"",""6"",""21742""
""focus"",""6"",""32643""
","""event"",""trial"",""time""
""blur"",""6"",""21742""
","""event"",""trial"",""time""
""focus"",""6"",""32643""
","""event"",""trial"",""time""
""fullscreenenter"",""5"",""15623""
","
","119.29999995231628","","48","","","3000","1","","","images/earth.jpg","images/tutrocket2","images/tutrocket1","null","images/tutrocket2","","1","practice","null","2","","",""
"d3-animate-choice","110","357438","0.0-61.0-1.16","891","686","23","Female","true","false","false","true","""event"",""trial"",""time""
""fullscreenenter"",""5"",""15623""
""blur"",""6"",""21742""
""focus"",""6"",""32643""
","""event"",""trial"",""time""
""blur"",""6"",""21742""
","""event"",""trial"",""time""
""focus"",""6"",""32643""
","""event"",""trial"",""time""
""fullscreenenter"",""5"",""15623""
","
","244.09999990463257","","48","","","3000","1","","","images/tutgreenplanet.jpg","images/tutalien2","images/tutalien1","images/tutrocket2","images/tutalien2","images/nothing.png","2","practice","true","2","common","0","2022-02-08 03:25:41.984"
"two-step-fixation","111","358440","0.0-61.0-2.16","891","686","23","Female","true","false","false","true","""event"",""trial"",""time""
""fullscreenenter"",""5"",""15623""
""blur"",""6"",""21742""
""focus"",""6"",""32643""
","""event"",""trial"",""time""
""blur"",""6"",""21742""
","""event"",""trial"",""time""
""focus"",""6"",""32643""
","""event"",""trial"",""time""
""fullscreenenter"",""5"",""15623""
","
","","images/earth.jpg","","","","","","","","","","","","","","fixation","","","","","",""
"d3-animate-choice","112","360935","0.0-61.0-0.17","891","686","23","Female","true","false","false","true","""event"",""trial"",""time""
""fullscreenenter"",""5"",""15623""
""blur"",""6"",""21742""
""focus"",""6"",""32643""
","""event"",""trial"",""time""
""blur"",""6"",""21742""
","""event"",""trial"",""time""
""focus"",""6"",""32643""
","""event"",""trial"",""time""
""fullscreenenter"",""5"",""15623""
","
","492","","48","","","3000","1","","","images/earth.jpg","images/tutrocket2","images/tutrocket1","null","images/tutrocket2","","1","practice","null","2","","",""
"d3-animate-choice","113","363238","0.0-61.0-1.17","891","686","23","Female","true","false","false","true","""event"",""trial"",""time""
""fullscreenenter"",""5"",""15623""
""blur"",""6"",""21742""
""focus"",""6"",""32643""
","""event"",""trial"",""time""
""blur"",""6"",""21742""
","""event"",""trial"",""time""
""focus"",""6"",""32643""
","""event"",""trial"",""time""
""fullscreenenter"",""5"",""15623""
","
","299.80000019073486","","48","","","3000","1","","","images/tutgreenplanet.jpg","images/tutalien2","images/tutalien1","images/tutrocket2","images/tutalien2","images/t.png","2","practice","true","2","common","1","2022-02-08 03:25:47.784"
"two-step-fixation","114","364243","0.0-61.0-2.17","891","686","23","Female","true","false","false","true","""event"",""trial"",""time""
""fullscreenenter"",""5"",""15623""
""blur"",""6"",""21742""
""focus"",""6"",""32643""
","""event"",""trial"",""time""
""blur"",""6"",""21742""
","""event"",""trial"",""time""
""focus"",""6"",""32643""
","""event"",""trial"",""time""
""fullscreenenter"",""5"",""15623""
","
","","images/earth.jpg","","","","","","","","","","","","","","fixation","","","","","",""
"d3-animate-choice","115","366642","0.0-61.0-0.18","891","686","23","Female","true","false","false","true","""event"",""trial"",""time""
""fullscreenenter"",""5"",""15623""
""blur"",""6"",""21742""
""focus"",""6"",""32643""
","""event"",""trial"",""time""
""blur"",""6"",""21742""
","""event"",""trial"",""time""
""focus"",""6"",""32643""
","""event"",""trial"",""time""
""fullscreenenter"",""5"",""15623""
","
","396.80000019073486","","48","","","3000","1","","","images/earth.jpg","images/tutrocket2","images/tutrocket1","null","images/tutrocket2","","1","practice","null","2","","",""
"d3-animate-choice","116","369024","0.0-61.0-1.18","891","686","23","Female","true","false","false","true","""event"",""trial"",""time""
""fullscreenenter"",""5"",""15623""
""blur"",""6"",""21742""
""focus"",""6"",""32643""
","""event"",""trial"",""time""
""blur"",""6"",""21742""
","""event"",""trial"",""time""
""focus"",""6"",""32643""
","""event"",""trial"",""time""
""fullscreenenter"",""5"",""15623""
","
","378.09999990463257","","48","","","3000","1","","","images/tutgreenplanet.jpg","images/tutalien2","images/tutalien1","images/tutrocket2","images/tutalien2","images/nothing.png","2","practice","true","2","common","0","2022-02-08 03:25:53.570"
"two-step-fixation","117","370027","0.0-61.0-2.18","891","686","23","Female","true","false","false","true","""event"",""trial"",""time""
""fullscreenenter"",""5"",""15623""
""blur"",""6"",""21742""
""focus"",""6"",""32643""
","""event"",""trial"",""time""
""blur"",""6"",""21742""
","""event"",""trial"",""time""
""focus"",""6"",""32643""
","""event"",""trial"",""time""
""fullscreenenter"",""5"",""15623""
","
","","images/earth.jpg","","","","","","","","","","","","","","fixation","","","","","",""
"d3-animate-choice","118","372462","0.0-61.0-0.19","891","686","23","Female","true","false","false","true","""event"",""trial"",""time""
""fullscreenenter"",""5"",""15623""
""blur"",""6"",""21742""
""focus"",""6"",""32643""
","""event"",""trial"",""time""
""blur"",""6"",""21742""
","""event"",""trial"",""time""
""focus"",""6"",""32643""
","""event"",""trial"",""time""
""fullscreenenter"",""5"",""15623""
","
","431.90000009536743","","48","","","3000","1","","","images/earth.jpg","images/tutrocket2","images/tutrocket1","null","images/tutrocket2","","1","practice","null","2","","",""
"d3-animate-choice","119","374698","0.0-61.0-1.19","891","686","23","Female","true","false","false","true","""event"",""trial"",""time""
""fullscreenenter"",""5"",""15623""
""blur"",""6"",""21742""
""focus"",""6"",""32643""
","""event"",""trial"",""time""
""blur"",""6"",""21742""
","""event"",""trial"",""time""
""focus"",""6"",""32643""
","""event"",""trial"",""time""
""fullscreenenter"",""5"",""15623""
","
","233.5","","48","","","3000","1","","","images/tutgreenplanet.jpg","images/tutalien2","images/tutalien1","images/tutrocket2","images/tutalien2","images/nothing.png","2","practice","true","2","common","0","2022-02-08 03:25:59.244"
"two-step-fixation","120","375702","0.0-61.0-2.19","891","686","23","Female","true","false","false","true","""event"",""trial"",""time""
""fullscreenenter"",""5"",""15623""
""blur"",""6"",""21742""
""focus"",""6"",""32643""
","""event"",""trial"",""time""
""blur"",""6"",""21742""
","""event"",""trial"",""time""
""focus"",""6"",""32643""
","""event"",""trial"",""time""
""fullscreenenter"",""5"",""15623""
","
","","images/earth.jpg","","","","","","","","","","","","","","fixation","","","","","",""
"d3-instructions","121","378411","0.0-62.0","891","686","23","Female","true","false","false","true","""event"",""trial"",""time""
""fullscreenenter"",""5"",""15623""
""blur"",""6"",""21742""
""focus"",""6"",""32643""
","""event"",""trial"",""time""
""blur"",""6"",""21742""
","""event"",""trial"",""time""
""focus"",""6"",""32643""
","""event"",""trial"",""time""
""fullscreenenter"",""5"",""15623""
","
","","","","","","","","","","","","","","","","","","","","","",""
"audio-keyboard-response","122","380576","0.0-63.0","891","686","23","Female","true","false","false","true","""event"",""trial"",""time""
""fullscreenenter"",""5"",""15623""
""blur"",""6"",""21742""
""focus"",""6"",""32643""
","""event"",""trial"",""time""
""blur"",""6"",""21742""
","""event"",""trial"",""time""
""focus"",""6"",""32643""
","""event"",""trial"",""time""
""fullscreenenter"",""5"",""15623""
","
","2171","audio/instructions/treasure_feedback.wav","32","","","","","","","","","","","","","","","","","","",""
"d3-instructions","123","386766","0.0-64.0","891","686","23","Female","true","false","false","true","""event"",""trial"",""time""
""fullscreenenter"",""5"",""15623""
""blur"",""6"",""21742""
""focus"",""6"",""32643""
","""event"",""trial"",""time""
""blur"",""6"",""21742""
","""event"",""trial"",""time""
""focus"",""6"",""32643""
","""event"",""trial"",""time""
""fullscreenenter"",""5"",""15623""
","
","","","","","","","","","","","","","","","","","","","","","",""
"d3-instructions","124","399341","0.0-65.0","891","686","23","Female","true","false","false","true","""event"",""trial"",""time""
""fullscreenenter"",""5"",""15623""
""blur"",""6"",""21742""
""focus"",""6"",""32643""
","""event"",""trial"",""time""
""blur"",""6"",""21742""
","""event"",""trial"",""time""
""focus"",""6"",""32643""
","""event"",""trial"",""time""
""fullscreenenter"",""5"",""15623""
","
","","","","","","","","","","","","","","","","","","","","","",""
"d3-instructions","125","421304","0.0-66.0","891","686","23","Female","true","false","false","true","""event"",""trial"",""time""
""fullscreenenter"",""5"",""15623""
""blur"",""6"",""21742""
""focus"",""6"",""32643""
","""event"",""trial"",""time""
""blur"",""6"",""21742""
","""event"",""trial"",""time""
""focus"",""6"",""32643""
","""event"",""trial"",""time""
""fullscreenenter"",""5"",""15623""
","
","","","","","","","","","","","","","","","","","","","","","",""
"d3-instructions","126","433918","0.0-67.0","891","686","23","Female","true","false","false","true","""event"",""trial"",""time""
""fullscreenenter"",""5"",""15623""
""blur"",""6"",""21742""
""focus"",""6"",""32643""
","""event"",""trial"",""time""
""blur"",""6"",""21742""
","""event"",""trial"",""time""
""focus"",""6"",""32643""
","""event"",""trial"",""time""
""fullscreenenter"",""5"",""15623""
","
","","","","","","","","","","","","","","","","","","","","","",""
"d3-instructions","127","437728","0.0-68.0","891","686","23","Female","true","false","false","true","""event"",""trial"",""time""
""fullscreenenter"",""5"",""15623""
""blur"",""6"",""21742""
""focus"",""6"",""32643""
","""event"",""trial"",""time""
""blur"",""6"",""21742""
","""event"",""trial"",""time""
""focus"",""6"",""32643""
","""event"",""trial"",""time""
""fullscreenenter"",""5"",""15623""
","
","","","","","","","","","","","","","","","","","","","","","",""
"instructions-quiz","128","442664","0.0-69.0","891","686","23","Female","true","false","false","true","""event"",""trial"",""time""
""fullscreenenter"",""5"",""15623""
""blur"",""6"",""21742""
""focus"",""6"",""32643""
","""event"",""trial"",""time""
""blur"",""6"",""21742""
","""event"",""trial"",""time""
""focus"",""6"",""32643""
","""event"",""trial"",""time""
""fullscreenenter"",""5"",""15623""
","
","4934.5","audio/quiz/Q1_Prompt.wav","","1","","","","","","","","","","","","","","","","","",""
"audio-keyboard-response","129","446494","0.0-70.0","891","686","23","Female","true","false","false","true","""event"",""trial"",""time""
""fullscreenenter"",""5"",""15623""
""blur"",""6"",""21742""
""focus"",""6"",""32643""
","""event"",""trial"",""time""
""blur"",""6"",""21742""
","""event"",""trial"",""time""
""focus"",""6"",""32643""
","""event"",""trial"",""time""
""fullscreenenter"",""5"",""15623""
","
","3821","audio/quiz/Q1_Correct.wav","32","","","","","","","","","","","","","","","","","","",""
"instructions-quiz","130","451297","0.0-71.0","891","686","23","Female","true","false","false","true","""event"",""trial"",""time""
""fullscreenenter"",""5"",""15623""
""blur"",""6"",""21742""
""focus"",""6"",""32643""
","""event"",""trial"",""time""
""blur"",""6"",""21742""
","""event"",""trial"",""time""
""focus"",""6"",""32643""
","""event"",""trial"",""time""
""fullscreenenter"",""5"",""15623""
","
","4801.899999856949","audio/quiz/Q2_Prompt.wav","","0","","","","","","","","","","","","","","","","","",""
"audio-keyboard-response","131","452286","0.0-72.0","891","686","23","Female","true","false","false","true","""event"",""trial"",""time""
""fullscreenenter"",""5"",""15623""
""blur"",""6"",""21742""
""focus"",""6"",""32643""
","""event"",""trial"",""time""
""blur"",""6"",""21742""
","""event"",""trial"",""time""
""focus"",""6"",""32643""
","""event"",""trial"",""time""
""fullscreenenter"",""5"",""15623""
","
","989","audio/quiz/Q2_Correct.wav","32","","","","","","","","","","","","","","","","","","",""
"instructions-quiz","132","454641","0.0-73.0","891","686","23","Female","true","false","false","true","""event"",""trial"",""time""
""fullscreenenter"",""5"",""15623""
""blur"",""6"",""21742""
""focus"",""6"",""32643""
","""event"",""trial"",""time""
""blur"",""6"",""21742""
","""event"",""trial"",""time""
""focus"",""6"",""32643""
","""event"",""trial"",""time""
""fullscreenenter"",""5"",""15623""
","
","2353.5","audio/quiz/Q3_Prompt.wav","","1","","","","","","","","","","","","","","","","","",""
"audio-keyboard-response","133","455262","0.0-74.0","891","686","23","Female","true","false","false","true","""event"",""trial"",""time""
""fullscreenenter"",""5"",""15623""
""blur"",""6"",""21742""
""focus"",""6"",""32643""
","""event"",""trial"",""time""
""blur"",""6"",""21742""
","""event"",""trial"",""time""
""focus"",""6"",""32643""
","""event"",""trial"",""time""
""fullscreenenter"",""5"",""15623""
","
","621","audio/quiz/Q3_Correct.wav","32","","","","","","","","","","","","","","","","","","",""
"d3-instructions","134","457742","0.0-75.0","891","686","23","Female","true","false","false","true","""event"",""trial"",""time""
""fullscreenenter"",""5"",""15623""
""blur"",""6"",""21742""
""focus"",""6"",""32643""
","""event"",""trial"",""time""
""blur"",""6"",""21742""
","""event"",""trial"",""time""
""focus"",""6"",""32643""
","""event"",""trial"",""time""
""fullscreenenter"",""5"",""15623""
","
","","","","","","","","","","","","","","","","","","","","","",""
"d3-animate-choice","135","461291","0.0-76.0-0.0","891","686","23","Female","true","false","false","true","""event"",""trial"",""time""
""fullscreenenter"",""5"",""15623""
""blur"",""6"",""21742""
""focus"",""6"",""32643""
","""event"",""trial"",""time""
""blur"",""6"",""21742""
","""event"",""trial"",""time""
""focus"",""6"",""32643""
","""event"",""trial"",""time""
""fullscreenenter"",""5"",""15623""
","
","1544.3999998569489","","48","","","3000","1","","","images/earth.jpg","images/rocket2","images/rocket1","null","images/rocket2","","1","real","null","2","","",""
"d3-animate-choice","136","464278","0.0-76.0-1.0","891","686","23","Female","true","false","false","true","""event"",""trial"",""time""
""fullscreenenter"",""5"",""15623""
""blur"",""6"",""21742""
""focus"",""6"",""32643""
","""event"",""trial"",""time""
""blur"",""6"",""21742""
","""event"",""trial"",""time""
""focus"",""6"",""32643""
","""event"",""trial"",""time""
""fullscreenenter"",""5"",""15623""
","
","984.4000000953674","","49","","","3000","1","","","images/redplanet1.jpg","images/alien2","images/alien1","images/rocket2","images/alien1","images/t.png","2","real","true","1","common","1","2022-02-08 03:27:28.825"
"two-step-fixation","137","465292","0.0-76.0-2.0","891","686","23","Female","true","false","false","true","""event"",""trial"",""time""
""fullscreenenter"",""5"",""15623""
""blur"",""6"",""21742""
""focus"",""6"",""32643""
","""event"",""trial"",""time""
""blur"",""6"",""21742""
","""event"",""trial"",""time""
""focus"",""6"",""32643""
","""event"",""trial"",""time""
""fullscreenenter"",""5"",""15623""
","
","","images/earth.jpg","","","","","","","","","","","","","","fixation","","","","","",""
"d3-animate-choice","138","468871","0.0-76.0-0.1","891","686","23","Female","true","false","false","true","""event"",""trial"",""time""
""fullscreenenter"",""5"",""15623""
""blur"",""6"",""21742""
""focus"",""6"",""32643""
","""event"",""trial"",""time""
""blur"",""6"",""21742""
","""event"",""trial"",""time""
""focus"",""6"",""32643""
","""event"",""trial"",""time""
""fullscreenenter"",""5"",""15623""
","
","1575.2999999523163","","49","","","3000","1","","","images/earth.jpg","images/rocket2","images/rocket1","null","images/rocket1","","1","real","null","1","","",""
"d3-animate-choice","139","471679","0.0-76.0-1.1","891","686","23","Female","true","false","false","true","""event"",""trial"",""time""
""fullscreenenter"",""5"",""15623""
""blur"",""6"",""21742""
""focus"",""6"",""32643""
","""event"",""trial"",""time""
""blur"",""6"",""21742""
","""event"",""trial"",""time""
""focus"",""6"",""32643""
","""event"",""trial"",""time""
""fullscreenenter"",""5"",""15623""
","
","804.1000001430511","","48","","","3000","1","","","images/purpleplanet.jpg","images/alien4","images/alien3","images/rocket1","images/alien4","images/nothing.png","2","real","true","2","common","0","2022-02-08 03:27:36.225"
"two-step-fixation","140","472681","0.0-76.0-2.1","891","686","23","Female","true","false","false","true","""event"",""trial"",""time""
""fullscreenenter"",""5"",""15623""
""blur"",""6"",""21742""
""focus"",""6"",""32643""
","""event"",""trial"",""time""
""blur"",""6"",""21742""
","""event"",""trial"",""time""
""focus"",""6"",""32643""
","""event"",""trial"",""time""
""fullscreenenter"",""5"",""15623""
","
","","images/earth.jpg","","","","","","","","","","","","","","fixation","","","","","",""
"d3-animate-choice","141","475811","0.0-76.0-0.2","891","686","23","Female","true","false","false","true","""event"",""trial"",""time""
""fullscreenenter"",""5"",""15623""
""blur"",""6"",""21742""
""focus"",""6"",""32643""
","""event"",""trial"",""time""
""blur"",""6"",""21742""
","""event"",""trial"",""time""
""focus"",""6"",""32643""
","""event"",""trial"",""time""
""fullscreenenter"",""5"",""15623""
","
","1116.7000000476837","","48","","","3000","1","","","images/earth.jpg","images/rocket2","images/rocket1","null","images/rocket2","","1","real","null","2","","",""
"d3-animate-choice","142","479190","0.0-76.0-1.2","891","686","23","Female","true","false","false","true","""event"",""trial"",""time""
""fullscreenenter"",""5"",""15623""
""blur"",""6"",""21742""
""focus"",""6"",""32643""
","""event"",""trial"",""time""
""blur"",""6"",""21742""
","""event"",""trial"",""time""
""focus"",""6"",""32643""
","""event"",""trial"",""time""
""fullscreenenter"",""5"",""15623""
","
","1376.4000000953674","","49","","","3000","1","","","images/redplanet1.jpg","images/alien2","images/alien1","images/rocket2","images/alien1","images/nothing.png","2","real","true","1","common","0","2022-02-08 03:27:43.736"
"two-step-fixation","143","480192","0.0-76.0-2.2","891","686","23","Female","true","false","false","true","""event"",""trial"",""time""
""fullscreenenter"",""5"",""15623""
""blur"",""6"",""21742""
""focus"",""6"",""32643""
","""event"",""trial"",""time""
""blur"",""6"",""21742""
","""event"",""trial"",""time""
""focus"",""6"",""32643""
","""event"",""trial"",""time""
""fullscreenenter"",""5"",""15623""
","
","","images/earth.jpg","","","","","","","","","","","","","","fixation","","","","","",""
"d3-animate-choice","144","482829","0.0-76.0-0.3","891","686","23","Female","true","false","false","true","""event"",""trial"",""time""
""fullscreenenter"",""5"",""15623""
""blur"",""6"",""21742""
""focus"",""6"",""32643""
","""event"",""trial"",""time""
""blur"",""6"",""21742""
","""event"",""trial"",""time""
""focus"",""6"",""32643""
","""event"",""trial"",""time""
""fullscreenenter"",""5"",""15623""
","
","626.7999999523163","","49","","","3000","1","","","images/earth.jpg","images/rocket2","images/rocket1","null","images/rocket1","","1","real","null","1","","",""
"d3-animate-choice","145","486785","0.0-76.0-1.3","891","686","23","Female","true","false","false","true","""event"",""trial"",""time""
""fullscreenenter"",""5"",""15623""
""blur"",""6"",""21742""
""focus"",""6"",""32643""
","""event"",""trial"",""time""
""blur"",""6"",""21742""
","""event"",""trial"",""time""
""focus"",""6"",""32643""
","""event"",""trial"",""time""
""fullscreenenter"",""5"",""15623""
","
","1950.2999999523163","","48","","","3000","1","","","images/redplanet1.jpg","images/alien2","images/alien1","images/rocket1","images/alien2","images/nothing.png","2","real","false","2","rare","0","2022-02-08 03:27:51.331"
"two-step-fixation","146","487795","0.0-76.0-2.3","891","686","23","Female","true","false","false","true","""event"",""trial"",""time""
""fullscreenenter"",""5"",""15623""
""blur"",""6"",""21742""
""focus"",""6"",""32643""
","""event"",""trial"",""time""
""blur"",""6"",""21742""
","""event"",""trial"",""time""
""focus"",""6"",""32643""
","""event"",""trial"",""time""
""fullscreenenter"",""5"",""15623""
","
","","images/earth.jpg","","","","","","","","","","","","","","fixation","","","","","",""
"d3-animate-choice","147","490882","0.0-76.0-0.4","891","686","23","Female","true","false","false","true","""event"",""trial"",""time""
""fullscreenenter"",""5"",""15623""
""blur"",""6"",""21742""
""focus"",""6"",""32643""
","""event"",""trial"",""time""
""blur"",""6"",""21742""
","""event"",""trial"",""time""
""focus"",""6"",""32643""
","""event"",""trial"",""time""
""fullscreenenter"",""5"",""15623""
","
","1083.7000000476837","","48","","","3000","1","","","images/earth.jpg","images/rocket2","images/rocket1","null","images/rocket2","","1","real","null","2","","",""
"d3-animate-choice","148","494457","0.0-76.0-1.4","891","686","23","Female","true","false","false","true","""event"",""trial"",""time""
""fullscreenenter"",""5"",""15623""
""blur"",""6"",""21742""
""focus"",""6"",""32643""
","""event"",""trial"",""time""
""blur"",""6"",""21742""
","""event"",""trial"",""time""
""focus"",""6"",""32643""
","""event"",""trial"",""time""
""fullscreenenter"",""5"",""15623""
","
","1572.3000001907349","","49","","","3000","1","","","images/redplanet1.jpg","images/alien2","images/alien1","images/rocket2","images/alien1","images/t.png","2","real","true","1","common","1","2022-02-08 03:27:59.004"
"two-step-fixation","149","495460","0.0-76.0-2.4","891","686","23","Female","true","false","false","true","""event"",""trial"",""time""
""fullscreenenter"",""5"",""15623""
""blur"",""6"",""21742""
""focus"",""6"",""32643""
","""event"",""trial"",""time""
""blur"",""6"",""21742""
","""event"",""trial"",""time""
""focus"",""6"",""32643""
","""event"",""trial"",""time""
""fullscreenenter"",""5"",""15623""
","
","","images/earth.jpg","","","","","","","","","","","","","","fixation","","","","","",""
"d3-animate-choice","150","498187","0.0-76.0-0.5","891","686","23","Female","true","false","false","true","""event"",""trial"",""time""
""fullscreenenter"",""5"",""15623""
""blur"",""6"",""21742""
""focus"",""6"",""32643""
","""event"",""trial"",""time""
""blur"",""6"",""21742""
","""event"",""trial"",""time""
""focus"",""6"",""32643""
","""event"",""trial"",""time""
""fullscreenenter"",""5"",""15623""
","
","723.5999999046326","","49","","","3000","1","","","images/earth.jpg","images/rocket2","images/rocket1","null","images/rocket1","","1","real","null","1","","",""
"d3-animate-choice","151","501680","0.0-76.0-1.5","891","686","23","Female","true","false","false","true","""event"",""trial"",""time""
""fullscreenenter"",""5"",""15623""
""blur"",""6"",""21742""
""focus"",""6"",""32643""
","""event"",""trial"",""time""
""blur"",""6"",""21742""
","""event"",""trial"",""time""
""focus"",""6"",""32643""
","""event"",""trial"",""time""
""fullscreenenter"",""5"",""15623""
","
","1489.2000000476837","","48","","","3000","1","","","images/purpleplanet.jpg","images/alien4","images/alien3","images/rocket1","images/alien4","images/t.png","2","real","true","2","common","1","2022-02-08 03:28:06.226"
"two-step-fixation","152","502683","0.0-76.0-2.5","891","686","23","Female","true","false","false","true","""event"",""trial"",""time""
""fullscreenenter"",""5"",""15623""
""blur"",""6"",""21742""
""focus"",""6"",""32643""
","""event"",""trial"",""time""
""blur"",""6"",""21742""
","""event"",""trial"",""time""
""focus"",""6"",""32643""
","""event"",""trial"",""time""
""fullscreenenter"",""5"",""15623""
","
","","images/earth.jpg","","","","","","","","","","","","","","fixation","","","","","",""
"d3-animate-choice","153","505110","0.0-76.0-0.6","891","686","23","Female","true","false","false","true","""event"",""trial"",""time""
""fullscreenenter"",""5"",""15623""
""blur"",""6"",""21742""
""focus"",""6"",""32643""
","""event"",""trial"",""time""
""blur"",""6"",""21742""
","""event"",""trial"",""time""
""focus"",""6"",""32643""
","""event"",""trial"",""time""
""fullscreenenter"",""5"",""15623""
","
","423.89999985694885","","48","","","3000","1","","","images/earth.jpg","images/rocket2","images/rocket1","null","images/rocket2","","1","real","null","2","","",""
"d3-animate-choice","154","507841","0.0-76.0-1.6","891","686","23","Female","true","false","false","true","""event"",""trial"",""time""
""fullscreenenter"",""5"",""15623""
""blur"",""6"",""21742""
""focus"",""6"",""32643""
","""event"",""trial"",""time""
""blur"",""6"",""21742""
","""event"",""trial"",""time""
""focus"",""6"",""32643""
","""event"",""trial"",""time""
""fullscreenenter"",""5"",""15623""
","
","727.6999998092651","","49","","","3000","1","","","images/redplanet1.jpg","images/alien2","images/alien1","images/rocket2","images/alien1","images/t.png","2","real","true","1","common","1","2022-02-08 03:28:12.387"
"two-step-fixation","155","508846","0.0-76.0-2.6","891","686","23","Female","true","false","false","true","""event"",""trial"",""time""
""fullscreenenter"",""5"",""15623""
""blur"",""6"",""21742""
""focus"",""6"",""32643""
","""event"",""trial"",""time""
""blur"",""6"",""21742""
","""event"",""trial"",""time""
""focus"",""6"",""32643""
","""event"",""trial"",""time""
""fullscreenenter"",""5"",""15623""
","
","","images/earth.jpg","","","","","","","","","","","","","","fixation","","","","","",""
"d3-animate-choice","156","511449","0.0-76.0-0.7","891","686","23","Female","true","false","false","true","""event"",""trial"",""time""
""fullscreenenter"",""5"",""15623""
""blur"",""6"",""21742""
""focus"",""6"",""32643""
","""event"",""trial"",""time""
""blur"",""6"",""21742""
","""event"",""trial"",""time""
""focus"",""6"",""32643""
","""event"",""trial"",""time""
""fullscreenenter"",""5"",""15623""
","
","599.3999998569489","","49","","","3000","1","","","images/earth.jpg","images/rocket2","images/rocket1","null","images/rocket1","","1","real","null","1","","",""
"d3-animate-choice","157","514944","0.0-76.0-1.7","891","686","23","Female","true","false","false","true","""event"",""trial"",""time""
""fullscreenenter"",""5"",""15623""
""blur"",""6"",""21742""
""focus"",""6"",""32643""
","""event"",""trial"",""time""
""blur"",""6"",""21742""
","""event"",""trial"",""time""
""focus"",""6"",""32643""
","""event"",""trial"",""time""
""fullscreenenter"",""5"",""15623""
","
","1493","","48","","","3000","1","","","images/purpleplanet.jpg","images/alien4","images/alien3","images/rocket1","images/alien4","images/t.png","2","real","true","2","common","1","2022-02-08 03:28:19.490"
"two-step-fixation","158","515947","0.0-76.0-2.7","891","686","23","Female","true","false","false","true","""event"",""trial"",""time""
""fullscreenenter"",""5"",""15623""
""blur"",""6"",""21742""
""focus"",""6"",""32643""
","""event"",""trial"",""time""
""blur"",""6"",""21742""
","""event"",""trial"",""time""
""focus"",""6"",""32643""
","""event"",""trial"",""time""
""fullscreenenter"",""5"",""15623""
","
","","images/earth.jpg","","","","","","","","","","","","","","fixation","","","","","",""
"d3-animate-choice","159","518518","0.0-76.0-0.8","891","686","23","Female","true","false","false","true","""event"",""trial"",""time""
""fullscreenenter"",""5"",""15623""
""blur"",""6"",""21742""
""focus"",""6"",""32643""
","""event"",""trial"",""time""
""blur"",""6"",""21742""
","""event"",""trial"",""time""
""focus"",""6"",""32643""
","""event"",""trial"",""time""
""fullscreenenter"",""5"",""15623""
","
","566.7000000476837","","48","","","3000","1","","","images/earth.jpg","images/rocket2","images/rocket1","null","images/rocket2","","1","real","null","2","","",""
"d3-animate-choice","160","521368","0.0-76.0-1.8","891","686","23","Female","true","false","false","true","""event"",""trial"",""time""
""fullscreenenter"",""5"",""15623""
""blur"",""6"",""21742""
""focus"",""6"",""32643""
","""event"",""trial"",""time""
""blur"",""6"",""21742""
","""event"",""trial"",""time""
""focus"",""6"",""32643""
","""event"",""trial"",""time""
""fullscreenenter"",""5"",""15623""
","
","846.6999998092651","","49","","","3000","1","","","images/redplanet1.jpg","images/alien2","images/alien1","images/rocket2","images/alien1","images/nothing.png","2","real","true","1","common","0","2022-02-08 03:28:25.914"
"two-step-fixation","161","522370","0.0-76.0-2.8","891","686","23","Female","true","false","false","true","""event"",""trial"",""time""
""fullscreenenter"",""5"",""15623""
""blur"",""6"",""21742""
""focus"",""6"",""32643""
","""event"",""trial"",""time""
""blur"",""6"",""21742""
","""event"",""trial"",""time""
""focus"",""6"",""32643""
","""event"",""trial"",""time""
""fullscreenenter"",""5"",""15623""
","
","","images/earth.jpg","","","","","","","","","","","","","","fixation","","","","","",""
"d3-animate-choice","162","524995","0.0-76.0-0.9","891","686","23","Female","true","false","false","true","""event"",""trial"",""time""
""fullscreenenter"",""5"",""15623""
""blur"",""6"",""21742""
""focus"",""6"",""32643""
","""event"",""trial"",""time""
""blur"",""6"",""21742""
","""event"",""trial"",""time""
""focus"",""6"",""32643""
","""event"",""trial"",""time""
""fullscreenenter"",""5"",""15623""
","
","621.3999998569489","","49","","","3000","1","","","images/earth.jpg","images/rocket2","images/rocket1","null","images/rocket1","","1","real","null","1","","",""
"d3-animate-choice","163","528650","0.0-76.0-1.9","891","686","23","Female","true","false","false","true","""event"",""trial"",""time""
""fullscreenenter"",""5"",""15623""
""blur"",""6"",""21742""
""focus"",""6"",""32643""
","""event"",""trial"",""time""
""blur"",""6"",""21742""
","""event"",""trial"",""time""
""focus"",""6"",""32643""
","""event"",""trial"",""time""
""fullscreenenter"",""5"",""15623""
","
","1652.2000000476837","","48","","","3000","1","","","images/redplanet1.jpg","images/alien2","images/alien1","images/rocket1","images/alien2","images/t.png","2","real","false","2","rare","1","2022-02-08 03:28:33.196"
"two-step-fixation","164","529653","0.0-76.0-2.9","891","686","23","Female","true","false","false","true","""event"",""trial"",""time""
""fullscreenenter"",""5"",""15623""
""blur"",""6"",""21742""
""focus"",""6"",""32643""
","""event"",""trial"",""time""
""blur"",""6"",""21742""
","""event"",""trial"",""time""
""focus"",""6"",""32643""
","""event"",""trial"",""time""
""fullscreenenter"",""5"",""15623""
","
","","images/earth.jpg","","","","","","","","","","","","","","fixation","","","","","",""
"d3-animate-choice","165","532114","0.0-76.0-0.10","891","686","23","Female","true","false","false","true","""event"",""trial"",""time""
""fullscreenenter"",""5"",""15623""
""blur"",""6"",""21742""
""focus"",""6"",""32643""
","""event"",""trial"",""time""
""blur"",""6"",""21742""
","""event"",""trial"",""time""
""focus"",""6"",""32643""
","""event"",""trial"",""time""
""fullscreenenter"",""5"",""15623""
","
","456.59999990463257","","48","","","3000","1","","","images/earth.jpg","images/rocket2","images/rocket1","null","images/rocket2","","1","real","null","2","","",""
"d3-animate-choice","166","535639","0.0-76.0-1.10","891","686","23","Female","true","false","false","true","""event"",""trial"",""time""
""fullscreenenter"",""5"",""15623""
""blur"",""6"",""21742""
""focus"",""6"",""32643""
","""event"",""trial"",""time""
""blur"",""6"",""21742""
","""event"",""trial"",""time""
""focus"",""6"",""32643""
","""event"",""trial"",""time""
""fullscreenenter"",""5"",""15623""
","
","1521.7000000476837","","49","","","3000","1","","","images/purpleplanet.jpg","images/alien4","images/alien3","images/rocket2","images/alien3","images/t.png","2","real","false","1","rare","1","2022-02-08 03:28:40.185"
"two-step-fixation","167","536642","0.0-76.0-2.10","891","686","23","Female","true","false","false","true","""event"",""trial"",""time""
""fullscreenenter"",""5"",""15623""
""blur"",""6"",""21742""
""focus"",""6"",""32643""
","""event"",""trial"",""time""
""blur"",""6"",""21742""
","""event"",""trial"",""time""
""focus"",""6"",""32643""
","""event"",""trial"",""time""
""fullscreenenter"",""5"",""15623""
","
","","images/earth.jpg","","","","","","","","","","","","","","fixation","","","","","",""
"d3-animate-choice","168","539269","0.0-76.0-0.11","891","686","23","Female","true","false","false","true","""event"",""trial"",""time""
""fullscreenenter"",""5"",""15623""
""blur"",""6"",""21742""
""focus"",""6"",""32643""
","""event"",""trial"",""time""
""blur"",""6"",""21742""
","""event"",""trial"",""time""
""focus"",""6"",""32643""
","""event"",""trial"",""time""
""fullscreenenter"",""5"",""15623""
","
","621.7999999523163","","49","","","3000","1","","","images/earth.jpg","images/rocket2","images/rocket1","null","images/rocket1","","1","real","null","1","","",""
"d3-animate-choice","169","543272","0.0-76.0-1.11","891","686","23","Female","true","false","false","true","""event"",""trial"",""time""
""fullscreenenter"",""5"",""15623""
""blur"",""6"",""21742""
""focus"",""6"",""32643""
","""event"",""trial"",""time""
""blur"",""6"",""21742""
","""event"",""trial"",""time""
""focus"",""6"",""32643""
","""event"",""trial"",""time""
""fullscreenenter"",""5"",""15623""
","
","2161.9000000953674","","49","","","3000","1","","","images/purpleplanet.jpg","images/alien4","images/alien3","images/rocket1","images/alien3","images/nothing.png","2","real","true","1","common","0","2022-02-08 03:28:47.818"
"two-step-fixation","170","544274","0.0-76.0-2.11","891","686","23","Female","true","false","false","true","""event"",""trial"",""time""
""fullscreenenter"",""5"",""15623""
""blur"",""6"",""21742""
""focus"",""6"",""32643""
","""event"",""trial"",""time""
""blur"",""6"",""21742""
","""event"",""trial"",""time""
""focus"",""6"",""32643""
","""event"",""trial"",""time""
""fullscreenenter"",""5"",""15623""
","
","","images/earth.jpg","","","","","","","","","","","","","","fixation","","","","","",""
"d3-animate-choice","171","546544","0.0-76.0-0.12","891","686","23","Female","true","false","false","true","""event"",""trial"",""time""
""fullscreenenter"",""5"",""15623""
""blur"",""6"",""21742""
""focus"",""6"",""32643""
","""event"",""trial"",""time""
""blur"",""6"",""21742""
","""event"",""trial"",""time""
""focus"",""6"",""32643""
","""event"",""trial"",""time""
""fullscreenenter"",""5"",""15623""
","
","265.89999985694885","","48","","","3000","1","","","images/earth.jpg","images/rocket2","images/rocket1","null","images/rocket2","","1","real","null","2","","",""
"d3-animate-choice","172","549295","0.0-76.0-1.12","891","686","23","Female","true","false","false","true","""event"",""trial"",""time""
""fullscreenenter"",""5"",""15623""
""blur"",""6"",""21742""
""focus"",""6"",""32643""
","""event"",""trial"",""time""
""blur"",""6"",""21742""
","""event"",""trial"",""time""
""focus"",""6"",""32643""
","""event"",""trial"",""time""
""fullscreenenter"",""5"",""15623""
","
","747.2999999523163","","49","","","3000","1","","","images/redplanet1.jpg","images/alien2","images/alien1","images/rocket2","images/alien1","images/t.png","2","real","true","1","common","1","2022-02-08 03:28:53.841"
"two-step-fixation","173","550298","0.0-76.0-2.12","891","686","23","Female","true","false","false","true","""event"",""trial"",""time""
""fullscreenenter"",""5"",""15623""
""blur"",""6"",""21742""
""focus"",""6"",""32643""
","""event"",""trial"",""time""
""blur"",""6"",""21742""
","""event"",""trial"",""time""
""focus"",""6"",""32643""
","""event"",""trial"",""time""
""fullscreenenter"",""5"",""15623""
","
","","images/earth.jpg","","","","","","","","","","","","","","fixation","","","","","",""
"d3-animate-choice","174","552522","0.0-76.0-0.13","891","686","23","Female","true","false","false","true","""event"",""trial"",""time""
""fullscreenenter"",""5"",""15623""
""blur"",""6"",""21742""
""focus"",""6"",""32643""
","""event"",""trial"",""time""
""blur"",""6"",""21742""
","""event"",""trial"",""time""
""focus"",""6"",""32643""
","""event"",""trial"",""time""
""fullscreenenter"",""5"",""15623""
","
","221.10000014305115","","49","","","3000","1","","","images/earth.jpg","images/rocket2","images/rocket1","null","images/rocket1","","1","real","null","1","","",""
"d3-animate-choice","175","555753","0.0-76.0-1.13","891","686","23","Female","true","false","false","true","""event"",""trial"",""time""
""fullscreenenter"",""5"",""15623""
""blur"",""6"",""21742""
""focus"",""6"",""32643""
","""event"",""trial"",""time""
""blur"",""6"",""21742""
","""event"",""trial"",""time""
""focus"",""6"",""32643""
","""event"",""trial"",""time""
""fullscreenenter"",""5"",""15623""
","
","1228","","48","","","3000","1","","","images/purpleplanet.jpg","images/alien4","images/alien3","images/rocket1","images/alien4","images/nothing.png","2","real","true","2","common","0","2022-02-08 03:29:00.299"
"two-step-fixation","176","556756","0.0-76.0-2.13","891","686","23","Female","true","false","false","true","""event"",""trial"",""time""
""fullscreenenter"",""5"",""15623""
""blur"",""6"",""21742""
""focus"",""6"",""32643""
","""event"",""trial"",""time""
""blur"",""6"",""21742""
","""event"",""trial"",""time""
""focus"",""6"",""32643""
","""event"",""trial"",""time""
""fullscreenenter"",""5"",""15623""
","
","","images/earth.jpg","","","","","","","","","","","","","","fixation","","","","","",""
"d3-animate-choice","177","559031","0.0-76.0-0.14","891","686","23","Female","true","false","false","true","""event"",""trial"",""time""
""fullscreenenter"",""5"",""15623""
""blur"",""6"",""21742""
""focus"",""6"",""32643""
","""event"",""trial"",""time""
""blur"",""6"",""21742""
","""event"",""trial"",""time""
""focus"",""6"",""32643""
","""event"",""trial"",""time""
""fullscreenenter"",""5"",""15623""
","
","270.09999990463257","","48","","","3000","1","","","images/earth.jpg","images/rocket2","images/rocket1","null","images/rocket2","","1","real","null","2","","",""
"d3-animate-choice","178","561486","0.0-76.0-1.14","891","686","23","Female","true","false","false","true","""event"",""trial"",""time""
""fullscreenenter"",""5"",""15623""
""blur"",""6"",""21742""
""focus"",""6"",""32643""
","""event"",""trial"",""time""
""blur"",""6"",""21742""
","""event"",""trial"",""time""
""focus"",""6"",""32643""
","""event"",""trial"",""time""
""fullscreenenter"",""5"",""15623""
","
","451.7999999523163","","49","","","3000","1","","","images/redplanet1.jpg","images/alien2","images/alien1","images/rocket2","images/alien1","images/nothing.png","2","real","true","1","common","0","2022-02-08 03:29:06.032"
"two-step-fixation","179","562489","0.0-76.0-2.14","891","686","23","Female","true","false","false","true","""event"",""trial"",""time""
""fullscreenenter"",""5"",""15623""
""blur"",""6"",""21742""
