"trial_type","trial_index","time_elapsed","internal_node_id","participant_id","subject_id","age","gender","rocket_sides","red_planet_first_rocket","red_display_order","purple_display_order","interactions","blur_events","focus_events","fullscreenenter_events","fullscreenexit_events","rt","stimulus","key_press","button_pressed","success","duration","valid_pressed","rts","keys","planet_text","right_text","left_text","center_text","chosen_text","reward_text","trial_stage","practice_trial","transition_type","choice","transition","reward","timestamp"
"pavlovia","0","5","0.0-0.0","395","753","22","Female","true","false","true","false","
","
","
","
","
","","","","","","","","","","","","","","","","","","","","","",""
"html-keyboard-response","1","2263","0.0-1.0","395","753","22","Female","true","false","true","false","
","
","
","
","
","2256","Welcome! Press the space bar to begin.","32","","","","","","","","","","","","","","","","","","",""
"audio-keyboard-response","2","4403","0.0-2.0","395","753","22","Female","true","false","true","false","
","
","
","
","
","1611","audio/beep_loop.wav","32","","","","","","","","","","","","","","","","","","",""
"audio-button-response","3","6957","0.0-3.0","395","753","22","Female","true","false","true","false","
","
","
","
","
","NaN","audio/fish.mp3","","1","","","","","","","","","","","","","","","","","",""
"audio-button-response","4","10675","0.0-4.0","395","753","22","Female","true","false","true","false","""event"",""trial"",""time""
""fullscreenenter"",""5"",""13653""
","
","
","""event"",""trial"",""time""
""fullscreenenter"",""5"",""13653""
","
","NaN","audio/tiger.mp3","","4","","","","","","","","","","","","","","","","","",""
"fullscreen","5","14645","0.0-5.0","395","753","22","Female","true","false","true","false","""event"",""trial"",""time""
""fullscreenenter"",""5"",""13653""
","
","
","""event"",""trial"",""time""
""fullscreenenter"",""5"",""13653""
","
","","","","","true","","","","","","","","","","","","","","","","",""
"d3-instructions","6","28369","0.0-6.0","395","753","22","Female","true","false","true","false","""event"",""trial"",""time""
""fullscreenenter"",""5"",""13653""
","
","
","""event"",""trial"",""time""
""fullscreenenter"",""5"",""13653""
","
","","","","","","","","","","","","","","","","","","","","","",""
"d3-instructions","7","38748","0.0-7.0","395","753","22","Female","true","false","true","false","""event"",""trial"",""time""
""fullscreenenter"",""5"",""13653""
","
","
","""event"",""trial"",""time""
""fullscreenenter"",""5"",""13653""
","
","","","","","","","","","","","","","","","","","","","","","",""
"d3-instructions","8","46074","0.0-8.0","395","753","22","Female","true","false","true","false","""event"",""trial"",""time""
""fullscreenenter"",""5"",""13653""
","
","
","""event"",""trial"",""time""
""fullscreenenter"",""5"",""13653""
","
","","","","","","","","","","","","","","","","","","","","","",""
"d3-instructions","9","57169","0.0-9.0","395","753","22","Female","true","false","true","false","""event"",""trial"",""time""
""fullscreenenter"",""5"",""13653""
","
","
","""event"",""trial"",""time""
""fullscreenenter"",""5"",""13653""
","
","","","","","","","","","","","","","","","","","","","","","",""
"d3-instructions","10","77403","0.0-10.0","395","753","22","Female","true","false","true","false","""event"",""trial"",""time""
""fullscreenenter"",""5"",""13653""
","
","
","""event"",""trial"",""time""
""fullscreenenter"",""5"",""13653""
","
","","","","","","","","","","","","","","","","","","","","","",""
"d3-animate-choice","11","81842","0.0-11.0","395","753","22","Female","true","false","true","false","""event"",""trial"",""time""
""fullscreenenter"",""5"",""13653""
","
","
","""event"",""trial"",""time""
""fullscreenenter"",""5"",""13653""
","
","2417.2000000476837","","49","","","3000","1","3805.2000000476837","48","images/tutgreenplanet.jpg","images/tutalien1","images/tutalien2","null","images/tutalien2","","NA","practice","null","","","",""
"d3-animate-choice","12","86279","0.0-12.0","395","753","22","Female","true","false","true","false","""event"",""trial"",""time""
""fullscreenenter"",""5"",""13653""
","
","
","""event"",""trial"",""time""
""fullscreenenter"",""5"",""13653""
","
","2417.4000000953674","","49","","","3000","1","2618.7000000476837","49","images/tutgreenplanet.jpg","images/tutalien1","images/tutalien2","null","images/tutalien2","","NA","practice","null","","","",""
"d3-animate-choice","13","88923","0.0-13.0","395","753","22","Female","true","false","true","false","""event"",""trial"",""time""
""fullscreenenter"",""5"",""13653""
","
","
","""event"",""trial"",""time""
""fullscreenenter"",""5"",""13653""
","
","628.2000000476837","","48","","","3000","1","","","images/tutgreenplanet.jpg","images/tutalien1","images/tutalien2","null","images/tutalien1","","NA","practice","null","","","",""
"d3-animate-choice","14","91474","0.0-14.0","395","753","22","Female","true","false","true","false","""event"",""trial"",""time""
""fullscreenenter"",""5"",""13653""
","
","
","""event"",""trial"",""time""
""fullscreenenter"",""5"",""13653""
","
","538.7999999523163","","49","","","3000","1","","","images/tutgreenplanet.jpg","images/tutalien1","images/tutalien2","null","images/tutalien2","","NA","practice","null","","","",""
"d3-instructions","15","98239","0.0-15.0","395","753","22","Female","true","false","true","false","""event"",""trial"",""time""
""fullscreenenter"",""5"",""13653""
","
","
","""event"",""trial"",""time""
""fullscreenenter"",""5"",""13653""
","
","","","","","","","","","","","","","","","","","","","","","",""
"d3-instructions","16","105958","0.0-16.0","395","753","22","Female","true","false","true","false","""event"",""trial"",""time""
""fullscreenenter"",""5"",""13653""
","
","
","""event"",""trial"",""time""
""fullscreenenter"",""5"",""13653""
","
","","","","","","","","","","","","","","","","","","","","","",""
"d3-instructions","17","115321","0.0-17.0","395","753","22","Female","true","false","true","false","""event"",""trial"",""time""
""fullscreenenter"",""5"",""13653""
","
","
","""event"",""trial"",""time""
""fullscreenenter"",""5"",""13653""
","
","","","","","","","","","","","","","","","","","","","","","",""
"d3-instructions","18","128206","0.0-18.0","395","753","22","Female","true","false","true","false","""event"",""trial"",""time""
""fullscreenenter"",""5"",""13653""
","
","
","""event"",""trial"",""time""
""fullscreenenter"",""5"",""13653""
","
","","","","","","","","","","","","","","","","","","","","","",""
"d3-instructions","19","142197","0.0-19.0","395","753","22","Female","true","false","true","false","""event"",""trial"",""time""
""fullscreenenter"",""5"",""13653""
","
","
","""event"",""trial"",""time""
""fullscreenenter"",""5"",""13653""
","
","","","","","","","","","","","","","","","","","","","","","",""
"d3-animate-choice","20","144730","0.0-20.0","395","753","22","Female","true","false","true","false","""event"",""trial"",""time""
""fullscreenenter"",""5"",""13653""
","
","
","""event"",""trial"",""time""
""fullscreenenter"",""5"",""13653""
","
","527","","49","","","3000","1","1022.2000000476837,2018.5999999046326","49,49","images/tutyellowplanet.jpg","null","images/tutalien3","null","images/tutalien3","images/t.png","NA","practice","null","","","",""
"d3-animate-choice","21","147097","0.0-21.0","395","753","22","Female","true","false","true","false","""event"",""trial"",""time""
""fullscreenenter"",""5"",""13653""
","
","
","""event"",""trial"",""time""
""fullscreenenter"",""5"",""13653""
","
","354.5","","49","","","3000","1","","","images/tutyellowplanet.jpg","null","images/tutalien3","null","images/tutalien3","images/t.png","NA","practice","null","","","",""
"d3-animate-choice","22","149380","0.0-22.0","395","753","22","Female","true","false","true","false","""event"",""trial"",""time""
""fullscreenenter"",""5"",""13653""
","
","
","""event"",""trial"",""time""
""fullscreenenter"",""5"",""13653""
","
","276.39999985694885","","49","","","3000","1","","","images/tutyellowplanet.jpg","null","images/tutalien3","null","images/tutalien3","images/t.png","NA","practice","null","","","",""
"d3-animate-choice","23","151682","0.0-23.0","395","753","22","Female","true","false","true","false","""event"",""trial"",""time""
""fullscreenenter"",""5"",""13653""
","
","
","""event"",""trial"",""time""
""fullscreenenter"",""5"",""13653""
","
","288.5","","49","","","3000","1","","","images/tutyellowplanet.jpg","null","images/tutalien3","null","images/tutalien3","images/t.png","NA","practice","null","","","",""
"d3-animate-choice","24","153984","0.0-24.0","395","753","22","Female","true","false","true","false","""event"",""trial"",""time""
""fullscreenenter"",""5"",""13653""
","
","
","""event"",""trial"",""time""
""fullscreenenter"",""5"",""13653""
","
","292.39999985694885","","49","","","3000","1","","","images/tutyellowplanet.jpg","null","images/tutalien3","null","images/tutalien3","images/t.png","NA","practice","null","","","",""
"d3-animate-choice","25","156489","0.0-25.0","395","753","22","Female","true","false","true","false","""event"",""trial"",""time""
""fullscreenenter"",""5"",""13653""
","
","
","""event"",""trial"",""time""
""fullscreenenter"",""5"",""13653""
","
","497.39999985694885","","49","","","3000","1","","","images/tutyellowplanet.jpg","null","images/tutalien3","null","images/tutalien3","images/t.png","NA","practice","null","","","",""
"d3-animate-choice","26","158905","0.0-26.0","395","753","22","Female","true","false","true","false","""event"",""trial"",""time""
""fullscreenenter"",""5"",""13653""
","
","
","""event"",""trial"",""time""
""fullscreenenter"",""5"",""13653""
","
","406.2000000476837","","49","","","3000","1","","","images/tutyellowplanet.jpg","null","images/tutalien3","null","images/tutalien3","images/t.png","NA","practice","null","","","",""
"d3-animate-choice","27","161230","0.0-27.0","395","753","22","Female","true","false","true","false","""event"",""trial"",""time""
""fullscreenenter"",""5"",""13653""
","
","
","""event"",""trial"",""time""
""fullscreenenter"",""5"",""13653""
","
","305.80000019073486","","49","","","3000","1","","","images/tutyellowplanet.jpg","null","images/tutalien3","null","images/tutalien3","images/t.png","NA","practice","null","","","",""
"d3-animate-choice","28","163662","0.0-28.0","395","753","22","Female","true","false","true","false","""event"",""trial"",""time""
""fullscreenenter"",""5"",""13653""
","
","
","""event"",""trial"",""time""
""fullscreenenter"",""5"",""13653""
","
","425.10000014305115","","49","","","3000","1","","","images/tutyellowplanet.jpg","null","images/tutalien3","null","images/tutalien3","images/nothing.png","NA","practice","null","","","",""
"d3-animate-choice","29","166073","0.0-29.0","395","753","22","Female","true","false","true","false","""event"",""trial"",""time""
""fullscreenenter"",""5"",""13653""
","
","
","""event"",""trial"",""time""
""fullscreenenter"",""5"",""13653""
","
","400.60000014305115","","49","","","3000","1","","","images/tutyellowplanet.jpg","null","images/tutalien3","null","images/tutalien3","images/t.png","NA","practice","null","","","",""
"d3-instructions","30","172374","0.0-30.0","395","753","22","Female","true","false","true","false","""event"",""trial"",""time""
""fullscreenenter"",""5"",""13653""
","
","
","""event"",""trial"",""time""
""fullscreenenter"",""5"",""13653""
","
","","","","","","","","","","","","","","","","","","","","","",""
"d3-instructions","31","181911","0.0-31.0","395","753","22","Female","true","false","true","false","""event"",""trial"",""time""
""fullscreenenter"",""5"",""13653""
","
","
","""event"",""trial"",""time""
""fullscreenenter"",""5"",""13653""
","
","","","","","","","","","","","","","","","","","","","","","",""
"d3-instructions","32","188850","0.0-32.0","395","753","22","Female","true","false","true","false","""event"",""trial"",""time""
""fullscreenenter"",""5"",""13653""
","
","
","""event"",""trial"",""time""
""fullscreenenter"",""5"",""13653""
","
","","","","","","","","","","","","","","","","","","","","","",""
"d3-instructions","33","197763","0.0-33.0","395","753","22","Female","true","false","true","false","""event"",""trial"",""time""
""fullscreenenter"",""5"",""13653""
","
","
","""event"",""trial"",""time""
""fullscreenenter"",""5"",""13653""
","
","","","","","","","","","","","","","","","","","","","","","",""
"d3-animate-choice","34","200676","0.0-34.0","395","753","22","Female","true","false","true","false","""event"",""trial"",""time""
""fullscreenenter"",""5"",""13653""
","
","
","""event"",""trial"",""time""
""fullscreenenter"",""5"",""13653""
","
","906.2999999523163","","49","","","3000","1","","","images/tutgreenplanet.jpg","images/tutalien1","images/tutalien2","null","images/tutalien2","images/t.png","NA","practice","null","","","",""
"d3-animate-choice","35","202984","0.0-35.0","395","753","22","Female","true","false","true","false","""event"",""trial"",""time""
""fullscreenenter"",""5"",""13653""
","
","
","""event"",""trial"",""time""
""fullscreenenter"",""5"",""13653""
","
","292.7999999523163","","49","","","3000","1","","","images/tutgreenplanet.jpg","images/tutalien1","images/tutalien2","null","images/tutalien2","images/nothing.png","NA","practice","null","","","",""
"d3-animate-choice","36","205305","0.0-36.0","395","753","22","Female","true","false","true","false","""event"",""trial"",""time""
""fullscreenenter"",""5"",""13653""
","
","
","""event"",""trial"",""time""
""fullscreenenter"",""5"",""13653""
","
","309.2000000476837","","49","","","3000","1","","","images/tutgreenplanet.jpg","images/tutalien1","images/tutalien2","null","images/tutalien2","images/nothing.png","NA","practice","null","","","",""
"d3-animate-choice","37","207534","0.0-37.0","395","753","22","Female","true","false","true","false","""event"",""trial"",""time""
""fullscreenenter"",""5"",""13653""
","
","
","""event"",""trial"",""time""
""fullscreenenter"",""5"",""13653""
","
","221.70000004768372","","48","","","3000","1","","","images/tutgreenplanet.jpg","images/tutalien1","images/tutalien2","null","images/tutalien1","images/nothing.png","NA","practice","null","","","",""
"d3-animate-choice","38","209829","0.0-38.0","395","753","22","Female","true","false","true","false","""event"",""trial"",""time""
""fullscreenenter"",""5"",""13653""
","
","
","""event"",""trial"",""time""
""fullscreenenter"",""5"",""13653""
","
","287.2000000476837","","48","","","3000","1","","","images/tutgreenplanet.jpg","images/tutalien1","images/tutalien2","null","images/tutalien1","images/nothing.png","NA","practice","null","","","",""
"d3-animate-choice","39","212194","0.0-39.0","395","753","22","Female","true","false","true","false","""event"",""trial"",""time""
""fullscreenenter"",""5"",""13653""
","
","
","""event"",""trial"",""time""
""fullscreenenter"",""5"",""13653""
","
","356.59999990463257","","49","","","3000","1","","","images/tutgreenplanet.jpg","images/tutalien1","images/tutalien2","null","images/tutalien2","images/t.png","NA","practice","null","","","",""
"d3-animate-choice","40","214445","0.0-40.0","395","753","22","Female","true","false","true","false","""event"",""trial"",""time""
""fullscreenenter"",""5"",""13653""
","
","
","""event"",""trial"",""time""
""fullscreenenter"",""5"",""13653""
","
","243.79999995231628","","49","","","3000","1","","","images/tutgreenplanet.jpg","images/tutalien1","images/tutalien2","null","images/tutalien2","images/t.png","NA","practice","null","","","",""
"d3-animate-choice","41","216704","0.0-41.0","395","753","22","Female","true","false","true","false","""event"",""trial"",""time""
""fullscreenenter"",""5"",""13653""
","
","
","""event"",""trial"",""time""
""fullscreenenter"",""5"",""13653""
","
","246.20000004768372","","49","","","3000","1","","","images/tutgreenplanet.jpg","images/tutalien1","images/tutalien2","null","images/tutalien2","images/t.png","NA","practice","null","","","",""
"d3-animate-choice","42","219011","0.0-42.0","395","753","22","Female","true","false","true","false","""event"",""trial"",""time""
""fullscreenenter"",""5"",""13653""
","
","
","""event"",""trial"",""time""
""fullscreenenter"",""5"",""13653""
","
","299.10000014305115","","49","","","3000","1","","","images/tutgreenplanet.jpg","images/tutalien1","images/tutalien2","null","images/tutalien2","images/t.png","NA","practice","null","","","",""
"d3-animate-choice","43","221266","0.0-43.0","395","753","22","Female","true","false","true","false","""event"",""trial"",""time""
""fullscreenenter"",""5"",""13653""
","
","
","""event"",""trial"",""time""
""fullscreenenter"",""5"",""13653""
","
","248.30000019073486","","49","","","3000","1","","","images/tutgreenplanet.jpg","images/tutalien1","images/tutalien2","null","images/tutalien2","images/t.png","NA","practice","null","","","",""
"d3-instructions","44","233971","0.0-44.0","395","753","22","Female","true","false","true","false","""event"",""trial"",""time""
""fullscreenenter"",""5"",""13653""
","
","
","""event"",""trial"",""time""
""fullscreenenter"",""5"",""13653""
","
","","","","","","","","","","","","","","","","","","","","","",""
"d3-instructions","45","239729","0.0-45.0","395","753","22","Female","true","false","true","false","""event"",""trial"",""time""
""fullscreenenter"",""5"",""13653""
","
","
","""event"",""trial"",""time""
""fullscreenenter"",""5"",""13653""
","
","","","","","","","","","","","","","","","","","","","","","",""
"d3-instructions","46","243960","0.0-46.0","395","753","22","Female","true","false","true","false","""event"",""trial"",""time""
""fullscreenenter"",""5"",""13653""
","
","
","""event"",""trial"",""time""
""fullscreenenter"",""5"",""13653""
","
","","","","","","","","","","","","","","","","","","","","","",""
"d3-instructions","47","259843","0.0-47.0","395","753","22","Female","true","false","true","false","""event"",""trial"",""time""
""fullscreenenter"",""5"",""13653""
","
","
","""event"",""trial"",""time""
""fullscreenenter"",""5"",""13653""
","
","","","","","","","","","","","","","","","","","","","","","",""
"d3-instructions","48","263923","0.0-48.0","395","753","22","Female","true","false","true","false","""event"",""trial"",""time""
""fullscreenenter"",""5"",""13653""
","
","
","""event"",""trial"",""time""
""fullscreenenter"",""5"",""13653""
","
","","","","","","","","","","","","","","","","","","","","","",""
"d3-instructions","49","269581","0.0-49.0","395","753","22","Female","true","false","true","false","""event"",""trial"",""time""
""fullscreenenter"",""5"",""13653""
","
","
","""event"",""trial"",""time""
""fullscreenenter"",""5"",""13653""
","
","","","","","","","","","","","","","","","","","","","","","",""
"d3-instructions","50","277578","0.0-50.0","395","753","22","Female","true","false","true","false","""event"",""trial"",""time""
""fullscreenenter"",""5"",""13653""
","
","
","""event"",""trial"",""time""
""fullscreenenter"",""5"",""13653""
","
","","","","","","","","","","","","","","","","","","","","","",""
"d3-instructions","51","279448","0.0-51.0","395","753","22","Female","true","false","true","false","""event"",""trial"",""time""
""fullscreenenter"",""5"",""13653""
","
","
","""event"",""trial"",""time""
""fullscreenenter"",""5"",""13653""
","
","","","","","","","","","","","","","","","","","","","","","",""
"d3-instructions","52","280737","0.0-52.0","395","753","22","Female","true","false","true","false","""event"",""trial"",""time""
""fullscreenenter"",""5"",""13653""
","
","
","""event"",""trial"",""time""
""fullscreenenter"",""5"",""13653""
","
","","","","","","","","","","","","","","","","","","","","","",""
"d3-instructions","53","291539","0.0-53.0","395","753","22","Female","true","false","true","false","""event"",""trial"",""time""
""fullscreenenter"",""5"",""13653""
","
","
","""event"",""trial"",""time""
""fullscreenenter"",""5"",""13653""
","
","","","","","","","","","","","","","","","","","","","","","",""
"d3-instructions","54","301465","0.0-54.0","395","753","22","Female","true","false","true","false","""event"",""trial"",""time""
""fullscreenenter"",""5"",""13653""
","
","
","""event"",""trial"",""time""
""fullscreenenter"",""5"",""13653""
","
","","","","","","","","","","","","","","","","","","","","","",""
"d3-instructions","55","306781","0.0-55.0","395","753","22","Female","true","false","true","false","""event"",""trial"",""time""
""fullscreenenter"",""5"",""13653""
","
","
","""event"",""trial"",""time""
""fullscreenenter"",""5"",""13653""
","
","","","","","","","","","","","","","","","","","","","","","",""
"d3-instructions","56","312849","0.0-56.0","395","753","22","Female","true","false","true","false","""event"",""trial"",""time""
""fullscreenenter"",""5"",""13653""
","
","
","""event"",""trial"",""time""
""fullscreenenter"",""5"",""13653""
","
","","","","","","","","","","","","","","","","","","","","","",""
"d3-instructions","57","317039","0.0-57.0","395","753","22","Female","true","false","true","false","""event"",""trial"",""time""
""fullscreenenter"",""5"",""13653""
","
","
","""event"",""trial"",""time""
""fullscreenenter"",""5"",""13653""
","
","","","","","","","","","","","","","","","","","","","","","",""
"d3-instructions","58","321563","0.0-58.0","395","753","22","Female","true","false","true","false","""event"",""trial"",""time""
""fullscreenenter"",""5"",""13653""
","
","
","""event"",""trial"",""time""
""fullscreenenter"",""5"",""13653""
","
","","","","","","","","","","","","","","","","","","","","","",""
"d3-instructions","59","324628","0.0-59.0","395","753","22","Female","true","false","true","false","""event"",""trial"",""time""
""fullscreenenter"",""5"",""13653""
","
","
","""event"",""trial"",""time""
""fullscreenenter"",""5"",""13653""
","
","","","","","","","","","","","","","","","","","","","","","",""
"d3-instructions","60","327826","0.0-60.0","395","753","22","Female","true","false","true","false","""event"",""trial"",""time""
""fullscreenenter"",""5"",""13653""
","
","
","""event"",""trial"",""time""
""fullscreenenter"",""5"",""13653""
","
","","","","","","","","","","","","","","","","","","","","","",""
"d3-animate-choice","61","330766","0.0-61.0-0.0","395","753","22","Female","true","false","true","false","""event"",""trial"",""time""
""fullscreenenter"",""5"",""13653""
","
","
","""event"",""trial"",""time""
""fullscreenenter"",""5"",""13653""
","
","922.7000000476837","","49","","","3000","1","","","images/earth.jpg","images/tutrocket2","images/tutrocket1","null","images/tutrocket1","","1","practice","null","1","","",""
"d3-animate-choice","62","333443","0.0-61.0-1.0","395","753","22","Female","true","false","true","false","""event"",""trial"",""time""
""fullscreenenter"",""5"",""13653""
","
","
","""event"",""trial"",""time""
""fullscreenenter"",""5"",""13653""
","
","658","","49","","","3000","1","","","images/tutgreenplanet.jpg","images/tutalien2","images/tutalien1","images/tutrocket1","images/tutalien1","images/nothing.png","2","practice","false","1","rare","0","2022-02-15 00:36:02.081"
"two-step-fixation","63","334456","0.0-61.0-2.0","395","753","22","Female","true","false","true","false","""event"",""trial"",""time""
""fullscreenenter"",""5"",""13653""
","
","
","""event"",""trial"",""time""
""fullscreenenter"",""5"",""13653""
","
","","images/earth.jpg","","","","","","","","","","","","","","fixation","","","","","",""
"d3-animate-choice","64","336843","0.0-61.0-0.1","395","753","22","Female","true","false","true","false","""event"",""trial"",""time""
""fullscreenenter"",""5"",""13653""
","
","
","""event"",""trial"",""time""
""fullscreenenter"",""5"",""13653""
","
","383","","48","","","3000","1","","","images/earth.jpg","images/tutrocket2","images/tutrocket1","null","images/tutrocket2","","1","practice","null","2","","",""
"d3-animate-choice","65","339339","0.0-61.0-1.1","395","753","22","Female","true","false","true","false","""event"",""trial"",""time""
""fullscreenenter"",""5"",""13653""
","
","
","""event"",""trial"",""time""
""fullscreenenter"",""5"",""13653""
","
","481.39999985694885","","49","","","3000","1","","","images/tutgreenplanet.jpg","images/tutalien2","images/tutalien1","images/tutrocket2","images/tutalien1","images/nothing.png","2","practice","true","1","common","0","2022-02-15 00:36:07.976"
"two-step-fixation","66","340343","0.0-61.0-2.1","395","753","22","Female","true","false","true","false","""event"",""trial"",""time""
""fullscreenenter"",""5"",""13653""
","
","
","""event"",""trial"",""time""
""fullscreenenter"",""5"",""13653""
","
","","images/earth.jpg","","","","","","","","","","","","","","fixation","","","","","",""
"d3-animate-choice","67","342741","0.0-61.0-0.2","395","753","22","Female","true","false","true","false","""event"",""trial"",""time""
""fullscreenenter"",""5"",""13653""
","
","
","""event"",""trial"",""time""
""fullscreenenter"",""5"",""13653""
","
","390.10000014305115","","48","","","3000","1","","","images/earth.jpg","images/tutrocket2","images/tutrocket1","null","images/tutrocket2","","1","practice","null","2","","",""
"d3-animate-choice","68","345088","0.0-61.0-1.2","395","753","22","Female","true","false","true","false","""event"",""trial"",""time""
""fullscreenenter"",""5"",""13653""
","
","
","""event"",""trial"",""time""
""fullscreenenter"",""5"",""13653""
","
","342.59999990463257","","48","","","3000","1","","","images/tutgreenplanet.jpg","images/tutalien2","images/tutalien1","images/tutrocket2","images/tutalien2","images/t.png","2","practice","true","2","common","1","2022-02-15 00:36:13.725"
"two-step-fixation","69","346097","0.0-61.0-2.2","395","753","22","Female","true","false","true","false","""event"",""trial"",""time""
""fullscreenenter"",""5"",""13653""
","
","
","""event"",""trial"",""time""
""fullscreenenter"",""5"",""13653""
","
","","images/earth.jpg","","","","","","","","","","","","","","fixation","","","","","",""
"d3-animate-choice","70","348504","0.0-61.0-0.3","395","753","22","Female","true","false","true","false","""event"",""trial"",""time""
""fullscreenenter"",""5"",""13653""
","
","
","""event"",""trial"",""time""
""fullscreenenter"",""5"",""13653""
","
","401.89999985694885","","48","","","3000","1","","","images/earth.jpg","images/tutrocket2","images/tutrocket1","null","images/tutrocket2","","1","practice","null","2","","",""
"d3-animate-choice","71","350883","0.0-61.0-1.3","395","753","22","Female","true","false","true","false","""event"",""trial"",""time""
""fullscreenenter"",""5"",""13653""
","
","
","""event"",""trial"",""time""
""fullscreenenter"",""5"",""13653""
","
","370.10000014305115","","48","","","3000","1","","","images/tutgreenplanet.jpg","images/tutalien2","images/tutalien1","images/tutrocket2","images/tutalien2","images/t.png","2","practice","true","2","common","1","2022-02-15 00:36:19.520"
"two-step-fixation","72","351894","0.0-61.0-2.3","395","753","22","Female","true","false","true","false","""event"",""trial"",""time""
""fullscreenenter"",""5"",""13653""
","
","
","""event"",""trial"",""time""
""fullscreenenter"",""5"",""13653""
","
","","images/earth.jpg","","","","","","","","","","","","","","fixation","","","","","",""
"d3-animate-choice","73","354308","0.0-61.0-0.4","395","753","22","Female","true","false","true","false","""event"",""trial"",""time""
""fullscreenenter"",""5"",""13653""
","
","
","""event"",""trial"",""time""
""fullscreenenter"",""5"",""13653""
","
","406.7999999523163","","48","","","3000","1","","","images/earth.jpg","images/tutrocket2","images/tutrocket1","null","images/tutrocket2","","1","practice","null","2","","",""
"d3-animate-choice","74","356705","0.0-61.0-1.4","395","753","22","Female","true","false","true","false","""event"",""trial"",""time""
""fullscreenenter"",""5"",""13653""
","
","
","""event"",""trial"",""time""
""fullscreenenter"",""5"",""13653""
","
","380.59999990463257","","48","","","3000","1","","","images/tutgreenplanet.jpg","images/tutalien2","images/tutalien1","images/tutrocket2","images/tutalien2","images/nothing.png","2","practice","true","2","common","0","2022-02-15 00:36:25.342"
"two-step-fixation","75","357710","0.0-61.0-2.4","395","753","22","Female","true","false","true","false","""event"",""trial"",""time""
""fullscreenenter"",""5"",""13653""
","
","
","""event"",""trial"",""time""
""fullscreenenter"",""5"",""13653""
","
","","images/earth.jpg","","","","","","","","","","","","","","fixation","","","","","",""
"d3-animate-choice","76","359990","0.0-61.0-0.5","395","753","22","Female","true","false","true","false","""event"",""trial"",""time""
""fullscreenenter"",""5"",""13653""
","
","
","""event"",""trial"",""time""
""fullscreenenter"",""5"",""13653""
","
","274.5","","48","","","3000","1","","","images/earth.jpg","images/tutrocket2","images/tutrocket1","null","images/tutrocket2","","1","practice","null","2","","",""
"d3-animate-choice","77","362385","0.0-61.0-1.5","395","753","22","Female","true","false","true","false","""event"",""trial"",""time""
""fullscreenenter"",""5"",""13653""
","
","
","""event"",""trial"",""time""
""fullscreenenter"",""5"",""13653""
","
","384.5","","48","","","3000","1","","","images/tutgreenplanet.jpg","images/tutalien2","images/tutalien1","images/tutrocket2","images/tutalien2","images/t.png","2","practice","true","2","common","1","2022-02-15 00:36:31.022"
"two-step-fixation","78","363393","0.0-61.0-2.5","395","753","22","Female","true","false","true","false","""event"",""trial"",""time""
""fullscreenenter"",""5"",""13653""
","
","
","""event"",""trial"",""time""
""fullscreenenter"",""5"",""13653""
","
","","images/earth.jpg","","","","","","","","","","","","","","fixation","","","","","",""
"d3-animate-choice","79","365640","0.0-61.0-0.6","395","753","22","Female","true","false","true","false","""event"",""trial"",""time""
""fullscreenenter"",""5"",""13653""
","
","
","""event"",""trial"",""time""
""fullscreenenter"",""5"",""13653""
","
","239.80000019073486","","48","","","3000","1","","","images/earth.jpg","images/tutrocket2","images/tutrocket1","null","images/tutrocket2","","1","practice","null","2","","",""
"d3-animate-choice","80","367977","0.0-61.0-1.6","395","753","22","Female","true","false","true","false","""event"",""trial"",""time""
""fullscreenenter"",""5"",""13653""
","
","
","""event"",""trial"",""time""
""fullscreenenter"",""5"",""13653""
","
","327","","48","","","3000","1","","","images/tutyellowplanet.jpg","images/tutalien4","images/tutalien3","images/tutrocket2","images/tutalien4","images/nothing.png","2","practice","false","2","rare","0","2022-02-15 00:36:36.614"
"two-step-fixation","81","368986","0.0-61.0-2.6","395","753","22","Female","true","false","true","false","""event"",""trial"",""time""
""fullscreenenter"",""5"",""13653""
","
","
","""event"",""trial"",""time""
""fullscreenenter"",""5"",""13653""
","
","","images/earth.jpg","","","","","","","","","","","","","","fixation","","","","","",""
"d3-animate-choice","82","371365","0.0-61.0-0.7","395","753","22","Female","true","false","true","false","""event"",""trial"",""time""
""fullscreenenter"",""5"",""13653""
","
","
","""event"",""trial"",""time""
""fullscreenenter"",""5"",""13653""
","
","371.59999990463257","","48","","","3000","1","","","images/earth.jpg","images/tutrocket2","images/tutrocket1","null","images/tutrocket2","","1","practice","null","2","","",""
"d3-animate-choice","83","373718","0.0-61.0-1.7","395","753","22","Female","true","false","true","false","""event"",""trial"",""time""
""fullscreenenter"",""5"",""13653""
","
","
","""event"",""trial"",""time""
""fullscreenenter"",""5"",""13653""
","
","347.2999999523163","","48","","","3000","1","","","images/tutgreenplanet.jpg","images/tutalien2","images/tutalien1","images/tutrocket2","images/tutalien2","images/nothing.png","2","practice","true","2","common","0","2022-02-15 00:36:42.356"
"two-step-fixation","84","374737","0.0-61.0-2.7","395","753","22","Female","true","false","true","false","""event"",""trial"",""time""
""fullscreenenter"",""5"",""13653""
","
","
","""event"",""trial"",""time""
""fullscreenenter"",""5"",""13653""
","
","","images/earth.jpg","","","","","","","","","","","","","","fixation","","","","","",""
"d3-animate-choice","85","376978","0.0-61.0-0.8","395","753","22","Female","true","false","true","false","""event"",""trial"",""time""
""fullscreenenter"",""5"",""13653""
","
","
","""event"",""trial"",""time""
""fullscreenenter"",""5"",""13653""
","
","230.20000004768372","","48","","","3000","1","","","images/earth.jpg","images/tutrocket2","images/tutrocket1","null","images/tutrocket2","","1","practice","null","2","","",""
"d3-animate-choice","86","379369","0.0-61.0-1.8","395","753","22","Female","true","false","true","false","""event"",""trial"",""time""
""fullscreenenter"",""5"",""13653""
","
","
","""event"",""trial"",""time""
""fullscreenenter"",""5"",""13653""
","
","384.09999990463257","","48","","","3000","1","","","images/tutgreenplanet.jpg","images/tutalien2","images/tutalien1","images/tutrocket2","images/tutalien2","images/t.png","2","practice","true","2","common","1","2022-02-15 00:36:48.006"
"two-step-fixation","87","380381","0.0-61.0-2.8","395","753","22","Female","true","false","true","false","""event"",""trial"",""time""
""fullscreenenter"",""5"",""13653""
","
","
","""event"",""trial"",""time""
""fullscreenenter"",""5"",""13653""
","
","","images/earth.jpg","","","","","","","","","","","","","","fixation","","","","","",""
"d3-animate-choice","88","382679","0.0-61.0-0.9","395","753","22","Female","true","false","true","false","""event"",""trial"",""time""
""fullscreenenter"",""5"",""13653""
","
","
","""event"",""trial"",""time""
""fullscreenenter"",""5"",""13653""
","
","290.89999985694885","","48","","","3000","1","","","images/earth.jpg","images/tutrocket2","images/tutrocket1","null","images/tutrocket2","","1","practice","null","2","","",""
"d3-animate-choice","89","385156","0.0-61.0-1.9","395","753","22","Female","true","false","true","false","""event"",""trial"",""time""
""fullscreenenter"",""5"",""13653""
","
","
","""event"",""trial"",""time""
""fullscreenenter"",""5"",""13653""
","
","472.10000014305115","","49","","","3000","1","","","images/tutyellowplanet.jpg","images/tutalien4","images/tutalien3","images/tutrocket2","images/tutalien3","images/nothing.png","2","practice","false","1","rare","0","2022-02-15 00:36:53.793"
"two-step-fixation","90","386164","0.0-61.0-2.9","395","753","22","Female","true","false","true","false","""event"",""trial"",""time""
""fullscreenenter"",""5"",""13653""
","
","
","""event"",""trial"",""time""
""fullscreenenter"",""5"",""13653""
","
","","images/earth.jpg","","","","","","","","","","","","","","fixation","","","","","",""
"d3-animate-choice","91","388428","0.0-61.0-0.10","395","753","22","Female","true","false","true","false","""event"",""trial"",""time""
""fullscreenenter"",""5"",""13653""
","
","
","""event"",""trial"",""time""
""fullscreenenter"",""5"",""13653""
","
","254.60000014305115","","48","","","3000","1","","","images/earth.jpg","images/tutrocket2","images/tutrocket1","null","images/tutrocket2","","1","practice","null","2","","",""
"d3-animate-choice","92","390847","0.0-61.0-1.10","395","753","22","Female","true","false","true","false","""event"",""trial"",""time""
""fullscreenenter"",""5"",""13653""
","
","
","""event"",""trial"",""time""
""fullscreenenter"",""5"",""13653""
","
","407.90000009536743","","48","","","3000","1","","","images/tutgreenplanet.jpg","images/tutalien2","images/tutalien1","images/tutrocket2","images/tutalien2","images/nothing.png","2","practice","true","2","common","0","2022-02-15 00:36:59.485"
"two-step-fixation","93","391850","0.0-61.0-2.10","395","753","22","Female","true","false","true","false","""event"",""trial"",""time""
""fullscreenenter"",""5"",""13653""
","
","
","""event"",""trial"",""time""
""fullscreenenter"",""5"",""13653""
","
","","images/earth.jpg","","","","","","","","","","","","","","fixation","","","","","",""
"d3-animate-choice","94","394150","0.0-61.0-0.11","395","753","22","Female","true","false","true","false","""event"",""trial"",""time""
""fullscreenenter"",""5"",""13653""
","
","
","""event"",""trial"",""time""
""fullscreenenter"",""5"",""13653""
","
","289.2999999523163","","49","","","3000","1","","","images/earth.jpg","images/tutrocket2","images/tutrocket1","null","images/tutrocket1","","1","practice","null","1","","",""
"d3-animate-choice","95","396454","0.0-61.0-1.11","395","753","22","Female","true","false","true","false","""event"",""trial"",""time""
""fullscreenenter"",""5"",""13653""
","
","
","""event"",""trial"",""time""
""fullscreenenter"",""5"",""13653""
","
","299.7000000476837","","49","","","3000","1","","","images/tutyellowplanet.jpg","images/tutalien4","images/tutalien3","images/tutrocket1","images/tutalien3","images/nothing.png","2","practice","true","1","common","0","2022-02-15 00:37:05.091"
"two-step-fixation","96","397462","0.0-61.0-2.11","395","753","22","Female","true","false","true","false","""event"",""trial"",""time""
""fullscreenenter"",""5"",""13653""
","
","
","""event"",""trial"",""time""
""fullscreenenter"",""5"",""13653""
","
","","images/earth.jpg","","","","","","","","","","","","","","fixation","","","","","",""
"d3-animate-choice","97","399736","0.0-61.0-0.12","395","753","22","Female","true","false","true","false","""event"",""trial"",""time""
""fullscreenenter"",""5"",""13653""
","
","
","""event"",""trial"",""time""
""fullscreenenter"",""5"",""13653""
","
","270.2999999523163","","48","","","3000","1","","","images/earth.jpg","images/tutrocket2","images/tutrocket1","null","images/tutrocket2","","1","practice","null","2","","",""
"d3-animate-choice","98","402127","0.0-61.0-1.12","395","753","22","Female","true","false","true","false","""event"",""trial"",""time""
""fullscreenenter"",""5"",""13653""
","
","
","""event"",""trial"",""time""
""fullscreenenter"",""5"",""13653""
","
","383.7000000476837","","49","","","3000","1","","","images/tutyellowplanet.jpg","images/tutalien4","images/tutalien3","images/tutrocket2","images/tutalien3","images/nothing.png","2","practice","false","1","rare","0","2022-02-15 00:37:10.764"
"two-step-fixation","99","403131","0.0-61.0-2.12","395","753","22","Female","true","false","true","false","""event"",""trial"",""time""
""fullscreenenter"",""5"",""13653""
","
","
","""event"",""trial"",""time""
""fullscreenenter"",""5"",""13653""
","
","","images/earth.jpg","","","","","","","","","","","","","","fixation","","","","","",""
"d3-animate-choice","100","405434","0.0-61.0-0.13","395","753","22","Female","true","false","true","false","""event"",""trial"",""time""
""fullscreenenter"",""5"",""13653""
","
","
","""event"",""trial"",""time""
""fullscreenenter"",""5"",""13653""
","
","297.7000000476837","","49","","","3000","1","","","images/earth.jpg","images/tutrocket2","images/tutrocket1","null","images/tutrocket1","","1","practice","null","1","","",""
"d3-animate-choice","101","407767","0.0-61.0-1.13","395","753","22","Female","true","false","true","false","""event"",""trial"",""time""
""fullscreenenter"",""5"",""13653""
","
","
","""event"",""trial"",""time""
""fullscreenenter"",""5"",""13653""
","
","328.69999980926514","","48","","","3000","1","","","images/tutyellowplanet.jpg","images/tutalien4","images/tutalien3","images/tutrocket1","images/tutalien4","images/t.png","2","practice","true","2","common","1","2022-02-15 00:37:16.404"
"two-step-fixation","102","408772","0.0-61.0-2.13","395","753","22","Female","true","false","true","false","""event"",""trial"",""time""
""fullscreenenter"",""5"",""13653""
","
","
","""event"",""trial"",""time""
""fullscreenenter"",""5"",""13653""
","
","","images/earth.jpg","","","","","","","","","","","","","","fixation","","","","","",""
"d3-animate-choice","103","411037","0.0-61.0-0.14","395","753","22","Female","true","false","true","false","""event"",""trial"",""time""
""fullscreenenter"",""5"",""13653""
","
","
","""event"",""trial"",""time""
""fullscreenenter"",""5"",""13653""
","
","248.5","","49","","","3000","1","","","images/earth.jpg","images/tutrocket2","images/tutrocket1","null","images/tutrocket1","","1","practice","null","1","","",""
"d3-animate-choice","104","413439","0.0-61.0-1.14","395","753","22","Female","true","false","true","false","""event"",""trial"",""time""
""fullscreenenter"",""5"",""13653""
","
","
","""event"",""trial"",""time""
""fullscreenenter"",""5"",""13653""
","
","391.5","","48","","","3000","1","","","images/tutyellowplanet.jpg","images/tutalien4","images/tutalien3","images/tutrocket1","images/tutalien4","images/nothing.png","2","practice","true","2","common","0","2022-02-15 00:37:22.076"
"two-step-fixation","105","414447","0.0-61.0-2.14","395","753","22","Female","true","false","true","false","""event"",""trial"",""time""
""fullscreenenter"",""5"",""13653""
","
","
","""event"",""trial"",""time""
""fullscreenenter"",""5"",""13653""
","
","","images/earth.jpg","","","","","","","","","","","","","","fixation","","","","","",""
"d3-animate-choice","106","416837","0.0-61.0-0.15","395","753","22","Female","true","false","true","false","""event"",""trial"",""time""
""fullscreenenter"",""5"",""13653""
","
","
","""event"",""trial"",""time""
""fullscreenenter"",""5"",""13653""
","
","379.59999990463257","","49","","","3000","1","","","images/earth.jpg","images/tutrocket2","images/tutrocket1","null","images/tutrocket1","","1","practice","null","1","","",""
"d3-animate-choice","107","419156","0.0-61.0-1.15","395","753","22","Female","true","false","true","false","""event"",""trial"",""time""
""fullscreenenter"",""5"",""13653""
","
","
","""event"",""trial"",""time""
""fullscreenenter"",""5"",""13653""
","
","311.7000000476837","","48","","","3000","1","","","images/tutyellowplanet.jpg","images/tutalien4","images/tutalien3","images/tutrocket1","images/tutalien4","images/t.png","2","practice","true","2","common","1","2022-02-15 00:37:27.793"
"two-step-fixation","108","420160","0.0-61.0-2.15","395","753","22","Female","true","false","true","false","""event"",""trial"",""time""
""fullscreenenter"",""5"",""13653""
","
","
","""event"",""trial"",""time""
""fullscreenenter"",""5"",""13653""
","
","","images/earth.jpg","","","","","","","","","","","","","","fixation","","","","","",""
"d3-animate-choice","109","422437","0.0-61.0-0.16","395","753","22","Female","true","false","true","false","""event"",""trial"",""time""
""fullscreenenter"",""5"",""13653""
","
","
","""event"",""trial"",""time""
""fullscreenenter"",""5"",""13653""
","
","264.09999990463257","","49","","","3000","1","","","images/earth.jpg","images/tutrocket2","images/tutrocket1","null","images/tutrocket1","","1","practice","null","1","","",""
"d3-animate-choice","110","424793","0.0-61.0-1.16","395","753","22","Female","true","false","true","false","""event"",""trial"",""time""
""fullscreenenter"",""5"",""13653""
","
","
","""event"",""trial"",""time""
""fullscreenenter"",""5"",""13653""
","
","349.10000014305115","","48","","","3000","1","","","images/tutgreenplanet.jpg","images/tutalien2","images/tutalien1","images/tutrocket1","images/tutalien2","images/nothing.png","2","practice","false","2","rare","0","2022-02-15 00:37:33.430"
"two-step-fixation","111","425801","0.0-61.0-2.16","395","753","22","Female","true","false","true","false","""event"",""trial"",""time""
""fullscreenenter"",""5"",""13653""
","
","
","""event"",""trial"",""time""
""fullscreenenter"",""5"",""13653""
","
","","images/earth.jpg","","","","","","","","","","","","","","fixation","","","","","",""
"d3-animate-choice","112","428097","0.0-61.0-0.17","395","753","22","Female","true","false","true","false","""event"",""trial"",""time""
""fullscreenenter"",""5"",""13653""
","
","
","""event"",""trial"",""time""
""fullscreenenter"",""5"",""13653""
","
","288.10000014305115","","48","","","3000","1","","","images/earth.jpg","images/tutrocket2","images/tutrocket1","null","images/tutrocket2","","1","practice","null","2","","",""
"d3-animate-choice","113","430267","0.0-61.0-1.17","395","753","22","Female","true","false","true","false","""event"",""trial"",""time""
""fullscreenenter"",""5"",""13653""
","
","
","""event"",""trial"",""time""
""fullscreenenter"",""5"",""13653""
","
","164.60000014305115","","48","","","3000","1","","","images/tutgreenplanet.jpg","images/tutalien2","images/tutalien1","images/tutrocket2","images/tutalien2","images/nothing.png","2","practice","true","2","common","0","2022-02-15 00:37:38.905"
"two-step-fixation","114","431277","0.0-61.0-2.17","395","753","22","Female","true","false","true","false","""event"",""trial"",""time""
""fullscreenenter"",""5"",""13653""
","
","
","""event"",""trial"",""time""
""fullscreenenter"",""5"",""13653""
","
","","images/earth.jpg","","","","","","","","","","","","","","fixation","","","","","",""
"d3-animate-choice","115","433577","0.0-61.0-0.18","395","753","22","Female","true","false","true","false","""event"",""trial"",""time""
""fullscreenenter"",""5"",""13653""
","
","
","""event"",""trial"",""time""
""fullscreenenter"",""5"",""13653""
","
","289.40000009536743","","49","","","3000","1","","","images/earth.jpg","images/tutrocket2","images/tutrocket1","null","images/tutrocket1","","1","practice","null","1","","",""
"d3-animate-choice","116","435931","0.0-61.0-1.18","395","753","22","Female","true","false","true","false","""event"",""trial"",""time""
""fullscreenenter"",""5"",""13653""
","
","
","""event"",""trial"",""time""
""fullscreenenter"",""5"",""13653""
","
","343.2999999523163","","49","","","3000","1","","","images/tutyellowplanet.jpg","images/tutalien4","images/tutalien3","images/tutrocket1","images/tutalien3","images/nothing.png","2","practice","true","1","common","0","2022-02-15 00:37:44.568"
"two-step-fixation","117","436937","0.0-61.0-2.18","395","753","22","Female","true","false","true","false","""event"",""trial"",""time""
""fullscreenenter"",""5"",""13653""
","
","
","""event"",""trial"",""time""
""fullscreenenter"",""5"",""13653""
","
","","images/earth.jpg","","","","","","","","","","","","","","fixation","","","","","",""
"d3-animate-choice","118","439134","0.0-61.0-0.19","395","753","22","Female","true","false","true","false","""event"",""trial"",""time""
""fullscreenenter"",""5"",""13653""
","
","
","""event"",""trial"",""time""
""fullscreenenter"",""5"",""13653""
","
","188","","49","","","3000","1","","","images/earth.jpg","images/tutrocket2","images/tutrocket1","null","images/tutrocket1","","1","practice","null","1","","",""
"d3-animate-choice","119","441485","0.0-61.0-1.19","395","753","22","Female","true","false","true","false","""event"",""trial"",""time""
""fullscreenenter"",""5"",""13653""
","
","
","""event"",""trial"",""time""
""fullscreenenter"",""5"",""13653""
","
","345.09999990463257","","48","","","3000","1","","","images/tutyellowplanet.jpg","images/tutalien4","images/tutalien3","images/tutrocket1","images/tutalien4","images/t.png","2","practice","true","2","common","1","2022-02-15 00:37:50.122"
"two-step-fixation","120","442490","0.0-61.0-2.19","395","753","22","Female","true","false","true","false","""event"",""trial"",""time""
""fullscreenenter"",""5"",""13653""
","
","
","""event"",""trial"",""time""
""fullscreenenter"",""5"",""13653""
","
","","images/earth.jpg","","","","","","","","","","","","","","fixation","","","","","",""
"d3-instructions","121","448401","0.0-62.0","395","753","22","Female","true","false","true","false","""event"",""trial"",""time""
""fullscreenenter"",""5"",""13653""
","
","
","""event"",""trial"",""time""
""fullscreenenter"",""5"",""13653""
","
","","","","","","","","","","","","","","","","","","","","","",""
"audio-keyboard-response","122","451218","0.0-63.0","395","753","22","Female","true","false","true","false","""event"",""trial"",""time""
""fullscreenenter"",""5"",""13653""
","
","
","""event"",""trial"",""time""
""fullscreenenter"",""5"",""13653""
","
","2816","audio/instructions/treasure_feedback.wav","32","","","","","","","","","","","","","","","","","","",""
"d3-instructions","123","470813","0.0-64.0","395","753","22","Female","true","false","true","false","""event"",""trial"",""time""
""fullscreenenter"",""5"",""13653""
","
","
","""event"",""trial"",""time""
""fullscreenenter"",""5"",""13653""
","
","","","","","","","","","","","","","","","","","","","","","",""
"d3-instructions","124","484379","0.0-65.0","395","753","22","Female","true","false","true","false","""event"",""trial"",""time""
""fullscreenenter"",""5"",""13653""
","
","
","""event"",""trial"",""time""
""fullscreenenter"",""5"",""13653""
","
","","","","","","","","","","","","","","","","","","","","","",""
"d3-instructions","125","499533","0.0-66.0","395","753","22","Female","true","false","true","false","""event"",""trial"",""time""
""fullscreenenter"",""5"",""13653""
","
","
","""event"",""trial"",""time""
""fullscreenenter"",""5"",""13653""
","
","","","","","","","","","","","","","","","","","","","","","",""
"d3-instructions","126","507703","0.0-67.0","395","753","22","Female","true","false","true","false","""event"",""trial"",""time""
""fullscreenenter"",""5"",""13653""
","
","
","""event"",""trial"",""time""
""fullscreenenter"",""5"",""13653""
","
","","","","","","","","","","","","","","","","","","","","","",""
"d3-instructions","127","511398","0.0-68.0","395","753","22","Female","true","false","true","false","""event"",""trial"",""time""
""fullscreenenter"",""5"",""13653""
","
","
","""event"",""trial"",""time""
""fullscreenenter"",""5"",""13653""
","
","","","","","","","","","","","","","","","","","","","","","",""
"instructions-quiz","128","515165","0.0-69.0","395","753","22","Female","true","false","true","false","""event"",""trial"",""time""
""fullscreenenter"",""5"",""13653""
","
","
","""event"",""trial"",""time""
""fullscreenenter"",""5"",""13653""
","
","3763.600000143051","audio/quiz/Q1_Prompt.wav","","1","","","","","","","","","","","","","","","","","",""
"audio-keyboard-response","129","517392","0.0-70.0","395","753","22","Female","true","false","true","false","""event"",""trial"",""time""
""fullscreenenter"",""5"",""13653""
","
","
","""event"",""trial"",""time""
""fullscreenenter"",""5"",""13653""
","
","2229","audio/quiz/Q1_Correct.wav","32","","","","","","","","","","","","","","","","","","",""
"instructions-quiz","130","521450","0.0-71.0","395","753","22","Female","true","false","true","false","""event"",""trial"",""time""
""fullscreenenter"",""5"",""13653""
","
","
","""event"",""trial"",""time""
""fullscreenenter"",""5"",""13653""
","
","4055.5","audio/quiz/Q2_Prompt.wav","","0","","","","","","","","","","","","","","","","","",""
"audio-keyboard-response","131","522440","0.0-72.0","395","753","22","Female","true","false","true","false","""event"",""trial"",""time""
""fullscreenenter"",""5"",""13653""
","
","
","""event"",""trial"",""time""
""fullscreenenter"",""5"",""13653""
","
","992","audio/quiz/Q2_Correct.wav","32","","","","","","","","","","","","","","","","","","",""
"instructions-quiz","132","524553","0.0-73.0","395","753","22","Female","true","false","true","false","""event"",""trial"",""time""
""fullscreenenter"",""5"",""13653""
","
","
","""event"",""trial"",""time""
""fullscreenenter"",""5"",""13653""
","
","2111","audio/quiz/Q3_Prompt.wav","","1","","","","","","","","","","","","","","","","","",""
"audio-keyboard-response","133","525438","0.0-74.0","395","753","22","Female","true","false","true","false","""event"",""trial"",""time""
""fullscreenenter"",""5"",""13653""
","
","
","""event"",""trial"",""time""
""fullscreenenter"",""5"",""13653""
","
","885","audio/quiz/Q3_Correct.wav","32","","","","","","","","","","","","","","","","","","",""
"d3-instructions","134","532061","0.0-75.0","395","753","22","Female","true","false","true","false","""event"",""trial"",""time""
""fullscreenenter"",""5"",""13653""
","
","
","""event"",""trial"",""time""
""fullscreenenter"",""5"",""13653""
","
","","","","","","","","","","","","","","","","","","","","","",""
"d3-animate-choice","135","535158","0.0-76.0-0.0","395","753","22","Female","true","false","true","false","""event"",""trial"",""time""
""fullscreenenter"",""5"",""13653""
","
","
","""event"",""trial"",""time""
""fullscreenenter"",""5"",""13653""
","
","1090.5999999046326","","49","","","3000","1","","","images/earth.jpg","images/rocket2","images/rocket1","null","images/rocket1","","1","real","null","1","","",""
"d3-animate-choice","136","537544","0.0-76.0-1.0","395","753","22","Female","true","false","true","false","""event"",""trial"",""time""
""fullscreenenter"",""5"",""13653""
","
","
","""event"",""trial"",""time""
""fullscreenenter"",""5"",""13653""
","
","377.89999985694885","","49","","","3000","1","","","images/purpleplanet.jpg","images/alien4","images/alien3","images/rocket1","images/alien3","images/nothing.png","2","real","true","1","common","0","2022-02-15 00:39:26.181"
"two-step-fixation","137","538552","0.0-76.0-2.0","395","753","22","Female","true","false","true","false","""event"",""trial"",""time""
""fullscreenenter"",""5"",""13653""
","
","
","""event"",""trial"",""time""
""fullscreenenter"",""5"",""13653""
","
","","images/earth.jpg","","","","","","","","","","","","","","fixation","","","","","",""
"d3-animate-choice","138","540917","0.0-76.0-0.1","395","753","22","Female","true","false","true","false","""event"",""trial"",""time""
""fullscreenenter"",""5"",""13653""
","
","
","""event"",""trial"",""time""
""fullscreenenter"",""5"",""13653""
","
","358.89999985694885","","49","","","3000","1","","","images/earth.jpg","images/rocket2","images/rocket1","null","images/rocket1","","1","real","null","1","","",""
"d3-animate-choice","139","543267","0.0-76.0-1.1","395","753","22","Female","true","false","true","false","""event"",""trial"",""time""
""fullscreenenter"",""5"",""13653""
","
","
","""event"",""trial"",""time""
""fullscreenenter"",""5"",""13653""
","
","342.7999999523163","","48","","","3000","1","","","images/purpleplanet.jpg","images/alien4","images/alien3","images/rocket1","images/alien4","images/t.png","2","real","true","2","common","1","2022-02-15 00:39:31.904"
"two-step-fixation","140","544272","0.0-76.0-2.1","395","753","22","Female","true","false","true","false","""event"",""trial"",""time""
""fullscreenenter"",""5"",""13653""
","
","
","""event"",""trial"",""time""
""fullscreenenter"",""5"",""13653""
","
","","images/earth.jpg","","","","","","","","","","","","","","fixation","","","","","",""
"d3-animate-choice","141","546525","0.0-76.0-0.2","395","753","22","Female","true","false","true","false","""event"",""trial"",""time""
""fullscreenenter"",""5"",""13653""
","
","
","""event"",""trial"",""time""
""fullscreenenter"",""5"",""13653""
","
","242.70000004768372","","49","","","3000","1","","","images/earth.jpg","images/rocket2","images/rocket1","null","images/rocket1","","1","real","null","1","","",""
"d3-animate-choice","142","548768","0.0-76.0-1.2","395","753","22","Female","true","false","true","false","""event"",""trial"",""time""
""fullscreenenter"",""5"",""13653""
","
","
","""event"",""trial"",""time""
""fullscreenenter"",""5"",""13653""
","
","236.40000009536743","","48","","","3000","1","","","images/purpleplanet.jpg","images/alien4","images/alien3","images/rocket1","images/alien4","images/t.png","2","real","true","2","common","1","2022-02-15 00:39:37.405"
"two-step-fixation","143","549784","0.0-76.0-2.2","395","753","22","Female","true","false","true","false","""event"",""trial"",""time""
""fullscreenenter"",""5"",""13653""
","
","
","""event"",""trial"",""time""
""fullscreenenter"",""5"",""13653""
","
","","images/earth.jpg","","","","","","","","","","","","","","fixation","","","","","",""
"d3-animate-choice","144","552007","0.0-76.0-0.3","395","753","22","Female","true","false","true","false","""event"",""trial"",""time""
""fullscreenenter"",""5"",""13653""
","
","
","""event"",""trial"",""time""
""fullscreenenter"",""5"",""13653""
","
","210.59999990463257","","49","","","3000","1","","","images/earth.jpg","images/rocket2","images/rocket1","null","images/rocket1","","1","real","null","1","","",""
"d3-animate-choice","145","554388","0.0-76.0-1.3","395","753","22","Female","true","false","true","false","""event"",""trial"",""time""
""fullscreenenter"",""5"",""13653""
","
","
","""event"",""trial"",""time""
""fullscreenenter"",""5"",""13653""
","
","374.7999999523163","","48","","","3000","1","","","images/purpleplanet.jpg","images/alien4","images/alien3","images/rocket1","images/alien4","images/t.png","2","real","true","2","common","1","2022-02-15 00:39:43.025"
"two-step-fixation","146","555395","0.0-76.0-2.3","395","753","22","Female","true","false","true","false","""event"",""trial"",""time""
""fullscreenenter"",""5"",""13653""
","
","
","""event"",""trial"",""time""
""fullscreenenter"",""5"",""13653""
","
","","images/earth.jpg","","","","","","","","","","","","","","fixation","","","","","",""
"d3-animate-choice","147","557653","0.0-76.0-0.4","395","753","22","Female","true","false","true","false","""event"",""trial"",""time""
""fullscreenenter"",""5"",""13653""
","
","
","""event"",""trial"",""time""
""fullscreenenter"",""5"",""13653""
","
","247.39999985694885","","49","","","3000","1","","","images/earth.jpg","images/rocket2","images/rocket1","null","images/rocket1","","1","real","null","1","","",""
"d3-animate-choice","148","560015","0.0-76.0-1.4","395","753","22","Female","true","false","true","false","""event"",""trial"",""time""
""fullscreenenter"",""5"",""13653""
","
","
","""event"",""trial"",""time""
""fullscreenenter"",""5"",""13653""
","
","342.40000009536743","","48","","","3000","1","","","images/purpleplanet.jpg","images/alien4","images/alien3","images/rocket1","images/alien4","images/t.png","2","real","true","2","common","1","2022-02-15 00:39:48.652"
"two-step-fixation","149","561032","0.0-76.0-2.4","395","753","22","Female","true","false","true","false","""event"",""trial"",""time""
""fullscreenenter"",""5"",""13653""
","
","
","""event"",""trial"",""time""
""fullscreenenter"",""5"",""13653""
","
","","images/earth.jpg","","","","","","","","","","","","","","fixation","","","","","",""
"d3-animate-choice","150","563297","0.0-76.0-0.5","395","753","22","Female","true","false","true","false","""event"",""trial"",""time""
""fullscreenenter"",""5"",""13653""
","
","
","""event"",""trial"",""time""
""fullscreenenter"",""5"",""13653""
","
","255.90000009536743","","49","","","3000","1","","","images/earth.jpg","images/rocket2","images/rocket1","null","images/rocket1","","1","real","null","1","","",""
"d3-animate-choice","151","565656","0.0-76.0-1.5","395","753","22","Female","true","false","true","false","""event"",""trial"",""time""
""fullscreenenter"",""5"",""13653""
","
","
","""event"",""trial"",""time""
""fullscreenenter"",""5"",""13653""
","
","354.59999990463257","","48","","","3000","1","","","images/purpleplanet.jpg","images/alien4","images/alien3","images/rocket1","images/alien4","images/t.png","2","real","true","2","common","1","2022-02-15 00:39:54.294"
"two-step-fixation","152","566660","0.0-76.0-2.5","395","753","22","Female","true","false","true","false","""event"",""trial"",""time""
""fullscreenenter"",""5"",""13653""
","
","
","""event"",""trial"",""time""
""fullscreenenter"",""5"",""13653""
","
","","images/earth.jpg","","","","","","","","","","","","","","fixation","","","","","",""
"d3-animate-choice","153","568924","0.0-76.0-0.6","395","753","22","Female","true","false","true","false","""event"",""trial"",""time""
""fullscreenenter"",""5"",""13653""
","
","
","""event"",""trial"",""time""
""fullscreenenter"",""5"",""13653""
","
","255.40000009536743","","49","","","3000","1","","","images/earth.jpg","images/rocket2","images/rocket1","null","images/rocket1","","1","real","null","1","","",""
"d3-animate-choice","154","571382","0.0-76.0-1.6","395","753","22","Female","true","false","true","false","""event"",""trial"",""time""
""fullscreenenter"",""5"",""13653""
","
","
","""event"",""trial"",""time""
""fullscreenenter"",""5"",""13653""
","
","448","","48","","","3000","1","","","images/redplanet1.jpg","images/alien2","images/alien1","images/rocket1","images/alien2","images/nothing.png","2","real","false","2","rare","0","2022-02-15 00:40:00.020"
"two-step-fixation","155","572389","0.0-76.0-2.6","395","753","22","Female","true","false","true","false","""event"",""trial"",""time""
""fullscreenenter"",""5"",""13653""
","
","
","""event"",""trial"",""time""
""fullscreenenter"",""5"",""13653""
","
","","images/earth.jpg","","","","","","","","","","","","","","fixation","","","","","",""
"d3-animate-choice","156","574801","0.0-76.0-0.7","395","753","22","Female","true","false","true","false","""event"",""trial"",""time""
""fullscreenenter"",""5"",""13653""
","
","
","""event"",""trial"",""time""
""fullscreenenter"",""5"",""13653""
","
","407.5","","49","","","3000","1","","","images/earth.jpg","images/rocket2","images/rocket1","null","images/rocket1","","1","real","null","1","","",""
"d3-animate-choice","157","577402","0.0-76.0-1.7","395","753","22","Female","true","false","true","false","""event"",""trial"",""time""
""fullscreenenter"",""5"",""13653""
","
","
","""event"",""trial"",""time""
""fullscreenenter"",""5"",""13653""
","
","598","","49","","","3000","1","","","images/redplanet1.jpg","images/alien2","images/alien1","images/rocket1","images/alien1","images/t.png","2","real","false","1","rare","1","2022-02-15 00:40:06.039"
"two-step-fixation","158","578408","0.0-76.0-2.7","395","753","22","Female","true","false","true","false","""event"",""trial"",""time""
""fullscreenenter"",""5"",""13653""
","
","
","""event"",""trial"",""time""
""fullscreenenter"",""5"",""13653""
","
","","images/earth.jpg","","","","","","","","","","","","","","fixation","","","","","",""
"d3-animate-choice","159","580683","0.0-76.0-0.8","395","753","22","Female","true","false","true","false","""event"",""trial"",""time""
""fullscreenenter"",""5"",""13653""
","
","
","""event"",""trial"",""time""
""fullscreenenter"",""5"",""13653""
","
","267.60000014305115","","49","","","3000","1","","","images/earth.jpg","images/rocket2","images/rocket1","null","images/rocket1","","1","real","null","1","","",""
"d3-animate-choice","160","583227","0.0-76.0-1.8","395","753","22","Female","true","false","true","false","""event"",""trial"",""time""
""fullscreenenter"",""5"",""13653""
","
","
","""event"",""trial"",""time""
""fullscreenenter"",""5"",""13653""
","
","536","","49","","","3000","1","","","images/redplanet1.jpg","images/alien2","images/alien1","images/rocket1","images/alien1","images/nothing.png","2","real","false","1","rare","0","2022-02-15 00:40:11.865"
"two-step-fixation","161","584232","0.0-76.0-2.8","395","753","22","Female","true","false","true","false","""event"",""trial"",""time""
""fullscreenenter"",""5"",""13653""
","
","
","""event"",""trial"",""time""
""fullscreenenter"",""5"",""13653""
","
","","images/earth.jpg","","","","","","","","","","","","","","fixation","","","","","",""
"d3-animate-choice","162","586506","0.0-76.0-0.9","395","753","22","Female","true","false","true","false","""event"",""trial"",""time""
""fullscreenenter"",""5"",""13653""
","
","
","""event"",""trial"",""time""
""fullscreenenter"",""5"",""13653""
","
","268.40000009536743","","49","","","3000","1","","","images/earth.jpg","images/rocket2","images/rocket1","null","images/rocket1","","1","real","null","1","","",""
"d3-animate-choice","163","588856","0.0-76.0-1.9","395","753","22","Female","true","false","true","false","""event"",""trial"",""time""
""fullscreenenter"",""5"",""13653""
","
","
","""event"",""trial"",""time""
""fullscreenenter"",""5"",""13653""
","
","340.80000019073486","","48","","","3000","1","","","images/purpleplanet.jpg","images/alien4","images/alien3","images/rocket1","images/alien4","images/t.png","2","real","true","2","common","1","2022-02-15 00:40:17.493"
"two-step-fixation","164","589860","0.0-76.0-2.9","395","753","22","Female","true","false","true","false","""event"",""trial"",""time""
""fullscreenenter"",""5"",""13653""
","
","
","""event"",""trial"",""time""
""fullscreenenter"",""5"",""13653""
","
","","images/earth.jpg","","","","","","","","","","","","","","fixation","","","","","",""
"d3-animate-choice","165","592140","0.0-76.0-0.10","395","753","22","Female","true","false","true","false","""event"",""trial"",""time""
""fullscreenenter"",""5"",""13653""
","
","
","""event"",""trial"",""time""
""fullscreenenter"",""5"",""13653""
","
","273","","49","","","3000","1","","","images/earth.jpg","images/rocket2","images/rocket1","null","images/rocket1","","1","real","null","1","","",""
"d3-animate-choice","166","594520","0.0-76.0-1.10","395","753","22","Female","true","false","true","false","""event"",""trial"",""time""
""fullscreenenter"",""5"",""13653""
","
","
","""event"",""trial"",""time""
""fullscreenenter"",""5"",""13653""
","
","373.69999980926514","","48","","","3000","1","","","images/purpleplanet.jpg","images/alien4","images/alien3","images/rocket1","images/alien4","images/t.png","2","real","true","2","common","1","2022-02-15 00:40:23.157"
"two-step-fixation","167","595527","0.0-76.0-2.10","395","753","22","Female","true","false","true","false","""event"",""trial"",""time""
""fullscreenenter"",""5"",""13653""
","
","
","""event"",""trial"",""time""
""fullscreenenter"",""5"",""13653""
","
","","images/earth.jpg","","","","","","","","","","","","","","fixation","","","","","",""
"d3-animate-choice","168","597798","0.0-76.0-0.11","395","753","22","Female","true","false","true","false","""event"",""trial"",""time""
""fullscreenenter"",""5"",""13653""
","
","
","""event"",""trial"",""time""
""fullscreenenter"",""5"",""13653""
","
","263.59999990463257","","49","","","3000","1","","","images/earth.jpg","images/rocket2","images/rocket1","null","images/rocket1","","1","real","null","1","","",""
"d3-animate-choice","169","600190","0.0-76.0-1.11","395","753","22","Female","true","false","true","false","""event"",""trial"",""time""
""fullscreenenter"",""5"",""13653""
","
","
","""event"",""trial"",""time""
""fullscreenenter"",""5"",""13653""
","
","381.19999980926514","","48","","","3000","1","","","images/purpleplanet.jpg","images/alien4","images/alien3","images/rocket1","images/alien4","images/nothing.png","2","real","true","2","common","0","2022-02-15 00:40:28.827"
"two-step-fixation","170","601193","0.0-76.0-2.11","395","753","22","Female","true","false","true","false","""event"",""trial"",""time""
""fullscreenenter"",""5"",""13653""
","
","
","""event"",""trial"",""time""
""fullscreenenter"",""5"",""13653""
","
","","images/earth.jpg","","","","","","","","","","","","","","fixation","","","","","",""
"d3-animate-choice","171","603501","0.0-76.0-0.12","395","753","22","Female","true","false","true","false","""event"",""trial"",""time""
""fullscreenenter"",""5"",""13653""
","
","
","""event"",""trial"",""time""
""fullscreenenter"",""5"",""13653""
","
","300.5","","49","","","3000","1","","","images/earth.jpg","images/rocket2","images/rocket1","null","images/rocket1","","1","real","null","1","","",""
"d3-animate-choice","172","605830","0.0-76.0-1.12","395","753","22","Female","true","false","true","false","""event"",""trial"",""time""
""fullscreenenter"",""5"",""13653""
","
","
","""event"",""trial"",""time""
""fullscreenenter"",""5"",""13653""
","
","324","","48","","","3000","1","","","images/purpleplanet.jpg","images/alien4","images/alien3","images/rocket1","images/alien4","images/t.png","2","real","true","2","common","1","2022-02-15 00:40:34.467"
"two-step-fixation","173","606835","0.0-76.0-2.12","395","753","22","Female","true","false","true","false","""event"",""trial"",""time""
""fullscreenenter"",""5"",""13653""
","
","
","""event"",""trial"",""time""
""fullscreenenter"",""5"",""13653""
","
","","images/earth.jpg","","","","","","","","","","","","","","fixation","","","","","",""
"d3-animate-choice","174","609121","0.0-76.0-0.13","395","753","22","Female","true","false","true","false","""event"",""trial"",""time""
""fullscreenenter"",""5"",""13653""
","
","
","""event"",""trial"",""time""
""fullscreenenter"",""5"",""13653""
","
","280.2999999523163","","49","","","3000","1","","","images/earth.jpg","images/rocket2","images/rocket1","null","images/rocket1","","1","real","null","1","","",""
"d3-animate-choice","175","611507","0.0-76.0-1.13","395","753","22","Female","true","false","true","false","""event"",""trial"",""time""
""fullscreenenter"",""5"",""13653""
","
","
","""event"",""trial"",""time""
""fullscreenenter"",""5"",""13653""
","
","376.40000009536743","","48","","","3000","1","","","images/redplanet1.jpg","images/alien2","images/alien1","images/rocket1","images/alien2","images/nothing.png","2","real","false","2","rare","0","2022-02-15 00:40:40.144"
"two-step-fixation","176","612512","0.0-76.0-2.13","395","753","22","Female","true","false","true","false","""event"",""trial"",""time""
""fullscreenenter"",""5"",""13653""
","
","
","""event"",""trial"",""time""
""fullscreenenter"",""5"",""13653""
","
","","images/earth.jpg","","","","","","","","","","","","","","fixation","","","","","",""
"d3-animate-choice","177","614801","0.0-76.0-0.14","395","753","22","Female","true","false","true","false","""event"",""trial"",""time""
""fullscreenenter"",""5"",""13653""
","
","
","""event"",""trial"",""time""
""fullscreenenter"",""5"",""13653""
","
","282.40000009536743","","49","","","3000","1","","","images/earth.jpg","images/rocket2","images/rocket1","null","images/rocket1","","1","real","null","1","","",""
"d3-animate-choice","178","617203","0.0-76.0-1.14","395","753","22","Female","true","false","true","false","""event"",""trial"",""time""
""fullscreenenter"",""5"",""13653""
","
","
","""event"",""trial"",""time""
""fullscreenenter"",""5"",""13653""
","
","391.7999999523163","","48","","","3000","1","","","images/purpleplanet.jpg","images/alien4","images/alien3","images/rocket1","images/alien4","images/t.png","2","real","true","2","common","1","2022-02-15 00:40:45.840"
"two-step-fixation","179","618208","0.0-76.0-2.14","395","753","22","Female","true","false","true","false","""event"",""trial"",""time""
""fullscreenenter"",""5"",""13653""
","
","
","""event"",""trial"",""time""
""fullscreenenter"",""5"",""13653""
","
","","images/earth.jpg","","","","","","","","","","","","","","fixation","","","","","",""
"d3-animate-choice","180","620564","0.0-76.0-0.15","395","753","22","Female","true","false","true","false","""event"",""trial"",""time""
""fullscreenenter"",""5"",""13653""
","
","
","""event"",""trial"",""time""
""fullscreenenter"",""5"",""13653""
","
","346.39999985694885","","49","","","3000","1","","","images/earth.jpg","images/rocket2","images/rocket1","null","images/rocket1","","1","real","null","1","","",""
"d3-animate-choice","181","622966","0.0-76.0-1.15","395","753","22","Female","true","false","true","false","""event"",""trial"",""time""
""fullscreenenter"",""5"",""13653""
","
","
","""event"",""trial"",""time""
""fullscreenenter"",""5"",""13653""
","
","401.5","","48","","","3000","1","","","images/purpleplanet.jpg","images/alien4","images/alien3","images/rocket1","images/alien4","images/nothing.png","2","real","true","2","common","0","2022-02-15 00:40:51.604"
"two-step-fixation","182","623971","0.0-76.0-2.15","395","753","22","Female","true","false","true","false","""event"",""trial"",""time""
""fullscreenenter"",""5"",""13653""
","
","
","""event"",""trial"",""time""
""fullscreenenter"",""5"",""13653""
","
","","images/earth.jpg","","","","","","","","","","","","","","fixation","","","","","",""
"d3-animate-choice","183","626217","0.0-76.0-0.16","395","753","22","Female","true","false","true","false","""event"",""trial"",""time""
""fullscreenenter"",""5"",""13653""
","
","
","""event"",""trial"",""time""
""fullscreenenter"",""5"",""13653""
","
","240.10000014305115","","49","","","3000","1","","","images/earth.jpg","images/rocket2","images/rocket1","null","images/rocket1","","1","real","null","1","","",""
"d3-animate-choice","184","628597","0.0-76.0-1.16","395","753","22","Female","true","false","true","false","""event"",""trial"",""time""
""fullscreenenter"",""5"",""13653""
","
","
","""event"",""trial"",""time""
""fullscreenenter"",""5"",""13653""
","
","373.5","","48","","","3000","1","","","images/purpleplanet.jpg","images/alien4","images/alien3","images/rocket1","images/alien4","images/t.png","2","real","true","2","common","1","2022-02-15 00:40:57.234"
"two-step-fixation","185","629604","0.0-76.0-2.16","395","753","22","Female","true","false","true","false","""event"",""trial"",""time""
""fullscreenenter"",""5"",""13653""
","
","
","""event"",""trial"",""time""
""fullscreenenter"",""5"",""13653""
","
","","images/earth.jpg","","","","","","","","","","","","","","fixation","","","","","",""
"d3-animate-choice","186","631862","0.0-76.0-0.17","395","753","22","Female","true","false","true","false","""event"",""trial"",""time""
""fullscreenenter"",""5"",""13653""
","
","
","""event"",""trial"",""time""
""fullscreenenter"",""5"",""13653""
","
","252.20000004768372","","49","","","3000","1","","","images/earth.jpg","images/rocket2","images/rocket1","null","images/rocket1","","1","real","null","1","","",""
"d3-animate-choice","187","634248","0.0-76.0-1.17","395","753","22","Female","true","false","true","false","""event"",""trial"",""time""
""fullscreenenter"",""5"",""13653""
","
","
","""event"",""trial"",""time""
""fullscreenenter"",""5"",""13653""
","
","379","","49","","","3000","1","","","images/redplanet1.jpg","images/alien2","images/alien1","images/rocket1","images/alien1","images/t.png","2","real","false","1","rare","1","2022-02-15 00:41:02.885"
"two-step-fixation","188","635254","0.0-76.0-2.17","395","753","22","Female","true","false","true","false","""event"",""trial"",""time""
""fullscreenenter"",""5"",""13653""
","
","
","""event"",""trial"",""time""
""fullscreenenter"",""5"",""13653""
","
","","images/earth.jpg","","","","","","","","","","","","","","fixation","","","","","",""
"d3-animate-choice","189","637663","0.0-76.0-0.18","395","753","22","Female","true","false","true","false","""event"",""trial"",""time""
""fullscreenenter"",""5"",""13653""
","
","
","""event"",""trial"",""time""
""fullscreenenter"",""5"",""13653""
","
","398.2000000476837","","49","","","3000","1","","","images/earth.jpg","images/rocket2","images/rocket1","null","images/rocket1","","1","real","null","1","","",""
"d3-animate-choice","190","640055","0.0-76.0-1.18","395","753","22","Female","true","false","true","false","""event"",""trial"",""time""
""fullscreenenter"",""5"",""13653""
","
","
","""event"",""trial"",""time""
""fullscreenenter"",""5"",""13653""
","
","384.7000000476837","","48","","","3000","1","","","images/purpleplanet.jpg","images/alien4","images/alien3","images/rocket1","images/alien4","images/nothing.png","2","real","true","2","common","0","2022-02-15 00:41:08.693"
"two-step-fixation","191","641060","0.0-76.0-2.18","395","753","22","Female","true","false","true","false","""event"",""trial"",""time""
""fullscreenenter"",""5"",""13653""
","
","
","""event"",""trial"",""time""
""fullscreenenter"",""5"",""13653""
","
","","images/earth.jpg","","","","","","","","","","","","","","fixation","","","","","",""
"d3-animate-choice","192","643451","0.0-76.0-0.19","395","753","22","Female","true","false","true","false","""event"",""trial"",""time""
""fullscreenenter"",""5"",""13653""
","
","
","""event"",""trial"",""time""
""fullscreenenter"",""5"",""13653""
","
","384.09999990463257","","49","","","3000","1","","","images/earth.jpg","images/rocket2","images/rocket1","null","images/rocket1","","1","real","null","1","","",""
"d3-animate-choice","193","645850","0.0-76.0-1.19","395","753","22","Female","true","false","true","false","""event"",""trial"",""time""
""fullscreenenter"",""5"",""13653""
","
","
","""event"",""trial"",""time""
""fullscreenenter"",""5"",""13653""
","
","387.7999999523163","","48","","","3000","1","","","images/purpleplanet.jpg","images/alien4","images/alien3","images/rocket1","images/alien4","images/t.png","2","real","true","2","common","1","2022-02-15 00:41:14.487"
"two-step-fixation","194","646854","0.0-76.0-2.19","395","753","22","Female","true","false","true","false","""event"",""trial"",""time""
""fullscreenenter"",""5"",""13653""
","
","
","""event"",""trial"",""time""
""fullscreenenter"",""5"",""13653""
","
","","images/earth.jpg","","","","","","","","","","","","","","fixation","","","","","",""
"d3-animate-choice","195","649163","0.0-76.0-0.20","395","753","22","Female","true","false","true","false","""event"",""trial"",""time""
""fullscreenenter"",""5"",""13653""
","
","
","""event"",""trial"",""time""
""fullscreenenter"",""5"",""13653""
","
","306.30000019073486","","49","","","3000","1","","","images/earth.jpg","images/rocket2","images/rocket1","null","images/rocket1","","1","real","null","1","","",""
"d3-animate-choice","196","651703","0.0-76.0-1.20","395","753","22","Female","true","false","true","false","""event"",""trial"",""time""
""fullscreenenter"",""5"",""13653""
","
","
","""event"",""trial"",""time""
""fullscreenenter"",""5"",""13653""
","
","534","","49","","","3000","1","","","images/redplanet1.jpg","images/alien2","images/alien1","images/rocket1","images/alien1","images/t.png","2","real","false","1","rare","1","2022-02-15 00:41:20.340"
"two-step-fixation","197","652706","0.0-76.0-2.20","395","753","22","Female","true","false","true","false","""event"",""trial"",""time""
""fullscreenenter"",""5"",""13653""
","
","
","""event"",""trial"",""time""
""fullscreenenter"",""5"",""13653""
","
","","images/earth.jpg","","","","","","","","","","","","","","fixation","","","","","",""
"d3-animate-choice","198","655305","0.0-76.0-0.21","395","753","22","Female","true","false","true","false","""event"",""trial"",""time""
""fullscreenenter"",""5"",""13653""
","
","
","""event"",""trial"",""time""
""fullscreenenter"",""5"",""13653""
","
","594","","48","","","3000","1","","","images/earth.jpg","images/rocket2","images/rocket1","null","images/rocket2","","1","real","null","2","","",""
"d3-animate-choice","199","658240","0.0-76.0-1.21","395","753","22","Female","true","false","true","false","""event"",""trial"",""time""
""fullscreenenter"",""5"",""13653""
","
","
","""event"",""trial"",""time""
""fullscreenenter"",""5"",""13653""
","
","928.9000000953674","","48","","","3000","1","","","images/purpleplanet.jpg","images/alien4","images/alien3","images/rocket2","images/alien4","images/t.png","2","real","false","2","rare","1","2022-02-15 00:41:26.877"
"two-step-fixation","200","659251","0.0-76.0-2.21","395","753","22","Female","true","false","true","false","""event"",""trial"",""time""
""fullscreenenter"",""5"",""13653""
","
","
","""event"",""trial"",""time""
""fullscreenenter"",""5"",""13653""
","
","","images/earth.jpg","","","","","","","","","","","","","","fixation","","","","","",""
"d3-animate-choice","201","661496","0.0-76.0-0.22","395","753","22","Female","true","false","true","false","""event"",""trial"",""time""
""fullscreenenter"",""5"",""13653""
","
","
","""event"",""trial"",""time""
""fullscreenenter"",""5"",""13653""
","
","237.89999985694885","","48","","","3000","1","","","images/earth.jpg","images/rocket2","images/rocket1","null","images/rocket2","","1","real","null","2","","",""
"d3-animate-choice","202","663821","0.0-76.0-1.22","395","753","22","Female","true","false","true","false","""event"",""trial"",""time""
""fullscreenenter"",""5"",""13653""
","
","
","""event"",""trial"",""time""
""fullscreenenter"",""5"",""13653""
","
","320.80000019073486","","49","","","3000","1","","","images/redplanet1.jpg","images/alien2","images/alien1","images/rocket2","images/alien1","images/t.png","2","real","true","1","common","1","2022-02-15 00:41:32.458"
"two-step-fixation","203","664826","0.0-76.0-2.22","395","753","22","Female","true","false","true","false","""event"",""trial"",""time""
""fullscreenenter"",""5"",""13653""
","
","
","""event"",""trial"",""time""
""fullscreenenter"",""5"",""13653""
","
","","images/earth.jpg","","","","","","","","","","","","","","fixation","","","","","",""
"d3-animate-choice","204","667084","0.0-76.0-0.23","395","753","22","Female","true","false","true","false","""event"",""trial"",""time""
""fullscreenenter"",""5"",""13653""
","
","
","""event"",""trial"",""time""
""fullscreenenter"",""5"",""13653""
","
","254.29999995231628","","48","","","3000","1","","","images/earth.jpg","images/rocket2","images/rocket1","null","images/rocket2","","1","real","null","2","","",""
"d3-animate-choice","205","669545","0.0-76.0-1.23","395","753","22","Female","true","false","true","false","""event"",""trial"",""time""
""fullscreenenter"",""5"",""13653""
","
","
","""event"",""trial"",""time""
""fullscreenenter"",""5"",""13653""
","
","452.5","","49","","","3000","1","","","images/redplanet1.jpg","images/alien2","images/alien1","images/rocket2","images/alien1","images/nothing.png","2","real","true","1","common","0","2022-02-15 00:41:38.182"
"two-step-fixation","206","670548","0.0-76.0-2.23","395","753","22","Female","true","false","true","false","""event"",""trial"",""time""
""fullscreenenter"",""5"",""13653""
","
","
","""event"",""trial"",""time""
""fullscreenenter"",""5"",""13653""
","
","","images/earth.jpg","","","","","","","","","","","","","","fixation","","","","","",""
"d3-animate-choice","207","672847","0.0-76.0-0.24","395","753","22","Female","true","false","true","false","""event"",""trial"",""time""
""fullscreenenter"",""5"",""13653""
","
","
","""event"",""trial"",""time""
""fullscreenenter"",""5"",""13653""
","
","293.30000019073486","","48","","","3000","1","","","images/earth.jpg","images/rocket2","images/rocket1","null","images/rocket2","","1","real","null","2","","",""
"d3-animate-choice","208","675168","0.0-76.0-1.24","395","753","22","Female","true","false","true","false","""event"",""trial"",""time""
""fullscreenenter"",""5"",""13653""
","
","
","""event"",""trial"",""time""
""fullscreenenter"",""5"",""13653""
","
","311.89999985694885","","49","","","3000","1","","","images/redplanet1.jpg","images/alien2","images/alien1","images/rocket2","images/alien1","images/t.png","2","real","true","1","common","1","2022-02-15 00:41:43.805"
"two-step-fixation","209","676176","0.0-76.0-2.24","395","753","22","Female","true","false","true","false","""event"",""trial"",""time""
""fullscreenenter"",""5"",""13653""
","
","
","""event"",""trial"",""time""
""fullscreenenter"",""5"",""13653""
","
","","images/earth.jpg","","","","","","","","","","","","","","fixation","","","","","",""
"d3-animate-choice","210","678503","0.0-76.0-0.25","395","753","22","Female","true","false","true","false","""event"",""trial"",""time""
""fullscreenenter"",""5"",""13653""
","
","
","""event"",""trial"",""time""
""fullscreenenter"",""5"",""13653""
","
","317.90000009536743","","48","","","3000","1","","","images/earth.jpg","images/rocket2","images/rocket1","null","images/rocket2","","1","real","null","2","","",""
"d3-animate-choice","211","680871","0.0-76.0-1.25","395","753","22","Female","true","false","true","false","""event"",""trial"",""time""
""fullscreenenter"",""5"",""13653""
","
","
","""event"",""trial"",""time""
""fullscreenenter"",""5"",""13653""
","
","362.59999990463257","","49","","","3000","1","","","images/redplanet1.jpg","images/alien2","images/alien1","images/rocket2","images/alien1","images/nothing.png","2","real","true","1","common","0","2022-02-15 00:41:49.508"
"two-step-fixation","212","681880","0.0-76.0-2.25","395","753","22","Female","true","false","true","false","""event"",""trial"",""time""
""fullscreenenter"",""5"",""13653""
","
","
","""event"",""trial"",""time""
""fullscreenenter"",""5"",""13653""
","
","","images/earth.jpg","","","","","","","","","","","","","","fixation","","","","","",""
"d3-animate-choice","213","684439","0.0-76.0-0.26","395","753","22","Female","true","false","true","false","""event"",""trial"",""time""
""fullscreenenter"",""5"",""13653""
","
","
","""event"",""trial"",""time""
""fullscreenenter"",""5"",""13653""
","
","549.7000000476837","","49","","","3000","1","","","images/earth.jpg","images/rocket2","images/rocket1","null","images/rocket1","","1","real","null","1","","",""
"d3-animate-choice","214","686814","0.0-76.0-1.26","395","753","22","Female","true","false","true","false","""event"",""trial"",""time""
""fullscreenenter"",""5"",""13653""
","
","
","""event"",""trial"",""time""
""fullscreenenter"",""5"",""13653""
","
","370.39999985694885","","48","","","3000","1","","","images/purpleplanet.jpg","images/alien4","images/alien3","images/rocket1","images/alien4","images/t.png","2","real","true","2","common","1","2022-02-15 00:41:55.451"
"two-step-fixation","215","687818","0.0-76.0-2.26","395","753","22","Female","true","false","true","false","""event"",""trial"",""time""
""fullscreenenter"",""5"",""13653""
","
","
","""event"",""trial"",""time""
""fullscreenenter"",""5"",""13653""
","
","","images/earth.jpg","","","","","","","","","","","","","","fixation","","","","","",""
"d3-animate-choice","216","690120","0.0-76.0-0.27","395","753","22","Female","true","false","true","false","""event"",""trial"",""time""
""fullscreenenter"",""5"",""13653""
","
","
","""event"",""trial"",""time""
""fullscreenenter"",""5"",""13653""
","
","298.19999980926514","","49","","","3000","1","","","images/earth.jpg","images/rocket2","images/rocket1","null","images/rocket1","","1","real","null","1","","",""
"d3-animate-choice","217","692583","0.0-76.0-1.27","395","753","22","Female","true","false","true","false","""event"",""trial"",""time""
""fullscreenenter"",""5"",""13653""
","
","
","""event"",""trial"",""time""
""fullscreenenter"",""5"",""13653""
","
","455.5","","48","","","3000","1","","","images/purpleplanet.jpg","images/alien4","images/alien3","images/rocket1","images/alien4","images/t.png","2","real","true","2","common","1","2022-02-15 00:42:01.220"
"two-step-fixation","218","693589","0.0-76.0-2.27","395","753","22","Female","true","false","true","false","""event"",""trial"",""time""
""fullscreenenter"",""5"",""13653""
","
","
","""event"",""trial"",""time""
""fullscreenenter"",""5"",""13653""
","
","","images/earth.jpg","","","","","","","","","","","","","","fixation","","","","","",""
"d3-animate-choice","219","695879","0.0-76.0-0.28","395","753","22","Female","true","false","true","false","""event"",""trial"",""time""
""fullscreenenter"",""5"",""13653""
","
","
","""event"",""trial"",""time""
""fullscreenenter"",""5"",""13653""
","
","280.2999999523163","","49","","","3000","1","","","images/earth.jpg","images/rocket2","images/rocket1","null","images/rocket1","","1","real","null","1","","",""
"d3-animate-choice","220","698277","0.0-76.0-1.28","395","753","22","Female","true","false","true","false","""event"",""trial"",""time""
""fullscreenenter"",""5"",""13653""
","
","
","""event"",""trial"",""time""
""fullscreenenter"",""5"",""13653""
","
","389.40000009536743","","48","","","3000","1","","","images/purpleplanet.jpg","images/alien4","images/alien3","images/rocket1","images/alien4","images/t.png","2","real","true","2","common","1","2022-02-15 00:42:06.914"
"two-step-fixation","221","699280","0.0-76.0-2.28","395","753","22","Female","true","false","true","false","""event"",""trial"",""time""
""fullscreenenter"",""5"",""13653""
","
","
","""event"",""trial"",""time""
""fullscreenenter"",""5"",""13653""
","
","","images/earth.jpg","","","","","","","","","","","","","","fixation","","","","","",""
"d3-animate-choice","222","701569","0.0-76.0-0.29","395","753","22","Female","true","false","true","false","""event"",""trial"",""time""
""fullscreenenter"",""5"",""13653""
","
","
","""event"",""trial"",""time""
""fullscreenenter"",""5"",""13653""
","
","278.5","","49","","","3000","1","","","images/earth.jpg","images/rocket2","images/rocket1","null","images/rocket1","","1","real","null","1","","",""
"d3-animate-choice","223","704037","0.0-76.0-1.29","395","753","22","Female","true","false","true","false","""event"",""trial"",""time""
""fullscreenenter"",""5"",""13653""
","
","
","""event"",""trial"",""time""
""fullscreenenter"",""5"",""13653""
","
","457.39999985694885","","48","","","3000","1","","","images/purpleplanet.jpg","images/alien4","images/alien3","images/rocket1","images/alien4","images/t.png","2","real","true","2","common","1","2022-02-15 00:42:12.674"
"two-step-fixation","224","705046","0.0-76.0-2.29","395","753","22","Female","true","false","true","false","""event"",""trial"",""time""
""fullscreenenter"",""5"",""13653""
","
","
","""event"",""trial"",""time""
""fullscreenenter"",""5"",""13653""
","
","","images/earth.jpg","","","","","","","","","","","","","","fixation","","","","","",""
"d3-animate-choice","225","707320","0.0-76.0-0.30","395","753","22","Female","true","false","true","false","""event"",""trial"",""time""
""fullscreenenter"",""5"",""13653""
","
","
","""event"",""trial"",""time""
""fullscreenenter"",""5"",""13653""
","
","267.90000009536743","","49","","","3000","1","","","images/earth.jpg","images/rocket2","images/rocket1","null","images/rocket1","","1","real","null","1","","",""
"d3-animate-choice","226","709665","0.0-76.0-1.30","395","753","22","Female","true","false","true","false","""event"",""trial"",""time""
""fullscreenenter"",""5"",""13653""
","
","
","""event"",""trial"",""time""
""fullscreenenter"",""5"",""13653""
","
","340.30000019073486","","48","","","3000","1","","","images/redplanet1.jpg","images/alien2","images/alien1","images/rocket1","images/alien2","images/t.png","2","real","false","2","rare","1","2022-02-15 00:42:18.302"
"two-step-fixation","227","710669","0.0-76.0-2.30","395","753","22","Female","true","false","true","false","""event"",""trial"",""time""
""fullscreenenter"",""5"",""13653""
","
","
","""event"",""trial"",""time""
""fullscreenenter"",""5"",""13653""
","
","","images/earth.jpg","","","","","","","","","","","","","","fixation","","","","","",""
"d3-animate-choice","228","712991","0.0-76.0-0.31","395","753","22","Female","true","false","true","false","""event"",""trial"",""time""
""fullscreenenter"",""5"",""13653""
","
","
","""event"",""trial"",""time""
""fullscreenenter"",""5"",""13653""
","
","311.2000000476837","","49","","","3000","1","","","images/earth.jpg","images/rocket2","images/rocket1","null","images/rocket1","","1","real","null","1","","",""
"d3-animate-choice","229","715427","0.0-76.0-1.31","395","753","22","Female","true","false","true","false","""event"",""trial"",""time""
""fullscreenenter"",""5"",""13653""
","
","
","""event"",""trial"",""time""
""fullscreenenter"",""5"",""13653""
","
","425.39999985694885","","48","","","3000","1","","","images/purpleplanet.jpg","images/alien4","images/alien3","images/rocket1","images/alien4","images/t.png","2","real","true","2","common","1","2022-02-15 00:42:24.065"
"two-step-fixation","230","716438","0.0-76.0-2.31","395","753","22","Female","true","false","true","false","""event"",""trial"",""time""
""fullscreenenter"",""5"",""13653""
","
","
","""event"",""trial"",""time""
""fullscreenenter"",""5"",""13653""
","
","","images/earth.jpg","","","","","","","","","","","","","","fixation","","","","","",""
"d3-animate-choice","231","718705","0.0-76.0-0.32","395","753","22","Female","true","false","true","false","""event"",""trial"",""time""
""fullscreenenter"",""5"",""13653""
","
","
","""event"",""trial"",""time""
""fullscreenenter"",""5"",""13653""
","
","258.7999999523163","","49","","","3000","1","","","images/earth.jpg","images/rocket2","images/rocket1","null","images/rocket1","","1","real","null","1","","",""
"d3-animate-choice","232","721044","0.0-76.0-1.32","395","753","22","Female","true","false","true","false","""event"",""trial"",""time""
""fullscreenenter"",""5"",""13653""
","
","
","""event"",""trial"",""time""
""fullscreenenter"",""5"",""13653""
","
","334.7999999523163","","48","","","3000","1","","","images/purpleplanet.jpg","images/alien4","images/alien3","images/rocket1","images/alien4","images/t.png","2","real","true","2","common","1","2022-02-15 00:42:29.681"
"two-step-fixation","233","722053","0.0-76.0-2.32","395","753","22","Female","true","false","true","false","""event"",""trial"",""time""
""fullscreenenter"",""5"",""13653""
","
","
","""event"",""trial"",""time""
""fullscreenenter"",""5"",""13653""
","
","","images/earth.jpg","","","","","","","","","","","","","","fixation","","","","","",""
"d3-animate-choice","234","724293","0.0-76.0-0.33","395","753","22","Female","true","false","true","false","""event"",""trial"",""time""
""fullscreenenter"",""5"",""13653""
","
","
","""event"",""trial"",""time""
""fullscreenenter"",""5"",""13653""
","
","233.09999990463257","","49","","","3000","1","","","images/earth.jpg","images/rocket2","images/rocket1","null","images/rocket1","","1","real","null","1","","",""
"d3-animate-choice","235","726619","0.0-76.0-1.33","395","753","22","Female","true","false","true","false","""event"",""trial"",""time""
""fullscreenenter"",""5"",""13653""
","
","
","""event"",""trial"",""time""
""fullscreenenter"",""5"",""13653""
","
","316","","48","","","3000","1","","","images/purpleplanet.jpg","images/alien4","images/alien3","images/rocket1","images/alien4","images/t.png","2","real","true","2","common","1","2022-02-15 00:42:35.256"
"two-step-fixation","236","727629","0.0-76.0-2.33","395","753","22","Female","true","false","true","false","""event"",""trial"",""time""
""fullscreenenter"",""5"",""13653""
","
","
","""event"",""trial"",""time""
""fullscreenenter"",""5"",""13653""
","
","","images/earth.jpg","","","","","","","","","","","","","","fixation","","","","","",""
"d3-animate-choice","237","730183","0.0-76.0-0.34","395","753","22","Female","true","false","true","false","""event"",""trial"",""time""
""fullscreenenter"",""5"",""13653""
","
","
","""event"",""trial"",""time""
""fullscreenenter"",""5"",""13653""
","
","545.2000000476837","","49","","","3000","1","","","images/earth.jpg","images/rocket2","images/rocket1","null","images/rocket1","","1","real","null","1","","",""
"d3-animate-choice","238","732522","0.0-76.0-1.34","395","753","22","Female","true","false","true","false","""event"",""trial"",""time""
""fullscreenenter"",""5"",""13653""
","
","
","""event"",""trial"",""time""
""fullscreenenter"",""5"",""13653""
","
","331.7000000476837","","48","","","3000","1","","","images/purpleplanet.jpg","images/alien4","images/alien3","images/rocket1","images/alien4","images/t.png","2","real","true","2","common","1","2022-02-15 00:42:41.159"
"two-step-fixation","239","733529","0.0-76.0-2.34","395","753","22","Female","true","false","true","false","""event"",""trial"",""time""
""fullscreenenter"",""5"",""13653""
","
","
","""event"",""trial"",""time""
""fullscreenenter"",""5"",""13653""
","
","","images/earth.jpg","","","","","","","","","","","","","","fixation","","","","","",""
"d3-animate-choice","240","735806","0.0-76.0-0.35","395","753","22","Female","true","false","true","false","""event"",""trial"",""time""
""fullscreenenter"",""5"",""13653""
","
","
","""event"",""trial"",""time""
""fullscreenenter"",""5"",""13653""
","
","268.2000000476837","","49","","","3000","1","","","images/earth.jpg","images/rocket2","images/rocket1","null","images/rocket1","","1","real","null","1","","",""
"d3-animate-choice","241","738088","0.0-76.0-1.35","395","753","22","Female","true","false","true","false","""event"",""trial"",""time""
""fullscreenenter"",""5"",""13653""
","
","
","""event"",""trial"",""time""
""fullscreenenter"",""5"",""13653""
","
","273.7000000476837","","48","","","3000","1","","","images/purpleplanet.jpg","images/alien4","images/alien3","images/rocket1","images/alien4","images/t.png","2","real","true","2","common","1","2022-02-15 00:42:46.726"
"two-step-fixation","242","739098","0.0-76.0-2.35","395","753","22","Female","true","false","true","false","""event"",""trial"",""time""
""fullscreenenter"",""5"",""13653""
","
","
","""event"",""trial"",""time""
""fullscreenenter"",""5"",""13653""
","
","","images/earth.jpg","","","","","","","","","","","","","","fixation","","","","","",""
"d3-animate-choice","243","741350","0.0-76.0-0.36","395","753","22","Female","true","false","true","false","""event"",""trial"",""time""
""fullscreenenter"",""5"",""13653""
","
","
","""event"",""trial"",""time""
""fullscreenenter"",""5"",""13653""
","
","247.90000009536743","","49","","","3000","1","","","images/earth.jpg","images/rocket2","images/rocket1","null","images/rocket1","","1","real","null","1","","",""
"d3-animate-choice","244","743658","0.0-76.0-1.36","395","753","22","Female","true","false","true","false","""event"",""trial"",""time""
""fullscreenenter"",""5"",""13653""
","
","
","""event"",""trial"",""time""
""fullscreenenter"",""5"",""13653""
","
","307","","48","","","3000","1","","","images/purpleplanet.jpg","images/alien4","images/alien3","images/rocket1","images/alien4","images/t.png","2","real","true","2","common","1","2022-02-15 00:42:52.296"
"two-step-fixation","245","744667","0.0-76.0-2.36","395","753","22","Female","true","false","true","false","""event"",""trial"",""time""
""fullscreenenter"",""5"",""13653""
","
","
","""event"",""trial"",""time""
""fullscreenenter"",""5"",""13653""
","
","","images/earth.jpg","","","","","","","","","","","","","","fixation","","","","","",""
"d3-animate-choice","246","746950","0.0-76.0-0.37","395","753","22","Female","true","false","true","false","""event"",""trial"",""time""
""fullscreenenter"",""5"",""13653""
","
","
","""event"",""trial"",""time""
""fullscreenenter"",""5"",""13653""
","
