"trial_type","trial_index","time_elapsed","internal_node_id","participant_id","subject_id","age","gender","rocket_sides","red_planet_first_rocket","red_display_order","purple_display_order","interactions","blur_events","focus_events","fullscreenenter_events","fullscreenexit_events","rt","stimulus","key_press","button_pressed","success","duration","valid_pressed","rts","keys","planet_text","right_text","left_text","center_text","chosen_text","reward_text","trial_stage","practice_trial","transition_type","choice","transition","reward","timestamp"
"pavlovia","0","3","0.0-0.0","2599","5595","15","Female","true","true","true","false","
","
","
","
","
","","","","","","","","","","","","","","","","","","","","","",""
"html-keyboard-response","1","3165","0.0-1.0","2599","5595","15","Female","true","true","true","false","
","
","
","
","
","3161.0999999940395","Welcome! Press the space bar to begin.","32","","","","","","","","","","","","","","","","","","",""
"audio-keyboard-response","2","7259","0.0-2.0","2599","5595","15","Female","true","true","true","false","
","
","
","
","
","3931","audio/beep_loop.wav","32","","","","","","","","","","","","","","","","","","",""
"audio-button-response","3","9884","0.0-3.0","2599","5595","15","Female","true","true","true","false","""event"",""trial"",""time""
""blur"",""4"",""23188""
""focus"",""4"",""23188""
","""event"",""trial"",""time""
""blur"",""4"",""23188""
","""event"",""trial"",""time""
""focus"",""4"",""23188""
","
","
","NaN","audio/fish.mp3","","1","","","","","","","","","","","","","","","","","",""
"audio-button-response","4","32767","0.0-4.0","2599","5595","15","Female","true","true","true","false","""event"",""trial"",""time""
""blur"",""4"",""23188""
""focus"",""4"",""23188""
""fullscreenenter"",""5"",""36858""
","""event"",""trial"",""time""
""blur"",""4"",""23188""
","""event"",""trial"",""time""
""focus"",""4"",""23188""
","""event"",""trial"",""time""
""fullscreenenter"",""5"",""36858""
","
","NaN","audio/tiger.mp3","","4","","","","","","","","","","","","","","","","","",""
"fullscreen","5","37854","0.0-5.0","2599","5595","15","Female","true","true","true","false","""event"",""trial"",""time""
""blur"",""4"",""23188""
""focus"",""4"",""23188""
""fullscreenenter"",""5"",""36858""
","""event"",""trial"",""time""
""blur"",""4"",""23188""
","""event"",""trial"",""time""
""focus"",""4"",""23188""
","""event"",""trial"",""time""
""fullscreenenter"",""5"",""36858""
","
","","","","","true","","","","","","","","","","","","","","","","",""
"d3-instructions","6","54010","0.0-6.0","2599","5595","15","Female","true","true","true","false","""event"",""trial"",""time""
""blur"",""4"",""23188""
""focus"",""4"",""23188""
""fullscreenenter"",""5"",""36858""
","""event"",""trial"",""time""
""blur"",""4"",""23188""
","""event"",""trial"",""time""
""focus"",""4"",""23188""
","""event"",""trial"",""time""
""fullscreenenter"",""5"",""36858""
","
","","","","","","","","","","","","","","","","","","","","","",""
"d3-instructions","7","69410","0.0-7.0","2599","5595","15","Female","true","true","true","false","""event"",""trial"",""time""
""blur"",""4"",""23188""
""focus"",""4"",""23188""
""fullscreenenter"",""5"",""36858""
","""event"",""trial"",""time""
""blur"",""4"",""23188""
","""event"",""trial"",""time""
""focus"",""4"",""23188""
","""event"",""trial"",""time""
""fullscreenenter"",""5"",""36858""
","
","","","","","","","","","","","","","","","","","","","","","",""
"d3-instructions","8","76409","0.0-8.0","2599","5595","15","Female","true","true","true","false","""event"",""trial"",""time""
""blur"",""4"",""23188""
""focus"",""4"",""23188""
""fullscreenenter"",""5"",""36858""
","""event"",""trial"",""time""
""blur"",""4"",""23188""
","""event"",""trial"",""time""
""focus"",""4"",""23188""
","""event"",""trial"",""time""
""fullscreenenter"",""5"",""36858""
","
","","","","","","","","","","","","","","","","","","","","","",""
"d3-instructions","9","83835","0.0-9.0","2599","5595","15","Female","true","true","true","false","""event"",""trial"",""time""
""blur"",""4"",""23188""
""focus"",""4"",""23188""
""fullscreenenter"",""5"",""36858""
","""event"",""trial"",""time""
""blur"",""4"",""23188""
","""event"",""trial"",""time""
""focus"",""4"",""23188""
","""event"",""trial"",""time""
""fullscreenenter"",""5"",""36858""
","
","","","","","","","","","","","","","","","","","","","","","",""
"d3-instructions","10","94690","0.0-10.0","2599","5595","15","Female","true","true","true","false","""event"",""trial"",""time""
""blur"",""4"",""23188""
""focus"",""4"",""23188""
""fullscreenenter"",""5"",""36858""
","""event"",""trial"",""time""
""blur"",""4"",""23188""
","""event"",""trial"",""time""
""focus"",""4"",""23188""
","""event"",""trial"",""time""
""fullscreenenter"",""5"",""36858""
","
","","","","","","","","","","","","","","","","","","","","","",""
"d3-animate-choice","11","97564","0.0-11.0","2599","5595","15","Female","true","true","true","false","""event"",""trial"",""time""
""blur"",""4"",""23188""
""focus"",""4"",""23188""
""fullscreenenter"",""5"",""36858""
","""event"",""trial"",""time""
""blur"",""4"",""23188""
","""event"",""trial"",""time""
""focus"",""4"",""23188""
","""event"",""trial"",""time""
""fullscreenenter"",""5"",""36858""
","
","858.9000000059605","","49","","","3000","1","1363.5,2803.5","48,49","images/tutgreenplanet.jpg","images/tutalien1","images/tutalien2","null","images/tutalien2","","NA","practice","null","","","",""
"d3-animate-choice","12","99773","0.0-12.0","2599","5595","15","Female","true","true","true","false","""event"",""trial"",""time""
""blur"",""4"",""23188""
""focus"",""4"",""23188""
""fullscreenenter"",""5"",""36858""
","""event"",""trial"",""time""
""blur"",""4"",""23188""
","""event"",""trial"",""time""
""focus"",""4"",""23188""
","""event"",""trial"",""time""
""fullscreenenter"",""5"",""36858""
","
","194.90000000596046","","48","","","3000","1","1139,1378.7000000178814,1572.1000000238419,1698.7000000178814,1922.800000011921,1947","49,48,49,48,49,48","images/tutgreenplanet.jpg","images/tutalien1","images/tutalien2","null","images/tutalien1","","NA","practice","null","","","",""
"d3-animate-choice","13","101955","0.0-13.0","2599","5595","15","Female","true","true","true","false","""event"",""trial"",""time""
""blur"",""4"",""23188""
""focus"",""4"",""23188""
""fullscreenenter"",""5"",""36858""
","""event"",""trial"",""time""
""blur"",""4"",""23188""
","""event"",""trial"",""time""
""focus"",""4"",""23188""
","""event"",""trial"",""time""
""fullscreenenter"",""5"",""36858""
","
","162.59999999403954","","49","","","3000","1","426.59999999403954,740,1482.5999999940395,2090.699999988079","49,49,48,32","images/tutgreenplanet.jpg","images/tutalien1","images/tutalien2","null","images/tutalien2","","NA","practice","null","","","",""
"d3-animate-choice","14","107333","0.0-14.0","2599","5595","15","Female","true","true","true","false","""event"",""trial"",""time""
""blur"",""4"",""23188""
""focus"",""4"",""23188""
""fullscreenenter"",""5"",""36858""
","""event"",""trial"",""time""
""blur"",""4"",""23188""
","""event"",""trial"",""time""
""focus"",""4"",""23188""
","""event"",""trial"",""time""
""fullscreenenter"",""5"",""36858""
","
","1243.3999999761581","","32","","","3000","1","3363.7999999821186,4771.899999976158","49,32","images/tutgreenplanet.jpg","images/tutalien1","images/tutalien2","null","images/tutalien2","","NA","practice","null","","","",""
"d3-instructions","15","113611","0.0-15.0","2599","5595","15","Female","true","true","true","false","""event"",""trial"",""time""
""blur"",""4"",""23188""
""focus"",""4"",""23188""
""fullscreenenter"",""5"",""36858""
","""event"",""trial"",""time""
""blur"",""4"",""23188""
","""event"",""trial"",""time""
""focus"",""4"",""23188""
","""event"",""trial"",""time""
""fullscreenenter"",""5"",""36858""
","
","","","","","","","","","","","","","","","","","","","","","",""
"d3-instructions","16","122449","0.0-16.0","2599","5595","15","Female","true","true","true","false","""event"",""trial"",""time""
""blur"",""4"",""23188""
""focus"",""4"",""23188""
""fullscreenenter"",""5"",""36858""
","""event"",""trial"",""time""
""blur"",""4"",""23188""
","""event"",""trial"",""time""
""focus"",""4"",""23188""
","""event"",""trial"",""time""
""fullscreenenter"",""5"",""36858""
","
","","","","","","","","","","","","","","","","","","","","","",""
"d3-instructions","17","134075","0.0-17.0","2599","5595","15","Female","true","true","true","false","""event"",""trial"",""time""
""blur"",""4"",""23188""
""focus"",""4"",""23188""
""fullscreenenter"",""5"",""36858""
","""event"",""trial"",""time""
""blur"",""4"",""23188""
","""event"",""trial"",""time""
""focus"",""4"",""23188""
","""event"",""trial"",""time""
""fullscreenenter"",""5"",""36858""
","
","","","","","","","","","","","","","","","","","","","","","",""
"d3-instructions","18","140090","0.0-18.0","2599","5595","15","Female","true","true","true","false","""event"",""trial"",""time""
""blur"",""4"",""23188""
""focus"",""4"",""23188""
""fullscreenenter"",""5"",""36858""
","""event"",""trial"",""time""
""blur"",""4"",""23188""
","""event"",""trial"",""time""
""focus"",""4"",""23188""
","""event"",""trial"",""time""
""fullscreenenter"",""5"",""36858""
","
","","","","","","","","","","","","","","","","","","","","","",""
"d3-instructions","19","145034","0.0-19.0","2599","5595","15","Female","true","true","true","false","""event"",""trial"",""time""
""blur"",""4"",""23188""
""focus"",""4"",""23188""
""fullscreenenter"",""5"",""36858""
","""event"",""trial"",""time""
""blur"",""4"",""23188""
","""event"",""trial"",""time""
""focus"",""4"",""23188""
","""event"",""trial"",""time""
""fullscreenenter"",""5"",""36858""
","
","","","","","","","","","","","","","","","","","","","","","",""
"d3-animate-choice","20","150203","0.0-20.0","2599","5595","15","Female","true","true","true","false","""event"",""trial"",""time""
""blur"",""4"",""23188""
""focus"",""4"",""23188""
""fullscreenenter"",""5"",""36858""
","""event"",""trial"",""time""
""blur"",""4"",""23188""
","""event"",""trial"",""time""
""focus"",""4"",""23188""
","""event"",""trial"",""time""
""fullscreenenter"",""5"",""36858""
","
","1020","","32","","","3000","1","1499.5,1917.4000000059605,2147.5999999940395,3155.4000000059605","32,32,32,49","images/tutyellowplanet.jpg","null","images/tutalien3","null","images/tutalien3","images/t.png","NA","practice","null","","","",""
"d3-animate-choice","21","152993","0.0-21.0","2599","5595","15","Female","true","true","true","false","""event"",""trial"",""time""
""blur"",""4"",""23188""
""focus"",""4"",""23188""
""fullscreenenter"",""5"",""36858""
","""event"",""trial"",""time""
""blur"",""4"",""23188""
","""event"",""trial"",""time""
""focus"",""4"",""23188""
","""event"",""trial"",""time""
""fullscreenenter"",""5"",""36858""
","
","779.8000000119209","","49","","","3000","1","","","images/tutyellowplanet.jpg","null","images/tutalien3","null","images/tutalien3","images/t.png","NA","practice","null","","","",""
"d3-animate-choice","22","156494","0.0-22.0","2599","5595","15","Female","true","true","true","false","""event"",""trial"",""time""
""blur"",""4"",""23188""
""focus"",""4"",""23188""
""fullscreenenter"",""5"",""36858""
","""event"",""trial"",""time""
""blur"",""4"",""23188""
","""event"",""trial"",""time""
""focus"",""4"",""23188""
","""event"",""trial"",""time""
""fullscreenenter"",""5"",""36858""
","
","989.9000000059605","","48","","","3000","1","1493.9000000059605","49","images/tutyellowplanet.jpg","null","images/tutalien3","null","images/tutalien3","images/t.png","NA","practice","null","","","",""
"d3-animate-choice","23","159043","0.0-23.0","2599","5595","15","Female","true","true","true","false","""event"",""trial"",""time""
""blur"",""4"",""23188""
""focus"",""4"",""23188""
""fullscreenenter"",""5"",""36858""
","""event"",""trial"",""time""
""blur"",""4"",""23188""
","""event"",""trial"",""time""
""focus"",""4"",""23188""
","""event"",""trial"",""time""
""fullscreenenter"",""5"",""36858""
","
","531.3000000119209","","49","","","3000","1","","","images/tutyellowplanet.jpg","null","images/tutalien3","null","images/tutalien3","images/t.png","NA","practice","null","","","",""
"d3-animate-choice","24","161464","0.0-24.0","2599","5595","15","Female","true","true","true","false","""event"",""trial"",""time""
""blur"",""4"",""23188""
""focus"",""4"",""23188""
""fullscreenenter"",""5"",""36858""
","""event"",""trial"",""time""
""blur"",""4"",""23188""
","""event"",""trial"",""time""
""focus"",""4"",""23188""
","""event"",""trial"",""time""
""fullscreenenter"",""5"",""36858""
","
","411.7000000178814","","49","","","3000","1","","","images/tutyellowplanet.jpg","null","images/tutalien3","null","images/tutalien3","images/t.png","NA","practice","null","","","",""
"d3-animate-choice","25","163864","0.0-25.0","2599","5595","15","Female","true","true","true","false","""event"",""trial"",""time""
""blur"",""4"",""23188""
""focus"",""4"",""23188""
""fullscreenenter"",""5"",""36858""
","""event"",""trial"",""time""
""blur"",""4"",""23188""
","""event"",""trial"",""time""
""focus"",""4"",""23188""
","""event"",""trial"",""time""
""fullscreenenter"",""5"",""36858""
","
","383.59999999403954","","49","","","3000","1","1903.5999999940395,2383.699999988079","32,49","images/tutyellowplanet.jpg","null","images/tutalien3","null","images/tutalien3","images/t.png","NA","practice","null","","","",""
"d3-animate-choice","26","166349","0.0-26.0","2599","5595","15","Female","true","true","true","false","""event"",""trial"",""time""
""blur"",""4"",""23188""
""focus"",""4"",""23188""
""fullscreenenter"",""5"",""36858""
","""event"",""trial"",""time""
""blur"",""4"",""23188""
","""event"",""trial"",""time""
""focus"",""4"",""23188""
","""event"",""trial"",""time""
""fullscreenenter"",""5"",""36858""
","
","471.5","","49","","","3000","1","","","images/tutyellowplanet.jpg","null","images/tutalien3","null","images/tutalien3","images/t.png","NA","practice","null","","","",""
"d3-animate-choice","27","168803","0.0-27.0","2599","5595","15","Female","true","true","true","false","""event"",""trial"",""time""
""blur"",""4"",""23188""
""focus"",""4"",""23188""
""fullscreenenter"",""5"",""36858""
","""event"",""trial"",""time""
""blur"",""4"",""23188""
","""event"",""trial"",""time""
""focus"",""4"",""23188""
","""event"",""trial"",""time""
""fullscreenenter"",""5"",""36858""
","
","442.7999999821186","","49","","","3000","1","","","images/tutyellowplanet.jpg","null","images/tutalien3","null","images/tutalien3","images/t.png","NA","practice","null","","","",""
"d3-animate-choice","28","170923","0.0-28.0","2599","5595","15","Female","true","true","true","false","""event"",""trial"",""time""
""blur"",""4"",""23188""
""focus"",""4"",""23188""
""fullscreenenter"",""5"",""36858""
","""event"",""trial"",""time""
""blur"",""4"",""23188""
","""event"",""trial"",""time""
""focus"",""4"",""23188""
","""event"",""trial"",""time""
""fullscreenenter"",""5"",""36858""
","
","101","","49","","","3000","1","1787.1000000238419","49","images/tutyellowplanet.jpg","null","images/tutalien3","null","images/tutalien3","images/t.png","NA","practice","null","","","",""
"d3-animate-choice","29","173311","0.0-29.0","2599","5595","15","Female","true","true","true","false","""event"",""trial"",""time""
""blur"",""4"",""23188""
""focus"",""4"",""23188""
""fullscreenenter"",""5"",""36858""
","""event"",""trial"",""time""
""blur"",""4"",""23188""
","""event"",""trial"",""time""
""focus"",""4"",""23188""
","""event"",""trial"",""time""
""fullscreenenter"",""5"",""36858""
","
","371.7999999821186","","49","","","3000","1","2092","49","images/tutyellowplanet.jpg","null","images/tutalien3","null","images/tutalien3","images/t.png","NA","practice","null","","","",""
"d3-instructions","30","179275","0.0-30.0","2599","5595","15","Female","true","true","true","false","""event"",""trial"",""time""
""blur"",""4"",""23188""
""focus"",""4"",""23188""
""fullscreenenter"",""5"",""36858""
","""event"",""trial"",""time""
""blur"",""4"",""23188""
","""event"",""trial"",""time""
""focus"",""4"",""23188""
","""event"",""trial"",""time""
""fullscreenenter"",""5"",""36858""
","
","","","","","","","","","","","","","","","","","","","","","",""
"d3-instructions","31","181554","0.0-31.0","2599","5595","15","Female","true","true","true","false","""event"",""trial"",""time""
""blur"",""4"",""23188""
""focus"",""4"",""23188""
""fullscreenenter"",""5"",""36858""
","""event"",""trial"",""time""
""blur"",""4"",""23188""
","""event"",""trial"",""time""
""focus"",""4"",""23188""
","""event"",""trial"",""time""
""fullscreenenter"",""5"",""36858""
","
","","","","","","","","","","","","","","","","","","","","","",""
"d3-instructions","32","183994","0.0-32.0","2599","5595","15","Female","true","true","true","false","""event"",""trial"",""time""
""blur"",""4"",""23188""
""focus"",""4"",""23188""
""fullscreenenter"",""5"",""36858""
","""event"",""trial"",""time""
""blur"",""4"",""23188""
","""event"",""trial"",""time""
""focus"",""4"",""23188""
","""event"",""trial"",""time""
""fullscreenenter"",""5"",""36858""
","
","","","","","","","","","","","","","","","","","","","","","",""
"d3-instructions","33","186121","0.0-33.0","2599","5595","15","Female","true","true","true","false","""event"",""trial"",""time""
""blur"",""4"",""23188""
""focus"",""4"",""23188""
""fullscreenenter"",""5"",""36858""
","""event"",""trial"",""time""
""blur"",""4"",""23188""
","""event"",""trial"",""time""
""focus"",""4"",""23188""
","""event"",""trial"",""time""
""fullscreenenter"",""5"",""36858""
","
","","","","","","","","","","","","","","","","","","","","","",""
"d3-animate-choice","34","190213","0.0-34.0","2599","5595","15","Female","true","true","true","false","""event"",""trial"",""time""
""blur"",""4"",""23188""
""focus"",""4"",""23188""
""fullscreenenter"",""5"",""36858""
","""event"",""trial"",""time""
""blur"",""4"",""23188""
","""event"",""trial"",""time""
""focus"",""4"",""23188""
","""event"",""trial"",""time""
""fullscreenenter"",""5"",""36858""
","
","2084.699999988079","","49","","","3000","1","","","images/tutgreenplanet.jpg","images/tutalien1","images/tutalien2","null","images/tutalien2","images/t.png","NA","practice","null","","","",""
"d3-animate-choice","35","192683","0.0-35.0","2599","5595","15","Female","true","true","true","false","""event"",""trial"",""time""
""blur"",""4"",""23188""
""focus"",""4"",""23188""
""fullscreenenter"",""5"",""36858""
","""event"",""trial"",""time""
""blur"",""4"",""23188""
","""event"",""trial"",""time""
""focus"",""4"",""23188""
","""event"",""trial"",""time""
""fullscreenenter"",""5"",""36858""
","
","442.89999997615814","","49","","","3000","1","","","images/tutgreenplanet.jpg","images/tutalien1","images/tutalien2","null","images/tutalien2","images/nothing.png","NA","practice","null","","","",""
"d3-animate-choice","36","195264","0.0-36.0","2599","5595","15","Female","true","true","true","false","""event"",""trial"",""time""
""blur"",""4"",""23188""
""focus"",""4"",""23188""
""fullscreenenter"",""5"",""36858""
","""event"",""trial"",""time""
""blur"",""4"",""23188""
","""event"",""trial"",""time""
""focus"",""4"",""23188""
","""event"",""trial"",""time""
""fullscreenenter"",""5"",""36858""
","
","571.5999999940395","","48","","","3000","1","","","images/tutgreenplanet.jpg","images/tutalien1","images/tutalien2","null","images/tutalien1","images/nothing.png","NA","practice","null","","","",""
"d3-animate-choice","37","197733","0.0-37.0","2599","5595","15","Female","true","true","true","false","""event"",""trial"",""time""
""blur"",""4"",""23188""
""focus"",""4"",""23188""
""fullscreenenter"",""5"",""36858""
","""event"",""trial"",""time""
""blur"",""4"",""23188""
","""event"",""trial"",""time""
""focus"",""4"",""23188""
","""event"",""trial"",""time""
""fullscreenenter"",""5"",""36858""
","
","447.30000001192093","","49","","","3000","1","","","images/tutgreenplanet.jpg","images/tutalien1","images/tutalien2","null","images/tutalien2","images/t.png","NA","practice","null","","","",""
"d3-animate-choice","38","200193","0.0-38.0","2599","5595","15","Female","true","true","true","false","""event"",""trial"",""time""
""blur"",""4"",""23188""
""focus"",""4"",""23188""
""fullscreenenter"",""5"",""36858""
","""event"",""trial"",""time""
""blur"",""4"",""23188""
","""event"",""trial"",""time""
""focus"",""4"",""23188""
","""event"",""trial"",""time""
""fullscreenenter"",""5"",""36858""
","
","449.59999999403954","","49","","","3000","1","1969.5999999940395","49","images/tutgreenplanet.jpg","images/tutalien1","images/tutalien2","null","images/tutalien2","images/t.png","NA","practice","null","","","",""
"d3-animate-choice","39","202569","0.0-39.0","2599","5595","15","Female","true","true","true","false","""event"",""trial"",""time""
""blur"",""4"",""23188""
""focus"",""4"",""23188""
""fullscreenenter"",""5"",""36858""
","""event"",""trial"",""time""
""blur"",""4"",""23188""
","""event"",""trial"",""time""
""focus"",""4"",""23188""
","""event"",""trial"",""time""
""fullscreenenter"",""5"",""36858""
","
","365.90000000596046","","49","","","3000","1","","","images/tutgreenplanet.jpg","images/tutalien1","images/tutalien2","null","images/tutalien2","images/t.png","NA","practice","null","","","",""
"d3-animate-choice","40","204983","0.0-40.0","2599","5595","15","Female","true","true","true","false","""event"",""trial"",""time""
""blur"",""4"",""23188""
""focus"",""4"",""23188""
""fullscreenenter"",""5"",""36858""
","""event"",""trial"",""time""
""blur"",""4"",""23188""
","""event"",""trial"",""time""
""focus"",""4"",""23188""
","""event"",""trial"",""time""
""fullscreenenter"",""5"",""36858""
","
","399.5","","49","","","3000","1","","","images/tutgreenplanet.jpg","images/tutalien1","images/tutalien2","null","images/tutalien2","images/t.png","NA","practice","null","","","",""
"d3-animate-choice","41","207353","0.0-41.0","2599","5595","15","Female","true","true","true","false","""event"",""trial"",""time""
""blur"",""4"",""23188""
""focus"",""4"",""23188""
""fullscreenenter"",""5"",""36858""
","""event"",""trial"",""time""
""blur"",""4"",""23188""
","""event"",""trial"",""time""
""focus"",""4"",""23188""
","""event"",""trial"",""time""
""fullscreenenter"",""5"",""36858""
","
","359.40000000596046","","49","","","3000","1","","","images/tutgreenplanet.jpg","images/tutalien1","images/tutalien2","null","images/tutalien2","images/t.png","NA","practice","null","","","",""
"d3-animate-choice","42","209763","0.0-42.0","2599","5595","15","Female","true","true","true","false","""event"",""trial"",""time""
""blur"",""4"",""23188""
""focus"",""4"",""23188""
""fullscreenenter"",""5"",""36858""
","""event"",""trial"",""time""
""blur"",""4"",""23188""
","""event"",""trial"",""time""
""focus"",""4"",""23188""
","""event"",""trial"",""time""
""fullscreenenter"",""5"",""36858""
","
","405.90000000596046","","49","","","3000","1","","","images/tutgreenplanet.jpg","images/tutalien1","images/tutalien2","null","images/tutalien2","images/t.png","NA","practice","null","","","",""
"d3-animate-choice","43","212166","0.0-43.0","2599","5595","15","Female","true","true","true","false","""event"",""trial"",""time""
""blur"",""4"",""23188""
""focus"",""4"",""23188""
""fullscreenenter"",""5"",""36858""
","""event"",""trial"",""time""
""blur"",""4"",""23188""
","""event"",""trial"",""time""
""focus"",""4"",""23188""
","""event"",""trial"",""time""
""fullscreenenter"",""5"",""36858""
","
","395.7000000178814","","49","","","3000","1","","","images/tutgreenplanet.jpg","images/tutalien1","images/tutalien2","null","images/tutalien2","images/t.png","NA","practice","null","","","",""
"d3-instructions","44","227755","0.0-44.0","2599","5595","15","Female","true","true","true","false","""event"",""trial"",""time""
""blur"",""4"",""23188""
""focus"",""4"",""23188""
""fullscreenenter"",""5"",""36858""
","""event"",""trial"",""time""
""blur"",""4"",""23188""
","""event"",""trial"",""time""
""focus"",""4"",""23188""
","""event"",""trial"",""time""
""fullscreenenter"",""5"",""36858""
","
","","","","","","","","","","","","","","","","","","","","","",""
"d3-instructions","45","230945","0.0-45.0","2599","5595","15","Female","true","true","true","false","""event"",""trial"",""time""
""blur"",""4"",""23188""
""focus"",""4"",""23188""
""fullscreenenter"",""5"",""36858""
","""event"",""trial"",""time""
""blur"",""4"",""23188""
","""event"",""trial"",""time""
""focus"",""4"",""23188""
","""event"",""trial"",""time""
""fullscreenenter"",""5"",""36858""
","
","","","","","","","","","","","","","","","","","","","","","",""
"d3-instructions","46","232737","0.0-46.0","2599","5595","15","Female","true","true","true","false","""event"",""trial"",""time""
""blur"",""4"",""23188""
""focus"",""4"",""23188""
""fullscreenenter"",""5"",""36858""
","""event"",""trial"",""time""
""blur"",""4"",""23188""
","""event"",""trial"",""time""
""focus"",""4"",""23188""
","""event"",""trial"",""time""
""fullscreenenter"",""5"",""36858""
","
","","","","","","","","","","","","","","","","","","","","","",""
"d3-instructions","47","244683","0.0-47.0","2599","5595","15","Female","true","true","true","false","""event"",""trial"",""time""
""blur"",""4"",""23188""
""focus"",""4"",""23188""
""fullscreenenter"",""5"",""36858""
","""event"",""trial"",""time""
""blur"",""4"",""23188""
","""event"",""trial"",""time""
""focus"",""4"",""23188""
","""event"",""trial"",""time""
""fullscreenenter"",""5"",""36858""
","
","","","","","","","","","","","","","","","","","","","","","",""
"d3-instructions","48","251722","0.0-48.0","2599","5595","15","Female","true","true","true","false","""event"",""trial"",""time""
""blur"",""4"",""23188""
""focus"",""4"",""23188""
""fullscreenenter"",""5"",""36858""
","""event"",""trial"",""time""
""blur"",""4"",""23188""
","""event"",""trial"",""time""
""focus"",""4"",""23188""
","""event"",""trial"",""time""
""fullscreenenter"",""5"",""36858""
","
","","","","","","","","","","","","","","","","","","","","","",""
"d3-instructions","49","255075","0.0-49.0","2599","5595","15","Female","true","true","true","false","""event"",""trial"",""time""
""blur"",""4"",""23188""
""focus"",""4"",""23188""
""fullscreenenter"",""5"",""36858""
","""event"",""trial"",""time""
""blur"",""4"",""23188""
","""event"",""trial"",""time""
""focus"",""4"",""23188""
","""event"",""trial"",""time""
""fullscreenenter"",""5"",""36858""
","
","","","","","","","","","","","","","","","","","","","","","",""
"d3-instructions","50","258426","0.0-50.0","2599","5595","15","Female","true","true","true","false","""event"",""trial"",""time""
""blur"",""4"",""23188""
""focus"",""4"",""23188""
""fullscreenenter"",""5"",""36858""
","""event"",""trial"",""time""
""blur"",""4"",""23188""
","""event"",""trial"",""time""
""focus"",""4"",""23188""
","""event"",""trial"",""time""
""fullscreenenter"",""5"",""36858""
","
","","","","","","","","","","","","","","","","","","","","","",""
"d3-instructions","51","260561","0.0-51.0","2599","5595","15","Female","true","true","true","false","""event"",""trial"",""time""
""blur"",""4"",""23188""
""focus"",""4"",""23188""
""fullscreenenter"",""5"",""36858""
","""event"",""trial"",""time""
""blur"",""4"",""23188""
","""event"",""trial"",""time""
""focus"",""4"",""23188""
","""event"",""trial"",""time""
""fullscreenenter"",""5"",""36858""
","
","","","","","","","","","","","","","","","","","","","","","",""
"d3-instructions","52","261921","0.0-52.0","2599","5595","15","Female","true","true","true","false","""event"",""trial"",""time""
""blur"",""4"",""23188""
""focus"",""4"",""23188""
""fullscreenenter"",""5"",""36858""
","""event"",""trial"",""time""
""blur"",""4"",""23188""
","""event"",""trial"",""time""
""focus"",""4"",""23188""
","""event"",""trial"",""time""
""fullscreenenter"",""5"",""36858""
","
","","","","","","","","","","","","","","","","","","","","","",""
"d3-instructions","53","269394","0.0-53.0","2599","5595","15","Female","true","true","true","false","""event"",""trial"",""time""
""blur"",""4"",""23188""
""focus"",""4"",""23188""
""fullscreenenter"",""5"",""36858""
","""event"",""trial"",""time""
""blur"",""4"",""23188""
","""event"",""trial"",""time""
""focus"",""4"",""23188""
","""event"",""trial"",""time""
""fullscreenenter"",""5"",""36858""
","
","","","","","","","","","","","","","","","","","","","","","",""
"d3-instructions","54","274898","0.0-54.0","2599","5595","15","Female","true","true","true","false","""event"",""trial"",""time""
""blur"",""4"",""23188""
""focus"",""4"",""23188""
""fullscreenenter"",""5"",""36858""
","""event"",""trial"",""time""
""blur"",""4"",""23188""
","""event"",""trial"",""time""
""focus"",""4"",""23188""
","""event"",""trial"",""time""
""fullscreenenter"",""5"",""36858""
","
","","","","","","","","","","","","","","","","","","","","","",""
"d3-instructions","55","277809","0.0-55.0","2599","5595","15","Female","true","true","true","false","""event"",""trial"",""time""
""blur"",""4"",""23188""
""focus"",""4"",""23188""
""fullscreenenter"",""5"",""36858""
","""event"",""trial"",""time""
""blur"",""4"",""23188""
","""event"",""trial"",""time""
""focus"",""4"",""23188""
","""event"",""trial"",""time""
""fullscreenenter"",""5"",""36858""
","
","","","","","","","","","","","","","","","","","","","","","",""
"d3-instructions","56","281041","0.0-56.0","2599","5595","15","Female","true","true","true","false","""event"",""trial"",""time""
""blur"",""4"",""23188""
""focus"",""4"",""23188""
""fullscreenenter"",""5"",""36858""
","""event"",""trial"",""time""
""blur"",""4"",""23188""
","""event"",""trial"",""time""
""focus"",""4"",""23188""
","""event"",""trial"",""time""
""fullscreenenter"",""5"",""36858""
","
","","","","","","","","","","","","","","","","","","","","","",""
"d3-instructions","57","286337","0.0-57.0","2599","5595","15","Female","true","true","true","false","""event"",""trial"",""time""
""blur"",""4"",""23188""
""focus"",""4"",""23188""
""fullscreenenter"",""5"",""36858""
","""event"",""trial"",""time""
""blur"",""4"",""23188""
","""event"",""trial"",""time""
""focus"",""4"",""23188""
","""event"",""trial"",""time""
""fullscreenenter"",""5"",""36858""
","
","","","","","","","","","","","","","","","","","","","","","",""
"d3-instructions","58","289649","0.0-58.0","2599","5595","15","Female","true","true","true","false","""event"",""trial"",""time""
""blur"",""4"",""23188""
""focus"",""4"",""23188""
""fullscreenenter"",""5"",""36858""
","""event"",""trial"",""time""
""blur"",""4"",""23188""
","""event"",""trial"",""time""
""focus"",""4"",""23188""
","""event"",""trial"",""time""
""fullscreenenter"",""5"",""36858""
","
","","","","","","","","","","","","","","","","","","","","","",""
"d3-instructions","59","292137","0.0-59.0","2599","5595","15","Female","true","true","true","false","""event"",""trial"",""time""
""blur"",""4"",""23188""
""focus"",""4"",""23188""
""fullscreenenter"",""5"",""36858""
","""event"",""trial"",""time""
""blur"",""4"",""23188""
","""event"",""trial"",""time""
""focus"",""4"",""23188""
","""event"",""trial"",""time""
""fullscreenenter"",""5"",""36858""
","
","","","","","","","","","","","","","","","","","","","","","",""
"d3-instructions","60","294152","0.0-60.0","2599","5595","15","Female","true","true","true","false","""event"",""trial"",""time""
""blur"",""4"",""23188""
""focus"",""4"",""23188""
""fullscreenenter"",""5"",""36858""
","""event"",""trial"",""time""
""blur"",""4"",""23188""
","""event"",""trial"",""time""
""focus"",""4"",""23188""
","""event"",""trial"",""time""
""fullscreenenter"",""5"",""36858""
","
","","","","","","","","","","","","","","","","","","","","","",""
"d3-animate-choice","61","296898","0.0-61.0-0.0","2599","5595","15","Female","true","true","true","false","""event"",""trial"",""time""
""blur"",""4"",""23188""
""focus"",""4"",""23188""
""fullscreenenter"",""5"",""36858""
","""event"",""trial"",""time""
""blur"",""4"",""23188""
","""event"",""trial"",""time""
""focus"",""4"",""23188""
","""event"",""trial"",""time""
""fullscreenenter"",""5"",""36858""
","
","743.0999999940395","","49","","","3000","1","","","images/earth.jpg","images/tutrocket2","images/tutrocket1","null","images/tutrocket1","","1","practice","null","1","","",""
"d3-animate-choice","62","300484","0.0-61.0-1.0","2599","5595","15","Female","true","true","true","false","""event"",""trial"",""time""
""blur"",""4"",""23188""
""focus"",""4"",""23188""
""fullscreenenter"",""5"",""36858""
","""event"",""trial"",""time""
""blur"",""4"",""23188""
","""event"",""trial"",""time""
""focus"",""4"",""23188""
","""event"",""trial"",""time""
""fullscreenenter"",""5"",""36858""
","
","1572.7000000178814","","49","","","3000","1","","","images/tutgreenplanet.jpg","images/tutalien2","images/tutalien1","images/tutrocket1","images/tutalien1","images/nothing.png","2","practice","true","1","common","0","2022-12-30 13:49:53.589"
"two-step-fixation","63","301503","0.0-61.0-2.0","2599","5595","15","Female","true","true","true","false","""event"",""trial"",""time""
""blur"",""4"",""23188""
""focus"",""4"",""23188""
""fullscreenenter"",""5"",""36858""
","""event"",""trial"",""time""
""blur"",""4"",""23188""
","""event"",""trial"",""time""
""focus"",""4"",""23188""
","""event"",""trial"",""time""
""fullscreenenter"",""5"",""36858""
","
","","images/earth.jpg","","","","","","","","","","","","","","fixation","","","","","",""
"d3-animate-choice","64","304583","0.0-61.0-0.1","2599","5595","15","Female","true","true","true","false","""event"",""trial"",""time""
""blur"",""4"",""23188""
""focus"",""4"",""23188""
""fullscreenenter"",""5"",""36858""
","""event"",""trial"",""time""
""blur"",""4"",""23188""
","""event"",""trial"",""time""
""focus"",""4"",""23188""
","""event"",""trial"",""time""
""fullscreenenter"",""5"",""36858""
","
","1072.3999999761581","","49","","","3000","1","","","images/earth.jpg","images/tutrocket2","images/tutrocket1","null","images/tutrocket1","","1","practice","null","1","","",""
"d3-animate-choice","65","307467","0.0-61.0-1.1","2599","5595","15","Female","true","true","true","false","""event"",""trial"",""time""
""blur"",""4"",""23188""
""focus"",""4"",""23188""
""fullscreenenter"",""5"",""36858""
","""event"",""trial"",""time""
""blur"",""4"",""23188""
","""event"",""trial"",""time""
""focus"",""4"",""23188""
","""event"",""trial"",""time""
""fullscreenenter"",""5"",""36858""
","
","878.3999999761581","","49","","","3000","1","","","images/tutyellowplanet.jpg","images/tutalien4","images/tutalien3","images/tutrocket1","images/tutalien3","images/nothing.png","2","practice","false","1","rare","0","2022-12-30 13:50:00.572"
"two-step-fixation","66","308483","0.0-61.0-2.1","2599","5595","15","Female","true","true","true","false","""event"",""trial"",""time""
""blur"",""4"",""23188""
""focus"",""4"",""23188""
""fullscreenenter"",""5"",""36858""
","""event"",""trial"",""time""
""blur"",""4"",""23188""
","""event"",""trial"",""time""
""focus"",""4"",""23188""
","""event"",""trial"",""time""
""fullscreenenter"",""5"",""36858""
","
","","images/earth.jpg","","","","","","","","","","","","","","fixation","","","","","",""
"d3-animate-choice","67","310891","0.0-61.0-0.2","2599","5595","15","Female","true","true","true","false","""event"",""trial"",""time""
""blur"",""4"",""23188""
""focus"",""4"",""23188""
""fullscreenenter"",""5"",""36858""
","""event"",""trial"",""time""
""blur"",""4"",""23188""
","""event"",""trial"",""time""
""focus"",""4"",""23188""
","""event"",""trial"",""time""
""fullscreenenter"",""5"",""36858""
","
","402.59999999403954","","49","","","3000","1","","","images/earth.jpg","images/tutrocket2","images/tutrocket1","null","images/tutrocket1","","1","practice","null","1","","",""
"d3-animate-choice","68","313339","0.0-61.0-1.2","2599","5595","15","Female","true","true","true","false","""event"",""trial"",""time""
""blur"",""4"",""23188""
""focus"",""4"",""23188""
""fullscreenenter"",""5"",""36858""
","""event"",""trial"",""time""
""blur"",""4"",""23188""
","""event"",""trial"",""time""
""focus"",""4"",""23188""
","""event"",""trial"",""time""
""fullscreenenter"",""5"",""36858""
","
","443.30000001192093","","48","","","3000","1","","","images/tutgreenplanet.jpg","images/tutalien2","images/tutalien1","images/tutrocket1","images/tutalien2","images/nothing.png","2","practice","true","2","common","0","2022-12-30 13:50:06.444"
"two-step-fixation","69","314348","0.0-61.0-2.2","2599","5595","15","Female","true","true","true","false","""event"",""trial"",""time""
""blur"",""4"",""23188""
""focus"",""4"",""23188""
""fullscreenenter"",""5"",""36858""
","""event"",""trial"",""time""
""blur"",""4"",""23188""
","""event"",""trial"",""time""
""focus"",""4"",""23188""
","""event"",""trial"",""time""
""fullscreenenter"",""5"",""36858""
","
","","images/earth.jpg","","","","","","","","","","","","","","fixation","","","","","",""
"d3-animate-choice","70","318053","0.0-61.0-0.3","2599","5595","15","Female","true","true","true","false","""event"",""trial"",""time""
""blur"",""4"",""23188""
""focus"",""4"",""23188""
""fullscreenenter"",""5"",""36858""
","""event"",""trial"",""time""
""blur"",""4"",""23188""
","""event"",""trial"",""time""
""focus"",""4"",""23188""
","""event"",""trial"",""time""
""fullscreenenter"",""5"",""36858""
","
","1675.300000011921","","48","","","3000","1","","","images/earth.jpg","images/tutrocket2","images/tutrocket1","null","images/tutrocket2","","1","practice","null","2","","",""
"d3-animate-choice","71","320543","0.0-61.0-1.3","2599","5595","15","Female","true","true","true","false","""event"",""trial"",""time""
""blur"",""4"",""23188""
""focus"",""4"",""23188""
""fullscreenenter"",""5"",""36858""
","""event"",""trial"",""time""
""blur"",""4"",""23188""
","""event"",""trial"",""time""
""focus"",""4"",""23188""
","""event"",""trial"",""time""
""fullscreenenter"",""5"",""36858""
","
","464.90000000596046","","49","","","3000","1","","","images/tutyellowplanet.jpg","images/tutalien4","images/tutalien3","images/tutrocket2","images/tutalien3","images/t.png","2","practice","true","1","common","1","2022-12-30 13:50:13.648"
"two-step-fixation","72","321554","0.0-61.0-2.3","2599","5595","15","Female","true","true","true","false","""event"",""trial"",""time""
""blur"",""4"",""23188""
""focus"",""4"",""23188""
""fullscreenenter"",""5"",""36858""
","""event"",""trial"",""time""
""blur"",""4"",""23188""
","""event"",""trial"",""time""
""focus"",""4"",""23188""
","""event"",""trial"",""time""
""fullscreenenter"",""5"",""36858""
","
","","images/earth.jpg","","","","","","","","","","","","","","fixation","","","","","",""
"d3-animate-choice","73","324055","0.0-61.0-0.4","2599","5595","15","Female","true","true","true","false","""event"",""trial"",""time""
""blur"",""4"",""23188""
""focus"",""4"",""23188""
""fullscreenenter"",""5"",""36858""
","""event"",""trial"",""time""
""blur"",""4"",""23188""
","""event"",""trial"",""time""
""focus"",""4"",""23188""
","""event"",""trial"",""time""
""fullscreenenter"",""5"",""36858""
","
","475.5","","48","","","3000","1","","","images/earth.jpg","images/tutrocket2","images/tutrocket1","null","images/tutrocket2","","1","practice","null","2","","",""
"d3-animate-choice","74","326411","0.0-61.0-1.4","2599","5595","15","Female","true","true","true","false","""event"",""trial"",""time""
""blur"",""4"",""23188""
""focus"",""4"",""23188""
""fullscreenenter"",""5"",""36858""
","""event"",""trial"",""time""
""blur"",""4"",""23188""
","""event"",""trial"",""time""
""focus"",""4"",""23188""
","""event"",""trial"",""time""
""fullscreenenter"",""5"",""36858""
","
","350.40000000596046","","49","","","3000","1","","","images/tutyellowplanet.jpg","images/tutalien4","images/tutalien3","images/tutrocket2","images/tutalien3","images/nothing.png","2","practice","true","1","common","0","2022-12-30 13:50:19.516"
"two-step-fixation","75","327419","0.0-61.0-2.4","2599","5595","15","Female","true","true","true","false","""event"",""trial"",""time""
""blur"",""4"",""23188""
""focus"",""4"",""23188""
""fullscreenenter"",""5"",""36858""
","""event"",""trial"",""time""
""blur"",""4"",""23188""
","""event"",""trial"",""time""
""focus"",""4"",""23188""
","""event"",""trial"",""time""
""fullscreenenter"",""5"",""36858""
","
","","images/earth.jpg","","","","","","","","","","","","","","fixation","","","","","",""
"d3-animate-choice","76","329803","0.0-61.0-0.5","2599","5595","15","Female","true","true","true","false","""event"",""trial"",""time""
""blur"",""4"",""23188""
""focus"",""4"",""23188""
""fullscreenenter"",""5"",""36858""
","""event"",""trial"",""time""
""blur"",""4"",""23188""
","""event"",""trial"",""time""
""focus"",""4"",""23188""
","""event"",""trial"",""time""
""fullscreenenter"",""5"",""36858""
","
","372","","48","","","3000","1","","","images/earth.jpg","images/tutrocket2","images/tutrocket1","null","images/tutrocket2","","1","practice","null","2","","",""
"d3-animate-choice","77","333155","0.0-61.0-1.5","2599","5595","15","Female","true","true","true","false","""event"",""trial"",""time""
""blur"",""4"",""23188""
""focus"",""4"",""23188""
""fullscreenenter"",""5"",""36858""
","""event"",""trial"",""time""
""blur"",""4"",""23188""
","""event"",""trial"",""time""
""focus"",""4"",""23188""
","""event"",""trial"",""time""
""fullscreenenter"",""5"",""36858""
","
","1347.199999988079","","48","","","3000","1","","","images/tutyellowplanet.jpg","images/tutalien4","images/tutalien3","images/tutrocket2","images/tutalien4","images/t.png","2","practice","true","2","common","1","2022-12-30 13:50:26.260"
"two-step-fixation","78","334163","0.0-61.0-2.5","2599","5595","15","Female","true","true","true","false","""event"",""trial"",""time""
""blur"",""4"",""23188""
""focus"",""4"",""23188""
""fullscreenenter"",""5"",""36858""
","""event"",""trial"",""time""
""blur"",""4"",""23188""
","""event"",""trial"",""time""
""focus"",""4"",""23188""
","""event"",""trial"",""time""
""fullscreenenter"",""5"",""36858""
","
","","images/earth.jpg","","","","","","","","","","","","","","fixation","","","","","",""
"d3-animate-choice","79","336787","0.0-61.0-0.6","2599","5595","15","Female","true","true","true","false","""event"",""trial"",""time""
""blur"",""4"",""23188""
""focus"",""4"",""23188""
""fullscreenenter"",""5"",""36858""
","""event"",""trial"",""time""
""blur"",""4"",""23188""
","""event"",""trial"",""time""
""focus"",""4"",""23188""
","""event"",""trial"",""time""
""fullscreenenter"",""5"",""36858""
","
","618.0999999940395","","48","","","3000","1","","","images/earth.jpg","images/tutrocket2","images/tutrocket1","null","images/tutrocket2","","1","practice","null","2","","",""
"d3-animate-choice","80","339522","0.0-61.0-1.6","2599","5595","15","Female","true","true","true","false","""event"",""trial"",""time""
""blur"",""4"",""23188""
""focus"",""4"",""23188""
""fullscreenenter"",""5"",""36858""
","""event"",""trial"",""time""
""blur"",""4"",""23188""
","""event"",""trial"",""time""
""focus"",""4"",""23188""
","""event"",""trial"",""time""
""fullscreenenter"",""5"",""36858""
","
","730.7000000178814","","48","","","3000","1","","","images/tutyellowplanet.jpg","images/tutalien4","images/tutalien3","images/tutrocket2","images/tutalien4","images/nothing.png","2","practice","true","2","common","0","2022-12-30 13:50:32.627"
"two-step-fixation","81","340531","0.0-61.0-2.6","2599","5595","15","Female","true","true","true","false","""event"",""trial"",""time""
""blur"",""4"",""23188""
""focus"",""4"",""23188""
""fullscreenenter"",""5"",""36858""
","""event"",""trial"",""time""
""blur"",""4"",""23188""
","""event"",""trial"",""time""
""focus"",""4"",""23188""
","""event"",""trial"",""time""
""fullscreenenter"",""5"",""36858""
","
","","images/earth.jpg","","","","","","","","","","","","","","fixation","","","","","",""
"d3-animate-choice","82","343286","0.0-61.0-0.7","2599","5595","15","Female","true","true","true","false","""event"",""trial"",""time""
""blur"",""4"",""23188""
""focus"",""4"",""23188""
""fullscreenenter"",""5"",""36858""
","""event"",""trial"",""time""
""blur"",""4"",""23188""
","""event"",""trial"",""time""
""focus"",""4"",""23188""
","""event"",""trial"",""time""
""fullscreenenter"",""5"",""36858""
","
","747.4000000059605","","48","","","3000","1","","","images/earth.jpg","images/tutrocket2","images/tutrocket1","null","images/tutrocket2","","1","practice","null","2","","",""
"d3-animate-choice","83","346003","0.0-61.0-1.7","2599","5595","15","Female","true","true","true","false","""event"",""trial"",""time""
""blur"",""4"",""23188""
""focus"",""4"",""23188""
""fullscreenenter"",""5"",""36858""
","""event"",""trial"",""time""
""blur"",""4"",""23188""
","""event"",""trial"",""time""
""focus"",""4"",""23188""
","""event"",""trial"",""time""
""fullscreenenter"",""5"",""36858""
","
","711.7999999821186","","48","","","3000","1","","","images/tutgreenplanet.jpg","images/tutalien2","images/tutalien1","images/tutrocket2","images/tutalien2","images/t.png","2","practice","false","2","rare","1","2022-12-30 13:50:39.108"
"two-step-fixation","84","347011","0.0-61.0-2.7","2599","5595","15","Female","true","true","true","false","""event"",""trial"",""time""
""blur"",""4"",""23188""
""focus"",""4"",""23188""
""fullscreenenter"",""5"",""36858""
","""event"",""trial"",""time""
""blur"",""4"",""23188""
","""event"",""trial"",""time""
""focus"",""4"",""23188""
","""event"",""trial"",""time""
""fullscreenenter"",""5"",""36858""
","
","","images/earth.jpg","","","","","","","","","","","","","","fixation","","","","","",""
"d3-animate-choice","85","349371","0.0-61.0-0.8","2599","5595","15","Female","true","true","true","false","""event"",""trial"",""time""
""blur"",""4"",""23188""
""focus"",""4"",""23188""
""fullscreenenter"",""5"",""36858""
","""event"",""trial"",""time""
""blur"",""4"",""23188""
","""event"",""trial"",""time""
""focus"",""4"",""23188""
","""event"",""trial"",""time""
""fullscreenenter"",""5"",""36858""
","
","354.40000000596046","","48","","","3000","1","","","images/earth.jpg","images/tutrocket2","images/tutrocket1","null","images/tutrocket2","","1","practice","null","2","","",""
"d3-animate-choice","86","351955","0.0-61.0-1.8","2599","5595","15","Female","true","true","true","false","""event"",""trial"",""time""
""blur"",""4"",""23188""
""focus"",""4"",""23188""
""fullscreenenter"",""5"",""36858""
","""event"",""trial"",""time""
""blur"",""4"",""23188""
","""event"",""trial"",""time""
""focus"",""4"",""23188""
","""event"",""trial"",""time""
""fullscreenenter"",""5"",""36858""
","
","580.7000000178814","","48","","","3000","1","","","images/tutgreenplanet.jpg","images/tutalien2","images/tutalien1","images/tutrocket2","images/tutalien2","images/nothing.png","2","practice","false","2","rare","0","2022-12-30 13:50:45.061"
"two-step-fixation","87","352964","0.0-61.0-2.8","2599","5595","15","Female","true","true","true","false","""event"",""trial"",""time""
""blur"",""4"",""23188""
""focus"",""4"",""23188""
""fullscreenenter"",""5"",""36858""
","""event"",""trial"",""time""
""blur"",""4"",""23188""
","""event"",""trial"",""time""
""focus"",""4"",""23188""
","""event"",""trial"",""time""
""fullscreenenter"",""5"",""36858""
","
","","images/earth.jpg","","","","","","","","","","","","","","fixation","","","","","",""
"d3-animate-choice","88","355284","0.0-61.0-0.9","2599","5595","15","Female","true","true","true","false","""event"",""trial"",""time""
""blur"",""4"",""23188""
""focus"",""4"",""23188""
""fullscreenenter"",""5"",""36858""
","""event"",""trial"",""time""
""blur"",""4"",""23188""
","""event"",""trial"",""time""
""focus"",""4"",""23188""
","""event"",""trial"",""time""
""fullscreenenter"",""5"",""36858""
","
","314","","49","","","3000","1","","","images/earth.jpg","images/tutrocket2","images/tutrocket1","null","images/tutrocket1","","1","practice","null","1","","",""
"d3-animate-choice","89","357780","0.0-61.0-1.9","2599","5595","15","Female","true","true","true","false","""event"",""trial"",""time""
""blur"",""4"",""23188""
""focus"",""4"",""23188""
""fullscreenenter"",""5"",""36858""
","""event"",""trial"",""time""
""blur"",""4"",""23188""
","""event"",""trial"",""time""
""focus"",""4"",""23188""
","""event"",""trial"",""time""
""fullscreenenter"",""5"",""36858""
","
","490.69999998807907","","49","","","3000","1","","","images/tutgreenplanet.jpg","images/tutalien2","images/tutalien1","images/tutrocket1","images/tutalien1","images/nothing.png","2","practice","true","1","common","0","2022-12-30 13:50:50.885"
"two-step-fixation","90","358788","0.0-61.0-2.9","2599","5595","15","Female","true","true","true","false","""event"",""trial"",""time""
""blur"",""4"",""23188""
""focus"",""4"",""23188""
""fullscreenenter"",""5"",""36858""
","""event"",""trial"",""time""
""blur"",""4"",""23188""
","""event"",""trial"",""time""
""focus"",""4"",""23188""
","""event"",""trial"",""time""
""fullscreenenter"",""5"",""36858""
","
","","images/earth.jpg","","","","","","","","","","","","","","fixation","","","","","",""
"d3-animate-choice","91","361132","0.0-61.0-0.10","2599","5595","15","Female","true","true","true","false","""event"",""trial"",""time""
""blur"",""4"",""23188""
""focus"",""4"",""23188""
""fullscreenenter"",""5"",""36858""
","""event"",""trial"",""time""
""blur"",""4"",""23188""
","""event"",""trial"",""time""
""focus"",""4"",""23188""
","""event"",""trial"",""time""
""fullscreenenter"",""5"",""36858""
","
","338.09999999403954","","49","","","3000","1","","","images/earth.jpg","images/tutrocket2","images/tutrocket1","null","images/tutrocket1","","1","practice","null","1","","",""
"d3-animate-choice","92","363620","0.0-61.0-1.10","2599","5595","15","Female","true","true","true","false","""event"",""trial"",""time""
""blur"",""4"",""23188""
""focus"",""4"",""23188""
""fullscreenenter"",""5"",""36858""
","""event"",""trial"",""time""
""blur"",""4"",""23188""
","""event"",""trial"",""time""
""focus"",""4"",""23188""
","""event"",""trial"",""time""
""fullscreenenter"",""5"",""36858""
","
","481.69999998807907","","48","","","3000","1","","","images/tutgreenplanet.jpg","images/tutalien2","images/tutalien1","images/tutrocket1","images/tutalien2","images/nothing.png","2","practice","true","2","common","0","2022-12-30 13:50:56.725"
"two-step-fixation","93","364628","0.0-61.0-2.10","2599","5595","15","Female","true","true","true","false","""event"",""trial"",""time""
""blur"",""4"",""23188""
""focus"",""4"",""23188""
""fullscreenenter"",""5"",""36858""
","""event"",""trial"",""time""
""blur"",""4"",""23188""
","""event"",""trial"",""time""
""focus"",""4"",""23188""
","""event"",""trial"",""time""
""fullscreenenter"",""5"",""36858""
","
","","images/earth.jpg","","","","","","","","","","","","","","fixation","","","","","",""
"d3-animate-choice","94","367475","0.0-61.0-0.11","2599","5595","15","Female","true","true","true","false","""event"",""trial"",""time""
""blur"",""4"",""23188""
""focus"",""4"",""23188""
""fullscreenenter"",""5"",""36858""
","""event"",""trial"",""time""
""blur"",""4"",""23188""
","""event"",""trial"",""time""
""focus"",""4"",""23188""
","""event"",""trial"",""time""
""fullscreenenter"",""5"",""36858""
","
","835.4000000059605","","49","","","3000","1","","","images/earth.jpg","images/tutrocket2","images/tutrocket1","null","images/tutrocket1","","1","practice","null","1","","",""
"d3-animate-choice","95","370139","0.0-61.0-1.11","2599","5595","15","Female","true","true","true","false","""event"",""trial"",""time""
""blur"",""4"",""23188""
""focus"",""4"",""23188""
""fullscreenenter"",""5"",""36858""
","""event"",""trial"",""time""
""blur"",""4"",""23188""
","""event"",""trial"",""time""
""focus"",""4"",""23188""
","""event"",""trial"",""time""
""fullscreenenter"",""5"",""36858""
","
","659.3999999761581","","48","","","3000","1","","","images/tutgreenplanet.jpg","images/tutalien2","images/tutalien1","images/tutrocket1","images/tutalien2","images/nothing.png","2","practice","true","2","common","0","2022-12-30 13:51:03.245"
"two-step-fixation","96","371148","0.0-61.0-2.11","2599","5595","15","Female","true","true","true","false","""event"",""trial"",""time""
""blur"",""4"",""23188""
""focus"",""4"",""23188""
""fullscreenenter"",""5"",""36858""
","""event"",""trial"",""time""
""blur"",""4"",""23188""
","""event"",""trial"",""time""
""focus"",""4"",""23188""
","""event"",""trial"",""time""
""fullscreenenter"",""5"",""36858""
","
","","images/earth.jpg","","","","","","","","","","","","","","fixation","","","","","",""
"d3-animate-choice","97","374268","0.0-61.0-0.12","2599","5595","15","Female","true","true","true","false","""event"",""trial"",""time""
""blur"",""4"",""23188""
""focus"",""4"",""23188""
""fullscreenenter"",""5"",""36858""
","""event"",""trial"",""time""
""blur"",""4"",""23188""
","""event"",""trial"",""time""
""focus"",""4"",""23188""
","""event"",""trial"",""time""
""fullscreenenter"",""5"",""36858""
","
","1113.800000011921","","49","","","3000","1","1883.300000011921,2289.9000000059605,2650.2000000178814","48,48,48","images/earth.jpg","images/tutrocket2","images/tutrocket1","null","images/tutrocket1","","1","practice","null","1","","",""
"d3-animate-choice","98","376731","0.0-61.0-1.12","2599","5595","15","Female","true","true","true","false","""event"",""trial"",""time""
""blur"",""4"",""23188""
""focus"",""4"",""23188""
""fullscreenenter"",""5"",""36858""
","""event"",""trial"",""time""
""blur"",""4"",""23188""
","""event"",""trial"",""time""
""focus"",""4"",""23188""
","""event"",""trial"",""time""
""fullscreenenter"",""5"",""36858""
","
","459.90000000596046","","48","","","3000","1","","","images/tutyellowplanet.jpg","images/tutalien4","images/tutalien3","images/tutrocket1","images/tutalien4","images/nothing.png","2","practice","false","2","rare","0","2022-12-30 13:51:09.836"
"two-step-fixation","99","377740","0.0-61.0-2.12","2599","5595","15","Female","true","true","true","false","""event"",""trial"",""time""
""blur"",""4"",""23188""
""focus"",""4"",""23188""
""fullscreenenter"",""5"",""36858""
","""event"",""trial"",""time""
""blur"",""4"",""23188""
","""event"",""trial"",""time""
""focus"",""4"",""23188""
","""event"",""trial"",""time""
""fullscreenenter"",""5"",""36858""
","
","","images/earth.jpg","","","","","","","","","","","","","","fixation","","","","","",""
"d3-animate-choice","100","380139","0.0-61.0-0.13","2599","5595","15","Female","true","true","true","false","""event"",""trial"",""time""
""blur"",""4"",""23188""
""focus"",""4"",""23188""
""fullscreenenter"",""5"",""36858""
","""event"",""trial"",""time""
""blur"",""4"",""23188""
","""event"",""trial"",""time""
""focus"",""4"",""23188""
","""event"",""trial"",""time""
""fullscreenenter"",""5"",""36858""
","
","389.5","","48","","","3000","1","","","images/earth.jpg","images/tutrocket2","images/tutrocket1","null","images/tutrocket2","","1","practice","null","2","","",""
"d3-animate-choice","101","382757","0.0-61.0-1.13","2599","5595","15","Female","true","true","true","false","""event"",""trial"",""time""
""blur"",""4"",""23188""
""focus"",""4"",""23188""
""fullscreenenter"",""5"",""36858""
","""event"",""trial"",""time""
""blur"",""4"",""23188""
","""event"",""trial"",""time""
""focus"",""4"",""23188""
","""event"",""trial"",""time""
""fullscreenenter"",""5"",""36858""
","
","604.5999999940395","","48","","","3000","1","1156.5999999940395","48","images/tutyellowplanet.jpg","images/tutalien4","images/tutalien3","images/tutrocket2","images/tutalien4","images/nothing.png","2","practice","true","2","common","0","2022-12-30 13:51:15.862"
"two-step-fixation","102","383763","0.0-61.0-2.13","2599","5595","15","Female","true","true","true","false","""event"",""trial"",""time""
""blur"",""4"",""23188""
""focus"",""4"",""23188""
""fullscreenenter"",""5"",""36858""
","""event"",""trial"",""time""
""blur"",""4"",""23188""
","""event"",""trial"",""time""
""focus"",""4"",""23188""
","""event"",""trial"",""time""
""fullscreenenter"",""5"",""36858""
","
","","images/earth.jpg","","","","","","","","","","","","","","fixation","","","","","",""
"d3-animate-choice","103","386468","0.0-61.0-0.14","2599","5595","15","Female","true","true","true","false","""event"",""trial"",""time""
""blur"",""4"",""23188""
""focus"",""4"",""23188""
""fullscreenenter"",""5"",""36858""
","""event"",""trial"",""time""
""blur"",""4"",""23188""
","""event"",""trial"",""time""
""focus"",""4"",""23188""
","""event"",""trial"",""time""
""fullscreenenter"",""5"",""36858""
","
","701.2000000178814","","48","","","3000","1","","","images/earth.jpg","images/tutrocket2","images/tutrocket1","null","images/tutrocket2","","1","practice","null","2","","",""
"d3-animate-choice","104","389108","0.0-61.0-1.14","2599","5595","15","Female","true","true","true","false","""event"",""trial"",""time""
""blur"",""4"",""23188""
""focus"",""4"",""23188""
""fullscreenenter"",""5"",""36858""
","""event"",""trial"",""time""
""blur"",""4"",""23188""
","""event"",""trial"",""time""
""focus"",""4"",""23188""
","""event"",""trial"",""time""
""fullscreenenter"",""5"",""36858""
","
","634.3999999761581","","48","","","3000","1","","","images/tutyellowplanet.jpg","images/tutalien4","images/tutalien3","images/tutrocket2","images/tutalien4","images/t.png","2","practice","true","2","common","1","2022-12-30 13:51:22.213"
"two-step-fixation","105","390116","0.0-61.0-2.14","2599","5595","15","Female","true","true","true","false","""event"",""trial"",""time""
""blur"",""4"",""23188""
""focus"",""4"",""23188""
""fullscreenenter"",""5"",""36858""
","""event"",""trial"",""time""
""blur"",""4"",""23188""
","""event"",""trial"",""time""
""focus"",""4"",""23188""
","""event"",""trial"",""time""
""fullscreenenter"",""5"",""36858""
","
","","images/earth.jpg","","","","","","","","","","","","","","fixation","","","","","",""
"d3-animate-choice","106","392532","0.0-61.0-0.15","2599","5595","15","Female","true","true","true","false","""event"",""trial"",""time""
""blur"",""4"",""23188""
""focus"",""4"",""23188""
""fullscreenenter"",""5"",""36858""
","""event"",""trial"",""time""
""blur"",""4"",""23188""
","""event"",""trial"",""time""
""focus"",""4"",""23188""
","""event"",""trial"",""time""
""fullscreenenter"",""5"",""36858""
","
","410.40000000596046","","48","","","3000","1","","","images/earth.jpg","images/tutrocket2","images/tutrocket1","null","images/tutrocket2","","1","practice","null","2","","",""
"d3-animate-choice","107","394995","0.0-61.0-1.15","2599","5595","15","Female","true","true","true","false","""event"",""trial"",""time""
""blur"",""4"",""23188""
""focus"",""4"",""23188""
""fullscreenenter"",""5"",""36858""
","""event"",""trial"",""time""
""blur"",""4"",""23188""
","""event"",""trial"",""time""
""focus"",""4"",""23188""
","""event"",""trial"",""time""
""fullscreenenter"",""5"",""36858""
","
","458.59999999403954","","48","","","3000","1","","","images/tutgreenplanet.jpg","images/tutalien2","images/tutalien1","images/tutrocket2","images/tutalien2","images/t.png","2","practice","false","2","rare","1","2022-12-30 13:51:28.100"
"two-step-fixation","108","396003","0.0-61.0-2.15","2599","5595","15","Female","true","true","true","false","""event"",""trial"",""time""
""blur"",""4"",""23188""
""focus"",""4"",""23188""
""fullscreenenter"",""5"",""36858""
","""event"",""trial"",""time""
""blur"",""4"",""23188""
","""event"",""trial"",""time""
""focus"",""4"",""23188""
","""event"",""trial"",""time""
""fullscreenenter"",""5"",""36858""
","
","","images/earth.jpg","","","","","","","","","","","","","","fixation","","","","","",""
"d3-animate-choice","109","398571","0.0-61.0-0.16","2599","5595","15","Female","true","true","true","false","""event"",""trial"",""time""
""blur"",""4"",""23188""
""focus"",""4"",""23188""
""fullscreenenter"",""5"",""36858""
","""event"",""trial"",""time""
""blur"",""4"",""23188""
","""event"",""trial"",""time""
""focus"",""4"",""23188""
","""event"",""trial"",""time""
""fullscreenenter"",""5"",""36858""
","
","564.9000000059605","","48","","","3000","1","","","images/earth.jpg","images/tutrocket2","images/tutrocket1","null","images/tutrocket2","","1","practice","null","2","","",""
"d3-animate-choice","110","401027","0.0-61.0-1.16","2599","5595","15","Female","true","true","true","false","""event"",""trial"",""time""
""blur"",""4"",""23188""
""focus"",""4"",""23188""
""fullscreenenter"",""5"",""36858""
","""event"",""trial"",""time""
""blur"",""4"",""23188""
","""event"",""trial"",""time""
""focus"",""4"",""23188""
","""event"",""trial"",""time""
""fullscreenenter"",""5"",""36858""
","
","445.59999999403954","","48","","","3000","1","","","images/tutyellowplanet.jpg","images/tutalien4","images/tutalien3","images/tutrocket2","images/tutalien4","images/t.png","2","practice","true","2","common","1","2022-12-30 13:51:34.133"
"two-step-fixation","111","402035","0.0-61.0-2.16","2599","5595","15","Female","true","true","true","false","""event"",""trial"",""time""
""blur"",""4"",""23188""
""focus"",""4"",""23188""
""fullscreenenter"",""5"",""36858""
","""event"",""trial"",""time""
""blur"",""4"",""23188""
","""event"",""trial"",""time""
""focus"",""4"",""23188""
","""event"",""trial"",""time""
""fullscreenenter"",""5"",""36858""
","
","","images/earth.jpg","","","","","","","","","","","","","","fixation","","","","","",""
"d3-animate-choice","112","404372","0.0-61.0-0.17","2599","5595","15","Female","true","true","true","false","""event"",""trial"",""time""
""blur"",""4"",""23188""
""focus"",""4"",""23188""
""fullscreenenter"",""5"",""36858""
","""event"",""trial"",""time""
""blur"",""4"",""23188""
","""event"",""trial"",""time""
""focus"",""4"",""23188""
","""event"",""trial"",""time""
""fullscreenenter"",""5"",""36858""
","
","333.40000000596046","","48","","","3000","1","","","images/earth.jpg","images/tutrocket2","images/tutrocket1","null","images/tutrocket2","","1","practice","null","2","","",""
"d3-animate-choice","113","406852","0.0-61.0-1.17","2599","5595","15","Female","true","true","true","false","""event"",""trial"",""time""
""blur"",""4"",""23188""
""focus"",""4"",""23188""
""fullscreenenter"",""5"",""36858""
","""event"",""trial"",""time""
""blur"",""4"",""23188""
","""event"",""trial"",""time""
""focus"",""4"",""23188""
","""event"",""trial"",""time""
""fullscreenenter"",""5"",""36858""
","
","474.09999999403954","","48","","","3000","1","","","images/tutyellowplanet.jpg","images/tutalien4","images/tutalien3","images/tutrocket2","images/tutalien4","images/t.png","2","practice","true","2","common","1","2022-12-30 13:51:39.957"
"two-step-fixation","114","407858","0.0-61.0-2.17","2599","5595","15","Female","true","true","true","false","""event"",""trial"",""time""
""blur"",""4"",""23188""
""focus"",""4"",""23188""
""fullscreenenter"",""5"",""36858""
","""event"",""trial"",""time""
""blur"",""4"",""23188""
","""event"",""trial"",""time""
""focus"",""4"",""23188""
","""event"",""trial"",""time""
""fullscreenenter"",""5"",""36858""
","
","","images/earth.jpg","","","","","","","","","","","","","","fixation","","","","","",""
"d3-animate-choice","115","410275","0.0-61.0-0.18","2599","5595","15","Female","true","true","true","false","""event"",""trial"",""time""
""blur"",""4"",""23188""
""focus"",""4"",""23188""
""fullscreenenter"",""5"",""36858""
","""event"",""trial"",""time""
""blur"",""4"",""23188""
","""event"",""trial"",""time""
""focus"",""4"",""23188""
","""event"",""trial"",""time""
""fullscreenenter"",""5"",""36858""
","
","411.89999997615814","","48","","","3000","1","","","images/earth.jpg","images/tutrocket2","images/tutrocket1","null","images/tutrocket2","","1","practice","null","2","","",""
"d3-animate-choice","116","412732","0.0-61.0-1.18","2599","5595","15","Female","true","true","true","false","""event"",""trial"",""time""
""blur"",""4"",""23188""
""focus"",""4"",""23188""
""fullscreenenter"",""5"",""36858""
","""event"",""trial"",""time""
""blur"",""4"",""23188""
","""event"",""trial"",""time""
""focus"",""4"",""23188""
","""event"",""trial"",""time""
""fullscreenenter"",""5"",""36858""
","
","445.19999998807907","","48","","","3000","1","","","images/tutyellowplanet.jpg","images/tutalien4","images/tutalien3","images/tutrocket2","images/tutalien4","images/t.png","2","practice","true","2","common","1","2022-12-30 13:51:45.837"
"two-step-fixation","117","413740","0.0-61.0-2.18","2599","5595","15","Female","true","true","true","false","""event"",""trial"",""time""
""blur"",""4"",""23188""
""focus"",""4"",""23188""
""fullscreenenter"",""5"",""36858""
","""event"",""trial"",""time""
""blur"",""4"",""23188""
","""event"",""trial"",""time""
""focus"",""4"",""23188""
","""event"",""trial"",""time""
""fullscreenenter"",""5"",""36858""
","
","","images/earth.jpg","","","","","","","","","","","","","","fixation","","","","","",""
"d3-animate-choice","118","416156","0.0-61.0-0.19","2599","5595","15","Female","true","true","true","false","""event"",""trial"",""time""
""blur"",""4"",""23188""
""focus"",""4"",""23188""
""fullscreenenter"",""5"",""36858""
","""event"",""trial"",""time""
""blur"",""4"",""23188""
","""event"",""trial"",""time""
""focus"",""4"",""23188""
","""event"",""trial"",""time""
""fullscreenenter"",""5"",""36858""
","
","409.80000001192093","","48","","","3000","1","","","images/earth.jpg","images/tutrocket2","images/tutrocket1","null","images/tutrocket2","","1","practice","null","2","","",""
"d3-animate-choice","119","418580","0.0-61.0-1.19","2599","5595","15","Female","true","true","true","false","""event"",""trial"",""time""
""blur"",""4"",""23188""
""focus"",""4"",""23188""
""fullscreenenter"",""5"",""36858""
","""event"",""trial"",""time""
""blur"",""4"",""23188""
","""event"",""trial"",""time""
""focus"",""4"",""23188""
","""event"",""trial"",""time""
""fullscreenenter"",""5"",""36858""
","
","418.40000000596046","","48","","","3000","1","","","images/tutyellowplanet.jpg","images/tutalien4","images/tutalien3","images/tutrocket2","images/tutalien4","images/nothing.png","2","practice","true","2","common","0","2022-12-30 13:51:51.685"
"two-step-fixation","120","419587","0.0-61.0-2.19","2599","5595","15","Female","true","true","true","false","""event"",""trial"",""time""
""blur"",""4"",""23188""
""focus"",""4"",""23188""
""fullscreenenter"",""5"",""36858""
","""event"",""trial"",""time""
""blur"",""4"",""23188""
","""event"",""trial"",""time""
""focus"",""4"",""23188""
","""event"",""trial"",""time""
""fullscreenenter"",""5"",""36858""
","
","","images/earth.jpg","","","","","","","","","","","","","","fixation","","","","","",""
"d3-instructions","121","424177","0.0-62.0","2599","5595","15","Female","true","true","true","false","""event"",""trial"",""time""
""blur"",""4"",""23188""
""focus"",""4"",""23188""
""fullscreenenter"",""5"",""36858""
","""event"",""trial"",""time""
""blur"",""4"",""23188""
","""event"",""trial"",""time""
""focus"",""4"",""23188""
","""event"",""trial"",""time""
""fullscreenenter"",""5"",""36858""
","
","","","","","","","","","","","","","","","","","","","","","",""
"audio-keyboard-response","122","425617","0.0-63.0","2599","5595","15","Female","true","true","true","false","""event"",""trial"",""time""
""blur"",""4"",""23188""
""focus"",""4"",""23188""
""fullscreenenter"",""5"",""36858""
","""event"",""trial"",""time""
""blur"",""4"",""23188""
","""event"",""trial"",""time""
""focus"",""4"",""23188""
","""event"",""trial"",""time""
""fullscreenenter"",""5"",""36858""
","
","1440","audio/instructions/treasure_feedback.wav","32","","","","","","","","","","","","","","","","","","",""
"d3-instructions","123","446123","0.0-64.0","2599","5595","15","Female","true","true","true","false","""event"",""trial"",""time""
""blur"",""4"",""23188""
""focus"",""4"",""23188""
""fullscreenenter"",""5"",""36858""
","""event"",""trial"",""time""
""blur"",""4"",""23188""
","""event"",""trial"",""time""
""focus"",""4"",""23188""
","""event"",""trial"",""time""
""fullscreenenter"",""5"",""36858""
","
","","","","","","","","","","","","","","","","","","","","","",""
"d3-instructions","124","466497","0.0-65.0","2599","5595","15","Female","true","true","true","false","""event"",""trial"",""time""
""blur"",""4"",""23188""
""focus"",""4"",""23188""
""fullscreenenter"",""5"",""36858""
","""event"",""trial"",""time""
""blur"",""4"",""23188""
","""event"",""trial"",""time""
""focus"",""4"",""23188""
","""event"",""trial"",""time""
""fullscreenenter"",""5"",""36858""
","
","","","","","","","","","","","","","","","","","","","","","",""
"d3-instructions","125","476481","0.0-66.0","2599","5595","15","Female","true","true","true","false","""event"",""trial"",""time""
""blur"",""4"",""23188""
""focus"",""4"",""23188""
""fullscreenenter"",""5"",""36858""
","""event"",""trial"",""time""
""blur"",""4"",""23188""
","""event"",""trial"",""time""
""focus"",""4"",""23188""
","""event"",""trial"",""time""
""fullscreenenter"",""5"",""36858""
","
","","","","","","","","","","","","","","","","","","","","","",""
"d3-instructions","126","478689","0.0-67.0","2599","5595","15","Female","true","true","true","false","""event"",""trial"",""time""
""blur"",""4"",""23188""
""focus"",""4"",""23188""
""fullscreenenter"",""5"",""36858""
","""event"",""trial"",""time""
""blur"",""4"",""23188""
","""event"",""trial"",""time""
""focus"",""4"",""23188""
","""event"",""trial"",""time""
""fullscreenenter"",""5"",""36858""
","
","","","","","","","","","","","","","","","","","","","","","",""
"d3-instructions","127","480209","0.0-68.0","2599","5595","15","Female","true","true","true","false","""event"",""trial"",""time""
""blur"",""4"",""23188""
""focus"",""4"",""23188""
""fullscreenenter"",""5"",""36858""
","""event"",""trial"",""time""
""blur"",""4"",""23188""
","""event"",""trial"",""time""
""focus"",""4"",""23188""
","""event"",""trial"",""time""
""fullscreenenter"",""5"",""36858""
","
","","","","","","","","","","","","","","","","","","","","","",""
"instructions-quiz","128","482454","0.0-69.0","2599","5595","15","Female","true","true","true","false","""event"",""trial"",""time""
""blur"",""4"",""23188""
""focus"",""4"",""23188""
""fullscreenenter"",""5"",""36858""
","""event"",""trial"",""time""
""blur"",""4"",""23188""
","""event"",""trial"",""time""
""focus"",""4"",""23188""
","""event"",""trial"",""time""
""fullscreenenter"",""5"",""36858""
","
","2242.0999999940395","audio/quiz/Q1_Prompt.wav","","1","","","","","","","","","","","","","","","","","",""
"audio-keyboard-response","129","491617","0.0-70.0","2599","5595","15","Female","true","true","true","false","""event"",""trial"",""time""
""blur"",""4"",""23188""
""focus"",""4"",""23188""
""fullscreenenter"",""5"",""36858""
","""event"",""trial"",""time""
""blur"",""4"",""23188""
","""event"",""trial"",""time""
""focus"",""4"",""23188""
","""event"",""trial"",""time""
""fullscreenenter"",""5"",""36858""
","
","null","audio/quiz/Q1_Correct.wav","null","","","","","","","","","","","","","","","","","","",""
"instructions-quiz","130","495257","0.0-71.0","2599","5595","15","Female","true","true","true","false","""event"",""trial"",""time""
""blur"",""4"",""23188""
""focus"",""4"",""23188""
""fullscreenenter"",""5"",""36858""
","""event"",""trial"",""time""
""blur"",""4"",""23188""
","""event"",""trial"",""time""
""focus"",""4"",""23188""
","""event"",""trial"",""time""
""fullscreenenter"",""5"",""36858""
","
","3637.399999976158","audio/quiz/Q2_Prompt.wav","","0","","","","","","","","","","","","","","","","","",""
"audio-keyboard-response","131","508126","0.0-72.0","2599","5595","15","Female","true","true","true","false","""event"",""trial"",""time""
""blur"",""4"",""23188""
""focus"",""4"",""23188""
""fullscreenenter"",""5"",""36858""
","""event"",""trial"",""time""
""blur"",""4"",""23188""
","""event"",""trial"",""time""
""focus"",""4"",""23188""
","""event"",""trial"",""time""
""fullscreenenter"",""5"",""36858""
","
","null","audio/quiz/Q2_Correct.wav","null","","","","","","","","","","","","","","","","","","",""
"instructions-quiz","132","510926","0.0-73.0","2599","5595","15","Female","true","true","true","false","""event"",""trial"",""time""
""blur"",""4"",""23188""
""focus"",""4"",""23188""
""fullscreenenter"",""5"",""36858""
","""event"",""trial"",""time""
""blur"",""4"",""23188""
","""event"",""trial"",""time""
""focus"",""4"",""23188""
","""event"",""trial"",""time""
""fullscreenenter"",""5"",""36858""
","
","2798.199999988079","audio/quiz/Q3_Prompt.wav","","1","","","","","","","","","","","","","","","","","",""
"audio-keyboard-response","133","516727","0.0-74.0","2599","5595","15","Female","true","true","true","false","""event"",""trial"",""time""
""blur"",""4"",""23188""
""focus"",""4"",""23188""
""fullscreenenter"",""5"",""36858""
","""event"",""trial"",""time""
""blur"",""4"",""23188""
","""event"",""trial"",""time""
""focus"",""4"",""23188""
","""event"",""trial"",""time""
""fullscreenenter"",""5"",""36858""
","
","null","audio/quiz/Q3_Correct.wav","null","","","","","","","","","","","","","","","","","","",""
"d3-instructions","134","523834","0.0-75.0","2599","5595","15","Female","true","true","true","false","""event"",""trial"",""time""
""blur"",""4"",""23188""
""focus"",""4"",""23188""
""fullscreenenter"",""5"",""36858""
","""event"",""trial"",""time""
""blur"",""4"",""23188""
","""event"",""trial"",""time""
""focus"",""4"",""23188""
","""event"",""trial"",""time""
""fullscreenenter"",""5"",""36858""
","
","","","","","","","","","","","","","","","","","","","","","",""
"d3-animate-choice","135","527842","0.0-76.0-0.0","2599","5595","15","Female","true","true","true","false","""event"",""trial"",""time""
""blur"",""4"",""23188""
""focus"",""4"",""23188""
""fullscreenenter"",""5"",""36858""
","""event"",""trial"",""time""
""blur"",""4"",""23188""
","""event"",""trial"",""time""
""focus"",""4"",""23188""
","""event"",""trial"",""time""
""fullscreenenter"",""5"",""36858""
","
","2371.5999999940395","","48","","","3000","1","","","images/earth.jpg","images/rocket2","images/rocket1","null","images/rocket2","","1","real","null","2","","",""
"d3-animate-choice","136","530548","0.0-76.0-1.0","2599","5595","15","Female","true","true","true","false","""event"",""trial"",""time""
""blur"",""4"",""23188""
""focus"",""4"",""23188""
""fullscreenenter"",""5"",""36858""
","""event"",""trial"",""time""
""blur"",""4"",""23188""
","""event"",""trial"",""time""
""focus"",""4"",""23188""
","""event"",""trial"",""time""
""fullscreenenter"",""5"",""36858""
","
","699.8000000119209","","48","","","3000","1","","","images/purpleplanet.jpg","images/alien4","images/alien3","images/rocket2","images/alien4","images/t.png","2","real","true","2","common","1","2022-12-30 13:53:43.653"
"two-step-fixation","137","531565","0.0-76.0-2.0","2599","5595","15","Female","true","true","true","false","""event"",""trial"",""time""
""blur"",""4"",""23188""
""focus"",""4"",""23188""
""fullscreenenter"",""5"",""36858""
","""event"",""trial"",""time""
""blur"",""4"",""23188""
","""event"",""trial"",""time""
""focus"",""4"",""23188""
","""event"",""trial"",""time""
""fullscreenenter"",""5"",""36858""
","
","","images/earth.jpg","","","","","","","","","","","","","","fixation","","","","","",""
"d3-animate-choice","138","534035","0.0-76.0-0.1","2599","5595","15","Female","true","true","true","false","""event"",""trial"",""time""
""blur"",""4"",""23188""
""focus"",""4"",""23188""
""fullscreenenter"",""5"",""36858""
","""event"",""trial"",""time""
""blur"",""4"",""23188""
","""event"",""trial"",""time""
""focus"",""4"",""23188""
","""event"",""trial"",""time""
""fullscreenenter"",""5"",""36858""
","
","458.30000001192093","","48","","","3000","1","","","images/earth.jpg","images/rocket2","images/rocket1","null","images/rocket2","","1","real","null","2","","",""
"d3-animate-choice","139","536420","0.0-76.0-1.1","2599","5595","15","Female","true","true","true","false","""event"",""trial"",""time""
""blur"",""4"",""23188""
""focus"",""4"",""23188""
""fullscreenenter"",""5"",""36858""
","""event"",""trial"",""time""
""blur"",""4"",""23188""
","""event"",""trial"",""time""
""focus"",""4"",""23188""
","""event"",""trial"",""time""
""fullscreenenter"",""5"",""36858""
","
","372.5","","48","","","3000","1","","","images/purpleplanet.jpg","images/alien4","images/alien3","images/rocket2","images/alien4","images/t.png","2","real","true","2","common","1","2022-12-30 13:53:49.525"
"two-step-fixation","140","537428","0.0-76.0-2.1","2599","5595","15","Female","true","true","true","false","""event"",""trial"",""time""
""blur"",""4"",""23188""
""focus"",""4"",""23188""
""fullscreenenter"",""5"",""36858""
","""event"",""trial"",""time""
""blur"",""4"",""23188""
","""event"",""trial"",""time""
""focus"",""4"",""23188""
","""event"",""trial"",""time""
""fullscreenenter"",""5"",""36858""
","
","","images/earth.jpg","","","","","","","","","","","","","","fixation","","","","","",""
"d3-animate-choice","141","539765","0.0-76.0-0.2","2599","5595","15","Female","true","true","true","false","""event"",""trial"",""time""
""blur"",""4"",""23188""
""focus"",""4"",""23188""
""fullscreenenter"",""5"",""36858""
","""event"",""trial"",""time""
""blur"",""4"",""23188""
","""event"",""trial"",""time""
""focus"",""4"",""23188""
","""event"",""trial"",""time""
""fullscreenenter"",""5"",""36858""
","
","330.30000001192093","","48","","","3000","1","","","images/earth.jpg","images/rocket2","images/rocket1","null","images/rocket2","","1","real","null","2","","",""
"d3-animate-choice","142","542575","0.0-76.0-1.2","2599","5595","15","Female","true","true","true","false","""event"",""trial"",""time""
""blur"",""4"",""23188""
""focus"",""4"",""23188""
""fullscreenenter"",""5"",""36858""
","""event"",""trial"",""time""
""blur"",""4"",""23188""
","""event"",""trial"",""time""
""focus"",""4"",""23188""
","""event"",""trial"",""time""
""fullscreenenter"",""5"",""36858""
","
","801.0999999940395","","48","","","3000","1","","","images/redplanet1.jpg","images/alien2","images/alien1","images/rocket2","images/alien2","images/t.png","2","real","false","2","rare","1","2022-12-30 13:53:55.680"
"two-step-fixation","143","543585","0.0-76.0-2.2","2599","5595","15","Female","true","true","true","false","""event"",""trial"",""time""
""blur"",""4"",""23188""
""focus"",""4"",""23188""
""fullscreenenter"",""5"",""36858""
","""event"",""trial"",""time""
""blur"",""4"",""23188""
","""event"",""trial"",""time""
""focus"",""4"",""23188""
","""event"",""trial"",""time""
""fullscreenenter"",""5"",""36858""
","
","","images/earth.jpg","","","","","","","","","","","","","","fixation","","","","","",""
"d3-animate-choice","144","545965","0.0-76.0-0.3","2599","5595","15","Female","true","true","true","false","""event"",""trial"",""time""
""blur"",""4"",""23188""
""focus"",""4"",""23188""
""fullscreenenter"",""5"",""36858""
","""event"",""trial"",""time""
""blur"",""4"",""23188""
","""event"",""trial"",""time""
""focus"",""4"",""23188""
","""event"",""trial"",""time""
""fullscreenenter"",""5"",""36858""
","
","371.69999998807907","","48","","","3000","1","","","images/earth.jpg","images/rocket2","images/rocket1","null","images/rocket2","","1","real","null","2","","",""
"d3-animate-choice","145","548475","0.0-76.0-1.3","2599","5595","15","Female","true","true","true","false","""event"",""trial"",""time""
""blur"",""4"",""23188""
""focus"",""4"",""23188""
""fullscreenenter"",""5"",""36858""
","""event"",""trial"",""time""
""blur"",""4"",""23188""
","""event"",""trial"",""time""
""focus"",""4"",""23188""
","""event"",""trial"",""time""
""fullscreenenter"",""5"",""36858""
","
","498.40000000596046","","48","","","3000","1","","","images/purpleplanet.jpg","images/alien4","images/alien3","images/rocket2","images/alien4","images/t.png","2","real","true","2","common","1","2022-12-30 13:54:01.581"
"two-step-fixation","146","549484","0.0-76.0-2.3","2599","5595","15","Female","true","true","true","false","""event"",""trial"",""time""
""blur"",""4"",""23188""
""focus"",""4"",""23188""
""fullscreenenter"",""5"",""36858""
","""event"",""trial"",""time""
""blur"",""4"",""23188""
","""event"",""trial"",""time""
""focus"",""4"",""23188""
","""event"",""trial"",""time""
""fullscreenenter"",""5"",""36858""
","
","","images/earth.jpg","","","","","","","","","","","","","","fixation","","","","","",""
"d3-animate-choice","147","551788","0.0-76.0-0.4","2599","5595","15","Female","true","true","true","false","""event"",""trial"",""time""
""blur"",""4"",""23188""
""focus"",""4"",""23188""
""fullscreenenter"",""5"",""36858""
","""event"",""trial"",""time""
""blur"",""4"",""23188""
","""event"",""trial"",""time""
""focus"",""4"",""23188""
","""event"",""trial"",""time""
""fullscreenenter"",""5"",""36858""
","
","297.40000000596046","","48","","","3000","1","","","images/earth.jpg","images/rocket2","images/rocket1","null","images/rocket2","","1","real","null","2","","",""
"d3-animate-choice","148","554429","0.0-76.0-1.4","2599","5595","15","Female","true","true","true","false","""event"",""trial"",""time""
""blur"",""4"",""23188""
""focus"",""4"",""23188""
""fullscreenenter"",""5"",""36858""
","""event"",""trial"",""time""
""blur"",""4"",""23188""
","""event"",""trial"",""time""
""focus"",""4"",""23188""
","""event"",""trial"",""time""
""fullscreenenter"",""5"",""36858""
","
","634.5","","48","","","3000","1","","","images/purpleplanet.jpg","images/alien4","images/alien3","images/rocket2","images/alien4","images/t.png","2","real","true","2","common","1","2022-12-30 13:54:07.534"
"two-step-fixation","149","555436","0.0-76.0-2.4","2599","5595","15","Female","true","true","true","false","""event"",""trial"",""time""
""blur"",""4"",""23188""
""focus"",""4"",""23188""
""fullscreenenter"",""5"",""36858""
","""event"",""trial"",""time""
""blur"",""4"",""23188""
","""event"",""trial"",""time""
""focus"",""4"",""23188""
","""event"",""trial"",""time""
""fullscreenenter"",""5"",""36858""
","
","","images/earth.jpg","","","","","","","","","","","","","","fixation","","","","","",""
"d3-animate-choice","150","557819","0.0-76.0-0.5","2599","5595","15","Female","true","true","true","false","""event"",""trial"",""time""
""blur"",""4"",""23188""
""focus"",""4"",""23188""
""fullscreenenter"",""5"",""36858""
","""event"",""trial"",""time""
""blur"",""4"",""23188""
","""event"",""trial"",""time""
""focus"",""4"",""23188""
","""event"",""trial"",""time""
""fullscreenenter"",""5"",""36858""
","
","378.09999999403954","","48","","","3000","1","","","images/earth.jpg","images/rocket2","images/rocket1","null","images/rocket2","","1","real","null","2","","",""
"d3-animate-choice","151","560325","0.0-76.0-1.5","2599","5595","15","Female","true","true","true","false","""event"",""trial"",""time""
""blur"",""4"",""23188""
""focus"",""4"",""23188""
""fullscreenenter"",""5"",""36858""
","""event"",""trial"",""time""
""blur"",""4"",""23188""
","""event"",""trial"",""time""
""focus"",""4"",""23188""
","""event"",""trial"",""time""
""fullscreenenter"",""5"",""36858""
","
","499.90000000596046","","48","","","3000","1","","","images/redplanet1.jpg","images/alien2","images/alien1","images/rocket2","images/alien2","images/t.png","2","real","false","2","rare","1","2022-12-30 13:54:13.430"
"two-step-fixation","152","561331","0.0-76.0-2.5","2599","5595","15","Female","true","true","true","false","""event"",""trial"",""time""
""blur"",""4"",""23188""
""focus"",""4"",""23188""
""fullscreenenter"",""5"",""36858""
","""event"",""trial"",""time""
""blur"",""4"",""23188""
","""event"",""trial"",""time""
""focus"",""4"",""23188""
","""event"",""trial"",""time""
""fullscreenenter"",""5"",""36858""
","
","","images/earth.jpg","","","","","","","","","","","","","","fixation","","","","","",""
"d3-animate-choice","153","563819","0.0-76.0-0.6","2599","5595","15","Female","true","true","true","false","""event"",""trial"",""time""
""blur"",""4"",""23188""
""focus"",""4"",""23188""
""fullscreenenter"",""5"",""36858""
","""event"",""trial"",""time""
""blur"",""4"",""23188""
","""event"",""trial"",""time""
""focus"",""4"",""23188""
","""event"",""trial"",""time""
""fullscreenenter"",""5"",""36858""
","
","482.5","","48","","","3000","1","","","images/earth.jpg","images/rocket2","images/rocket1","null","images/rocket2","","1","real","null","2","","",""
"d3-animate-choice","154","566541","0.0-76.0-1.6","2599","5595","15","Female","true","true","true","false","""event"",""trial"",""time""
""blur"",""4"",""23188""
""focus"",""4"",""23188""
""fullscreenenter"",""5"",""36858""
","""event"",""trial"",""time""
""blur"",""4"",""23188""
","""event"",""trial"",""time""
""focus"",""4"",""23188""
","""event"",""trial"",""time""
""fullscreenenter"",""5"",""36858""
","
","714.2000000178814","","48","","","3000","1","","","images/redplanet1.jpg","images/alien2","images/alien1","images/rocket2","images/alien2","images/nothing.png","2","real","false","2","rare","0","2022-12-30 13:54:19.646"
"two-step-fixation","155","567548","0.0-76.0-2.6","2599","5595","15","Female","true","true","true","false","""event"",""trial"",""time""
""blur"",""4"",""23188""
""focus"",""4"",""23188""
""fullscreenenter"",""5"",""36858""
","""event"",""trial"",""time""
""blur"",""4"",""23188""
","""event"",""trial"",""time""
""focus"",""4"",""23188""
","""event"",""trial"",""time""
""fullscreenenter"",""5"",""36858""
","
","","images/earth.jpg","","","","","","","","","","","","","","fixation","","","","","",""
"d3-animate-choice","156","569652","0.0-76.0-0.7","2599","5595","15","Female","true","true","true","false","""event"",""trial"",""time""
""blur"",""4"",""23188""
""focus"",""4"",""23188""
""fullscreenenter"",""5"",""36858""
","""event"",""trial"",""time""
""blur"",""4"",""23188""
","""event"",""trial"",""time""
""focus"",""4"",""23188""
","""event"",""trial"",""time""
""fullscreenenter"",""5"",""36858""
","
","97.2999999821186","","48","","","3000","1","","","images/earth.jpg","images/rocket2","images/rocket1","null","images/rocket2","","1","real","null","2","","",""
"d3-animate-choice","157","572108","0.0-76.0-1.7","2599","5595","15","Female","true","true","true","false","""event"",""trial"",""time""
""blur"",""4"",""23188""
""focus"",""4"",""23188""
""fullscreenenter"",""5"",""36858""
","""event"",""trial"",""time""
""blur"",""4"",""23188""
","""event"",""trial"",""time""
""focus"",""4"",""23188""
","""event"",""trial"",""time""
""fullscreenenter"",""5"",""36858""
","
","451.69999998807907","","48","","","3000","1","","","images/purpleplanet.jpg","images/alien4","images/alien3","images/rocket2","images/alien4","images/t.png","2","real","true","2","common","1","2022-12-30 13:54:25.213"
"two-step-fixation","158","573116","0.0-76.0-2.7","2599","5595","15","Female","true","true","true","false","""event"",""trial"",""time""
""blur"",""4"",""23188""
""focus"",""4"",""23188""
""fullscreenenter"",""5"",""36858""
","""event"",""trial"",""time""
""blur"",""4"",""23188""
","""event"",""trial"",""time""
""focus"",""4"",""23188""
","""event"",""trial"",""time""
""fullscreenenter"",""5"",""36858""
","
","","images/earth.jpg","","","","","","","","","","","","","","fixation","","","","","",""
"d3-animate-choice","159","575429","0.0-76.0-0.8","2599","5595","15","Female","true","true","true","false","""event"",""trial"",""time""
""blur"",""4"",""23188""
""focus"",""4"",""23188""
""fullscreenenter"",""5"",""36858""
","""event"",""trial"",""time""
""blur"",""4"",""23188""
","""event"",""trial"",""time""
""focus"",""4"",""23188""
","""event"",""trial"",""time""
""fullscreenenter"",""5"",""36858""
","
","305.5","","48","","","3000","1","","","images/earth.jpg","images/rocket2","images/rocket1","null","images/rocket2","","1","real","null","2","","",""
"d3-animate-choice","160","578459","0.0-76.0-1.8","2599","5595","15","Female","true","true","true","false","""event"",""trial"",""time""
""blur"",""4"",""23188""
""focus"",""4"",""23188""
""fullscreenenter"",""5"",""36858""
","""event"",""trial"",""time""
""blur"",""4"",""23188""
","""event"",""trial"",""time""
""focus"",""4"",""23188""
","""event"",""trial"",""time""
""fullscreenenter"",""5"",""36858""
","
","1025.199999988079","","48","","","3000","1","","","images/purpleplanet.jpg","images/alien4","images/alien3","images/rocket2","images/alien4","images/t.png","2","real","true","2","common","1","2022-12-30 13:54:31.564"
"two-step-fixation","161","579468","0.0-76.0-2.8","2599","5595","15","Female","true","true","true","false","""event"",""trial"",""time""
""blur"",""4"",""23188""
""focus"",""4"",""23188""
""fullscreenenter"",""5"",""36858""
","""event"",""trial"",""time""
""blur"",""4"",""23188""
","""event"",""trial"",""time""
""focus"",""4"",""23188""
","""event"",""trial"",""time""
""fullscreenenter"",""5"",""36858""
","
","","images/earth.jpg","","","","","","","","","","","","","","fixation","","","","","",""
"d3-animate-choice","162","581916","0.0-76.0-0.9","2599","5595","15","Female","true","true","true","false","""event"",""trial"",""time""
""blur"",""4"",""23188""
""focus"",""4"",""23188""
""fullscreenenter"",""5"",""36858""
","""event"",""trial"",""time""
""blur"",""4"",""23188""
","""event"",""trial"",""time""
""focus"",""4"",""23188""
","""event"",""trial"",""time""
""fullscreenenter"",""5"",""36858""
","
","441.2000000178814","","48","","","3000","1","","","images/earth.jpg","images/rocket2","images/rocket1","null","images/rocket2","","1","real","null","2","","",""
"d3-animate-choice","163","584508","0.0-76.0-1.9","2599","5595","15","Female","true","true","true","false","""event"",""trial"",""time""
""blur"",""4"",""23188""
""focus"",""4"",""23188""
""fullscreenenter"",""5"",""36858""
","""event"",""trial"",""time""
""blur"",""4"",""23188""
","""event"",""trial"",""time""
""focus"",""4"",""23188""
","""event"",""trial"",""time""
""fullscreenenter"",""5"",""36858""
","
","579.5999999940395","","48","","","3000","1","","","images/purpleplanet.jpg","images/alien4","images/alien3","images/rocket2","images/alien4","images/t.png","2","real","true","2","common","1","2022-12-30 13:54:37.613"
"two-step-fixation","164","585516","0.0-76.0-2.9","2599","5595","15","Female","true","true","true","false","""event"",""trial"",""time""
""blur"",""4"",""23188""
""focus"",""4"",""23188""
""fullscreenenter"",""5"",""36858""
","""event"",""trial"",""time""
""blur"",""4"",""23188""
","""event"",""trial"",""time""
""focus"",""4"",""23188""
","""event"",""trial"",""time""
""fullscreenenter"",""5"",""36858""
","
","","images/earth.jpg","","","","","","","","","","","","","","fixation","","","","","",""
"d3-animate-choice","165","587909","0.0-76.0-0.10","2599","5595","15","Female","true","true","true","false","""event"",""trial"",""time""
""blur"",""4"",""23188""
""focus"",""4"",""23188""
""fullscreenenter"",""5"",""36858""
","""event"",""trial"",""time""
""blur"",""4"",""23188""
","""event"",""trial"",""time""
""focus"",""4"",""23188""
","""event"",""trial"",""time""
""fullscreenenter"",""5"",""36858""
","
","386","","48","","","3000","1","","","images/earth.jpg","images/rocket2","images/rocket1","null","images/rocket2","","1","real","null","2","","",""
"d3-animate-choice","166","590580","0.0-76.0-1.10","2599","5595","15","Female","true","true","true","false","""event"",""trial"",""time""
""blur"",""4"",""23188""
""focus"",""4"",""23188""
""fullscreenenter"",""5"",""36858""
","""event"",""trial"",""time""
""blur"",""4"",""23188""
","""event"",""trial"",""time""
""focus"",""4"",""23188""
","""event"",""trial"",""time""
""fullscreenenter"",""5"",""36858""
","
","665.4000000059605","","48","","","3000","1","","","images/purpleplanet.jpg","images/alien4","images/alien3","images/rocket2","images/alien4","images/nothing.png","2","real","true","2","common","0","2022-12-30 13:54:43.685"
"two-step-fixation","167","591588","0.0-76.0-2.10","2599","5595","15","Female","true","true","true","false","""event"",""trial"",""time""
""blur"",""4"",""23188""
""focus"",""4"",""23188""
""fullscreenenter"",""5"",""36858""
","""event"",""trial"",""time""
""blur"",""4"",""23188""
","""event"",""trial"",""time""
""focus"",""4"",""23188""
","""event"",""trial"",""time""
""fullscreenenter"",""5"",""36858""
","
","","images/earth.jpg","","","","","","","","","","","","","","fixation","","","","","",""
"d3-animate-choice","168","595132","0.0-76.0-0.11","2599","5595","15","Female","true","true","true","false","""event"",""trial"",""time""
""blur"",""4"",""23188""
""focus"",""4"",""23188""
""fullscreenenter"",""5"",""36858""
","""event"",""trial"",""time""
""blur"",""4"",""23188""
","""event"",""trial"",""time""
""focus"",""4"",""23188""
","""event"",""trial"",""time""
""fullscreenenter"",""5"",""36858""
","
","1538.7999999821186","","48","","","3000","1","","","images/earth.jpg","images/rocket2","images/rocket1","null","images/rocket2","","1","real","null","2","","",""
"d3-animate-choice","169","597916","0.0-76.0-1.11","2599","5595","15","Female","true","true","true","false","""event"",""trial"",""time""
""blur"",""4"",""23188""
""focus"",""4"",""23188""
""fullscreenenter"",""5"",""36858""
","""event"",""trial"",""time""
""blur"",""4"",""23188""
","""event"",""trial"",""time""
""focus"",""4"",""23188""
","""event"",""trial"",""time""
""fullscreenenter"",""5"",""36858""
","
","777.9000000059605","","49","","","3000","1","","","images/redplanet1.jpg","images/alien2","images/alien1","images/rocket2","images/alien1","images/t.png","2","real","false","1","rare","1","2022-12-30 13:54:51.021"
"two-step-fixation","170","598924","0.0-76.0-2.11","2599","5595","15","Female","true","true","true","false","""event"",""trial"",""time""
""blur"",""4"",""23188""
""focus"",""4"",""23188""
""fullscreenenter"",""5"",""36858""
","""event"",""trial"",""time""
""blur"",""4"",""23188""
","""event"",""trial"",""time""
""focus"",""4"",""23188""
","""event"",""trial"",""time""
""fullscreenenter"",""5"",""36858""
","
","","images/earth.jpg","","","","","","","","","","","","","","fixation","","","","","",""
"d3-animate-choice","171","601420","0.0-76.0-0.12","2599","5595","15","Female","true","true","true","false","""event"",""trial"",""time""
""blur"",""4"",""23188""
""focus"",""4"",""23188""
""fullscreenenter"",""5"",""36858""
","""event"",""trial"",""time""
""blur"",""4"",""23188""
","""event"",""trial"",""time""
""focus"",""4"",""23188""
","""event"",""trial"",""time""
""fullscreenenter"",""5"",""36858""
","
","489.30000001192093","","48","","","3000","1","","","images/earth.jpg","images/rocket2","images/rocket1","null","images/rocket2","","1","real","null","2","","",""
"d3-animate-choice","172","603779","0.0-76.0-1.12","2599","5595","15","Female","true","true","true","false","""event"",""trial"",""time""
""blur"",""4"",""23188""
""focus"",""4"",""23188""
""fullscreenenter"",""5"",""36858""
","""event"",""trial"",""time""
""blur"",""4"",""23188""
","""event"",""trial"",""time""
""focus"",""4"",""23188""
","""event"",""trial"",""time""
""fullscreenenter"",""5"",""36858""
","
","353.69999998807907","","49","","","3000","1","","","images/purpleplanet.jpg","images/alien4","images/alien3","images/rocket2","images/alien3","images/t.png","2","real","true","1","common","1","2022-12-30 13:54:56.884"
"two-step-fixation","173","604788","0.0-76.0-2.12","2599","5595","15","Female","true","true","true","false","""event"",""trial"",""time""
""blur"",""4"",""23188""
""focus"",""4"",""23188""
""fullscreenenter"",""5"",""36858""
","""event"",""trial"",""time""
""blur"",""4"",""23188""
","""event"",""trial"",""time""
""focus"",""4"",""23188""
","""event"",""trial"",""time""
""fullscreenenter"",""5"",""36858""
","
","","images/earth.jpg","","","","","","","","","","","","","","fixation","","","","","",""
"d3-animate-choice","174","607159","0.0-76.0-0.13","2599","5595","15","Female","true","true","true","false","""event"",""trial"",""time""
""blur"",""4"",""23188""
""focus"",""4"",""23188""
""fullscreenenter"",""5"",""36858""
","""event"",""trial"",""time""
""blur"",""4"",""23188""
","""event"",""trial"",""time""
""focus"",""4"",""23188""
","""event"",""trial"",""time""
""fullscreenenter"",""5"",""36858""
","
","363.5","","48","","","3000","1","","","images/earth.jpg","images/rocket2","images/rocket1","null","images/rocket2","","1","real","null","2","","",""
"d3-animate-choice","175","609732","0.0-76.0-1.13","2599","5595","15","Female","true","true","true","false","""event"",""trial"",""time""
""blur"",""4"",""23188""
""focus"",""4"",""23188""
""fullscreenenter"",""5"",""36858""
","""event"",""trial"",""time""
""blur"",""4"",""23188""
","""event"",""trial"",""time""
""focus"",""4"",""23188""
","""event"",""trial"",""time""
""fullscreenenter"",""5"",""36858""
","
","567.1999999880791","","49","","","3000","1","","","images/purpleplanet.jpg","images/alien4","images/alien3","images/rocket2","images/alien3","images/t.png","2","real","true","1","common","1","2022-12-30 13:55:02.837"
"two-step-fixation","176","610740","0.0-76.0-2.13","2599","5595","15","Female","true","true","true","false","""event"",""trial"",""time""
""blur"",""4"",""23188""
""focus"",""4"",""23188""
""fullscreenenter"",""5"",""36858""
","""event"",""trial"",""time""
""blur"",""4"",""23188""
","""event"",""trial"",""time""
""focus"",""4"",""23188""
","""event"",""trial"",""time""
""fullscreenenter"",""5"",""36858""
","
","","images/earth.jpg","","","","","","","","","","","","","","fixation","","","","","",""
"d3-animate-choice","177","613076","0.0-76.0-0.14","2599","5595","15","Female","true","true","true","false","""event"",""trial"",""time""
""blur"",""4"",""23188""
""focus"",""4"",""23188""
""fullscreenenter"",""5"",""36858""
","""event"",""trial"",""time""
""blur"",""4"",""23188""
","""event"",""trial"",""time""
""focus"",""4"",""23188""
