"trial_type","trial_index","time_elapsed","internal_node_id","participant_id","subject_id","age","gender","rocket_sides","red_planet_first_rocket","red_display_order","purple_display_order","interactions","blur_events","focus_events","fullscreenenter_events","fullscreenexit_events","rt","stimulus","key_press","button_pressed","success","duration","valid_pressed","rts","keys","planet_text","right_text","left_text","center_text","chosen_text","reward_text","trial_stage","practice_trial","transition_type","choice","transition","reward","timestamp"
"pavlovia","0","10","0.0-0.0","243","3775","9","Male","true","true","false","true","
","
","
","
","
","","","","","","","","","","","","","","","","","","","","","",""
"html-keyboard-response","1","1906","0.0-1.0","243","3775","9","Male","true","true","false","true","
","
","
","
","
","1895.0999999046326","Welcome! Press the space bar to begin.","32","","","","","","","","","","","","","","","","","","",""
"audio-keyboard-response","2","5387","0.0-2.0","243","3775","9","Male","true","true","false","true","
","
","
","
","
","3429","audio/beep_loop.wav","32","","","","","","","","","","","","","","","","","","",""
"audio-button-response","3","11445","0.0-3.0","243","3775","9","Male","true","true","false","true","
","
","
","
","
","NaN","audio/fish.mp3","","1","","","","","","","","","","","","","","","","","",""
"audio-button-response","4","17093","0.0-4.0","243","3775","9","Male","true","true","false","true","""event"",""trial"",""time""
""fullscreenenter"",""5"",""22754""
","
","
","""event"",""trial"",""time""
""fullscreenenter"",""5"",""22754""
","
","NaN","audio/tiger.mp3","","4","","","","","","","","","","","","","","","","","",""
"fullscreen","5","23746","0.0-5.0","243","3775","9","Male","true","true","false","true","""event"",""trial"",""time""
""fullscreenenter"",""5"",""22754""
","
","
","""event"",""trial"",""time""
""fullscreenenter"",""5"",""22754""
","
","","","","","true","","","","","","","","","","","","","","","","",""
"d3-instructions","6","40274","0.0-6.0","243","3775","9","Male","true","true","false","true","""event"",""trial"",""time""
""fullscreenenter"",""5"",""22754""
","
","
","""event"",""trial"",""time""
""fullscreenenter"",""5"",""22754""
","
","","","","","","","","","","","","","","","","","","","","","",""
"d3-instructions","7","49633","0.0-7.0","243","3775","9","Male","true","true","false","true","""event"",""trial"",""time""
""fullscreenenter"",""5"",""22754""
","
","
","""event"",""trial"",""time""
""fullscreenenter"",""5"",""22754""
","
","","","","","","","","","","","","","","","","","","","","","",""
"d3-instructions","8","56542","0.0-8.0","243","3775","9","Male","true","true","false","true","""event"",""trial"",""time""
""fullscreenenter"",""5"",""22754""
","
","
","""event"",""trial"",""time""
""fullscreenenter"",""5"",""22754""
","
","","","","","","","","","","","","","","","","","","","","","",""
"d3-instructions","9","68307","0.0-9.0","243","3775","9","Male","true","true","false","true","""event"",""trial"",""time""
""fullscreenenter"",""5"",""22754""
","
","
","""event"",""trial"",""time""
""fullscreenenter"",""5"",""22754""
","
","","","","","","","","","","","","","","","","","","","","","",""
"d3-instructions","10","88491","0.0-10.0","243","3775","9","Male","true","true","false","true","""event"",""trial"",""time""
""fullscreenenter"",""5"",""22754""
","
","
","""event"",""trial"",""time""
""fullscreenenter"",""5"",""22754""
","
","","","","","","","","","","","","","","","","","","","","","",""
"d3-animate-choice","11","97362","0.0-11.0","243","3775","9","Male","true","true","false","true","""event"",""trial"",""time""
""fullscreenenter"",""5"",""22754""
","
","
","""event"",""trial"",""time""
""fullscreenenter"",""5"",""22754""
","
","6856","","49","","","3000","1","","","images/tutgreenplanet.jpg","images/tutalien1","images/tutalien2","null","images/tutalien2","","NA","practice","null","","","",""
"d3-animate-choice","12","103499","0.0-12.0","243","3775","9","Male","true","true","false","true","""event"",""trial"",""time""
""fullscreenenter"",""5"",""22754""
","
","
","""event"",""trial"",""time""
""fullscreenenter"",""5"",""22754""
","
","4131","","48","","","3000","1","","","images/tutgreenplanet.jpg","images/tutalien1","images/tutalien2","null","images/tutalien1","","NA","practice","null","","","",""
"d3-animate-choice","13","107932","0.0-13.0","243","3775","9","Male","true","true","false","true","""event"",""trial"",""time""
""fullscreenenter"",""5"",""22754""
","
","
","""event"",""trial"",""time""
""fullscreenenter"",""5"",""22754""
","
","2426","","48","","","3000","1","","","images/tutgreenplanet.jpg","images/tutalien1","images/tutalien2","null","images/tutalien1","","NA","practice","null","","","",""
"d3-animate-choice","14","110632","0.0-14.0","243","3775","9","Male","true","true","false","true","""event"",""trial"",""time""
""fullscreenenter"",""5"",""22754""
","
","
","""event"",""trial"",""time""
""fullscreenenter"",""5"",""22754""
","
","693.3000000715256","","49","","","3000","1","","","images/tutgreenplanet.jpg","images/tutalien1","images/tutalien2","null","images/tutalien2","","NA","practice","null","","","",""
"d3-instructions","15","117537","0.0-15.0","243","3775","9","Male","true","true","false","true","""event"",""trial"",""time""
""fullscreenenter"",""5"",""22754""
","
","
","""event"",""trial"",""time""
""fullscreenenter"",""5"",""22754""
","
","","","","","","","","","","","","","","","","","","","","","",""
"d3-instructions","16","124151","0.0-16.0","243","3775","9","Male","true","true","false","true","""event"",""trial"",""time""
""fullscreenenter"",""5"",""22754""
","
","
","""event"",""trial"",""time""
""fullscreenenter"",""5"",""22754""
","
","","","","","","","","","","","","","","","","","","","","","",""
"d3-instructions","17","132747","0.0-17.0","243","3775","9","Male","true","true","false","true","""event"",""trial"",""time""
""fullscreenenter"",""5"",""22754""
","
","
","""event"",""trial"",""time""
""fullscreenenter"",""5"",""22754""
","
","","","","","","","","","","","","","","","","","","","","","",""
"d3-instructions","18","145493","0.0-18.0","243","3775","9","Male","true","true","false","true","""event"",""trial"",""time""
""fullscreenenter"",""5"",""22754""
","
","
","""event"",""trial"",""time""
""fullscreenenter"",""5"",""22754""
","
","","","","","","","","","","","","","","","","","","","","","",""
"d3-instructions","19","159837","0.0-19.0","243","3775","9","Male","true","true","false","true","""event"",""trial"",""time""
""fullscreenenter"",""5"",""22754""
","
","
","""event"",""trial"",""time""
""fullscreenenter"",""5"",""22754""
","
","","","","","","","","","","","","","","","","","","","","","",""
"d3-animate-choice","20","162830","0.0-20.0","243","3775","9","Male","true","true","false","true","""event"",""trial"",""time""
""fullscreenenter"",""5"",""22754""
","
","
","""event"",""trial"",""time""
""fullscreenenter"",""5"",""22754""
","
","986.7999999523163","","49","","","3000","1","1246.7999999523163,1494.2000000476837,1785.3999999761581","49,49,49","images/tutyellowplanet.jpg","null","images/tutalien3","null","images/tutalien3","images/t.png","NA","practice","null","","","",""
"d3-animate-choice","21","165296","0.0-21.0","243","3775","9","Male","true","true","false","true","""event"",""trial"",""time""
""fullscreenenter"",""5"",""22754""
","
","
","""event"",""trial"",""time""
""fullscreenenter"",""5"",""22754""
","
","458","","49","","","3000","1","","","images/tutyellowplanet.jpg","null","images/tutalien3","null","images/tutalien3","images/t.png","NA","practice","null","","","",""
"d3-animate-choice","22","167661","0.0-22.0","243","3775","9","Male","true","true","false","true","""event"",""trial"",""time""
""fullscreenenter"",""5"",""22754""
","
","
","""event"",""trial"",""time""
""fullscreenenter"",""5"",""22754""
","
","356","","49","","","3000","1","","","images/tutyellowplanet.jpg","null","images/tutalien3","null","images/tutalien3","images/t.png","NA","practice","null","","","",""
"d3-animate-choice","23","169954","0.0-23.0","243","3775","9","Male","true","true","false","true","""event"",""trial"",""time""
""fullscreenenter"",""5"",""22754""
","
","
","""event"",""trial"",""time""
""fullscreenenter"",""5"",""22754""
","
","285.6999999284744","","49","","","3000","1","","","images/tutyellowplanet.jpg","null","images/tutalien3","null","images/tutalien3","images/t.png","NA","practice","null","","","",""
"d3-animate-choice","24","172112","0.0-24.0","243","3775","9","Male","true","true","false","true","""event"",""trial"",""time""
""fullscreenenter"",""5"",""22754""
","
","
","""event"",""trial"",""time""
""fullscreenenter"",""5"",""22754""
","
","153.40000009536743","","49","","","3000","1","","","images/tutyellowplanet.jpg","null","images/tutalien3","null","images/tutalien3","images/nothing.png","NA","practice","null","","","",""
"d3-animate-choice","25","174406","0.0-25.0","243","3775","9","Male","true","true","false","true","""event"",""trial"",""time""
""fullscreenenter"",""5"",""22754""
","
","
","""event"",""trial"",""time""
""fullscreenenter"",""5"",""22754""
","
","289.39999997615814","","49","","","3000","1","","","images/tutyellowplanet.jpg","null","images/tutalien3","null","images/tutalien3","images/t.png","NA","practice","null","","","",""
"d3-animate-choice","26","176733","0.0-26.0","243","3775","9","Male","true","true","false","true","""event"",""trial"",""time""
""fullscreenenter"",""5"",""22754""
","
","
","""event"",""trial"",""time""
""fullscreenenter"",""5"",""22754""
","
","323","","49","","","3000","1","","","images/tutyellowplanet.jpg","null","images/tutalien3","null","images/tutalien3","images/t.png","NA","practice","null","","","",""
"d3-animate-choice","27","178817","0.0-27.0","243","3775","9","Male","true","true","false","true","""event"",""trial"",""time""
""fullscreenenter"",""5"",""22754""
","
","
","""event"",""trial"",""time""
""fullscreenenter"",""5"",""22754""
","
","77.5","","49","","","3000","1","1360.7999999523163,2035.1999999284744","49,49","images/tutyellowplanet.jpg","null","images/tutalien3","null","images/tutalien3","images/t.png","NA","practice","null","","","",""
"d3-animate-choice","28","181403","0.0-28.0","243","3775","9","Male","true","true","false","true","""event"",""trial"",""time""
""fullscreenenter"",""5"",""22754""
","
","
","""event"",""trial"",""time""
""fullscreenenter"",""5"",""22754""
","
","582.3999999761581","","49","","","3000","1","","","images/tutyellowplanet.jpg","null","images/tutalien3","null","images/tutalien3","images/t.png","NA","practice","null","","","",""
"d3-animate-choice","29","183668","0.0-29.0","243","3775","9","Male","true","true","false","true","""event"",""trial"",""time""
""fullscreenenter"",""5"",""22754""
","
","
","""event"",""trial"",""time""
""fullscreenenter"",""5"",""22754""
","
","258.10000002384186","","49","","","3000","1","","","images/tutyellowplanet.jpg","null","images/tutalien3","null","images/tutalien3","images/t.png","NA","practice","null","","","",""
"d3-instructions","30","190449","0.0-30.0","243","3775","9","Male","true","true","false","true","""event"",""trial"",""time""
""fullscreenenter"",""5"",""22754""
","
","
","""event"",""trial"",""time""
""fullscreenenter"",""5"",""22754""
","
","","","","","","","","","","","","","","","","","","","","","",""
"d3-instructions","31","200911","0.0-31.0","243","3775","9","Male","true","true","false","true","""event"",""trial"",""time""
""fullscreenenter"",""5"",""22754""
","
","
","""event"",""trial"",""time""
""fullscreenenter"",""5"",""22754""
","
","","","","","","","","","","","","","","","","","","","","","",""
"d3-instructions","32","208628","0.0-32.0","243","3775","9","Male","true","true","false","true","""event"",""trial"",""time""
""fullscreenenter"",""5"",""22754""
","
","
","""event"",""trial"",""time""
""fullscreenenter"",""5"",""22754""
","
","","","","","","","","","","","","","","","","","","","","","",""
"d3-instructions","33","220206","0.0-33.0","243","3775","9","Male","true","true","false","true","""event"",""trial"",""time""
""fullscreenenter"",""5"",""22754""
","
","
","""event"",""trial"",""time""
""fullscreenenter"",""5"",""22754""
","
","","","","","","","","","","","","","","","","","","","","","",""
"d3-animate-choice","34","223209","0.0-34.0","243","3775","9","Male","true","true","false","true","""event"",""trial"",""time""
""fullscreenenter"",""5"",""22754""
","
","
","""event"",""trial"",""time""
""fullscreenenter"",""5"",""22754""
","
","998.1000000238419","","49","","","3000","1","","","images/tutgreenplanet.jpg","images/tutalien1","images/tutalien2","null","images/tutalien2","images/t.png","NA","practice","null","","","",""
"d3-animate-choice","35","225580","0.0-35.0","243","3775","9","Male","true","true","false","true","""event"",""trial"",""time""
""fullscreenenter"",""5"",""22754""
","
","
","""event"",""trial"",""time""
""fullscreenenter"",""5"",""22754""
","
","366","","49","","","3000","1","","","images/tutgreenplanet.jpg","images/tutalien1","images/tutalien2","null","images/tutalien2","images/t.png","NA","practice","null","","","",""
"d3-animate-choice","36","228057","0.0-36.0","243","3775","9","Male","true","true","false","true","""event"",""trial"",""time""
""fullscreenenter"",""5"",""22754""
","
","
","""event"",""trial"",""time""
""fullscreenenter"",""5"",""22754""
","
","472.59999990463257","","49","","","3000","1","","","images/tutgreenplanet.jpg","images/tutalien1","images/tutalien2","null","images/tutalien2","images/t.png","NA","practice","null","","","",""
"d3-animate-choice","37","230522","0.0-37.0","243","3775","9","Male","true","true","false","true","""event"",""trial"",""time""
""fullscreenenter"",""5"",""22754""
","
","
","""event"",""trial"",""time""
""fullscreenenter"",""5"",""22754""
","
","459.5","","49","","","3000","1","","","images/tutgreenplanet.jpg","images/tutalien1","images/tutalien2","null","images/tutalien2","images/t.png","NA","practice","null","","","",""
"d3-animate-choice","38","232876","0.0-38.0","243","3775","9","Male","true","true","false","true","""event"",""trial"",""time""
""fullscreenenter"",""5"",""22754""
","
","
","""event"",""trial"",""time""
""fullscreenenter"",""5"",""22754""
","
","346.10000002384186","","49","","","3000","1","","","images/tutgreenplanet.jpg","images/tutalien1","images/tutalien2","null","images/tutalien2","images/t.png","NA","practice","null","","","",""
"d3-animate-choice","39","235192","0.0-39.0","243","3775","9","Male","true","true","false","true","""event"",""trial"",""time""
""fullscreenenter"",""5"",""22754""
","
","
","""event"",""trial"",""time""
""fullscreenenter"",""5"",""22754""
","
","310","","49","","","3000","1","","","images/tutgreenplanet.jpg","images/tutalien1","images/tutalien2","null","images/tutalien2","images/t.png","NA","practice","null","","","",""
"d3-animate-choice","40","237521","0.0-40.0","243","3775","9","Male","true","true","false","true","""event"",""trial"",""time""
""fullscreenenter"",""5"",""22754""
","
","
","""event"",""trial"",""time""
""fullscreenenter"",""5"",""22754""
","
","321.3000000715256","","49","","","3000","1","","","images/tutgreenplanet.jpg","images/tutalien1","images/tutalien2","null","images/tutalien2","images/nothing.png","NA","practice","null","","","",""
"d3-animate-choice","41","239813","0.0-41.0","243","3775","9","Male","true","true","false","true","""event"",""trial"",""time""
""fullscreenenter"",""5"",""22754""
","
","
","""event"",""trial"",""time""
""fullscreenenter"",""5"",""22754""
","
","286.6999999284744","","49","","","3000","1","","","images/tutgreenplanet.jpg","images/tutalien1","images/tutalien2","null","images/tutalien2","images/t.png","NA","practice","null","","","",""
"d3-animate-choice","42","242101","0.0-42.0","243","3775","9","Male","true","true","false","true","""event"",""trial"",""time""
""fullscreenenter"",""5"",""22754""
","
","
","""event"",""trial"",""time""
""fullscreenenter"",""5"",""22754""
","
","280.2999999523163","","49","","","3000","1","","","images/tutgreenplanet.jpg","images/tutalien1","images/tutalien2","null","images/tutalien2","images/t.png","NA","practice","null","","","",""
"d3-animate-choice","43","244425","0.0-43.0","243","3775","9","Male","true","true","false","true","""event"",""trial"",""time""
""fullscreenenter"",""5"",""22754""
","
","
","""event"",""trial"",""time""
""fullscreenenter"",""5"",""22754""
","
","320.3000000715256","","49","","","3000","1","","","images/tutgreenplanet.jpg","images/tutalien1","images/tutalien2","null","images/tutalien2","images/t.png","NA","practice","null","","","",""
"d3-instructions","44","258623","0.0-44.0","243","3775","9","Male","true","true","false","true","""event"",""trial"",""time""
""fullscreenenter"",""5"",""22754""
","
","
","""event"",""trial"",""time""
""fullscreenenter"",""5"",""22754""
","
","","","","","","","","","","","","","","","","","","","","","",""
"d3-instructions","45","264980","0.0-45.0","243","3775","9","Male","true","true","false","true","""event"",""trial"",""time""
""fullscreenenter"",""5"",""22754""
","
","
","""event"",""trial"",""time""
""fullscreenenter"",""5"",""22754""
","
","","","","","","","","","","","","","","","","","","","","","",""
"d3-instructions","46","269907","0.0-46.0","243","3775","9","Male","true","true","false","true","""event"",""trial"",""time""
""fullscreenenter"",""5"",""22754""
","
","
","""event"",""trial"",""time""
""fullscreenenter"",""5"",""22754""
","
","","","","","","","","","","","","","","","","","","","","","",""
"d3-instructions","47","287380","0.0-47.0","243","3775","9","Male","true","true","false","true","""event"",""trial"",""time""
""fullscreenenter"",""5"",""22754""
","
","
","""event"",""trial"",""time""
""fullscreenenter"",""5"",""22754""
","
","","","","","","","","","","","","","","","","","","","","","",""
"d3-instructions","48","295061","0.0-48.0","243","3775","9","Male","true","true","false","true","""event"",""trial"",""time""
""fullscreenenter"",""5"",""22754""
","
","
","""event"",""trial"",""time""
""fullscreenenter"",""5"",""22754""
","
","","","","","","","","","","","","","","","","","","","","","",""
"d3-instructions","49","306233","0.0-49.0","243","3775","9","Male","true","true","false","true","""event"",""trial"",""time""
""fullscreenenter"",""5"",""22754""
","
","
","""event"",""trial"",""time""
""fullscreenenter"",""5"",""22754""
","
","","","","","","","","","","","","","","","","","","","","","",""
"d3-instructions","50","315324","0.0-50.0","243","3775","9","Male","true","true","false","true","""event"",""trial"",""time""
""fullscreenenter"",""5"",""22754""
","
","
","""event"",""trial"",""time""
""fullscreenenter"",""5"",""22754""
","
","","","","","","","","","","","","","","","","","","","","","",""
"d3-instructions","51","318621","0.0-51.0","243","3775","9","Male","true","true","false","true","""event"",""trial"",""time""
""fullscreenenter"",""5"",""22754""
","
","
","""event"",""trial"",""time""
""fullscreenenter"",""5"",""22754""
","
","","","","","","","","","","","","","","","","","","","","","",""
"d3-instructions","52","321489","0.0-52.0","243","3775","9","Male","true","true","false","true","""event"",""trial"",""time""
""fullscreenenter"",""5"",""22754""
","
","
","""event"",""trial"",""time""
""fullscreenenter"",""5"",""22754""
","
","","","","","","","","","","","","","","","","","","","","","",""
"d3-instructions","53","334123","0.0-53.0","243","3775","9","Male","true","true","false","true","""event"",""trial"",""time""
""fullscreenenter"",""5"",""22754""
","
","
","""event"",""trial"",""time""
""fullscreenenter"",""5"",""22754""
","
","","","","","","","","","","","","","","","","","","","","","",""
"d3-instructions","54","346892","0.0-54.0","243","3775","9","Male","true","true","false","true","""event"",""trial"",""time""
""fullscreenenter"",""5"",""22754""
","
","
","""event"",""trial"",""time""
""fullscreenenter"",""5"",""22754""
","
","","","","","","","","","","","","","","","","","","","","","",""
"d3-instructions","55","357320","0.0-55.0","243","3775","9","Male","true","true","false","true","""event"",""trial"",""time""
""fullscreenenter"",""5"",""22754""
","
","
","""event"",""trial"",""time""
""fullscreenenter"",""5"",""22754""
","
","","","","","","","","","","","","","","","","","","","","","",""
"d3-instructions","56","365758","0.0-56.0","243","3775","9","Male","true","true","false","true","""event"",""trial"",""time""
""fullscreenenter"",""5"",""22754""
","
","
","""event"",""trial"",""time""
""fullscreenenter"",""5"",""22754""
","
","","","","","","","","","","","","","","","","","","","","","",""
"d3-instructions","57","376164","0.0-57.0","243","3775","9","Male","true","true","false","true","""event"",""trial"",""time""
""fullscreenenter"",""5"",""22754""
","
","
","""event"",""trial"",""time""
""fullscreenenter"",""5"",""22754""
","
","","","","","","","","","","","","","","","","","","","","","",""
"d3-instructions","58","391306","0.0-58.0","243","3775","9","Male","true","true","false","true","""event"",""trial"",""time""
""fullscreenenter"",""5"",""22754""
","
","
","""event"",""trial"",""time""
""fullscreenenter"",""5"",""22754""
","
","","","","","","","","","","","","","","","","","","","","","",""
"d3-instructions","59","399879","0.0-59.0","243","3775","9","Male","true","true","false","true","""event"",""trial"",""time""
""fullscreenenter"",""5"",""22754""
","
","
","""event"",""trial"",""time""
""fullscreenenter"",""5"",""22754""
","
","","","","","","","","","","","","","","","","","","","","","",""
"d3-instructions","60","406708","0.0-60.0","243","3775","9","Male","true","true","false","true","""event"",""trial"",""time""
""fullscreenenter"",""5"",""22754""
","
","
","""event"",""trial"",""time""
""fullscreenenter"",""5"",""22754""
","
","","","","","","","","","","","","","","","","","","","","","",""
"d3-animate-choice","61","410041","0.0-61.0-0.0","243","3775","9","Male","true","true","false","true","""event"",""trial"",""time""
""fullscreenenter"",""5"",""22754""
","
","
","""event"",""trial"",""time""
""fullscreenenter"",""5"",""22754""
","
","1322.7000000476837","","49","","","3000","1","1546","49","images/earth.jpg","images/tutrocket2","images/tutrocket1","null","images/tutrocket1","","1","practice","null","1","","",""
"d3-animate-choice","62","413593","0.0-61.0-1.0","243","3775","9","Male","true","true","false","true","""event"",""trial"",""time""
""fullscreenenter"",""5"",""22754""
","
","
","""event"",""trial"",""time""
""fullscreenenter"",""5"",""22754""
","
","1543.1000000238419","","49","","","3000","1","","","images/tutgreenplanet.jpg","images/tutalien2","images/tutalien1","images/tutrocket1","images/tutalien1","images/t.png","2","practice","true","1","common","1","2022-11-08 23:34:11.619"
"two-step-fixation","63","414601","0.0-61.0-2.0","243","3775","9","Male","true","true","false","true","""event"",""trial"",""time""
""fullscreenenter"",""5"",""22754""
","
","
","""event"",""trial"",""time""
""fullscreenenter"",""5"",""22754""
","
","","images/earth.jpg","","","","","","","","","","","","","","fixation","","","","","",""
"d3-animate-choice","64","417912","0.0-61.0-0.1","243","3775","9","Male","true","true","false","true","""event"",""trial"",""time""
""fullscreenenter"",""5"",""22754""
","
","
","""event"",""trial"",""time""
""fullscreenenter"",""5"",""22754""
","
","1305.3999999761581","","48","","","3000","1","","","images/earth.jpg","images/tutrocket2","images/tutrocket1","null","images/tutrocket2","","1","practice","null","2","","",""
"d3-animate-choice","65","420726","0.0-61.0-1.1","243","3775","9","Male","true","true","false","true","""event"",""trial"",""time""
""fullscreenenter"",""5"",""22754""
","
","
","""event"",""trial"",""time""
""fullscreenenter"",""5"",""22754""
","
","807.9000000953674","","48","","","3000","1","","","images/tutyellowplanet.jpg","images/tutalien4","images/tutalien3","images/tutrocket2","images/tutalien4","images/t.png","2","practice","true","2","common","1","2022-11-08 23:34:18.751"
"two-step-fixation","66","421734","0.0-61.0-2.1","243","3775","9","Male","true","true","false","true","""event"",""trial"",""time""
""fullscreenenter"",""5"",""22754""
","
","
","""event"",""trial"",""time""
""fullscreenenter"",""5"",""22754""
","
","","images/earth.jpg","","","","","","","","","","","","","","fixation","","","","","",""
"d3-animate-choice","67","424149","0.0-61.0-0.2","243","3775","9","Male","true","true","false","true","""event"",""trial"",""time""
""fullscreenenter"",""5"",""22754""
","
","
","""event"",""trial"",""time""
""fullscreenenter"",""5"",""22754""
","
","404.2000000476837","","49","","","3000","1","","","images/earth.jpg","images/tutrocket2","images/tutrocket1","null","images/tutrocket1","","1","practice","null","1","","",""
"d3-animate-choice","68","426611","0.0-61.0-1.2","243","3775","9","Male","true","true","false","true","""event"",""trial"",""time""
""fullscreenenter"",""5"",""22754""
","
","
","""event"",""trial"",""time""
""fullscreenenter"",""5"",""22754""
","
","453.39999997615814","","49","","","3000","1","","","images/tutyellowplanet.jpg","images/tutalien4","images/tutalien3","images/tutrocket1","images/tutalien3","images/t.png","2","practice","false","1","rare","1","2022-11-08 23:34:24.637"
"two-step-fixation","69","427617","0.0-61.0-2.2","243","3775","9","Male","true","true","false","true","""event"",""trial"",""time""
""fullscreenenter"",""5"",""22754""
","
","
","""event"",""trial"",""time""
""fullscreenenter"",""5"",""22754""
","
","","images/earth.jpg","","","","","","","","","","","","","","fixation","","","","","",""
"d3-animate-choice","70","429973","0.0-61.0-0.3","243","3775","9","Male","true","true","false","true","""event"",""trial"",""time""
""fullscreenenter"",""5"",""22754""
","
","
","""event"",""trial"",""time""
""fullscreenenter"",""5"",""22754""
","
","348.8000000715256","","49","","","3000","1","","","images/earth.jpg","images/tutrocket2","images/tutrocket1","null","images/tutrocket1","","1","practice","null","1","","",""
"d3-animate-choice","71","432617","0.0-61.0-1.3","243","3775","9","Male","true","true","false","true","""event"",""trial"",""time""
""fullscreenenter"",""5"",""22754""
","
","
","""event"",""trial"",""time""
""fullscreenenter"",""5"",""22754""
","
","637.8000000715256","","49","","","3000","1","","","images/tutgreenplanet.jpg","images/tutalien2","images/tutalien1","images/tutrocket1","images/tutalien1","images/nothing.png","2","practice","true","1","common","0","2022-11-08 23:34:30.642"
"two-step-fixation","72","433625","0.0-61.0-2.3","243","3775","9","Male","true","true","false","true","""event"",""trial"",""time""
""fullscreenenter"",""5"",""22754""
","
","
","""event"",""trial"",""time""
""fullscreenenter"",""5"",""22754""
","
","","images/earth.jpg","","","","","","","","","","","","","","fixation","","","","","",""
"d3-animate-choice","73","435992","0.0-61.0-0.4","243","3775","9","Male","true","true","false","true","""event"",""trial"",""time""
""fullscreenenter"",""5"",""22754""
","
","
","""event"",""trial"",""time""
""fullscreenenter"",""5"",""22754""
","
","360.60000002384186","","48","","","3000","1","","","images/earth.jpg","images/tutrocket2","images/tutrocket1","null","images/tutrocket2","","1","practice","null","2","","",""
"d3-animate-choice","74","439032","0.0-61.0-1.4","243","3775","9","Male","true","true","false","true","""event"",""trial"",""time""
""fullscreenenter"",""5"",""22754""
","
","
","""event"",""trial"",""time""
""fullscreenenter"",""5"",""22754""
","
","1030.2999999523163","","49","","","3000","1","","","images/tutyellowplanet.jpg","images/tutalien4","images/tutalien3","images/tutrocket2","images/tutalien3","images/nothing.png","2","practice","true","1","common","0","2022-11-08 23:34:37.057"
"two-step-fixation","75","440041","0.0-61.0-2.4","243","3775","9","Male","true","true","false","true","""event"",""trial"",""time""
""fullscreenenter"",""5"",""22754""
","
","
","""event"",""trial"",""time""
""fullscreenenter"",""5"",""22754""
","
","","images/earth.jpg","","","","","","","","","","","","","","fixation","","","","","",""
"d3-animate-choice","76","442633","0.0-61.0-0.5","243","3775","9","Male","true","true","false","true","""event"",""trial"",""time""
""fullscreenenter"",""5"",""22754""
","
","
","""event"",""trial"",""time""
""fullscreenenter"",""5"",""22754""
","
","585.1000000238419","","49","","","3000","1","","","images/earth.jpg","images/tutrocket2","images/tutrocket1","null","images/tutrocket1","","1","practice","null","1","","",""
"d3-animate-choice","77","445183","0.0-61.0-1.5","243","3775","9","Male","true","true","false","true","""event"",""trial"",""time""
""fullscreenenter"",""5"",""22754""
","
","
","""event"",""trial"",""time""
""fullscreenenter"",""5"",""22754""
","
","541.7000000476837","","49","","","3000","1","","","images/tutgreenplanet.jpg","images/tutalien2","images/tutalien1","images/tutrocket1","images/tutalien1","images/nothing.png","2","practice","true","1","common","0","2022-11-08 23:34:43.208"
"two-step-fixation","78","446190","0.0-61.0-2.5","243","3775","9","Male","true","true","false","true","""event"",""trial"",""time""
""fullscreenenter"",""5"",""22754""
","
","
","""event"",""trial"",""time""
""fullscreenenter"",""5"",""22754""
","
","","images/earth.jpg","","","","","","","","","","","","","","fixation","","","","","",""
"d3-animate-choice","79","448749","0.0-61.0-0.6","243","3775","9","Male","true","true","false","true","""event"",""trial"",""time""
""fullscreenenter"",""5"",""22754""
","
","
","""event"",""trial"",""time""
""fullscreenenter"",""5"",""22754""
","
","552.5","","48","","","3000","1","","","images/earth.jpg","images/tutrocket2","images/tutrocket1","null","images/tutrocket2","","1","practice","null","2","","",""
"d3-animate-choice","80","451427","0.0-61.0-1.6","243","3775","9","Male","true","true","false","true","""event"",""trial"",""time""
""fullscreenenter"",""5"",""22754""
","
","
","""event"",""trial"",""time""
""fullscreenenter"",""5"",""22754""
","
","671.7999999523163","","48","","","3000","1","","","images/tutyellowplanet.jpg","images/tutalien4","images/tutalien3","images/tutrocket2","images/tutalien4","images/t.png","2","practice","true","2","common","1","2022-11-08 23:34:49.452"
"two-step-fixation","81","452435","0.0-61.0-2.6","243","3775","9","Male","true","true","false","true","""event"",""trial"",""time""
""fullscreenenter"",""5"",""22754""
","
","
","""event"",""trial"",""time""
""fullscreenenter"",""5"",""22754""
","
","","images/earth.jpg","","","","","","","","","","","","","","fixation","","","","","",""
"d3-animate-choice","82","455016","0.0-61.0-0.7","243","3775","9","Male","true","true","false","true","""event"",""trial"",""time""
""fullscreenenter"",""5"",""22754""
","
","
","""event"",""trial"",""time""
""fullscreenenter"",""5"",""22754""
","
","574.1000000238419","","48","","","3000","1","","","images/earth.jpg","images/tutrocket2","images/tutrocket1","null","images/tutrocket2","","1","practice","null","2","","",""
"d3-animate-choice","83","458152","0.0-61.0-1.7","243","3775","9","Male","true","true","false","true","""event"",""trial"",""time""
""fullscreenenter"",""5"",""22754""
","
","
","""event"",""trial"",""time""
""fullscreenenter"",""5"",""22754""
","
","1131.2999999523163","","48","","","3000","1","","","images/tutgreenplanet.jpg","images/tutalien2","images/tutalien1","images/tutrocket2","images/tutalien2","images/nothing.png","2","practice","false","2","rare","0","2022-11-08 23:34:56.177"
"two-step-fixation","84","459160","0.0-61.0-2.7","243","3775","9","Male","true","true","false","true","""event"",""trial"",""time""
""fullscreenenter"",""5"",""22754""
","
","
","""event"",""trial"",""time""
""fullscreenenter"",""5"",""22754""
","
","","images/earth.jpg","","","","","","","","","","","","","","fixation","","","","","",""
"d3-animate-choice","85","462016","0.0-61.0-0.8","243","3775","9","Male","true","true","false","true","""event"",""trial"",""time""
""fullscreenenter"",""5"",""22754""
","
","
","""event"",""trial"",""time""
""fullscreenenter"",""5"",""22754""
","
","845.9000000953674","","49","","","3000","1","967.5","48","images/earth.jpg","images/tutrocket2","images/tutrocket1","null","images/tutrocket1","","1","practice","null","1","","",""
"d3-animate-choice","86","465175","0.0-61.0-1.8","243","3775","9","Male","true","true","false","true","""event"",""trial"",""time""
""fullscreenenter"",""5"",""22754""
","
","
","""event"",""trial"",""time""
""fullscreenenter"",""5"",""22754""
","
","1153.1000000238419","","49","","","3000","1","","","images/tutgreenplanet.jpg","images/tutalien2","images/tutalien1","images/tutrocket1","images/tutalien1","images/t.png","2","practice","true","1","common","1","2022-11-08 23:35:03.200"
"two-step-fixation","87","466182","0.0-61.0-2.8","243","3775","9","Male","true","true","false","true","""event"",""trial"",""time""
""fullscreenenter"",""5"",""22754""
","
","
","""event"",""trial"",""time""
""fullscreenenter"",""5"",""22754""
","
","","images/earth.jpg","","","","","","","","","","","","","","fixation","","","","","",""
"d3-animate-choice","88","468855","0.0-61.0-0.9","243","3775","9","Male","true","true","false","true","""event"",""trial"",""time""
""fullscreenenter"",""5"",""22754""
","
","
","""event"",""trial"",""time""
""fullscreenenter"",""5"",""22754""
","
","664.5","","49","","","3000","1","","","images/earth.jpg","images/tutrocket2","images/tutrocket1","null","images/tutrocket1","","1","practice","null","1","","",""
"d3-animate-choice","89","471485","0.0-61.0-1.9","243","3775","9","Male","true","true","false","true","""event"",""trial"",""time""
""fullscreenenter"",""5"",""22754""
","
","
","""event"",""trial"",""time""
""fullscreenenter"",""5"",""22754""
","
","623.3999999761581","","49","","","3000","1","","","images/tutgreenplanet.jpg","images/tutalien2","images/tutalien1","images/tutrocket1","images/tutalien1","images/nothing.png","2","practice","true","1","common","0","2022-11-08 23:35:09.510"
"two-step-fixation","90","472491","0.0-61.0-2.9","243","3775","9","Male","true","true","false","true","""event"",""trial"",""time""
""fullscreenenter"",""5"",""22754""
","
","
","""event"",""trial"",""time""
""fullscreenenter"",""5"",""22754""
","
","","images/earth.jpg","","","","","","","","","","","","","","fixation","","","","","",""
"d3-animate-choice","91","474860","0.0-61.0-0.10","243","3775","9","Male","true","true","false","true","""event"",""trial"",""time""
""fullscreenenter"",""5"",""22754""
","
","
","""event"",""trial"",""time""
""fullscreenenter"",""5"",""22754""
","
","361.89999997615814","","49","","","3000","1","","","images/earth.jpg","images/tutrocket2","images/tutrocket1","null","images/tutrocket1","","1","practice","null","1","","",""
"d3-animate-choice","92","477474","0.0-61.0-1.10","243","3775","9","Male","true","true","false","true","""event"",""trial"",""time""
""fullscreenenter"",""5"",""22754""
","
","
","""event"",""trial"",""time""
""fullscreenenter"",""5"",""22754""
","
","604.3999999761581","","49","","","3000","1","","","images/tutyellowplanet.jpg","images/tutalien4","images/tutalien3","images/tutrocket1","images/tutalien3","images/nothing.png","2","practice","false","1","rare","0","2022-11-08 23:35:15.499"
"two-step-fixation","93","478480","0.0-61.0-2.10","243","3775","9","Male","true","true","false","true","""event"",""trial"",""time""
""fullscreenenter"",""5"",""22754""
","
","
","""event"",""trial"",""time""
""fullscreenenter"",""5"",""22754""
","
","","images/earth.jpg","","","","","","","","","","","","","","fixation","","","","","",""
"d3-animate-choice","94","480658","0.0-61.0-0.11","243","3775","9","Male","true","true","false","true","""event"",""trial"",""time""
""fullscreenenter"",""5"",""22754""
","
","
","""event"",""trial"",""time""
""fullscreenenter"",""5"",""22754""
","
","167.60000002384186","","49","","","3000","1","","","images/earth.jpg","images/tutrocket2","images/tutrocket1","null","images/tutrocket1","","1","practice","null","1","","",""
"d3-animate-choice","95","483735","0.0-61.0-1.11","243","3775","9","Male","true","true","false","true","""event"",""trial"",""time""
""fullscreenenter"",""5"",""22754""
","
","
","""event"",""trial"",""time""
""fullscreenenter"",""5"",""22754""
","
","1071.6000000238419","","49","","","3000","1","","","images/tutgreenplanet.jpg","images/tutalien2","images/tutalien1","images/tutrocket1","images/tutalien1","images/nothing.png","2","practice","true","1","common","0","2022-11-08 23:35:21.760"
"two-step-fixation","96","484740","0.0-61.0-2.11","243","3775","9","Male","true","true","false","true","""event"",""trial"",""time""
""fullscreenenter"",""5"",""22754""
","
","
","""event"",""trial"",""time""
""fullscreenenter"",""5"",""22754""
","
","","images/earth.jpg","","","","","","","","","","","","","","fixation","","","","","",""
"d3-animate-choice","97","487607","0.0-61.0-0.12","243","3775","9","Male","true","true","false","true","""event"",""trial"",""time""
""fullscreenenter"",""5"",""22754""
","
","
","""event"",""trial"",""time""
""fullscreenenter"",""5"",""22754""
","
","860","","49","","","3000","1","","","images/earth.jpg","images/tutrocket2","images/tutrocket1","null","images/tutrocket1","","1","practice","null","1","","",""
"d3-animate-choice","98","490182","0.0-61.0-1.12","243","3775","9","Male","true","true","false","true","""event"",""trial"",""time""
""fullscreenenter"",""5"",""22754""
","
","
","""event"",""trial"",""time""
""fullscreenenter"",""5"",""22754""
","
","569.7999999523163","","49","","","3000","1","","","images/tutgreenplanet.jpg","images/tutalien2","images/tutalien1","images/tutrocket1","images/tutalien1","images/nothing.png","2","practice","true","1","common","0","2022-11-08 23:35:28.207"
"two-step-fixation","99","491191","0.0-61.0-2.12","243","3775","9","Male","true","true","false","true","""event"",""trial"",""time""
""fullscreenenter"",""5"",""22754""
","
","
","""event"",""trial"",""time""
""fullscreenenter"",""5"",""22754""
","
","","images/earth.jpg","","","","","","","","","","","","","","fixation","","","","","",""
"d3-animate-choice","100","493581","0.0-61.0-0.13","243","3775","9","Male","true","true","false","true","""event"",""trial"",""time""
""fullscreenenter"",""5"",""22754""
","
","
","""event"",""trial"",""time""
""fullscreenenter"",""5"",""22754""
","
","383.60000002384186","","48","","","3000","1","","","images/earth.jpg","images/tutrocket2","images/tutrocket1","null","images/tutrocket2","","1","practice","null","2","","",""
"d3-animate-choice","101","497202","0.0-61.0-1.13","243","3775","9","Male","true","true","false","true","""event"",""trial"",""time""
""fullscreenenter"",""5"",""22754""
","
","
","""event"",""trial"",""time""
""fullscreenenter"",""5"",""22754""
","
","1615.8000000715256","","49","","","3000","1","","","images/tutyellowplanet.jpg","images/tutalien4","images/tutalien3","images/tutrocket2","images/tutalien3","images/t.png","2","practice","true","1","common","1","2022-11-08 23:35:35.228"
"two-step-fixation","102","498209","0.0-61.0-2.13","243","3775","9","Male","true","true","false","true","""event"",""trial"",""time""
""fullscreenenter"",""5"",""22754""
","
","
","""event"",""trial"",""time""
""fullscreenenter"",""5"",""22754""
","
","","images/earth.jpg","","","","","","","","","","","","","","fixation","","","","","",""
"d3-animate-choice","103","501193","0.0-61.0-0.14","243","3775","9","Male","true","true","false","true","""event"",""trial"",""time""
""fullscreenenter"",""5"",""22754""
","
","
","""event"",""trial"",""time""
""fullscreenenter"",""5"",""22754""
","
","978.1000000238419","","48","","","3000","1","","","images/earth.jpg","images/tutrocket2","images/tutrocket1","null","images/tutrocket2","","1","practice","null","2","","",""
"d3-animate-choice","104","504492","0.0-61.0-1.14","243","3775","9","Male","true","true","false","true","""event"",""trial"",""time""
""fullscreenenter"",""5"",""22754""
","
","
","""event"",""trial"",""time""
""fullscreenenter"",""5"",""22754""
","
","1293","","48","","","3000","1","","","images/tutgreenplanet.jpg","images/tutalien2","images/tutalien1","images/tutrocket2","images/tutalien2","images/t.png","2","practice","false","2","rare","1","2022-11-08 23:35:42.517"
"two-step-fixation","105","505496","0.0-61.0-2.14","243","3775","9","Male","true","true","false","true","""event"",""trial"",""time""
""fullscreenenter"",""5"",""22754""
","
","
","""event"",""trial"",""time""
""fullscreenenter"",""5"",""22754""
","
","","images/earth.jpg","","","","","","","","","","","","","","fixation","","","","","",""
"d3-animate-choice","106","507855","0.0-61.0-0.15","243","3775","9","Male","true","true","false","true","""event"",""trial"",""time""
""fullscreenenter"",""5"",""22754""
","
","
","""event"",""trial"",""time""
""fullscreenenter"",""5"",""22754""
","
","354.59999990463257","","48","","","3000","1","","","images/earth.jpg","images/tutrocket2","images/tutrocket1","null","images/tutrocket2","","1","practice","null","2","","",""
"d3-animate-choice","107","510431","0.0-61.0-1.15","243","3775","9","Male","true","true","false","true","""event"",""trial"",""time""
""fullscreenenter"",""5"",""22754""
","
","
","""event"",""trial"",""time""
""fullscreenenter"",""5"",""22754""
","
","571.3000000715256","","48","","","3000","1","","","images/tutgreenplanet.jpg","images/tutalien2","images/tutalien1","images/tutrocket2","images/tutalien2","images/nothing.png","2","practice","false","2","rare","0","2022-11-08 23:35:48.456"
"two-step-fixation","108","511439","0.0-61.0-2.15","243","3775","9","Male","true","true","false","true","""event"",""trial"",""time""
""fullscreenenter"",""5"",""22754""
","
","
","""event"",""trial"",""time""
""fullscreenenter"",""5"",""22754""
","
","","images/earth.jpg","","","","","","","","","","","","","","fixation","","","","","",""
"d3-animate-choice","109","513876","0.0-61.0-0.16","243","3775","9","Male","true","true","false","true","""event"",""trial"",""time""
""fullscreenenter"",""5"",""22754""
","
","
","""event"",""trial"",""time""
""fullscreenenter"",""5"",""22754""
","
","431.5","","48","","","3000","1","","","images/earth.jpg","images/tutrocket2","images/tutrocket1","null","images/tutrocket2","","1","practice","null","2","","",""
"d3-animate-choice","110","516767","0.0-61.0-1.16","243","3775","9","Male","true","true","false","true","""event"",""trial"",""time""
""fullscreenenter"",""5"",""22754""
","
","
","""event"",""trial"",""time""
""fullscreenenter"",""5"",""22754""
","
","883.5","","48","","","3000","1","","","images/tutyellowplanet.jpg","images/tutalien4","images/tutalien3","images/tutrocket2","images/tutalien4","images/nothing.png","2","practice","true","2","common","0","2022-11-08 23:35:54.792"
"two-step-fixation","111","517773","0.0-61.0-2.16","243","3775","9","Male","true","true","false","true","""event"",""trial"",""time""
""fullscreenenter"",""5"",""22754""
","
","
","""event"",""trial"",""time""
""fullscreenenter"",""5"",""22754""
","
","","images/earth.jpg","","","","","","","","","","","","","","fixation","","","","","",""
"d3-animate-choice","112","520412","0.0-61.0-0.17","243","3775","9","Male","true","true","false","true","""event"",""trial"",""time""
""fullscreenenter"",""5"",""22754""
","
","
","""event"",""trial"",""time""
""fullscreenenter"",""5"",""22754""
","
","632.3999999761581","","49","","","3000","1","","","images/earth.jpg","images/tutrocket2","images/tutrocket1","null","images/tutrocket1","","1","practice","null","1","","",""
"d3-animate-choice","113","523392","0.0-61.0-1.17","243","3775","9","Male","true","true","false","true","""event"",""trial"",""time""
""fullscreenenter"",""5"",""22754""
","
","
","""event"",""trial"",""time""
""fullscreenenter"",""5"",""22754""
","
","975.8000000715256","","49","","","3000","1","","","images/tutgreenplanet.jpg","images/tutalien2","images/tutalien1","images/tutrocket1","images/tutalien1","images/nothing.png","2","practice","true","1","common","0","2022-11-08 23:36:01.418"
"two-step-fixation","114","524396","0.0-61.0-2.17","243","3775","9","Male","true","true","false","true","""event"",""trial"",""time""
""fullscreenenter"",""5"",""22754""
","
","
","""event"",""trial"",""time""
""fullscreenenter"",""5"",""22754""
","
","","images/earth.jpg","","","","","","","","","","","","","","fixation","","","","","",""
"d3-animate-choice","115","526870","0.0-61.0-0.18","243","3775","9","Male","true","true","false","true","""event"",""trial"",""time""
""fullscreenenter"",""5"",""22754""
","
","
","""event"",""trial"",""time""
""fullscreenenter"",""5"",""22754""
","
","467.60000002384186","","48","","","3000","1","490.5","49","images/earth.jpg","images/tutrocket2","images/tutrocket1","null","images/tutrocket2","","1","practice","null","2","","",""
"d3-animate-choice","116","529592","0.0-61.0-1.18","243","3775","9","Male","true","true","false","true","""event"",""trial"",""time""
""fullscreenenter"",""5"",""22754""
","
","
","""event"",""trial"",""time""
""fullscreenenter"",""5"",""22754""
","
","715.8999999761581","","48","","","3000","1","","","images/tutgreenplanet.jpg","images/tutalien2","images/tutalien1","images/tutrocket2","images/tutalien2","images/t.png","2","practice","false","2","rare","1","2022-11-08 23:36:07.617"
"two-step-fixation","117","530596","0.0-61.0-2.18","243","3775","9","Male","true","true","false","true","""event"",""trial"",""time""
""fullscreenenter"",""5"",""22754""
","
","
","""event"",""trial"",""time""
""fullscreenenter"",""5"",""22754""
","
","","images/earth.jpg","","","","","","","","","","","","","","fixation","","","","","",""
"d3-animate-choice","118","533134","0.0-61.0-0.19","243","3775","9","Male","true","true","false","true","""event"",""trial"",""time""
""fullscreenenter"",""5"",""22754""
","
","
","""event"",""trial"",""time""
""fullscreenenter"",""5"",""22754""
","
","533.2000000476837","","49","","","3000","1","","","images/earth.jpg","images/tutrocket2","images/tutrocket1","null","images/tutrocket1","","1","practice","null","1","","",""
"d3-animate-choice","119","536014","0.0-61.0-1.19","243","3775","9","Male","true","true","false","true","""event"",""trial"",""time""
""fullscreenenter"",""5"",""22754""
","
","
","""event"",""trial"",""time""
""fullscreenenter"",""5"",""22754""
","
","874.1999999284744","","48","","","3000","1","","","images/tutgreenplanet.jpg","images/tutalien2","images/tutalien1","images/tutrocket1","images/tutalien2","images/t.png","2","practice","true","2","common","1","2022-11-08 23:36:14.039"
"two-step-fixation","120","537022","0.0-61.0-2.19","243","3775","9","Male","true","true","false","true","""event"",""trial"",""time""
""fullscreenenter"",""5"",""22754""
","
","
","""event"",""trial"",""time""
""fullscreenenter"",""5"",""22754""
","
","","images/earth.jpg","","","","","","","","","","","","","","fixation","","","","","",""
"d3-instructions","121","544856","0.0-62.0","243","3775","9","Male","true","true","false","true","""event"",""trial"",""time""
""fullscreenenter"",""5"",""22754""
","
","
","""event"",""trial"",""time""
""fullscreenenter"",""5"",""22754""
","
","","","","","","","","","","","","","","","","","","","","","",""
"audio-keyboard-response","122","549819","0.0-63.0","243","3775","9","Male","true","true","false","true","""event"",""trial"",""time""
""fullscreenenter"",""5"",""22754""
","
","
","""event"",""trial"",""time""
""fullscreenenter"",""5"",""22754""
","
","4955","audio/instructions/treasure_feedback.wav","32","","","","","","","","","","","","","","","","","","",""
"d3-instructions","123","572308","0.0-64.0","243","3775","9","Male","true","true","false","true","""event"",""trial"",""time""
""fullscreenenter"",""5"",""22754""
","
","
","""event"",""trial"",""time""
""fullscreenenter"",""5"",""22754""
","
","","","","","","","","","","","","","","","","","","","","","",""
"d3-instructions","124","588238","0.0-65.0","243","3775","9","Male","true","true","false","true","""event"",""trial"",""time""
""fullscreenenter"",""5"",""22754""
","
","
","""event"",""trial"",""time""
""fullscreenenter"",""5"",""22754""
","
","","","","","","","","","","","","","","","","","","","","","",""
"d3-instructions","125","613147","0.0-66.0","243","3775","9","Male","true","true","false","true","""event"",""trial"",""time""
""fullscreenenter"",""5"",""22754""
","
","
","""event"",""trial"",""time""
""fullscreenenter"",""5"",""22754""
","
","","","","","","","","","","","","","","","","","","","","","",""
"d3-instructions","126","629381","0.0-67.0","243","3775","9","Male","true","true","false","true","""event"",""trial"",""time""
""fullscreenenter"",""5"",""22754""
","
","
","""event"",""trial"",""time""
""fullscreenenter"",""5"",""22754""
","
","","","","","","","","","","","","","","","","","","","","","",""
"d3-instructions","127","638853","0.0-68.0","243","3775","9","Male","true","true","false","true","""event"",""trial"",""time""
""fullscreenenter"",""5"",""22754""
","
","
","""event"",""trial"",""time""
""fullscreenenter"",""5"",""22754""
","
","","","","","","","","","","","","","","","","","","","","","",""
"instructions-quiz","128","646432","0.0-69.0","243","3775","9","Male","true","true","false","true","""event"",""trial"",""time""
""fullscreenenter"",""5"",""22754""
","
","
","""event"",""trial"",""time""
""fullscreenenter"",""5"",""22754""
","
","7574.100000023842","audio/quiz/Q1_Prompt.wav","","1","","","","","","","","","","","","","","","","","",""
"audio-keyboard-response","129","655244","0.0-70.0","243","3775","9","Male","true","true","false","true","""event"",""trial"",""time""
""fullscreenenter"",""5"",""22754""
","
","
","""event"",""trial"",""time""
""fullscreenenter"",""5"",""22754""
","
","8811","audio/quiz/Q1_Correct.wav","32","","","","","","","","","","","","","","","","","","",""
"instructions-quiz","130","660965","0.0-71.0","243","3775","9","Male","true","true","false","true","""event"",""trial"",""time""
""fullscreenenter"",""5"",""22754""
","
","
","""event"",""trial"",""time""
""fullscreenenter"",""5"",""22754""
","
","5715.5","audio/quiz/Q2_Prompt.wav","","0","","","","","","","","","","","","","","","","","",""
"audio-keyboard-response","131","666619","0.0-72.0","243","3775","9","Male","true","true","false","true","""event"",""trial"",""time""
""fullscreenenter"",""5"",""22754""
","
","
","""event"",""trial"",""time""
""fullscreenenter"",""5"",""22754""
","
","5648","audio/quiz/Q2_Correct.wav","32","","","","","","","","","","","","","","","","","","",""
"instructions-quiz","132","671831","0.0-73.0","243","3775","9","Male","true","true","false","true","""event"",""trial"",""time""
""fullscreenenter"",""5"",""22754""
","
","
","""event"",""trial"",""time""
""fullscreenenter"",""5"",""22754""
","
","5206.799999952316","audio/quiz/Q3_Prompt.wav","","1","","","","","","","","","","","","","","","","","",""
"audio-keyboard-response","133","672106","0.0-74.0","243","3775","9","Male","true","true","false","true","""event"",""trial"",""time""
""fullscreenenter"",""5"",""22754""
","
","
","""event"",""trial"",""time""
""fullscreenenter"",""5"",""22754""
","
","272","audio/quiz/Q3_Correct.wav","32","","","","","","","","","","","","","","","","","","",""
"d3-instructions","134","686250","0.0-75.0","243","3775","9","Male","true","true","false","true","""event"",""trial"",""time""
""fullscreenenter"",""5"",""22754""
","
","
","""event"",""trial"",""time""
""fullscreenenter"",""5"",""22754""
","
","","","","","","","","","","","","","","","","","","","","","",""
"d3-animate-choice","135","689389","0.0-76.0-0.0","243","3775","9","Male","true","true","false","true","""event"",""trial"",""time""
""fullscreenenter"",""5"",""22754""
","
","
","""event"",""trial"",""time""
""fullscreenenter"",""5"",""22754""
","
","1131.1999999284744","","49","","","3000","1","","","images/earth.jpg","images/rocket2","images/rocket1","null","images/rocket1","","1","real","null","1","","",""
"d3-animate-choice","136","692626","0.0-76.0-1.0","243","3775","9","Male","true","true","false","true","""event"",""trial"",""time""
""fullscreenenter"",""5"",""22754""
","
","
","""event"",""trial"",""time""
""fullscreenenter"",""5"",""22754""
","
","1232","","48","","","3000","1","","","images/purpleplanet.jpg","images/alien4","images/alien3","images/rocket1","images/alien4","images/t.png","2","real","false","2","rare","1","2022-11-08 23:38:50.651"
"two-step-fixation","137","693635","0.0-76.0-2.0","243","3775","9","Male","true","true","false","true","""event"",""trial"",""time""
""fullscreenenter"",""5"",""22754""
","
","
","""event"",""trial"",""time""
""fullscreenenter"",""5"",""22754""
","
","","images/earth.jpg","","","","","","","","","","","","","","fixation","","","","","",""
"d3-animate-choice","138","696181","0.0-76.0-0.1","243","3775","9","Male","true","true","false","true","""event"",""trial"",""time""
""fullscreenenter"",""5"",""22754""
","
","
","""event"",""trial"",""time""
""fullscreenenter"",""5"",""22754""
","
","540.1000000238419","","48","","","3000","1","","","images/earth.jpg","images/rocket2","images/rocket1","null","images/rocket2","","1","real","null","2","","",""
"d3-animate-choice","139","699522","0.0-76.0-1.1","243","3775","9","Male","true","true","false","true","""event"",""trial"",""time""
""fullscreenenter"",""5"",""22754""
","
","
","""event"",""trial"",""time""
""fullscreenenter"",""5"",""22754""
","
","1336.7000000476837","","49","","","3000","1","","","images/redplanet1.jpg","images/alien2","images/alien1","images/rocket2","images/alien1","images/nothing.png","2","real","false","1","rare","0","2022-11-08 23:38:57.547"
"two-step-fixation","140","700527","0.0-76.0-2.1","243","3775","9","Male","true","true","false","true","""event"",""trial"",""time""
""fullscreenenter"",""5"",""22754""
","
","
","""event"",""trial"",""time""
""fullscreenenter"",""5"",""22754""
","
","","images/earth.jpg","","","","","","","","","","","","","","fixation","","","","","",""
"d3-animate-choice","141","702953","0.0-76.0-0.2","243","3775","9","Male","true","true","false","true","""event"",""trial"",""time""
""fullscreenenter"",""5"",""22754""
","
","
","""event"",""trial"",""time""
""fullscreenenter"",""5"",""22754""
","
","419.59999990463257","","48","","","3000","1","","","images/earth.jpg","images/rocket2","images/rocket1","null","images/rocket2","","1","real","null","2","","",""
"d3-animate-choice","142","705496","0.0-76.0-1.2","243","3775","9","Male","true","true","false","true","""event"",""trial"",""time""
""fullscreenenter"",""5"",""22754""
","
","
","""event"",""trial"",""time""
""fullscreenenter"",""5"",""22754""
","
","537.7000000476837","","48","","","3000","1","","","images/purpleplanet.jpg","images/alien4","images/alien3","images/rocket2","images/alien4","images/nothing.png","2","real","true","2","common","0","2022-11-08 23:39:03.521"
"two-step-fixation","143","706503","0.0-76.0-2.2","243","3775","9","Male","true","true","false","true","""event"",""trial"",""time""
""fullscreenenter"",""5"",""22754""
","
","
","""event"",""trial"",""time""
""fullscreenenter"",""5"",""22754""
","
","","images/earth.jpg","","","","","","","","","","","","","","fixation","","","","","",""
"d3-animate-choice","144","708569","0.0-76.0-0.3","243","3775","9","Male","true","true","false","true","""event"",""trial"",""time""
""fullscreenenter"",""5"",""22754""
","
","
","""event"",""trial"",""time""
""fullscreenenter"",""5"",""22754""
","
","58.799999952316284","","49","","","3000","1","","","images/earth.jpg","images/rocket2","images/rocket1","null","images/rocket1","","1","real","null","1","","",""
"d3-animate-choice","145","711538","0.0-76.0-1.3","243","3775","9","Male","true","true","false","true","""event"",""trial"",""time""
""fullscreenenter"",""5"",""22754""
","
","
","""event"",""trial"",""time""
""fullscreenenter"",""5"",""22754""
","
","963.2999999523163","","49","","","3000","1","","","images/purpleplanet.jpg","images/alien4","images/alien3","images/rocket1","images/alien3","images/nothing.png","2","real","false","1","rare","0","2022-11-08 23:39:09.563"
"two-step-fixation","146","712542","0.0-76.0-2.3","243","3775","9","Male","true","true","false","true","""event"",""trial"",""time""
""fullscreenenter"",""5"",""22754""
","
","
","""event"",""trial"",""time""
""fullscreenenter"",""5"",""22754""
","
","","images/earth.jpg","","","","","","","","","","","","","","fixation","","","","","",""
"d3-animate-choice","147","715094","0.0-76.0-0.4","243","3775","9","Male","true","true","false","true","""event"",""trial"",""time""
""fullscreenenter"",""5"",""22754""
","
","
","""event"",""trial"",""time""
""fullscreenenter"",""5"",""22754""
","
","544","","49","","","3000","1","","","images/earth.jpg","images/rocket2","images/rocket1","null","images/rocket1","","1","real","null","1","","",""
"d3-animate-choice","148","717916","0.0-76.0-1.4","243","3775","9","Male","true","true","false","true","""event"",""trial"",""time""
""fullscreenenter"",""5"",""22754""
","
","
","""event"",""trial"",""time""
""fullscreenenter"",""5"",""22754""
","
","816","","48","","","3000","1","","","images/redplanet1.jpg","images/alien2","images/alien1","images/rocket1","images/alien2","images/t.png","2","real","true","2","common","1","2022-11-08 23:39:15.941"
"two-step-fixation","149","718920","0.0-76.0-2.4","243","3775","9","Male","true","true","false","true","""event"",""trial"",""time""
""fullscreenenter"",""5"",""22754""
","
","
","""event"",""trial"",""time""
""fullscreenenter"",""5"",""22754""
","
","","images/earth.jpg","","","","","","","","","","","","","","fixation","","","","","",""
"d3-animate-choice","150","721337","0.0-76.0-0.5","243","3775","9","Male","true","true","false","true","""event"",""trial"",""time""
""fullscreenenter"",""5"",""22754""
","
","
","""event"",""trial"",""time""
""fullscreenenter"",""5"",""22754""
","
","410.2000000476837","","48","","","3000","1","","","images/earth.jpg","images/rocket2","images/rocket1","null","images/rocket2","","1","real","null","2","","",""
"d3-animate-choice","151","724283","0.0-76.0-1.5","243","3775","9","Male","true","true","false","true","""event"",""trial"",""time""
""fullscreenenter"",""5"",""22754""
","
","
","""event"",""trial"",""time""
""fullscreenenter"",""5"",""22754""
","
","941.3000000715256","","49","","","3000","1","","","images/redplanet1.jpg","images/alien2","images/alien1","images/rocket2","images/alien1","images/nothing.png","2","real","false","1","rare","0","2022-11-08 23:39:22.308"
"two-step-fixation","152","725287","0.0-76.0-2.5","243","3775","9","Male","true","true","false","true","""event"",""trial"",""time""
""fullscreenenter"",""5"",""22754""
","
","
","""event"",""trial"",""time""
""fullscreenenter"",""5"",""22754""
","
","","images/earth.jpg","","","","","","","","","","","","","","fixation","","","","","",""
"d3-animate-choice","153","727364","0.0-76.0-0.6","243","3775","9","Male","true","true","false","true","""event"",""trial"",""time""
""fullscreenenter"",""5"",""22754""
","
","
","""event"",""trial"",""time""
""fullscreenenter"",""5"",""22754""
","
","70.59999990463257","","49","","","3000","1","","","images/earth.jpg","images/rocket2","images/rocket1","null","images/rocket1","","1","real","null","1","","",""
"d3-animate-choice","154","730019","0.0-76.0-1.6","243","3775","9","Male","true","true","false","true","""event"",""trial"",""time""
""fullscreenenter"",""5"",""22754""
","
","
","""event"",""trial"",""time""
""fullscreenenter"",""5"",""22754""
","
","651.3999999761581","","48","","","3000","1","","","images/purpleplanet.jpg","images/alien4","images/alien3","images/rocket1","images/alien4","images/nothing.png","2","real","false","2","rare","0","2022-11-08 23:39:28.045"
"two-step-fixation","155","731024","0.0-76.0-2.6","243","3775","9","Male","true","true","false","true","""event"",""trial"",""time""
""fullscreenenter"",""5"",""22754""
","
","
","""event"",""trial"",""time""
""fullscreenenter"",""5"",""22754""
","
","","images/earth.jpg","","","","","","","","","","","","","","fixation","","","","","",""
"d3-animate-choice","156","733090","0.0-76.0-0.7","243","3775","9","Male","true","true","false","true","""event"",""trial"",""time""
""fullscreenenter"",""5"",""22754""
","
","
","""event"",""trial"",""time""
""fullscreenenter"",""5"",""22754""
","
","58.40000009536743","","48","","","3000","1","","","images/earth.jpg","images/rocket2","images/rocket1","null","images/rocket2","","1","real","null","2","","",""
"d3-animate-choice","157","736039","0.0-76.0-1.7","243","3775","9","Male","true","true","false","true","""event"",""trial"",""time""
""fullscreenenter"",""5"",""22754""
","
","
","""event"",""trial"",""time""
""fullscreenenter"",""5"",""22754""
","
","944","","48","","","3000","1","","","images/redplanet1.jpg","images/alien2","images/alien1","images/rocket2","images/alien2","images/t.png","2","real","false","2","rare","1","2022-11-08 23:39:34.064"
"two-step-fixation","158","737043","0.0-76.0-2.7","243","3775","9","Male","true","true","false","true","""event"",""trial"",""time""
""fullscreenenter"",""5"",""22754""
","
","
","""event"",""trial"",""time""
""fullscreenenter"",""5"",""22754""
","
","","images/earth.jpg","","","","","","","","","","","","","","fixation","","","","","",""
"d3-animate-choice","159","739953","0.0-76.0-0.8","243","3775","9","Male","true","true","false","true","""event"",""trial"",""time""
""fullscreenenter"",""5"",""22754""
","
","
","""event"",""trial"",""time""
""fullscreenenter"",""5"",""22754""
","
","905.2000000476837","","49","","","3000","1","","","images/earth.jpg","images/rocket2","images/rocket1","null","images/rocket1","","1","real","null","1","","",""
"d3-animate-choice","160","743127","0.0-76.0-1.8","243","3775","9","Male","true","true","false","true","""event"",""trial"",""time""
""fullscreenenter"",""5"",""22754""
","
","
","""event"",""trial"",""time""
""fullscreenenter"",""5"",""22754""
","
","1166.3999999761581","","48","","","3000","1","","","images/redplanet1.jpg","images/alien2","images/alien1","images/rocket1","images/alien2","images/t.png","2","real","true","2","common","1","2022-11-08 23:39:41.154"
"two-step-fixation","161","744136","0.0-76.0-2.8","243","3775","9","Male","true","true","false","true","""event"",""trial"",""time""
""fullscreenenter"",""5"",""22754""
","
","
","""event"",""trial"",""time""
""fullscreenenter"",""5"",""22754""
","
","","images/earth.jpg","","","","","","","","","","","","","","fixation","","","","","",""
"d3-animate-choice","162","746952","0.0-76.0-0.9","243","3775","9","Male","true","true","false","true","""event"",""trial"",""time""
""fullscreenenter"",""5"",""22754""
","
","
","""event"",""trial"",""time""
""fullscreenenter"",""5"",""22754""
","
","810.7999999523163","","48","","","3000","1","","","images/earth.jpg","images/rocket2","images/rocket1","null","images/rocket2","","1","real","null","2","","",""
"d3-animate-choice","163","750427","0.0-76.0-1.9","243","3775","9","Male","true","true","false","true","""event"",""trial"",""time""
""fullscreenenter"",""5"",""22754""
","
","
","""event"",""trial"",""time""
""fullscreenenter"",""5"",""22754""
","
","1469.8999999761581","","49","","","3000","1","","","images/purpleplanet.jpg","images/alien4","images/alien3","images/rocket2","images/alien3","images/nothing.png","2","real","true","1","common","0","2022-11-08 23:39:48.453"
"two-step-fixation","164","751434","0.0-76.0-2.9","243","3775","9","Male","true","true","false","true","""event"",""trial"",""time""
""fullscreenenter"",""5"",""22754""
","
","
","""event"",""trial"",""time""
""fullscreenenter"",""5"",""22754""
","
","","images/earth.jpg","","","","","","","","","","","","","","fixation","","","","","",""
"d3-animate-choice","165","754781","0.0-76.0-0.10","243","3775","9","Male","true","true","false","true","""event"",""trial"",""time""
""fullscreenenter"",""5"",""22754""
","
","
","""event"",""trial"",""time""
""fullscreenenter"",""5"",""22754""
","
","1340.5","","48","","","3000","1","","","images/earth.jpg","images/rocket2","images/rocket1","null","images/rocket2","","1","real","null","2","","",""
"d3-animate-choice","166","758626","0.0-76.0-1.10","243","3775","9","Male","true","true","false","true","""event"",""trial"",""time""
""fullscreenenter"",""5"",""22754""
","
","
","""event"",""trial"",""time""
""fullscreenenter"",""5"",""22754""
","
","1840.7000000476837","","48","","","3000","1","","","images/purpleplanet.jpg","images/alien4","images/alien3","images/rocket2","images/alien4","images/t.png","2","real","true","2","common","1","2022-11-08 23:39:56.651"
"two-step-fixation","167","759634","0.0-76.0-2.10","243","3775","9","Male","true","true","false","true","""event"",""trial"",""time""
""fullscreenenter"",""5"",""22754""
","
","
","""event"",""trial"",""time""
""fullscreenenter"",""5"",""22754""
","
","","images/earth.jpg","","","","","","","","","","","","","","fixation","","","","","",""
"d3-animate-choice","168","762780","0.0-76.0-0.11","243","3775","9","Male","true","true","false","true","""event"",""trial"",""time""
""fullscreenenter"",""5"",""22754""
","
","
","""event"",""trial"",""time""
""fullscreenenter"",""5"",""22754""
","
","1139.2000000476837","","49","","","3000","1","","","images/earth.jpg","images/rocket2","images/rocket1","null","images/rocket1","","1","real","null","1","","",""
"d3-animate-choice","169","766268","0.0-76.0-1.11","243","3775","9","Male","true","true","false","true","""event"",""trial"",""time""
""fullscreenenter"",""5"",""22754""
","
","
","""event"",""trial"",""time""
""fullscreenenter"",""5"",""22754""
","
","1480.6000000238419","","48","","","3000","1","","","images/redplanet1.jpg","images/alien2","images/alien1","images/rocket1","images/alien2","images/nothing.png","2","real","true","2","common","0","2022-11-08 23:40:04.293"
"two-step-fixation","170","767272","0.0-76.0-2.11","243","3775","9","Male","true","true","false","true","""event"",""trial"",""time""
""fullscreenenter"",""5"",""22754""
","
","
","""event"",""trial"",""time""
""fullscreenenter"",""5"",""22754""
","
","","images/earth.jpg","","","","","","","","","","","","","","fixation","","","","","",""
"d3-animate-choice","171","769766","0.0-76.0-0.12","243","3775","9","Male","true","true","false","true","""event"",""trial"",""time""
""fullscreenenter"",""5"",""22754""
","
","
","""event"",""trial"",""time""
""fullscreenenter"",""5"",""22754""
","
","488.5","","48","","","3000","1","","","images/earth.jpg","images/rocket2","images/rocket1","null","images/rocket2","","1","real","null","2","","",""
"d3-animate-choice","172","772950","0.0-76.0-1.12","243","3775","9","Male","true","true","false","true","""event"",""trial"",""time""
""fullscreenenter"",""5"",""22754""
","
","
","""event"",""trial"",""time""
""fullscreenenter"",""5"",""22754""
","
","1177.6000000238419","","48","","","3000","1","","","images/purpleplanet.jpg","images/alien4","images/alien3","images/rocket2","images/alien4","images/nothing.png","2","real","true","2","common","0","2022-11-08 23:40:10.976"
"two-step-fixation","173","773953","0.0-76.0-2.12","243","3775","9","Male","true","true","false","true","""event"",""trial"",""time""
""fullscreenenter"",""5"",""22754""
","
","
","""event"",""trial"",""time""
""fullscreenenter"",""5"",""22754""
","
","","images/earth.jpg","","","","","","","","","","","","","","fixation","","","","","",""
"d3-animate-choice","174","776842","0.0-76.0-0.13","243","3775","9","Male","true","true","false","true","""event"",""trial"",""time""
""fullscreenenter"",""5"",""22754""
","
","
","""event"",""trial"",""time""
""fullscreenenter"",""5"",""22754""
","
","882.7999999523163","","49","","","3000","1","","","images/earth.jpg","images/rocket2","images/rocket1","null","images/rocket1","","1","real","null","1","","",""
"d3-animate-choice","175","779484","0.0-76.0-1.13","243","3775","9","Male","true","true","false","true","""event"",""trial"",""time""
""fullscreenenter"",""5"",""22754""
","
","
","""event"",""trial"",""time""
""fullscreenenter"",""5"",""22754""
","
","637.0999999046326","","49","","","3000","1","","","images/redplanet1.jpg","images/alien2","images/alien1","images/rocket1","images/alien1","images/nothing.png","2","real","true","1","common","0","2022-11-08 23:40:17.509"
"two-step-fixation","176","780489","0.0-76.0-2.13","243","3775","9","Male","true","true","false","true","""event"",""trial"",""time""
""fullscreenenter"",""5"",""22754""
","
","
","""event"",""trial"",""time""
""fullscreenenter"",""5"",""22754""
","
","","images/earth.jpg","","","","","","","","","","","","","","fixation","","","","","",""
"d3-animate-choice","177","783425","0.0-76.0-0.14","243","3775","9","Male","true","true","false","true","""event"",""trial"",""time""
""fullscreenenter"",""5"",""22754""
","
","
","""event"",""trial"",""time""
""fullscreenenter"",""5"",""22754""
","
","929.8999999761581","","49","","","3000","1","","","images/earth.jpg","images/rocket2","images/rocket1","null","images/rocket1","","1","real","null","1","","",""
"d3-animate-choice","178","786021","0.0-76.0-1.14","243","3775","9","Male","true","true","false","true","""event"",""trial"",""time""
""fullscreenenter"",""5"",""22754""
","
","
","""event"",""trial"",""time""
""fullscreenenter"",""5"",""22754""
","
","591.7000000476837","","49","","","3000","1","","","images/redplanet1.jpg","images/alien2","images/alien1","images/rocket1","images/alien1","images/t.png","2","real","true","1","common","1","2022-11-08 23:40:24.046"
"two-step-fixation","179","787030","0.0-76.0-2.14","243","3775","9","Male","true","true","false","true","""event"",""trial"",""time""
""fullscreenenter"",""5"",""22754""
","
","
","""event"",""trial"",""time""
""fullscreenenter"",""5"",""22754""
","
","","images/earth.jpg","","","","","","","","","","","","","","fixation","","","","","",""
"d3-animate-choice","180","789910","0.0-76.0-0.15","243","3775","9","Male","true","true","false","true","""event"",""trial"",""time""
""fullscreenenter"",""5"",""22754""
","
","
","""event"",""trial"",""time""
""fullscreenenter"",""5"",""22754""
","
","875.3999999761581","","49","","","3000","1","","","images/earth.jpg","images/rocket2","images/rocket1","null","images/rocket1","","1","real","null","1","","",""
"d3-animate-choice","181","792806","0.0-76.0-1.15","243","3775","9","Male","true","true","false","true","""event"",""trial"",""time""
""fullscreenenter"",""5"",""22754""
","
","
","""event"",""trial"",""time""
""fullscreenenter"",""5"",""22754""
","
","891","","49","","","3000","1","","","images/redplanet1.jpg","images/alien2","images/alien1","images/rocket1","images/alien1","images/t.png","2","real","true","1","common","1","2022-11-08 23:40:30.831"
"two-step-fixation","182","793813","0.0-76.0-2.15","243","3775","9","Male","true","true","false","true","""event"",""trial"",""time""
""fullscreenenter"",""5"",""22754""
","
","
","""event"",""trial"",""time""
""fullscreenenter"",""5"",""22754""
","
","","images/earth.jpg","","","","","","","","","","","","","","fixation","","","","","",""
"d3-animate-choice","183","796304","0.0-76.0-0.16","243","3775","9","Male","true","true","false","true","""event"",""trial"",""time""
""fullscreenenter"",""5"",""22754""
","
","
","""event"",""trial"",""time""
""fullscreenenter"",""5"",""22754""
","
","486.7000000476837","","48","","","3000","1","","","images/earth.jpg","images/rocket2","images/rocket1","null","images/rocket2","","1","real","null","2","","",""
"d3-animate-choice","184","799341","0.0-76.0-1.16","243","3775","9","Male","true","true","false","true","""event"",""trial"",""time""
""fullscreenenter"",""5"",""22754""
","
","
","""event"",""trial"",""time""
""fullscreenenter"",""5"",""22754""
","
","1031.2000000476837","","49","","","3000","1","","","images/redplanet1.jpg","images/alien2","images/alien1","images/rocket2","images/alien1","images/t.png","2","real","false","1","rare","1","2022-11-08 23:40:37.366"
"two-step-fixation","185","800348","0.0-76.0-2.16","243","3775","9","Male","true","true","false","true","""event"",""trial"",""time""
""fullscreenenter"",""5"",""22754""
","
","
","""event"",""trial"",""time""
""fullscreenenter"",""5"",""22754""
","
","","images/earth.jpg","","","","","","","","","","","","","","fixation","","","","","",""
"d3-animate-choice","186","802910","0.0-76.0-0.17","243","3775","9","Male","true","true","false","true","""event"",""trial"",""time""
""fullscreenenter"",""5"",""22754""
","
","
","""event"",""trial"",""time""
""fullscreenenter"",""5"",""22754""
","
","554.8999999761581","","48","","","3000","1","","","images/earth.jpg","images/rocket2","images/rocket1","null","images/rocket2","","1","real","null","2","","",""
"d3-animate-choice","187","805867","0.0-76.0-1.17","243","3775","9","Male","true","true","false","true","""event"",""trial"",""time""
""fullscreenenter"",""5"",""22754""
","
","
","""event"",""trial"",""time""
""fullscreenenter"",""5"",""22754""
","
","952.0999999046326","","49","","","3000","1","","","images/redplanet1.jpg","images/alien2","images/alien1","images/rocket2","images/alien1","images/t.png","2","real","false","1","rare","1","2022-11-08 23:40:43.892"
"two-step-fixation","188","806873","0.0-76.0-2.17","243","3775","9","Male","true","true","false","true","""event"",""trial"",""time""
""fullscreenenter"",""5"",""22754""
","
","
","""event"",""trial"",""time""
""fullscreenenter"",""5"",""22754""
","
","","images/earth.jpg","","","","","","","","","","","","","","fixation","","","","","",""
"d3-animate-choice","189","809761","0.0-76.0-0.18","243","3775","9","Male","true","true","false","true","""event"",""trial"",""time""
""fullscreenenter"",""5"",""22754""
","
","
","""event"",""trial"",""time""
""fullscreenenter"",""5"",""22754""
","
","882.3999999761581","","49","","","3000","1","","","images/earth.jpg","images/rocket2","images/rocket1","null","images/rocket1","","1","real","null","1","","",""
"d3-animate-choice","190","813609","0.0-76.0-1.18","243","3775","9","Male","true","true","false","true","""event"",""trial"",""time""
""fullscreenenter"",""5"",""22754""
","
","
","""event"",""trial"",""time""
""fullscreenenter"",""5"",""22754""
","
","1842.2999999523163","","49","","","3000","1","","","images/purpleplanet.jpg","images/alien4","images/alien3","images/rocket1","images/alien3","images/nothing.png","2","real","false","1","rare","0","2022-11-08 23:40:51.634"
"two-step-fixation","191","814614","0.0-76.0-2.18","243","3775","9","Male","true","true","false","true","""event"",""trial"",""time""
""fullscreenenter"",""5"",""22754""
","
","
","""event"",""trial"",""time""
""fullscreenenter"",""5"",""22754""
","
","","images/earth.jpg","","","","","","","","","","","","","","fixation","","","","","",""
"d3-animate-choice","192","817730","0.0-76.0-0.19","243","3775","9","Male","true","true","false","true","""event"",""trial"",""time""
""fullscreenenter"",""5"",""22754""
","
","
","""event"",""trial"",""time""
""fullscreenenter"",""5"",""22754""
","
","1106.2999999523163","","49","","","3000","1","","","images/earth.jpg","images/rocket2","images/rocket1","null","images/rocket1","","1","real","null","1","","",""
"d3-animate-choice","193","820639","0.0-76.0-1.19","243","3775","9","Male","true","true","false","true","""event"",""trial"",""time""
""fullscreenenter"",""5"",""22754""
","
","
","""event"",""trial"",""time""
""fullscreenenter"",""5"",""22754""
","
","904.4000000953674","","49","","","3000","1","","","images/redplanet1.jpg","images/alien2","images/alien1","images/rocket1","images/alien1","images/nothing.png","2","real","true","1","common","0","2022-11-08 23:40:58.664"
"two-step-fixation","194","821645","0.0-76.0-2.19","243","3775","9","Male","true","true","false","true","""event"",""trial"",""time""
""fullscreenenter"",""5"",""22754""
","
","
","""event"",""trial"",""time""
""fullscreenenter"",""5"",""22754""
","
","","images/earth.jpg","","","","","","","","","","","","","","fixation","","","","","",""
"d3-animate-choice","195","823693","0.0-76.0-0.20","243","3775","9","Male","true","true","false","true","""event"",""trial"",""time""
""fullscreenenter"",""5"",""22754""
","
","
","""event"",""trial"",""time""
""fullscreenenter"",""5"",""22754""
","
","39.10000002384186","","48","","","3000","1","","","images/earth.jpg","images/rocket2","images/rocket1","null","images/rocket2","","1","real","null","2","","",""
"d3-animate-choice","196","827100","0.0-76.0-1.20","243","3775","9","Male","true","true","false","true","""event"",""trial"",""time""
""fullscreenenter"",""5"",""22754""
","
","
","""event"",""trial"",""time""
""fullscreenenter"",""5"",""22754""
","
","1400.2000000476837","","48","","","3000","1","","","images/redplanet1.jpg","images/alien2","images/alien1","images/rocket2","images/alien2","images/nothing.png","2","real","false","2","rare","0","2022-11-08 23:41:05.125"
"two-step-fixation","197","828104","0.0-76.0-2.20","243","3775","9","Male","true","true","false","true","""event"",""trial"",""time""
""fullscreenenter"",""5"",""22754""
","
","
","""event"",""trial"",""time""
""fullscreenenter"",""5"",""22754""
","
","","images/earth.jpg","","","","","","","","","","","","","","fixation","","","","","",""
"d3-animate-choice","198","831511","0.0-76.0-0.21","243","3775","9","Male","true","true","false","true","""event"",""trial"",""time""
""fullscreenenter"",""5"",""22754""
","
","
","""event"",""trial"",""time""
""fullscreenenter"",""5"",""22754""
","
","1399.5","","48","","","3000","1","","","images/earth.jpg","images/rocket2","images/rocket1","null","images/rocket2","","1","real","null","2","","",""
"d3-animate-choice","199","835300","0.0-76.0-1.21","243","3775","9","Male","true","true","false","true","""event"",""trial"",""time""
""fullscreenenter"",""5"",""22754""
","
","
","""event"",""trial"",""time""
""fullscreenenter"",""5"",""22754""
","
","1784.3000000715256","","49","","","3000","1","","","images/purpleplanet.jpg","images/alien4","images/alien3","images/rocket2","images/alien3","images/nothing.png","2","real","true","1","common","0","2022-11-08 23:41:13.326"
"two-step-fixation","200","836305","0.0-76.0-2.21","243","3775","9","Male","true","true","false","true","""event"",""trial"",""time""
""fullscreenenter"",""5"",""22754""
","
","
","""event"",""trial"",""time""
""fullscreenenter"",""5"",""22754""
","
","","images/earth.jpg","","","","","","","","","","","","","","fixation","","","","","",""
"d3-animate-choice","201","838743","0.0-76.0-0.22","243","3775","9","Male","true","true","false","true","""event"",""trial"",""time""
""fullscreenenter"",""5"",""22754""
","
","
","""event"",""trial"",""time""
""fullscreenenter"",""5"",""22754""
","
","430.90000009536743","","49","","","3000","1","443.7000000476837","48","images/earth.jpg","images/rocket2","images/rocket1","null","images/rocket1","","1","real","null","1","","",""
"d3-animate-choice","202","842018","0.0-76.0-1.22","243","3775","9","Male","true","true","false","true","""event"",""trial"",""time""
""fullscreenenter"",""5"",""22754""
","
","
","""event"",""trial"",""time""
""fullscreenenter"",""5"",""22754""
","
","1267.3999999761581","","49","","","3000","1","","","images/redplanet1.jpg","images/alien2","images/alien1","images/rocket1","images/alien1","images/nothing.png","2","real","true","1","common","0","2022-11-08 23:41:20.043"
"two-step-fixation","203","843023","0.0-76.0-2.22","243","3775","9","Male","true","true","false","true","""event"",""trial"",""time""
""fullscreenenter"",""5"",""22754""
","
","
","""event"",""trial"",""time""
""fullscreenenter"",""5"",""22754""
","
","","images/earth.jpg","","","","","","","","","","","","","","fixation","","","","","",""
"d3-animate-choice","204","845381","0.0-76.0-0.23","243","3775","9","Male","true","true","false","true","""event"",""trial"",""time""
""fullscreenenter"",""5"",""22754""
","
","
","""event"",""trial"",""time""
""fullscreenenter"",""5"",""22754""
","
","351.1999999284744","","48","","","3000","1","","","images/earth.jpg","images/rocket2","images/rocket1","null","images/rocket2","","1","real","null","2","","",""
"d3-animate-choice","205","848755","0.0-76.0-1.23","243","3775","9","Male","true","true","false","true","""event"",""trial"",""time""
""fullscreenenter"",""5"",""22754""
","
","
","""event"",""trial"",""time""
""fullscreenenter"",""5"",""22754""
","
","1368.8000000715256","","48","","","3000","1","","","images/purpleplanet.jpg","images/alien4","images/alien3","images/rocket2","images/alien4","images/nothing.png","2","real","true","2","common","0","2022-11-08 23:41:26.780"
"two-step-fixation","206","849761","0.0-76.0-2.23","243","3775","9","Male","true","true","false","true","""event"",""trial"",""time""
""fullscreenenter"",""5"",""22754""
","
","
","""event"",""trial"",""time""
""fullscreenenter"",""5"",""22754""
","
","","images/earth.jpg","","","","","","","","","","","","","","fixation","","","","","",""
"d3-animate-choice","207","852672","0.0-76.0-0.24","243","3775","9","Male","true","true","false","true","""event"",""trial"",""time""
""fullscreenenter"",""5"",""22754""
","
","
","""event"",""trial"",""time""
""fullscreenenter"",""5"",""22754""
","
","904.8999999761581","","49","","","3000","1","","","images/earth.jpg","images/rocket2","images/rocket1","null","images/rocket1","","1","real","null","1","","",""
"d3-animate-choice","208","856681","0.0-76.0-1.24","243","3775","9","Male","true","true","false","true","""event"",""trial"",""time""
""fullscreenenter"",""5"",""22754""
","
","
","""event"",""trial"",""time""
""fullscreenenter"",""5"",""22754""
","
","2222.9000000953674","","49","","","3000","1","","","images/purpleplanet.jpg","images/alien4","images/alien3","images/rocket1","images/alien3","images/t.png","2","real","false","1","rare","1","2022-11-08 23:41:34.707"
"two-step-fixation","209","857687","0.0-76.0-2.24","243","3775","9","Male","true","true","false","true","""event"",""trial"",""time""
""fullscreenenter"",""5"",""22754""
","
","
","""event"",""trial"",""time""
""fullscreenenter"",""5"",""22754""
","
","","images/earth.jpg","","","","","","","","","","","","","","fixation","","","","","",""
"d3-animate-choice","210","860872","0.0-76.0-0.25","243","3775","9","Male","true","true","false","true","""event"",""trial"",""time""
""fullscreenenter"",""5"",""22754""
","
","
","""event"",""trial"",""time""
""fullscreenenter"",""5"",""22754""
","
","1178.8999999761581","","48","","","3000","1","","","images/earth.jpg","images/rocket2","images/rocket1","null","images/rocket2","","1","real","null","2","","",""
"d3-animate-choice","211","863852","0.0-76.0-1.25","243","3775","9","Male","true","true","false","true","""event"",""trial"",""time""
""fullscreenenter"",""5"",""22754""
","
","
","""event"",""trial"",""time""
""fullscreenenter"",""5"",""22754""
","
","975","","49","","","3000","1","","","images/purpleplanet.jpg","images/alien4","images/alien3","images/rocket2","images/alien3","images/t.png","2","real","true","1","common","1","2022-11-08 23:41:41.877"
"two-step-fixation","212","864857","0.0-76.0-2.25","243","3775","9","Male","true","true","false","true","""event"",""trial"",""time""
""fullscreenenter"",""5"",""22754""
","
","
","""event"",""trial"",""time""
""fullscreenenter"",""5"",""22754""
","
","","images/earth.jpg","","","","","","","","","","","","","","fixation","","","","","",""
"d3-animate-choice","213","868086","0.0-76.0-0.26","243","3775","9","Male","true","true","false","true","""event"",""trial"",""time""
""fullscreenenter"",""5"",""22754""
","
","
","""event"",""trial"",""time""
""fullscreenenter"",""5"",""22754""
","
","1221.1000000238419","","49","","","3000","1","","","images/earth.jpg","images/rocket2","images/rocket1","null","images/rocket1","","1","real","null","1","","",""
"d3-animate-choice","214","871569","0.0-76.0-1.26","243","3775","9","Male","true","true","false","true","""event"",""trial"",""time""
""fullscreenenter"",""5"",""22754""
","
","
","""event"",""trial"",""time""
""fullscreenenter"",""5"",""22754""
","
","1478.2999999523163","","49","","","3000","1","","","images/redplanet1.jpg","images/alien2","images/alien1","images/rocket1","images/alien1","images/t.png","2","real","true","1","common","1","2022-11-08 23:41:49.594"
"two-step-fixation","215","872575","0.0-76.0-2.26","243","3775","9","Male","true","true","false","true","""event"",""trial"",""time""
""fullscreenenter"",""5"",""22754""
","
","
","""event"",""trial"",""time""
""fullscreenenter"",""5"",""22754""
","
","","images/earth.jpg","","","","","","","","","","","","","","fixation","","","","","",""
"d3-animate-choice","216","875680","0.0-76.0-0.27","243","3775","9","Male","true","true","false","true","""event"",""trial"",""time""
""fullscreenenter"",""5"",""22754""
","
","
","""event"",""trial"",""time""
""fullscreenenter"",""5"",""22754""
","
","1099.1999999284744","","49","","","3000","1","","","images/earth.jpg","images/rocket2","images/rocket1","null","images/rocket1","","1","real","null","1","","",""
"d3-animate-choice","217","878624","0.0-76.0-1.27","243","3775","9","Male","true","true","false","true","""event"",""trial"",""time""
""fullscreenenter"",""5"",""22754""
","
","
","""event"",""trial"",""time""
""fullscreenenter"",""5"",""22754""
","
","938.6000000238419","","49","","","3000","1","","","images/redplanet1.jpg","images/alien2","images/alien1","images/rocket1","images/alien1","images/t.png","2","real","true","1","common","1","2022-11-08 23:41:56.650"
"two-step-fixation","218","879632","0.0-76.0-2.27","243","3775","9","Male","true","true","false","true","""event"",""trial"",""time""
""fullscreenenter"",""5"",""22754""
","
","
","""event"",""trial"",""time""
""fullscreenenter"",""5"",""22754""
","
","","images/earth.jpg","","","","","","","","","","","","","","fixation","","","","","",""
"d3-animate-choice","219","882157","0.0-76.0-0.28","243","3775","9","Male","true","true","false","true","""event"",""trial"",""time""
""fullscreenenter"",""5"",""22754""
","
","
","""event"",""trial"",""time""
""fullscreenenter"",""5"",""22754""
","
","518.5","","48","","","3000","1","","","images/earth.jpg","images/rocket2","images/rocket1","null","images/rocket2","","1","real","null","2","","",""
"d3-animate-choice","220","886027","0.0-76.0-1.28","243","3775","9","Male","true","true","false","true","""event"",""trial"",""time""
""fullscreenenter"",""5"",""22754""
","
","
","""event"",""trial"",""time""
""fullscreenenter"",""5"",""22754""
","
","1865.7000000476837","","49","","","3000","1","","","images/purpleplanet.jpg","images/alien4","images/alien3","images/rocket2","images/alien3","images/nothing.png","2","real","true","1","common","0","2022-11-08 23:42:04.052"
"two-step-fixation","221","887033","0.0-76.0-2.28","243","3775","9","Male","true","true","false","true","""event"",""trial"",""time""
""fullscreenenter"",""5"",""22754""
","
","
","""event"",""trial"",""time""
""fullscreenenter"",""5"",""22754""
","
","","images/earth.jpg","","","","","","","","","","","","","","fixation","","","","","",""
"d3-animate-choice","222","889557","0.0-76.0-0.29","243","3775","9","Male","true","true","false","true","""event"",""trial"",""time""
""fullscreenenter"",""5"",""22754""
","
","
","""event"",""trial"",""time""
""fullscreenenter"",""5"",""22754""
","
","518.5","","48","","","3000","1","","","images/earth.jpg","images/rocket2","images/rocket1","null","images/rocket2","","1","real","null","2","","",""
"d3-animate-choice","223","892651","0.0-76.0-1.29","243","3775","9","Male","true","true","false","true","""event"",""trial"",""time""
""fullscreenenter"",""5"",""22754""
","
","
","""event"",""trial"",""time""
""fullscreenenter"",""5"",""22754""
","
","1089.8000000715256","","48","","","3000","1","","","images/purpleplanet.jpg","images/alien4","images/alien3","images/rocket2","images/alien4","images/nothing.png","2","real","true","2","common","0","2022-11-08 23:42:10.677"
"two-step-fixation","224","893658","0.0-76.0-2.29","243","3775","9","Male","true","true","false","true","""event"",""trial"",""time""
""fullscreenenter"",""5"",""22754""
","
","
","""event"",""trial"",""time""
""fullscreenenter"",""5"",""22754""
","
","","images/earth.jpg","","","","","","","","","","","","","","fixation","","","","","",""
"d3-animate-choice","225","896536","0.0-76.0-0.30","243","3775","9","Male","true","true","false","true","""event"",""trial"",""time""
""fullscreenenter"",""5"",""22754""
","
","
","""event"",""trial"",""time""
""fullscreenenter"",""5"",""22754""
","
","873.5","","49","","","3000","1","","","images/earth.jpg","images/rocket2","images/rocket1","null","images/rocket1","","1","real","null","1","","",""
"d3-animate-choice","226","899943","0.0-76.0-1.30","243","3775","9","Male","true","true","false","true","""event"",""trial"",""time""
""fullscreenenter"",""5"",""22754""
","
","
","""event"",""trial"",""time""
""fullscreenenter"",""5"",""22754""
","
","1401.1000000238419","","48","","","3000","1","","","images/redplanet1.jpg","images/alien2","images/alien1","images/rocket1","images/alien2","images/t.png","2","real","true","2","common","1","2022-11-08 23:42:17.968"
"two-step-fixation","227","900948","0.0-76.0-2.30","243","3775","9","Male","true","true","false","true","""event"",""trial"",""time""
""fullscreenenter"",""5"",""22754""
","
","
","""event"",""trial"",""time""
""fullscreenenter"",""5"",""22754""
","
","","images/earth.jpg","","","","","","","","","","","","","","fixation","","","","","",""
"d3-animate-choice","228","904095","0.0-76.0-0.31","243","3775","9","Male","true","true","false","true","""event"",""trial"",""time""
""fullscreenenter"",""5"",""22754""
","
","
","""event"",""trial"",""time""
""fullscreenenter"",""5"",""22754""
","
","1139.2999999523163","","48","","","3000","1","","","images/earth.jpg","images/rocket2","images/rocket1","null","images/rocket2","","1","real","null","2","","",""
"d3-animate-choice","229","907603","0.0-76.0-1.31","243","3775","9","Male","true","true","false","true","""event"",""trial"",""time""
""fullscreenenter"",""5"",""22754""
","
","
","""event"",""trial"",""time""
""fullscreenenter"",""5"",""22754""
","
","1503.2000000476837","","48","","","3000","1","1512.5","49","images/purpleplanet.jpg","images/alien4","images/alien3","images/rocket2","images/alien4","images/t.png","2","real","true","2","common","1","2022-11-08 23:42:25.628"
"two-step-fixation","230","908610","0.0-76.0-2.31","243","3775","9","Male","true","true","false","true","""event"",""trial"",""time""
""fullscreenenter"",""5"",""22754""
","
","
","""event"",""trial"",""time""
""fullscreenenter"",""5"",""22754""
","
","","images/earth.jpg","","","","","","","","","","","","","","fixation","","","","","",""
"d3-animate-choice","231","911371","0.0-76.0-0.32","243","3775","9","Male","true","true","false","true","""event"",""trial"",""time""
""fullscreenenter"",""5"",""22754""
","
","
","""event"",""trial"",""time""
""fullscreenenter"",""5"",""22754""
","
","756.7999999523163","","49","","","3000","1","","","images/earth.jpg","images/rocket2","images/rocket1","null","images/rocket1","","1","real","null","1","","",""
"d3-animate-choice","232","914488","0.0-76.0-1.32","243","3775","9","Male","true","true","false","true","""event"",""trial"",""time""
""fullscreenenter"",""5"",""22754""
","
","
","""event"",""trial"",""time""
""fullscreenenter"",""5"",""22754""
","
","1112.3000000715256","","48","","","3000","1","","","images/redplanet1.jpg","images/alien2","images/alien1","images/rocket1","images/alien2","images/t.png","2","real","true","2","common","1","2022-11-08 23:42:32.513"
"two-step-fixation","233","915493","0.0-76.0-2.32","243","3775","9","Male","true","true","false","true","""event"",""trial"",""time""
""fullscreenenter"",""5"",""22754""
","
","
","""event"",""trial"",""time""
""fullscreenenter"",""5"",""22754""
","
","","images/earth.jpg","","","","","","","","","","","","","","fixation","","","","","",""
"d3-animate-choice","234","918235","0.0-76.0-0.33","243","3775","9","Male","true","true","false","true","""event"",""trial"",""time""
""fullscreenenter"",""5"",""22754""
","
","
","""event"",""trial"",""time""
""fullscreenenter"",""5"",""22754""
","
","738.0999999046326","","49","","","3000","1","","","images/earth.jpg","images/rocket2","images/rocket1","null","images/rocket1","","1","real","null","1","","",""
"d3-animate-choice","235","920888","0.0-76.0-1.33","243","3775","9","Male","true","true","false","true","""event"",""trial"",""time""
""fullscreenenter"",""5"",""22754""
","
","
","""event"",""trial"",""time""
""fullscreenenter"",""5"",""22754""
","
","647.8999999761581","","48","","","3000","1","","","images/purpleplanet.jpg","images/alien4","images/alien3","images/rocket1","images/alien4","images/t.png","2","real","false","2","rare","1","2022-11-08 23:42:38.914"
"two-step-fixation","236","921893","0.0-76.0-2.33","243","3775","9","Male","true","true","false","true","""event"",""trial"",""time""
""fullscreenenter"",""5"",""22754""
","
","
","""event"",""trial"",""time""
""fullscreenenter"",""5"",""22754""
","
","","images/earth.jpg","","","","","","","","","","","","","","fixation","","","","","",""
"d3-animate-choice","237","924781","0.0-76.0-0.34","243","3775","9","Male","true","true","false","true","""event"",""trial"",""time""
""fullscreenenter"",""5"",""22754""
","
","
","""event"",""trial"",""time""
""fullscreenenter"",""5"",""22754""
","
","882.5","","49","","","3000","1","","","images/earth.jpg","images/rocket2","images/rocket1","null","images/rocket1","","1","real","null","1","","",""
"d3-animate-choice","238","927358","0.0-76.0-1.34","243","3775","9","Male","true","true","false","true","""event"",""trial"",""time""
""fullscreenenter"",""5"",""22754""
","
","
","""event"",""trial"",""time""
""fullscreenenter"",""5"",""22754""
","
","571.7000000476837","","48","","","3000","1","","","images/redplanet1.jpg","images/alien2","images/alien1","images/rocket1","images/alien2","images/nothing.png","2","real","true","2","common","0","2022-11-08 23:42:45.384"
"two-step-fixation","239","928366","0.0-76.0-2.34","243","3775","9","Male","true","true","false","true","""event"",""trial"",""time""
""fullscreenenter"",""5"",""22754""
","
","
","""event"",""trial"",""time""
""fullscreenenter"",""5"",""22754""
","
","","images/earth.jpg","","","","","","","","","","","","","","fixation","","","","","",""
"d3-animate-choice","240","930780","0.0-76.0-0.35","243","3775","9","Male","true","true","false","true","""event"",""trial"",""time""
""fullscreenenter"",""5"",""22754""
","
","
","""event"",""trial"",""time""
""fullscreenenter"",""5"",""22754""
","
","408","","49","","","3000","1","","","images/earth.jpg","images/rocket2","images/rocket1","null","images/rocket1","","1","real","null","1","","",""
"d3-animate-choice","241","933345","0.0-76.0-1.35","243","3775","9","Male","true","true","false","true","""event"",""trial"",""time""
""fullscreenenter"",""5"",""22754""
","
","
","""event"",""trial"",""time""
""fullscreenenter"",""5"",""22754""
","
","557.6999999284744","","48","","","3000","1","","","images/purpleplanet.jpg","images/alien4","images/alien3","images/rocket1","images/alien4","images/t.png","2","real","false","2","rare","1","2022-11-08 23:42:51.370"
"two-step-fixation","242","934350","0.0-76.0-2.35","243","3775","9","Male","true","true","false","true","""event"",""trial"",""time""
""fullscreenenter"",""5"",""22754""
","
","
","""event"",""trial"",""time""
""fullscreenenter"",""5"",""22754""
","
","","images/earth.jpg","","","","","","","","","","","","","","fixation","","","","","",""
"d3-animate-choice","243","936785","0.0-76.0-0.36","243","3775","9","Male","true","true","false","true","""event"",""trial"",""time""
""fullscreenenter"",""5"",""22754""
","
","
","""event"",""trial"",""time""
""fullscreenenter"",""5"",""22754""
","
","430.10000002384186","","49","","","3000","1","","","images/earth.jpg","images/rocket2","images/rocket1","null","images/rocket1","","1","real","null","1","","",""
"d3-animate-choice","244","939354","0.0-76.0-1.36","243","3775","9","Male","true","true","false","true","""event"",""trial"",""time""
""fullscreenenter"",""5"",""22754""
","
","
","""event"",""trial"",""time""
""fullscreenenter"",""5"",""22754""
","
","560.7999999523163","","49","","","3000","1","","","images/redplanet1.jpg","images/alien2","images/alien1","images/rocket1","images/alien1","images/nothing.png","2","real","true","1","common","0","2022-11-08 23:42:57.379"
"two-step-fixation","245","940363","0.0-76.0-2.36","243","3775","9","Male","true","true","false","true","""event"",""trial"",""time""
""fullscreenenter"",""5"",""22754""
","
","
","""event"",""trial"",""time""
""fullscreenenter"",""5"",""22754""
","
","","images/earth.jpg","","","","","","","","","","","","","","fixation","","","","","",""
"d3-animate-choice","246","943267","0.0-76.0-0.37","243","3775","9","Male","true","true","false","true","""event"",""trial"",""time""
""fullscreenenter"",""5"",""22754""
","
","
","""event"",""trial"",""time""
""fullscreenenter"",""5"",""22754""
","
","900.8000000715256","","49","","","3000","1","","","images/earth.jpg","images/rocket2","images/rocket1","null","images/rocket1","","1","real","null","1","","",""
"d3-animate-choice","247","946696","0.0-76.0-1.37","243","3775","9","Male","true","true","false","true","""event"",""trial"",""time""
""fullscreenenter"",""5"",""22754""
","
","
","""event"",""trial"",""time""
""fullscreenenter"",""5"",""22754""
","
","1424.8999999761581","","48","","","3000","1","","","images/redplanet1.jpg","images/alien2","images/alien1","images/rocket1","images/alien2","images/nothing.png","2","real","true","2","common","0","2022-11-08 23:43:04.721"
"two-step-fixation","248","947700","0.0-76.0-2.37","243","3775","9","Male","true","true","false","true","""event"",""trial"",""time""
