"trial_type","trial_index","time_elapsed","internal_node_id","participant_id","subject_id","age","gender","rocket_sides","red_planet_first_rocket","red_display_order","purple_display_order","interactions","blur_events","focus_events","fullscreenenter_events","fullscreenexit_events","rt","stimulus","key_press","button_pressed","success","duration","valid_pressed","rts","keys","planet_text","right_text","left_text","center_text","chosen_text","reward_text","trial_stage","practice_trial","transition_type","reward","timestamp","choice","transition"
"pavlovia","0","9","0.0-0.0","717","805","9","Female","true","true","true","false","
","
","
","
","
","","","","","","","","","","","","","","","","","","","","","",""
"html-keyboard-response","1","8570","0.0-1.0","717","805","9","Female","true","true","true","false","
","
","
","
","
","8560","Welcome! Press the space bar to begin.","32","","","","","","","","","","","","","","","","","","",""
"audio-keyboard-response","2","24901","0.0-2.0","717","805","9","Female","true","true","true","false","
","
","
","
","
","16324","audio/beep_loop.wav","39","","","","","","","","","","","","","","","","","","",""
"audio-button-response","3","28999","0.0-3.0","717","805","9","Female","true","true","true","false","
","
","
","
","
","NaN","audio/fish.mp3","","1","","","","","","","","","","","","","","","","","",""
"audio-button-response","4","31742","0.0-4.0","717","805","9","Female","true","true","true","false","""event"",""trial"",""time""
""fullscreenenter"",""5"",""40288""
","
","
","""event"",""trial"",""time""
""fullscreenenter"",""5"",""40288""
","
","NaN","audio/tiger.mp3","","4","","","","","","","","","","","","","","","","","",""
"fullscreen","5","41263","0.0-5.0","717","805","9","Female","true","true","true","false","""event"",""trial"",""time""
""fullscreenenter"",""5"",""40288""
","
","
","""event"",""trial"",""time""
""fullscreenenter"",""5"",""40288""
","
","","","","","true","","","","","","","","","","","","","","","","",""
"d3-instructions","6","56580","0.0-6.0","717","805","9","Female","true","true","true","false","""event"",""trial"",""time""
""fullscreenenter"",""5"",""40288""
","
","
","""event"",""trial"",""time""
""fullscreenenter"",""5"",""40288""
","
","","","","","","","","","","","","","","","","","","","","","",""
"d3-instructions","7","64666","0.0-7.0","717","805","9","Female","true","true","true","false","""event"",""trial"",""time""
""fullscreenenter"",""5"",""40288""
","
","
","""event"",""trial"",""time""
""fullscreenenter"",""5"",""40288""
","
","","","","","","","","","","","","","","","","","","","","","",""
"d3-instructions","8","71510","0.0-8.0","717","805","9","Female","true","true","true","false","""event"",""trial"",""time""
""fullscreenenter"",""5"",""40288""
","
","
","""event"",""trial"",""time""
""fullscreenenter"",""5"",""40288""
","
","","","","","","","","","","","","","","","","","","","","","",""
"d3-instructions","9","83201","0.0-9.0","717","805","9","Female","true","true","true","false","""event"",""trial"",""time""
""fullscreenenter"",""5"",""40288""
","
","
","""event"",""trial"",""time""
""fullscreenenter"",""5"",""40288""
","
","","","","","","","","","","","","","","","","","","","","","",""
"d3-instructions","10","106495","0.0-10.0","717","805","9","Female","true","true","true","false","""event"",""trial"",""time""
""fullscreenenter"",""5"",""40288""
","
","
","""event"",""trial"",""time""
""fullscreenenter"",""5"",""40288""
","
","","","","","","","","","","","","","","","","","","","","","",""
"d3-animate-choice","11","110230","0.0-11.0","717","805","9","Female","true","true","true","false","""event"",""trial"",""time""
""fullscreenenter"",""5"",""40288""
","
","
","""event"",""trial"",""time""
""fullscreenenter"",""5"",""40288""
","
","1726","","48","","","3000","1","","","images/tutgreenplanet.jpg","images/tutalien1","images/tutalien2","null","images/tutalien1","","NA","practice","null","","","",""
"d3-animate-choice","12","113072","0.0-12.0","717","805","9","Female","true","true","true","false","""event"",""trial"",""time""
""fullscreenenter"",""5"",""40288""
","
","
","""event"",""trial"",""time""
""fullscreenenter"",""5"",""40288""
","
","837","","49","","","3000","1","","","images/tutgreenplanet.jpg","images/tutalien1","images/tutalien2","null","images/tutalien2","","NA","practice","null","","","",""
"d3-animate-choice","13","115614","0.0-13.0","717","805","9","Female","true","true","true","false","""event"",""trial"",""time""
""fullscreenenter"",""5"",""40288""
","
","
","""event"",""trial"",""time""
""fullscreenenter"",""5"",""40288""
","
","535","","49","","","3000","1","547","48","images/tutgreenplanet.jpg","images/tutalien1","images/tutalien2","null","images/tutalien2","","NA","practice","null","","","",""
"d3-animate-choice","14","117763","0.0-14.0","717","805","9","Female","true","true","true","false","""event"",""trial"",""time""
""fullscreenenter"",""5"",""40288""
","
","
","""event"",""trial"",""time""
""fullscreenenter"",""5"",""40288""
","
","143","","48","","","3000","1","1918","49","images/tutgreenplanet.jpg","images/tutalien1","images/tutalien2","null","images/tutalien1","","NA","practice","null","","","",""
"d3-instructions","15","127472","0.0-15.0","717","805","9","Female","true","true","true","false","""event"",""trial"",""time""
""fullscreenenter"",""5"",""40288""
","
","
","""event"",""trial"",""time""
""fullscreenenter"",""5"",""40288""
","
","","","","","","","","","","","","","","","","","","","","","",""
"d3-instructions","16","135075","0.0-16.0","717","805","9","Female","true","true","true","false","""event"",""trial"",""time""
""fullscreenenter"",""5"",""40288""
","
","
","""event"",""trial"",""time""
""fullscreenenter"",""5"",""40288""
","
","","","","","","","","","","","","","","","","","","","","","",""
"d3-instructions","17","144257","0.0-17.0","717","805","9","Female","true","true","true","false","""event"",""trial"",""time""
""fullscreenenter"",""5"",""40288""
","
","
","""event"",""trial"",""time""
""fullscreenenter"",""5"",""40288""
","
","","","","","","","","","","","","","","","","","","","","","",""
"d3-instructions","18","157544","0.0-18.0","717","805","9","Female","true","true","true","false","""event"",""trial"",""time""
""fullscreenenter"",""5"",""40288""
","
","
","""event"",""trial"",""time""
""fullscreenenter"",""5"",""40288""
","
","","","","","","","","","","","","","","","","","","","","","",""
"d3-instructions","19","172103","0.0-19.0","717","805","9","Female","true","true","true","false","""event"",""trial"",""time""
""fullscreenenter"",""5"",""40288""
","
","
","""event"",""trial"",""time""
""fullscreenenter"",""5"",""40288""
","
","","","","","","","","","","","","","","","","","","","","","",""
"d3-animate-choice","20","175062","0.0-20.0","717","805","9","Female","true","true","true","false","""event"",""trial"",""time""
""fullscreenenter"",""5"",""40288""
","
","
","""event"",""trial"",""time""
""fullscreenenter"",""5"",""40288""
","
","952","","49","","","3000","1","2612","49","images/tutyellowplanet.jpg","null","images/tutalien3","null","images/tutalien3","images/t.png","NA","practice","null","","","",""
"d3-animate-choice","21","177596","0.0-21.0","717","805","9","Female","true","true","true","false","""event"",""trial"",""time""
""fullscreenenter"",""5"",""40288""
","
","
","""event"",""trial"",""time""
""fullscreenenter"",""5"",""40288""
","
","529","","49","","","3000","1","","","images/tutyellowplanet.jpg","null","images/tutalien3","null","images/tutalien3","images/t.png","NA","practice","null","","","",""
"d3-animate-choice","22","180069","0.0-22.0","717","805","9","Female","true","true","true","false","""event"",""trial"",""time""
""fullscreenenter"",""5"",""40288""
","
","
","""event"",""trial"",""time""
""fullscreenenter"",""5"",""40288""
","
","469","","49","","","3000","1","","","images/tutyellowplanet.jpg","null","images/tutalien3","null","images/tutalien3","images/nothing.png","NA","practice","null","","","",""
"d3-animate-choice","23","182491","0.0-23.0","717","805","9","Female","true","true","true","false","""event"",""trial"",""time""
""fullscreenenter"",""5"",""40288""
","
","
","""event"",""trial"",""time""
""fullscreenenter"",""5"",""40288""
","
","419","","49","","","3000","1","","","images/tutyellowplanet.jpg","null","images/tutalien3","null","images/tutalien3","images/t.png","NA","practice","null","","","",""
"d3-animate-choice","24","184857","0.0-24.0","717","805","9","Female","true","true","true","false","""event"",""trial"",""time""
""fullscreenenter"",""5"",""40288""
","
","
","""event"",""trial"",""time""
""fullscreenenter"",""5"",""40288""
","
","358","","49","","","3000","1","","","images/tutyellowplanet.jpg","null","images/tutalien3","null","images/tutalien3","images/t.png","NA","practice","null","","","",""
"d3-animate-choice","25","187295","0.0-25.0","717","805","9","Female","true","true","true","false","""event"",""trial"",""time""
""fullscreenenter"",""5"",""40288""
","
","
","""event"",""trial"",""time""
""fullscreenenter"",""5"",""40288""
","
","430","","49","","","3000","1","","","images/tutyellowplanet.jpg","null","images/tutalien3","null","images/tutalien3","images/t.png","NA","practice","null","","","",""
"d3-animate-choice","26","189695","0.0-26.0","717","805","9","Female","true","true","true","false","""event"",""trial"",""time""
""fullscreenenter"",""5"",""40288""
","
","
","""event"",""trial"",""time""
""fullscreenenter"",""5"",""40288""
","
","396","","49","","","3000","1","2082","49","images/tutyellowplanet.jpg","null","images/tutalien3","null","images/tutalien3","images/t.png","NA","practice","null","","","",""
"d3-animate-choice","27","192103","0.0-27.0","717","805","9","Female","true","true","true","false","""event"",""trial"",""time""
""fullscreenenter"",""5"",""40288""
","
","
","""event"",""trial"",""time""
""fullscreenenter"",""5"",""40288""
","
","401","","49","","","3000","1","","","images/tutyellowplanet.jpg","null","images/tutalien3","null","images/tutalien3","images/t.png","NA","practice","null","","","",""
"d3-animate-choice","28","194574","0.0-28.0","717","805","9","Female","true","true","true","false","""event"",""trial"",""time""
""fullscreenenter"",""5"",""40288""
","
","
","""event"",""trial"",""time""
""fullscreenenter"",""5"",""40288""
","
","461","","49","","","3000","1","","","images/tutyellowplanet.jpg","null","images/tutalien3","null","images/tutalien3","images/nothing.png","NA","practice","null","","","",""
"d3-animate-choice","29","197338","0.0-29.0","717","805","9","Female","true","true","true","false","""event"",""trial"",""time""
""fullscreenenter"",""5"",""40288""
","
","
","""event"",""trial"",""time""
""fullscreenenter"",""5"",""40288""
","
","757","","49","","","3000","1","","","images/tutyellowplanet.jpg","null","images/tutalien3","null","images/tutalien3","images/t.png","NA","practice","null","","","",""
"d3-instructions","30","205343","0.0-30.0","717","805","9","Female","true","true","true","false","""event"",""trial"",""time""
""fullscreenenter"",""5"",""40288""
","
","
","""event"",""trial"",""time""
""fullscreenenter"",""5"",""40288""
","
","","","","","","","","","","","","","","","","","","","","","",""
"d3-instructions","31","216577","0.0-31.0","717","805","9","Female","true","true","true","false","""event"",""trial"",""time""
""fullscreenenter"",""5"",""40288""
","
","
","""event"",""trial"",""time""
""fullscreenenter"",""5"",""40288""
","
","","","","","","","","","","","","","","","","","","","","","",""
"d3-instructions","32","223563","0.0-32.0","717","805","9","Female","true","true","true","false","""event"",""trial"",""time""
""fullscreenenter"",""5"",""40288""
","
","
","""event"",""trial"",""time""
""fullscreenenter"",""5"",""40288""
","
","","","","","","","","","","","","","","","","","","","","","",""
"d3-instructions","33","231294","0.0-33.0","717","805","9","Female","true","true","true","false","""event"",""trial"",""time""
""fullscreenenter"",""5"",""40288""
","
","
","""event"",""trial"",""time""
""fullscreenenter"",""5"",""40288""
","
","","","","","","","","","","","","","","","","","","","","","",""
"d3-animate-choice","34","234528","0.0-34.0","717","805","9","Female","true","true","true","false","""event"",""trial"",""time""
""fullscreenenter"",""5"",""40288""
","
","
","""event"",""trial"",""time""
""fullscreenenter"",""5"",""40288""
","
","1226","","48","","","3000","1","","","images/tutgreenplanet.jpg","images/tutalien1","images/tutalien2","null","images/tutalien1","images/nothing.png","NA","practice","null","","","",""
"d3-animate-choice","35","236930","0.0-35.0","717","805","9","Female","true","true","true","false","""event"",""trial"",""time""
""fullscreenenter"",""5"",""40288""
","
","
","""event"",""trial"",""time""
""fullscreenenter"",""5"",""40288""
","
","400","","49","","","3000","1","","","images/tutgreenplanet.jpg","images/tutalien1","images/tutalien2","null","images/tutalien2","images/t.png","NA","practice","null","","","",""
"d3-animate-choice","36","239478","0.0-36.0","717","805","9","Female","true","true","true","false","""event"",""trial"",""time""
""fullscreenenter"",""5"",""40288""
","
","
","""event"",""trial"",""time""
""fullscreenenter"",""5"",""40288""
","
","543","","48","","","3000","1","","","images/tutgreenplanet.jpg","images/tutalien1","images/tutalien2","null","images/tutalien1","images/nothing.png","NA","practice","null","","","",""
"d3-animate-choice","37","241911","0.0-37.0","717","805","9","Female","true","true","true","false","""event"",""trial"",""time""
""fullscreenenter"",""5"",""40288""
","
","
","""event"",""trial"",""time""
""fullscreenenter"",""5"",""40288""
","
","427","","49","","","3000","1","","","images/tutgreenplanet.jpg","images/tutalien1","images/tutalien2","null","images/tutalien2","images/t.png","NA","practice","null","","","",""
"d3-animate-choice","38","244268","0.0-38.0","717","805","9","Female","true","true","true","false","""event"",""trial"",""time""
""fullscreenenter"",""5"",""40288""
","
","
","""event"",""trial"",""time""
""fullscreenenter"",""5"",""40288""
","
","350","","49","","","3000","1","","","images/tutgreenplanet.jpg","images/tutalien1","images/tutalien2","null","images/tutalien2","images/t.png","NA","practice","null","","","",""
"d3-animate-choice","39","246695","0.0-39.0","717","805","9","Female","true","true","true","false","""event"",""trial"",""time""
""fullscreenenter"",""5"",""40288""
","
","
","""event"",""trial"",""time""
""fullscreenenter"",""5"",""40288""
","
","418","","49","","","3000","1","2073","49","images/tutgreenplanet.jpg","images/tutalien1","images/tutalien2","null","images/tutalien2","images/t.png","NA","practice","null","","","",""
"d3-animate-choice","40","249006","0.0-40.0","717","805","9","Female","true","true","true","false","""event"",""trial"",""time""
""fullscreenenter"",""5"",""40288""
","
","
","""event"",""trial"",""time""
""fullscreenenter"",""5"",""40288""
","
","304","","49","","","3000","1","","","images/tutgreenplanet.jpg","images/tutalien1","images/tutalien2","null","images/tutalien2","images/t.png","NA","practice","null","","","",""
"d3-animate-choice","41","251455","0.0-41.0","717","805","9","Female","true","true","true","false","""event"",""trial"",""time""
""fullscreenenter"",""5"",""40288""
","
","
","""event"",""trial"",""time""
""fullscreenenter"",""5"",""40288""
","
","441","","49","","","3000","1","","","images/tutgreenplanet.jpg","images/tutalien1","images/tutalien2","null","images/tutalien2","images/t.png","NA","practice","null","","","",""
"d3-animate-choice","42","253649","0.0-42.0","717","805","9","Female","true","true","true","false","""event"",""trial"",""time""
""fullscreenenter"",""5"",""40288""
","
","
","""event"",""trial"",""time""
""fullscreenenter"",""5"",""40288""
","
","190","","49","","","3000","1","","","images/tutgreenplanet.jpg","images/tutalien1","images/tutalien2","null","images/tutalien2","images/t.png","NA","practice","null","","","",""
"d3-animate-choice","43","255914","0.0-43.0","717","805","9","Female","true","true","true","false","""event"",""trial"",""time""
""fullscreenenter"",""5"",""40288""
","
","
","""event"",""trial"",""time""
""fullscreenenter"",""5"",""40288""
","
","256","","49","","","3000","1","","","images/tutgreenplanet.jpg","images/tutalien1","images/tutalien2","null","images/tutalien2","images/t.png","NA","practice","null","","","",""
"d3-instructions","44","269737","0.0-44.0","717","805","9","Female","true","true","true","false","""event"",""trial"",""time""
""fullscreenenter"",""5"",""40288""
","
","
","""event"",""trial"",""time""
""fullscreenenter"",""5"",""40288""
","
","","","","","","","","","","","","","","","","","","","","","",""
"d3-instructions","45","275773","0.0-45.0","717","805","9","Female","true","true","true","false","""event"",""trial"",""time""
""fullscreenenter"",""5"",""40288""
","
","
","""event"",""trial"",""time""
""fullscreenenter"",""5"",""40288""
","
","","","","","","","","","","","","","","","","","","","","","",""
"d3-instructions","46","282013","0.0-46.0","717","805","9","Female","true","true","true","false","""event"",""trial"",""time""
""fullscreenenter"",""5"",""40288""
","
","
","""event"",""trial"",""time""
""fullscreenenter"",""5"",""40288""
","
","","","","","","","","","","","","","","","","","","","","","",""
"d3-instructions","47","301921","0.0-47.0","717","805","9","Female","true","true","true","false","""event"",""trial"",""time""
""fullscreenenter"",""5"",""40288""
","
","
","""event"",""trial"",""time""
""fullscreenenter"",""5"",""40288""
","
","","","","","","","","","","","","","","","","","","","","","",""
"d3-instructions","48","310022","0.0-48.0","717","805","9","Female","true","true","true","false","""event"",""trial"",""time""
""fullscreenenter"",""5"",""40288""
","
","
","""event"",""trial"",""time""
""fullscreenenter"",""5"",""40288""
","
","","","","","","","","","","","","","","","","","","","","","",""
"d3-instructions","49","322419","0.0-49.0","717","805","9","Female","true","true","true","false","""event"",""trial"",""time""
""fullscreenenter"",""5"",""40288""
","
","
","""event"",""trial"",""time""
""fullscreenenter"",""5"",""40288""
","
","","","","","","","","","","","","","","","","","","","","","",""
"d3-instructions","50","331624","0.0-50.0","717","805","9","Female","true","true","true","false","""event"",""trial"",""time""
""fullscreenenter"",""5"",""40288""
","
","
","""event"",""trial"",""time""
""fullscreenenter"",""5"",""40288""
","
","","","","","","","","","","","","","","","","","","","","","",""
"d3-instructions","51","334547","0.0-51.0","717","805","9","Female","true","true","true","false","""event"",""trial"",""time""
""fullscreenenter"",""5"",""40288""
","
","
","""event"",""trial"",""time""
""fullscreenenter"",""5"",""40288""
","
","","","","","","","","","","","","","","","","","","","","","",""
"d3-instructions","52","337828","0.0-52.0","717","805","9","Female","true","true","true","false","""event"",""trial"",""time""
""fullscreenenter"",""5"",""40288""
","
","
","""event"",""trial"",""time""
""fullscreenenter"",""5"",""40288""
","
","","","","","","","","","","","","","","","","","","","","","",""
"d3-instructions","53","353171","0.0-53.0","717","805","9","Female","true","true","true","false","""event"",""trial"",""time""
""fullscreenenter"",""5"",""40288""
","
","
","""event"",""trial"",""time""
""fullscreenenter"",""5"",""40288""
","
","","","","","","","","","","","","","","","","","","","","","",""
"d3-instructions","54","366467","0.0-54.0","717","805","9","Female","true","true","true","false","""event"",""trial"",""time""
""fullscreenenter"",""5"",""40288""
","
","
","""event"",""trial"",""time""
""fullscreenenter"",""5"",""40288""
","
","","","","","","","","","","","","","","","","","","","","","",""
"d3-instructions","55","376876","0.0-55.0","717","805","9","Female","true","true","true","false","""event"",""trial"",""time""
""fullscreenenter"",""5"",""40288""
","
","
","""event"",""trial"",""time""
""fullscreenenter"",""5"",""40288""
","
","","","","","","","","","","","","","","","","","","","","","",""
"d3-instructions","56","383895","0.0-56.0","717","805","9","Female","true","true","true","false","""event"",""trial"",""time""
""fullscreenenter"",""5"",""40288""
","
","
","""event"",""trial"",""time""
""fullscreenenter"",""5"",""40288""
","
","","","","","","","","","","","","","","","","","","","","","",""
"d3-instructions","57","401146","0.0-57.0","717","805","9","Female","true","true","true","false","""event"",""trial"",""time""
""fullscreenenter"",""5"",""40288""
","
","
","""event"",""trial"",""time""
""fullscreenenter"",""5"",""40288""
","
","","","","","","","","","","","","","","","","","","","","","",""
"d3-instructions","58","419455","0.0-58.0","717","805","9","Female","true","true","true","false","""event"",""trial"",""time""
""fullscreenenter"",""5"",""40288""
","
","
","""event"",""trial"",""time""
""fullscreenenter"",""5"",""40288""
","
","","","","","","","","","","","","","","","","","","","","","",""
"d3-instructions","59","428606","0.0-59.0","717","805","9","Female","true","true","true","false","""event"",""trial"",""time""
""fullscreenenter"",""5"",""40288""
","
","
","""event"",""trial"",""time""
""fullscreenenter"",""5"",""40288""
","
","","","","","","","","","","","","","","","","","","","","","",""
"d3-instructions","60","435402","0.0-60.0","717","805","9","Female","true","true","true","false","""event"",""trial"",""time""
""fullscreenenter"",""5"",""40288""
","
","
","""event"",""trial"",""time""
""fullscreenenter"",""5"",""40288""
","
","","","","","","","","","","","","","","","","","","","","","",""
"d3-animate-choice","61","439408","0.0-61.0-0.0","717","805","9","Female","true","true","true","false","""event"",""trial"",""time""
""fullscreenenter"",""5"",""40288""
","
","
","""event"",""trial"",""time""
""fullscreenenter"",""5"",""40288""
","
","null","","null","","","3000","0","","","images/earth.jpg","images/tutrocket2","images/tutrocket1","null","","","1","practice","null","","","",""
"d3-animate-choice","62","440417","0.0-61.0-1.0","717","805","9","Female","true","true","true","false","""event"",""trial"",""time""
""fullscreenenter"",""5"",""40288""
","
","
","""event"",""trial"",""time""
""fullscreenenter"",""5"",""40288""
","
","null","","null","","","0","0","","","images/earth.jpg","images/tutrocket2","images/tutrocket1","null","","","2","practice","null","0","2022-02-14 00:25:04.268","",""
"two-step-fixation","63","441419","0.0-61.0-2.0","717","805","9","Female","true","true","true","false","""event"",""trial"",""time""
""fullscreenenter"",""5"",""40288""
","
","
","""event"",""trial"",""time""
""fullscreenenter"",""5"",""40288""
","
","","images/earth.jpg","","","","","","","","","","","","","","fixation","","","","","",""
"d3-animate-choice","64","444078","0.0-61.0-0.1","717","805","9","Female","true","true","true","false","""event"",""trial"",""time""
""fullscreenenter"",""5"",""40288""
","
","
","""event"",""trial"",""time""
""fullscreenenter"",""5"",""40288""
","
","650","","48","","","3000","1","","","images/earth.jpg","images/tutrocket2","images/tutrocket1","null","images/tutrocket2","","1","practice","null","","","2",""
"d3-animate-choice","65","448090","0.0-61.0-1.1","717","805","9","Female","true","true","true","false","""event"",""trial"",""time""
""fullscreenenter"",""5"",""40288""
","
","
","""event"",""trial"",""time""
""fullscreenenter"",""5"",""40288""
","
","2035","","48","","","3000","1","","","images/tutyellowplanet.jpg","images/tutalien4","images/tutalien3","images/tutrocket2","images/tutalien4","images/nothing.png","2","practice","true","0","2022-02-14 00:25:11.941","2","common"
"two-step-fixation","66","449094","0.0-61.0-2.1","717","805","9","Female","true","true","true","false","""event"",""trial"",""time""
""fullscreenenter"",""5"",""40288""
","
","
","""event"",""trial"",""time""
""fullscreenenter"",""5"",""40288""
","
","","images/earth.jpg","","","","","","","","","","","","","","fixation","","","","","",""
"d3-animate-choice","67","453106","0.0-61.0-0.2","717","805","9","Female","true","true","true","false","""event"",""trial"",""time""
""fullscreenenter"",""5"",""40288""
","
","
","""event"",""trial"",""time""
""fullscreenenter"",""5"",""40288""
","
","2962","","48","","","3000","1","","","images/earth.jpg","images/tutrocket2","images/tutrocket1","null","images/tutrocket2","","1","practice","null","","","2",""
"d3-animate-choice","68","456185","0.0-61.0-1.2","717","805","9","Female","true","true","true","false","""event"",""trial"",""time""
""fullscreenenter"",""5"",""40288""
","
","
","""event"",""trial"",""time""
""fullscreenenter"",""5"",""40288""
","
","1073","","48","","","3000","1","","","images/tutyellowplanet.jpg","images/tutalien4","images/tutalien3","images/tutrocket2","images/tutalien4","images/nothing.png","2","practice","true","0","2022-02-14 00:25:20.036","2","common"
"two-step-fixation","69","457188","0.0-61.0-2.2","717","805","9","Female","true","true","true","false","""event"",""trial"",""time""
""fullscreenenter"",""5"",""40288""
","
","
","""event"",""trial"",""time""
""fullscreenenter"",""5"",""40288""
","
","","images/earth.jpg","","","","","","","","","","","","","","fixation","","","","","",""
"d3-animate-choice","70","459643","0.0-61.0-0.3","717","805","9","Female","true","true","true","false","""event"",""trial"",""time""
""fullscreenenter"",""5"",""40288""
","
","
","""event"",""trial"",""time""
""fullscreenenter"",""5"",""40288""
","
","447","","49","","","3000","1","","","images/earth.jpg","images/tutrocket2","images/tutrocket1","null","images/tutrocket1","","1","practice","null","","","1",""
"d3-animate-choice","71","462318","0.0-61.0-1.3","717","805","9","Female","true","true","true","false","""event"",""trial"",""time""
""fullscreenenter"",""5"",""40288""
","
","
","""event"",""trial"",""time""
""fullscreenenter"",""5"",""40288""
","
","670","","49","","","3000","1","","","images/tutgreenplanet.jpg","images/tutalien2","images/tutalien1","images/tutrocket1","images/tutalien1","images/nothing.png","2","practice","true","0","2022-02-14 00:25:26.169","1","common"
"two-step-fixation","72","463325","0.0-61.0-2.3","717","805","9","Female","true","true","true","false","""event"",""trial"",""time""
""fullscreenenter"",""5"",""40288""
","
","
","""event"",""trial"",""time""
""fullscreenenter"",""5"",""40288""
","
","","images/earth.jpg","","","","","","","","","","","","","","fixation","","","","","",""
"d3-animate-choice","73","465801","0.0-61.0-0.4","717","805","9","Female","true","true","true","false","""event"",""trial"",""time""
""fullscreenenter"",""5"",""40288""
","
","
","""event"",""trial"",""time""
""fullscreenenter"",""5"",""40288""
","
","469","","48","","","3000","1","","","images/earth.jpg","images/tutrocket2","images/tutrocket1","null","images/tutrocket2","","1","practice","null","","","2",""
"d3-animate-choice","74","468228","0.0-61.0-1.4","717","805","9","Female","true","true","true","false","""event"",""trial"",""time""
""fullscreenenter"",""5"",""40288""
","
","
","""event"",""trial"",""time""
""fullscreenenter"",""5"",""40288""
","
","422","","49","","","3000","1","","","images/tutyellowplanet.jpg","images/tutalien4","images/tutalien3","images/tutrocket2","images/tutalien3","images/nothing.png","2","practice","true","0","2022-02-14 00:25:32.079","1","common"
"two-step-fixation","75","469234","0.0-61.0-2.4","717","805","9","Female","true","true","true","false","""event"",""trial"",""time""
""fullscreenenter"",""5"",""40288""
","
","
","""event"",""trial"",""time""
""fullscreenenter"",""5"",""40288""
","
","","images/earth.jpg","","","","","","","","","","","","","","fixation","","","","","",""
"d3-animate-choice","76","471659","0.0-61.0-0.5","717","805","9","Female","true","true","true","false","""event"",""trial"",""time""
""fullscreenenter"",""5"",""40288""
","
","
","""event"",""trial"",""time""
""fullscreenenter"",""5"",""40288""
","
","418","","49","","","3000","1","","","images/earth.jpg","images/tutrocket2","images/tutrocket1","null","images/tutrocket1","","1","practice","null","","","1",""
"d3-animate-choice","77","474156","0.0-61.0-1.5","717","805","9","Female","true","true","true","false","""event"",""trial"",""time""
""fullscreenenter"",""5"",""40288""
","
","
","""event"",""trial"",""time""
""fullscreenenter"",""5"",""40288""
","
","489","","48","","","3000","1","","","images/tutyellowplanet.jpg","images/tutalien4","images/tutalien3","images/tutrocket1","images/tutalien4","images/t.png","2","practice","false","1","2022-02-14 00:25:38.007","2","rare"
"two-step-fixation","78","475159","0.0-61.0-2.5","717","805","9","Female","true","true","true","false","""event"",""trial"",""time""
""fullscreenenter"",""5"",""40288""
","
","
","""event"",""trial"",""time""
""fullscreenenter"",""5"",""40288""
","
","","images/earth.jpg","","","","","","","","","","","","","","fixation","","","","","",""
"d3-animate-choice","79","477832","0.0-61.0-0.6","717","805","9","Female","true","true","true","false","""event"",""trial"",""time""
""fullscreenenter"",""5"",""40288""
","
","
","""event"",""trial"",""time""
""fullscreenenter"",""5"",""40288""
","
","669","","49","","","3000","1","2468","49","images/earth.jpg","images/tutrocket2","images/tutrocket1","null","images/tutrocket1","","1","practice","null","","","1",""
"d3-animate-choice","80","480395","0.0-61.0-1.6","717","805","9","Female","true","true","true","false","""event"",""trial"",""time""
""fullscreenenter"",""5"",""40288""
","
","
","""event"",""trial"",""time""
""fullscreenenter"",""5"",""40288""
","
","558","","49","","","3000","1","","","images/tutgreenplanet.jpg","images/tutalien2","images/tutalien1","images/tutrocket1","images/tutalien1","images/nothing.png","2","practice","true","0","2022-02-14 00:25:44.246","1","common"
"two-step-fixation","81","481401","0.0-61.0-2.6","717","805","9","Female","true","true","true","false","""event"",""trial"",""time""
""fullscreenenter"",""5"",""40288""
","
","
","""event"",""trial"",""time""
""fullscreenenter"",""5"",""40288""
","
","","images/earth.jpg","","","","","","","","","","","","","","fixation","","","","","",""
"d3-animate-choice","82","484005","0.0-61.0-0.7","717","805","9","Female","true","true","true","false","""event"",""trial"",""time""
""fullscreenenter"",""5"",""40288""
","
","
","""event"",""trial"",""time""
""fullscreenenter"",""5"",""40288""
","
","599","","48","","","3000","1","","","images/earth.jpg","images/tutrocket2","images/tutrocket1","null","images/tutrocket2","","1","practice","null","","","2",""
"d3-animate-choice","83","486690","0.0-61.0-1.7","717","805","9","Female","true","true","true","false","""event"",""trial"",""time""
""fullscreenenter"",""5"",""40288""
","
","
","""event"",""trial"",""time""
""fullscreenenter"",""5"",""40288""
","
","679","","48","","","3000","1","","","images/tutgreenplanet.jpg","images/tutalien2","images/tutalien1","images/tutrocket2","images/tutalien2","images/nothing.png","2","practice","false","0","2022-02-14 00:25:50.541","2","rare"
"two-step-fixation","84","487693","0.0-61.0-2.7","717","805","9","Female","true","true","true","false","""event"",""trial"",""time""
""fullscreenenter"",""5"",""40288""
","
","
","""event"",""trial"",""time""
""fullscreenenter"",""5"",""40288""
","
","","images/earth.jpg","","","","","","","","","","","","","","fixation","","","","","",""
"d3-animate-choice","85","489716","0.0-61.0-0.8","717","805","9","Female","true","true","true","false","""event"",""trial"",""time""
""fullscreenenter"",""5"",""40288""
","
","
","""event"",""trial"",""time""
""fullscreenenter"",""5"",""40288""
","
","15","","49","","","3000","1","","","images/earth.jpg","images/tutrocket2","images/tutrocket1","null","images/tutrocket1","","1","practice","null","","","1",""
"d3-animate-choice","86","492743","0.0-61.0-1.8","717","805","9","Female","true","true","true","false","""event"",""trial"",""time""
""fullscreenenter"",""5"",""40288""
","
","
","""event"",""trial"",""time""
""fullscreenenter"",""5"",""40288""
","
","1019","","48","","","3000","1","","","images/tutyellowplanet.jpg","images/tutalien4","images/tutalien3","images/tutrocket1","images/tutalien4","images/t.png","2","practice","false","1","2022-02-14 00:25:56.594","2","rare"
"two-step-fixation","87","493747","0.0-61.0-2.8","717","805","9","Female","true","true","true","false","""event"",""trial"",""time""
""fullscreenenter"",""5"",""40288""
","
","
","""event"",""trial"",""time""
""fullscreenenter"",""5"",""40288""
","
","","images/earth.jpg","","","","","","","","","","","","","","fixation","","","","","",""
"d3-animate-choice","88","496278","0.0-61.0-0.9","717","805","9","Female","true","true","true","false","""event"",""trial"",""time""
""fullscreenenter"",""5"",""40288""
","
","
","""event"",""trial"",""time""
""fullscreenenter"",""5"",""40288""
","
","522","","48","","","3000","1","","","images/earth.jpg","images/tutrocket2","images/tutrocket1","null","images/tutrocket2","","1","practice","null","","","2",""
"d3-animate-choice","89","498916","0.0-61.0-1.9","717","805","9","Female","true","true","true","false","""event"",""trial"",""time""
""fullscreenenter"",""5"",""40288""
","
","
","""event"",""trial"",""time""
""fullscreenenter"",""5"",""40288""
","
","631","","48","","","3000","1","","","images/tutyellowplanet.jpg","images/tutalien4","images/tutalien3","images/tutrocket2","images/tutalien4","images/t.png","2","practice","true","1","2022-02-14 00:26:02.767","2","common"
"two-step-fixation","90","499924","0.0-61.0-2.9","717","805","9","Female","true","true","true","false","""event"",""trial"",""time""
""fullscreenenter"",""5"",""40288""
","
","
","""event"",""trial"",""time""
""fullscreenenter"",""5"",""40288""
","
","","images/earth.jpg","","","","","","","","","","","","","","fixation","","","","","",""
"d3-animate-choice","91","502745","0.0-61.0-0.10","717","805","9","Female","true","true","true","false","""event"",""trial"",""time""
""fullscreenenter"",""5"",""40288""
","
","
","""event"",""trial"",""time""
""fullscreenenter"",""5"",""40288""
","
","816","","48","","","3000","1","","","images/earth.jpg","images/tutrocket2","images/tutrocket1","null","images/tutrocket2","","1","practice","null","","","2",""
"d3-animate-choice","92","505671","0.0-61.0-1.10","717","805","9","Female","true","true","true","false","""event"",""trial"",""time""
""fullscreenenter"",""5"",""40288""
","
","
","""event"",""trial"",""time""
""fullscreenenter"",""5"",""40288""
","
","919","","49","","","3000","1","","","images/tutgreenplanet.jpg","images/tutalien2","images/tutalien1","images/tutrocket2","images/tutalien1","images/t.png","2","practice","false","1","2022-02-14 00:26:09.522","1","rare"
"two-step-fixation","93","506677","0.0-61.0-2.10","717","805","9","Female","true","true","true","false","""event"",""trial"",""time""
""fullscreenenter"",""5"",""40288""
","
","
","""event"",""trial"",""time""
""fullscreenenter"",""5"",""40288""
","
","","images/earth.jpg","","","","","","","","","","","","","","fixation","","","","","",""
"d3-animate-choice","94","509061","0.0-61.0-0.11","717","805","9","Female","true","true","true","false","""event"",""trial"",""time""
""fullscreenenter"",""5"",""40288""
","
","
","""event"",""trial"",""time""
""fullscreenenter"",""5"",""40288""
","
","375","","48","","","3000","1","","","images/earth.jpg","images/tutrocket2","images/tutrocket1","null","images/tutrocket2","","1","practice","null","","","2",""
"d3-animate-choice","95","511772","0.0-61.0-1.11","717","805","9","Female","true","true","true","false","""event"",""trial"",""time""
""fullscreenenter"",""5"",""40288""
","
","
","""event"",""trial"",""time""
""fullscreenenter"",""5"",""40288""
","
","706","","48","","","3000","1","","","images/tutyellowplanet.jpg","images/tutalien4","images/tutalien3","images/tutrocket2","images/tutalien4","images/nothing.png","2","practice","true","0","2022-02-14 00:26:15.623","2","common"
"two-step-fixation","96","512775","0.0-61.0-2.11","717","805","9","Female","true","true","true","false","""event"",""trial"",""time""
""fullscreenenter"",""5"",""40288""
","
","
","""event"",""trial"",""time""
""fullscreenenter"",""5"",""40288""
","
","","images/earth.jpg","","","","","","","","","","","","","","fixation","","","","","",""
"d3-animate-choice","97","516712","0.0-61.0-0.12","717","805","9","Female","true","true","true","false","""event"",""trial"",""time""
""fullscreenenter"",""5"",""40288""
","
","
","""event"",""trial"",""time""
""fullscreenenter"",""5"",""40288""
","
","1931","","49","","","3000","1","","","images/earth.jpg","images/tutrocket2","images/tutrocket1","null","images/tutrocket1","","1","practice","null","","","1",""
"d3-animate-choice","98","520195","0.0-61.0-1.12","717","805","9","Female","true","true","true","false","""event"",""trial"",""time""
""fullscreenenter"",""5"",""40288""
","
","
","""event"",""trial"",""time""
""fullscreenenter"",""5"",""40288""
","
","1475","","49","","","3000","1","","","images/tutgreenplanet.jpg","images/tutalien2","images/tutalien1","images/tutrocket1","images/tutalien1","images/nothing.png","2","practice","true","0","2022-02-14 00:26:24.046","1","common"
"two-step-fixation","99","521201","0.0-61.0-2.12","717","805","9","Female","true","true","true","false","""event"",""trial"",""time""
""fullscreenenter"",""5"",""40288""
","
","
","""event"",""trial"",""time""
""fullscreenenter"",""5"",""40288""
","
","","images/earth.jpg","","","","","","","","","","","","","","fixation","","","","","",""
"d3-animate-choice","100","525211","0.0-61.0-0.13","717","805","9","Female","true","true","true","false","""event"",""trial"",""time""
""fullscreenenter"",""5"",""40288""
","
","
","""event"",""trial"",""time""
""fullscreenenter"",""5"",""40288""
","
","2573","","48","","","3000","1","","","images/earth.jpg","images/tutrocket2","images/tutrocket1","null","images/tutrocket2","","1","practice","null","","","2",""
"d3-animate-choice","101","528020","0.0-61.0-1.13","717","805","9","Female","true","true","true","false","""event"",""trial"",""time""
""fullscreenenter"",""5"",""40288""
","
","
","""event"",""trial"",""time""
""fullscreenenter"",""5"",""40288""
","
","804","","48","","","3000","1","","","images/tutyellowplanet.jpg","images/tutalien4","images/tutalien3","images/tutrocket2","images/tutalien4","images/nothing.png","2","practice","true","0","2022-02-14 00:26:31.871","2","common"
"two-step-fixation","102","529028","0.0-61.0-2.13","717","805","9","Female","true","true","true","false","""event"",""trial"",""time""
""fullscreenenter"",""5"",""40288""
","
","
","""event"",""trial"",""time""
""fullscreenenter"",""5"",""40288""
","
","","images/earth.jpg","","","","","","","","","","","","","","fixation","","","","","",""
"d3-animate-choice","103","531179","0.0-61.0-0.14","717","805","9","Female","true","true","true","false","""event"",""trial"",""time""
""fullscreenenter"",""5"",""40288""
","
","
","""event"",""trial"",""time""
""fullscreenenter"",""5"",""40288""
","
","145","","49","","","3000","1","1347,2046","49,49","images/earth.jpg","images/tutrocket2","images/tutrocket1","null","images/tutrocket1","","1","practice","null","","","1",""
"d3-animate-choice","104","533972","0.0-61.0-1.14","717","805","9","Female","true","true","true","false","""event"",""trial"",""time""
""fullscreenenter"",""5"",""40288""
","
","
","""event"",""trial"",""time""
""fullscreenenter"",""5"",""40288""
","
","788","","48","","","3000","1","1118,1325,1585,1865,2084,2360,2591,2788","48,49,48,49,48,49,48,49","images/tutgreenplanet.jpg","images/tutalien2","images/tutalien1","images/tutrocket1","images/tutalien2","images/t.png","2","practice","true","1","2022-02-14 00:26:37.823","2","common"
"two-step-fixation","105","534975","0.0-61.0-2.14","717","805","9","Female","true","true","true","false","""event"",""trial"",""time""
""fullscreenenter"",""5"",""40288""
","
","
","""event"",""trial"",""time""
""fullscreenenter"",""5"",""40288""
","
","","images/earth.jpg","","","","","","","","","","","","","","fixation","","","","","",""
"d3-animate-choice","106","537446","0.0-61.0-0.15","717","805","9","Female","true","true","true","false","""event"",""trial"",""time""
""fullscreenenter"",""5"",""40288""
","
","
","""event"",""trial"",""time""
""fullscreenenter"",""5"",""40288""
","
","464","","48","","","3000","1","","","images/earth.jpg","images/tutrocket2","images/tutrocket1","null","images/tutrocket2","","1","practice","null","","","2",""
"d3-animate-choice","107","541450","0.0-61.0-1.15","717","805","9","Female","true","true","true","false","""event"",""trial"",""time""
""fullscreenenter"",""5"",""40288""
","
","
","""event"",""trial"",""time""
""fullscreenenter"",""5"",""40288""
","
","2009","","49","","","3000","1","2987,3042,3343,3421,3589,3846,3983","49,50,49,50,49,50,49","images/tutyellowplanet.jpg","images/tutalien4","images/tutalien3","images/tutrocket2","images/tutalien3","images/nothing.png","2","practice","true","0","2022-02-14 00:26:45.302","1","common"
"two-step-fixation","108","542452","0.0-61.0-2.15","717","805","9","Female","true","true","true","false","""event"",""trial"",""time""
""fullscreenenter"",""5"",""40288""
","
","
","""event"",""trial"",""time""
""fullscreenenter"",""5"",""40288""
","
","","images/earth.jpg","","","","","","","","","","","","","","fixation","","","","","",""
"d3-animate-choice","109","544690","0.0-61.0-0.16","717","805","9","Female","true","true","true","false","""event"",""trial"",""time""
""fullscreenenter"",""5"",""40288""
","
","
","""event"",""trial"",""time""
""fullscreenenter"",""5"",""40288""
","
","76","","50","","","3000","1","232,383,1078,1454,1867,2183","49,50,50,49,50,49","images/earth.jpg","images/tutrocket2","images/tutrocket1","null","images/tutrocket1","","1","practice","null","","","",""
"d3-animate-choice","110","547145","0.0-61.0-1.16","717","805","9","Female","true","true","true","false","""event"",""trial"",""time""
""fullscreenenter"",""5"",""40288""
","
","
","""event"",""trial"",""time""
""fullscreenenter"",""5"",""40288""
","
","261","","50","","","3000","1","448,708,904,1116,1320,1537","49,50,49,50,49,50","images/tutyellowplanet.jpg","images/tutalien4","images/tutalien3","images/tutrocket1","images/tutalien3","images/nothing.png","2","practice","false","0","2022-02-14 00:26:50.997","","rare"
"two-step-fixation","111","548149","0.0-61.0-2.16","717","805","9","Female","true","true","true","false","""event"",""trial"",""time""
""fullscreenenter"",""5"",""40288""
","
","
","""event"",""trial"",""time""
""fullscreenenter"",""5"",""40288""
","
","","images/earth.jpg","","","","","","","","","","","","","","fixation","","","","","",""
"d3-animate-choice","112","551985","0.0-61.0-0.17","717","805","9","Female","true","true","true","false","""event"",""trial"",""time""
""fullscreenenter"",""5"",""40288""
","
","
","""event"",""trial"",""time""
""fullscreenenter"",""5"",""40288""
","
","1828","","48","","","3000","1","","","images/earth.jpg","images/tutrocket2","images/tutrocket1","null","images/tutrocket2","","1","practice","null","","","2",""
"d3-animate-choice","113","555997","0.0-61.0-1.17","717","805","9","Female","true","true","true","false","""event"",""trial"",""time""
""fullscreenenter"",""5"",""40288""
","
","
","""event"",""trial"",""time""
""fullscreenenter"",""5"",""40288""
","
","2329","","48","","","3000","1","","","images/tutyellowplanet.jpg","images/tutalien4","images/tutalien3","images/tutrocket2","images/tutalien4","images/nothing.png","2","practice","true","0","2022-02-14 00:26:59.848","2","common"
"two-step-fixation","114","556999","0.0-61.0-2.17","717","805","9","Female","true","true","true","false","""event"",""trial"",""time""
""fullscreenenter"",""5"",""40288""
","
","
","""event"",""trial"",""time""
""fullscreenenter"",""5"",""40288""
","
","","images/earth.jpg","","","","","","","","","","","","","","fixation","","","","","",""
"d3-animate-choice","115","560065","0.0-61.0-0.18","717","805","9","Female","true","true","true","false","""event"",""trial"",""time""
""fullscreenenter"",""5"",""40288""
","
","
","""event"",""trial"",""time""
""fullscreenenter"",""5"",""40288""
","
","1062","","48","","","3000","1","","","images/earth.jpg","images/tutrocket2","images/tutrocket1","null","images/tutrocket2","","1","practice","null","","","2",""
"d3-animate-choice","116","563040","0.0-61.0-1.18","717","805","9","Female","true","true","true","false","""event"",""trial"",""time""
""fullscreenenter"",""5"",""40288""
","
","
","""event"",""trial"",""time""
""fullscreenenter"",""5"",""40288""
","
","972","","49","","","3000","1","","","images/tutgreenplanet.jpg","images/tutalien2","images/tutalien1","images/tutrocket2","images/tutalien1","images/nothing.png","2","practice","false","0","2022-02-14 00:27:06.891","1","rare"
"two-step-fixation","117","564044","0.0-61.0-2.18","717","805","9","Female","true","true","true","false","""event"",""trial"",""time""
""fullscreenenter"",""5"",""40288""
","
","
","""event"",""trial"",""time""
""fullscreenenter"",""5"",""40288""
","
","","images/earth.jpg","","","","","","","","","","","","","","fixation","","","","","",""
"d3-animate-choice","118","567558","0.0-61.0-0.19","717","805","9","Female","true","true","true","false","""event"",""trial"",""time""
""fullscreenenter"",""5"",""40288""
","
","
","""event"",""trial"",""time""
""fullscreenenter"",""5"",""40288""
","
","1509","","48","","","3000","1","2332,2709,3068,3495","49,49,49,49","images/earth.jpg","images/tutrocket2","images/tutrocket1","null","images/tutrocket2","","1","practice","null","","","2",""
"d3-animate-choice","119","570027","0.0-61.0-1.19","717","805","9","Female","true","true","true","false","""event"",""trial"",""time""
""fullscreenenter"",""5"",""40288""
","
","
","""event"",""trial"",""time""
""fullscreenenter"",""5"",""40288""
","
","461","","49","","","3000","1","875,1348,1784,2247","49,49,49,48","images/tutyellowplanet.jpg","images/tutalien4","images/tutalien3","images/tutrocket2","images/tutalien3","images/nothing.png","2","practice","true","0","2022-02-14 00:27:13.878","1","common"
"two-step-fixation","120","571032","0.0-61.0-2.19","717","805","9","Female","true","true","true","false","""event"",""trial"",""time""
""fullscreenenter"",""5"",""40288""
","
","
","""event"",""trial"",""time""
""fullscreenenter"",""5"",""40288""
","
","","images/earth.jpg","","","","","","","","","","","","","","fixation","","","","","",""
"d3-instructions","121","578220","0.0-62.0","717","805","9","Female","true","true","true","false","""event"",""trial"",""time""
""fullscreenenter"",""5"",""40288""
","
","
","""event"",""trial"",""time""
""fullscreenenter"",""5"",""40288""
","
","","","","","","","","","","","","","","","","","","","","","",""
"audio-keyboard-response","122","584618","0.0-63.0","717","805","9","Female","true","true","true","false","""event"",""trial"",""time""
""fullscreenenter"",""5"",""40288""
","
","
","""event"",""trial"",""time""
""fullscreenenter"",""5"",""40288""
","
","6397","audio/instructions/treasure_feedback.wav","32","","","","","","","","","","","","","","","","","","",""
"d3-instructions","123","603527","0.0-64.0","717","805","9","Female","true","true","true","false","""event"",""trial"",""time""
""fullscreenenter"",""5"",""40288""
","
","
","""event"",""trial"",""time""
""fullscreenenter"",""5"",""40288""
","
","","","","","","","","","","","","","","","","","","","","","",""
"d3-instructions","124","617556","0.0-65.0","717","805","9","Female","true","true","true","false","""event"",""trial"",""time""
""fullscreenenter"",""5"",""40288""
","
","
","""event"",""trial"",""time""
""fullscreenenter"",""5"",""40288""
","
","","","","","","","","","","","","","","","","","","","","","",""
"d3-instructions","125","642302","0.0-66.0","717","805","9","Female","true","true","true","false","""event"",""trial"",""time""
""fullscreenenter"",""5"",""40288""
","
","
","""event"",""trial"",""time""
""fullscreenenter"",""5"",""40288""
","
","","","","","","","","","","","","","","","","","","","","","",""
"d3-instructions","126","659458","0.0-67.0","717","805","9","Female","true","true","true","false","""event"",""trial"",""time""
""fullscreenenter"",""5"",""40288""
","
","
","""event"",""trial"",""time""
""fullscreenenter"",""5"",""40288""
","
","","","","","","","","","","","","","","","","","","","","","",""
"d3-instructions","127","668449","0.0-68.0","717","805","9","Female","true","true","true","false","""event"",""trial"",""time""
""fullscreenenter"",""5"",""40288""
","
","
","""event"",""trial"",""time""
""fullscreenenter"",""5"",""40288""
","
","","","","","","","","","","","","","","","","","","","","","",""
"instructions-quiz","128","672899","0.0-69.0","717","805","9","Female","true","true","true","false","""event"",""trial"",""time""
""fullscreenenter"",""5"",""40288""
","
","
","""event"",""trial"",""time""
""fullscreenenter"",""5"",""40288""
","
","4449","audio/quiz/Q1_Prompt.wav","","1","","","","","","","","","","","","","","","","","",""
"audio-keyboard-response","129","682078","0.0-70.0","717","805","9","Female","true","true","true","false","""event"",""trial"",""time""
""fullscreenenter"",""5"",""40288""
","
","
","""event"",""trial"",""time""
""fullscreenenter"",""5"",""40288""
","
","null","audio/quiz/Q1_Correct.wav","null","","","","","","","","","","","","","","","","","","",""
"instructions-quiz","130","691050","0.0-71.0","717","805","9","Female","true","true","true","false","""event"",""trial"",""time""
""fullscreenenter"",""5"",""40288""
","
","
","""event"",""trial"",""time""
""fullscreenenter"",""5"",""40288""
","
","8969","audio/quiz/Q2_Prompt.wav","","0","","","","","","","","","","","","","","","","","",""
"audio-keyboard-response","131","698898","0.0-72.0","717","805","9","Female","true","true","true","false","""event"",""trial"",""time""
""fullscreenenter"",""5"",""40288""
","
","
","""event"",""trial"",""time""
""fullscreenenter"",""5"",""40288""
","
","7848","audio/quiz/Q2_Correct.wav","74","","","","","","","","","","","","","","","","","","",""
"instructions-quiz","132","703498","0.0-73.0","717","805","9","Female","true","true","true","false","""event"",""trial"",""time""
""fullscreenenter"",""5"",""40288""
","
","
","""event"",""trial"",""time""
""fullscreenenter"",""5"",""40288""
","
","4597","audio/quiz/Q3_Prompt.wav","","1","","","","","","","","","","","","","","","","","",""
"audio-keyboard-response","133","709316","0.0-74.0","717","805","9","Female","true","true","true","false","""event"",""trial"",""time""
""fullscreenenter"",""5"",""40288""
","
","
","""event"",""trial"",""time""
""fullscreenenter"",""5"",""40288""
","
","null","audio/quiz/Q3_Correct.wav","null","","","","","","","","","","","","","","","","","","",""
"d3-instructions","134","723349","0.0-75.0","717","805","9","Female","true","true","true","false","""event"",""trial"",""time""
""fullscreenenter"",""5"",""40288""
","
","
","""event"",""trial"",""time""
""fullscreenenter"",""5"",""40288""
","
","","","","","","","","","","","","","","","","","","","","","",""
"d3-animate-choice","135","726263","0.0-76.0-0.0","717","805","9","Female","true","true","true","false","""event"",""trial"",""time""
""fullscreenenter"",""5"",""40288""
","
","
","""event"",""trial"",""time""
""fullscreenenter"",""5"",""40288""
","
","909","","48","","","3000","1","","","images/earth.jpg","images/rocket2","images/rocket1","null","images/rocket2","","1","real","null","","","2",""
"d3-animate-choice","136","729151","0.0-76.0-1.0","717","805","9","Female","true","true","true","false","""event"",""trial"",""time""
""fullscreenenter"",""5"",""40288""
","
","
","""event"",""trial"",""time""
""fullscreenenter"",""5"",""40288""
","
","882","","48","","","3000","1","","","images/purpleplanet.jpg","images/alien4","images/alien3","images/rocket2","images/alien4","images/t.png","2","real","true","1","2022-02-14 00:29:53.002","2","common"
"two-step-fixation","137","730157","0.0-76.0-2.0","717","805","9","Female","true","true","true","false","""event"",""trial"",""time""
""fullscreenenter"",""5"",""40288""
","
","
","""event"",""trial"",""time""
""fullscreenenter"",""5"",""40288""
","
","","images/earth.jpg","","","","","","","","","","","","","","fixation","","","","","",""
"d3-animate-choice","138","732544","0.0-76.0-0.1","717","805","9","Female","true","true","true","false","""event"",""trial"",""time""
""fullscreenenter"",""5"",""40288""
","
","
","""event"",""trial"",""time""
""fullscreenenter"",""5"",""40288""
","
","380","","49","","","3000","1","","","images/earth.jpg","images/rocket2","images/rocket1","null","images/rocket1","","1","real","null","","","1",""
"d3-animate-choice","139","735161","0.0-76.0-1.1","717","805","9","Female","true","true","true","false","""event"",""trial"",""time""
""fullscreenenter"",""5"",""40288""
","
","
","""event"",""trial"",""time""
""fullscreenenter"",""5"",""40288""
","
","609","","48","","","3000","1","","","images/redplanet1.jpg","images/alien2","images/alien1","images/rocket1","images/alien2","images/nothing.png","2","real","true","0","2022-02-14 00:29:59.012","2","common"
"two-step-fixation","140","736164","0.0-76.0-2.1","717","805","9","Female","true","true","true","false","""event"",""trial"",""time""
""fullscreenenter"",""5"",""40288""
","
","
","""event"",""trial"",""time""
""fullscreenenter"",""5"",""40288""
","
","","images/earth.jpg","","","","","","","","","","","","","","fixation","","","","","",""
"d3-animate-choice","141","738689","0.0-76.0-0.2","717","805","9","Female","true","true","true","false","""event"",""trial"",""time""
""fullscreenenter"",""5"",""40288""
","
","
","""event"",""trial"",""time""
""fullscreenenter"",""5"",""40288""
","
","519","","49","","","3000","1","","","images/earth.jpg","images/rocket2","images/rocket1","null","images/rocket1","","1","real","null","","","1",""
"d3-animate-choice","142","741471","0.0-76.0-1.2","717","805","9","Female","true","true","true","false","""event"",""trial"",""time""
""fullscreenenter"",""5"",""40288""
","
","
","""event"",""trial"",""time""
""fullscreenenter"",""5"",""40288""
","
","777","","49","","","3000","1","","","images/redplanet1.jpg","images/alien2","images/alien1","images/rocket1","images/alien1","images/nothing.png","2","real","true","0","2022-02-14 00:30:05.323","1","common"
"two-step-fixation","143","742475","0.0-76.0-2.2","717","805","9","Female","true","true","true","false","""event"",""trial"",""time""
""fullscreenenter"",""5"",""40288""
","
","
","""event"",""trial"",""time""
""fullscreenenter"",""5"",""40288""
","
","","images/earth.jpg","","","","","","","","","","","","","","fixation","","","","","",""
"d3-animate-choice","144","745052","0.0-76.0-0.3","717","805","9","Female","true","true","true","false","""event"",""trial"",""time""
""fullscreenenter"",""5"",""40288""
","
","
","""event"",""trial"",""time""
""fullscreenenter"",""5"",""40288""
","
","573","","48","","","3000","1","","","images/earth.jpg","images/rocket2","images/rocket1","null","images/rocket2","","1","real","null","","","2",""
"d3-animate-choice","145","747739","0.0-76.0-1.3","717","805","9","Female","true","true","true","false","""event"",""trial"",""time""
""fullscreenenter"",""5"",""40288""
","
","
","""event"",""trial"",""time""
""fullscreenenter"",""5"",""40288""
","
","680","","48","","","3000","1","","","images/purpleplanet.jpg","images/alien4","images/alien3","images/rocket2","images/alien4","images/t.png","2","real","true","1","2022-02-14 00:30:11.590","2","common"
"two-step-fixation","146","748744","0.0-76.0-2.3","717","805","9","Female","true","true","true","false","""event"",""trial"",""time""
""fullscreenenter"",""5"",""40288""
","
","
","""event"",""trial"",""time""
""fullscreenenter"",""5"",""40288""
","
","","images/earth.jpg","","","","","","","","","","","","","","fixation","","","","","",""
"d3-animate-choice","147","750956","0.0-76.0-0.4","717","805","9","Female","true","true","true","false","""event"",""trial"",""time""
""fullscreenenter"",""5"",""40288""
","
","
","""event"",""trial"",""time""
""fullscreenenter"",""5"",""40288""
","
","206","","48","","","3000","1","","","images/earth.jpg","images/rocket2","images/rocket1","null","images/rocket2","","1","real","null","","","2",""
"d3-animate-choice","148","753518","0.0-76.0-1.4","717","805","9","Female","true","true","true","false","""event"",""trial"",""time""
""fullscreenenter"",""5"",""40288""
","
","
","""event"",""trial"",""time""
""fullscreenenter"",""5"",""40288""
","
","554","","48","","","3000","1","","","images/purpleplanet.jpg","images/alien4","images/alien3","images/rocket2","images/alien4","images/nothing.png","2","real","true","0","2022-02-14 00:30:17.369","2","common"
"two-step-fixation","149","754522","0.0-76.0-2.4","717","805","9","Female","true","true","true","false","""event"",""trial"",""time""
""fullscreenenter"",""5"",""40288""
","
","
","""event"",""trial"",""time""
""fullscreenenter"",""5"",""40288""
","
","","images/earth.jpg","","","","","","","","","","","","","","fixation","","","","","",""
"d3-animate-choice","150","757255","0.0-76.0-0.5","717","805","9","Female","true","true","true","false","""event"",""trial"",""time""
""fullscreenenter"",""5"",""40288""
","
","
","""event"",""trial"",""time""
""fullscreenenter"",""5"",""40288""
","
","726","","49","","","3000","1","","","images/earth.jpg","images/rocket2","images/rocket1","null","images/rocket1","","1","real","null","","","1",""
"d3-animate-choice","151","760063","0.0-76.0-1.5","717","805","9","Female","true","true","true","false","""event"",""trial"",""time""
""fullscreenenter"",""5"",""40288""
","
","
","""event"",""trial"",""time""
""fullscreenenter"",""5"",""40288""
","
","799","","49","","","3000","1","","","images/redplanet1.jpg","images/alien2","images/alien1","images/rocket1","images/alien1","images/nothing.png","2","real","true","0","2022-02-14 00:30:23.914","1","common"
"two-step-fixation","152","761069","0.0-76.0-2.5","717","805","9","Female","true","true","true","false","""event"",""trial"",""time""
""fullscreenenter"",""5"",""40288""
","
","
","""event"",""trial"",""time""
""fullscreenenter"",""5"",""40288""
","
","","images/earth.jpg","","","","","","","","","","","","","","fixation","","","","","",""
"d3-animate-choice","153","763464","0.0-76.0-0.6","717","805","9","Female","true","true","true","false","""event"",""trial"",""time""
""fullscreenenter"",""5"",""40288""
","
","
","""event"",""trial"",""time""
""fullscreenenter"",""5"",""40288""
","
","390","","48","","","3000","1","","","images/earth.jpg","images/rocket2","images/rocket1","null","images/rocket2","","1","real","null","","","2",""
"d3-animate-choice","154","765822","0.0-76.0-1.6","717","805","9","Female","true","true","true","false","""event"",""trial"",""time""
""fullscreenenter"",""5"",""40288""
","
","
","""event"",""trial"",""time""
""fullscreenenter"",""5"",""40288""
","
","348","","49","","","3000","1","","","images/purpleplanet.jpg","images/alien4","images/alien3","images/rocket2","images/alien3","images/nothing.png","2","real","true","0","2022-02-14 00:30:29.673","1","common"
"two-step-fixation","155","766824","0.0-76.0-2.6","717","805","9","Female","true","true","true","false","""event"",""trial"",""time""
""fullscreenenter"",""5"",""40288""
","
","
","""event"",""trial"",""time""
""fullscreenenter"",""5"",""40288""
","
","","images/earth.jpg","","","","","","","","","","","","","","fixation","","","","","",""
"d3-animate-choice","156","769511","0.0-76.0-0.7","717","805","9","Female","true","true","true","false","""event"",""trial"",""time""
""fullscreenenter"",""5"",""40288""
","
","
","""event"",""trial"",""time""
""fullscreenenter"",""5"",""40288""
","
","678","","48","","","3000","1","","","images/earth.jpg","images/rocket2","images/rocket1","null","images/rocket2","","1","real","null","","","2",""
"d3-animate-choice","157","771953","0.0-76.0-1.7","717","805","9","Female","true","true","true","false","""event"",""trial"",""time""
""fullscreenenter"",""5"",""40288""
","
","
","""event"",""trial"",""time""
""fullscreenenter"",""5"",""40288""
","
","438","","49","","","3000","1","","","images/purpleplanet.jpg","images/alien4","images/alien3","images/rocket2","images/alien3","images/t.png","2","real","true","1","2022-02-14 00:30:35.805","1","common"
"two-step-fixation","158","772960","0.0-76.0-2.7","717","805","9","Female","true","true","true","false","""event"",""trial"",""time""
""fullscreenenter"",""5"",""40288""
","
","
","""event"",""trial"",""time""
""fullscreenenter"",""5"",""40288""
","
","","images/earth.jpg","","","","","","","","","","","","","","fixation","","","","","",""
"d3-animate-choice","159","774964","0.0-76.0-0.8","717","805","9","Female","true","true","true","false","""event"",""trial"",""time""
""fullscreenenter"",""5"",""40288""
","
","
","""event"",""trial"",""time""
""fullscreenenter"",""5"",""40288""
","
","1","","48","","","3000","1","1829","49","images/earth.jpg","images/rocket2","images/rocket1","null","images/rocket2","","1","real","null","","","2",""
"d3-animate-choice","160","778064","0.0-76.0-1.8","717","805","9","Female","true","true","true","false","""event"",""trial"",""time""
""fullscreenenter"",""5"",""40288""
","
","
","""event"",""trial"",""time""
""fullscreenenter"",""5"",""40288""
","
","1092","","49","","","3000","1","","","images/redplanet1.jpg","images/alien2","images/alien1","images/rocket2","images/alien1","images/nothing.png","2","real","false","0","2022-02-14 00:30:41.916","1","rare"
"two-step-fixation","161","779069","0.0-76.0-2.8","717","805","9","Female","true","true","true","false","""event"",""trial"",""time""
""fullscreenenter"",""5"",""40288""
","
","
","""event"",""trial"",""time""
""fullscreenenter"",""5"",""40288""
","
","","images/earth.jpg","","","","","","","","","","","","","","fixation","","","","","",""
"d3-animate-choice","162","781973","0.0-76.0-0.9","717","805","9","Female","true","true","true","false","""event"",""trial"",""time""
""fullscreenenter"",""5"",""40288""
","
","
","""event"",""trial"",""time""
""fullscreenenter"",""5"",""40288""
","
","900","","48","","","3000","1","","","images/earth.jpg","images/rocket2","images/rocket1","null","images/rocket2","","1","real","null","","","2",""
"d3-animate-choice","163","784785","0.0-76.0-1.9","717","805","9","Female","true","true","true","false","""event"",""trial"",""time""
""fullscreenenter"",""5"",""40288""
","
","
","""event"",""trial"",""time""
""fullscreenenter"",""5"",""40288""
","
","805","","49","","","3000","1","1345,1520,1694,1961,2096,2268,2699","48,49,48,48,49,48,49","images/purpleplanet.jpg","images/alien4","images/alien3","images/rocket2","images/alien3","images/nothing.png","2","real","true","0","2022-02-14 00:30:48.636","1","common"
"two-step-fixation","164","785788","0.0-76.0-2.9","717","805","9","Female","true","true","true","false","""event"",""trial"",""time""
""fullscreenenter"",""5"",""40288""
","
","
","""event"",""trial"",""time""
""fullscreenenter"",""5"",""40288""
","
","","images/earth.jpg","","","","","","","","","","","","","","fixation","","","","","",""
"d3-animate-choice","165","787864","0.0-76.0-0.10","717","805","9","Female","true","true","true","false","""event"",""trial"",""time""
""fullscreenenter"",""5"",""40288""
","
","
","""event"",""trial"",""time""
""fullscreenenter"",""5"",""40288""
","
","71","","49","","","3000","1","223,471,680,889","48,48,49,48","images/earth.jpg","images/rocket2","images/rocket1","null","images/rocket1","","1","real","null","","","1",""
"d3-animate-choice","166","790797","0.0-76.0-1.10","717","805","9","Female","true","true","true","false","""event"",""trial"",""time""
""fullscreenenter"",""5"",""40288""
","
","
","""event"",""trial"",""time""
""fullscreenenter"",""5"",""40288""
","
","928","","48","","","3000","1","1118,2517","49,49","images/purpleplanet.jpg","images/alien4","images/alien3","images/rocket1","images/alien4","images/nothing.png","2","real","false","0","2022-02-14 00:30:54.648","2","rare"
"two-step-fixation","167","791803","0.0-76.0-2.10","717","805","9","Female","true","true","true","false","""event"",""trial"",""time""
""fullscreenenter"",""5"",""40288""
","
","
","""event"",""trial"",""time""
""fullscreenenter"",""5"",""40288""
","
","","images/earth.jpg","","","","","","","","","","","","","","fixation","","","","","",""
"d3-animate-choice","168","794257","0.0-76.0-0.11","717","805","9","Female","true","true","true","false","""event"",""trial"",""time""
""fullscreenenter"",""5"",""40288""
","
","
","""event"",""trial"",""time""
""fullscreenenter"",""5"",""40288""
","
","446","","49","","","3000","1","1324,1830,2086,2347","49,48,48,48","images/earth.jpg","images/rocket2","images/rocket1","null","images/rocket1","","1","real","null","","","1",""
"d3-animate-choice","169","796388","0.0-76.0-1.11","717","805","9","Female","true","true","true","false","""event"",""trial"",""time""
""fullscreenenter"",""5"",""40288""
","
","
","""event"",""trial"",""time""
""fullscreenenter"",""5"",""40288""
","
","126","","49","","","3000","1","347,1574,1847,2106","48,48,48,48","images/redplanet1.jpg","images/alien2","images/alien1","images/rocket1","images/alien1","images/t.png","2","real","true","1","2022-02-14 00:31:00.239","1","common"
"two-step-fixation","170","797391","0.0-76.0-2.11","717","805","9","Female","true","true","true","false","""event"",""trial"",""time""
""fullscreenenter"",""5"",""40288""
","
","
","""event"",""trial"",""time""
""fullscreenenter"",""5"",""40288""
","
","","images/earth.jpg","","","","","","","","","","","","","","fixation","","","","","",""
"d3-animate-choice","171","799613","0.0-76.0-0.12","717","805","9","Female","true","true","true","false","""event"",""trial"",""time""
""fullscreenenter"",""5"",""40288""
","
","
","""event"",""trial"",""time""
""fullscreenenter"",""5"",""40288""
","
","216","","48","","","3000","1","1118,1318,1593,2149","48,49,48,48","images/earth.jpg","images/rocket2","images/rocket1","null","images/rocket2","","1","real","null","","","2",""
"d3-animate-choice","172","802022","0.0-76.0-1.12","717","805","9","Female","true","true","true","false","""event"",""trial"",""time""
""fullscreenenter"",""5"",""40288""
","
","
","""event"",""trial"",""time""
""fullscreenenter"",""5"",""40288""
","
","400","","48","","","3000","1","596,1116,1555,1665","49,49,48,49","images/purpleplanet.jpg","images/alien4","images/alien3","images/rocket2","images/alien4","images/t.png","2","real","true","1","2022-02-14 00:31:05.873","2","common"
"two-step-fixation","173","803029","0.0-76.0-2.12","717","805","9","Female","true","true","true","false","""event"",""trial"",""time""
""fullscreenenter"",""5"",""40288""
","
","
","""event"",""trial"",""time""
""fullscreenenter"",""5"",""40288""
","
","","images/earth.jpg","","","","","","","","","","","","","","fixation","","","","","",""
"d3-animate-choice","174","805044","0.0-76.0-0.13","717","805","9","Female","true","true","true","false","""event"",""trial"",""time""
""fullscreenenter"",""5"",""40288""
","
","
","""event"",""trial"",""time""
""fullscreenenter"",""5"",""40288""
","
","10","","48","","","3000","1","193,434,712,1151,1627","49,48,49,49,49","images/earth.jpg","images/rocket2","images/rocket1","null","images/rocket2","","1","real","null","","","2",""
"d3-animate-choice","175","807677","0.0-76.0-1.13","717","805","9","Female","true","true","true","false","""event"",""trial"",""time""
""fullscreenenter"",""5"",""40288""
","
","
","""event"",""trial"",""time""
""fullscreenenter"",""5"",""40288""
","
","624","","49","","","3000","1","720","48","images/purpleplanet.jpg","images/alien4","images/alien3","images/rocket2","images/alien3","images/t.png","2","real","true","1","2022-02-14 00:31:11.528","1","common"
"two-step-fixation","176","808679","0.0-76.0-2.13","717","805","9","Female","true","true","true","false","""event"",""trial"",""time""
""fullscreenenter"",""5"",""40288""
","
","
","""event"",""trial"",""time""
""fullscreenenter"",""5"",""40288""
","
","","images/earth.jpg","","","","","","","","","","","","","","fixation","","","","","",""
"d3-animate-choice","177","811080","0.0-76.0-0.14","717","805","9","Female","true","true","true","false","""event"",""trial"",""time""
""fullscreenenter"",""5"",""40288""
","
","
","""event"",""trial"",""time""
""fullscreenenter"",""5"",""40288""
","
","391","","49","","","3000","1","","","images/earth.jpg","images/rocket2","images/rocket1","null","images/rocket1","","1","real","null","","","1",""
"d3-animate-choice","178","813677","0.0-76.0-1.14","717","805","9","Female","true","true","true","false","""event"",""trial"",""time""
""fullscreenenter"",""5"",""40288""
","
","
","""event"",""trial"",""time""
""fullscreenenter"",""5"",""40288""
","
","588","","48","","","3000","1","","","images/redplanet1.jpg","images/alien2","images/alien1","images/rocket1","images/alien2","images/t.png","2","real","true","1","2022-02-14 00:31:17.529","2","common"
"two-step-fixation","179","814680","0.0-76.0-2.14","717","805","9","Female","true","true","true","false","""event"",""trial"",""time""
""fullscreenenter"",""5"",""40288""
","
","
","""event"",""trial"",""time""
""fullscreenenter"",""5"",""40288""
","
","","images/earth.jpg","","","","","","","","","","","","","","fixation","","","","","",""
"d3-animate-choice","180","817460","0.0-76.0-0.15","717","805","9","Female","true","true","true","false","""event"",""trial"",""time""
""fullscreenenter"",""5"",""40288""
","
","
","""event"",""trial"",""time""
""fullscreenenter"",""5"",""40288""
","
","777","","48","","","3000","1","","","images/earth.jpg","images/rocket2","images/rocket1","null","images/rocket2","","1","real","null","","","2",""
"d3-animate-choice","181","820344","0.0-76.0-1.15","717","805","9","Female","true","true","true","false","""event"",""trial"",""time""
""fullscreenenter"",""5"",""40288""
","
","
","""event"",""trial"",""time""
""fullscreenenter"",""5"",""40288""
","
","875","","49","","","3000","1","","","images/redplanet1.jpg","images/alien2","images/alien1","images/rocket2","images/alien1","images/t.png","2","real","false","1","2022-02-14 00:31:24.195","1","rare"
"two-step-fixation","182","821346","0.0-76.0-2.15","717","805","9","Female","true","true","true","false","""event"",""trial"",""time""
""fullscreenenter"",""5"",""40288""
","
","
","""event"",""trial"",""time""
""fullscreenenter"",""5"",""40288""
","
","","images/earth.jpg","","","","","","","","","","","","","","fixation","","","","","",""
"d3-animate-choice","183","823515","0.0-76.0-0.16","717","805","9","Female","true","true","true","false","""event"",""trial"",""time""
""fullscreenenter"",""5"",""40288""
","
","
","""event"",""trial"",""time""
""fullscreenenter"",""5"",""40288""
","
","165","","49","","","3000","1","1066","49","images/earth.jpg","images/rocket2","images/rocket1","null","images/rocket1","","1","real","null","","","1",""
"d3-animate-choice","184","825961","0.0-76.0-1.16","717","805","9","Female","true","true","true","false","""event"",""trial"",""time""
""fullscreenenter"",""5"",""40288""
","
","
","""event"",""trial"",""time""
""fullscreenenter"",""5"",""40288""
","
","438","","49","","","3000","1","","","images/purpleplanet.jpg","images/alien4","images/alien3","images/rocket1","images/alien3","images/t.png","2","real","false","1","2022-02-14 00:31:29.812","1","rare"
"two-step-fixation","185","826969","0.0-76.0-2.16","717","805","9","Female","true","true","true","false","""event"",""trial"",""time""
""fullscreenenter"",""5"",""40288""
","
","
","""event"",""trial"",""time""
""fullscreenenter"",""5"",""40288""
","
","","images/earth.jpg","","","","","","","","","","","","","","fixation","","","","","",""
"d3-animate-choice","186","830841","0.0-76.0-0.17","717","805","9","Female","true","true","true","false","""event"",""trial"",""time""
""fullscreenenter"",""5"",""40288""
","
","
","""event"",""trial"",""time""
""fullscreenenter"",""5"",""40288""
","
","1865","","49","","","3000","1","","","images/earth.jpg","images/rocket2","images/rocket1","null","images/rocket1","","1","real","null","","","1",""
"d3-animate-choice","187","834854","0.0-76.0-1.17","717","805","9","Female","true","true","true","false","""event"",""trial"",""time""
""fullscreenenter"",""5"",""40288""
","
","
","""event"",""trial"",""time""
""fullscreenenter"",""5"",""40288""
","
","null","","null","","","3000","0","","","images/redplanet1.jpg","images/alien2","images/alien1","images/rocket1","","","2","real","true","0","2022-02-14 00:31:38.705","","common"
"two-step-fixation","188","835857","0.0-76.0-2.17","717","805","9","Female","true","true","true","false","""event"",""trial"",""time""
""fullscreenenter"",""5"",""40288""
","
","
","""event"",""trial"",""time""
""fullscreenenter"",""5"",""40288""
","
","","images/earth.jpg","","","","","","","","","","","","","","fixation","","","","","",""
"d3-animate-choice","189","838204","0.0-76.0-0.18","717","805","9","Female","true","true","true","false","""event"",""trial"",""time""
""fullscreenenter"",""5"",""40288""
","
","
","""event"",""trial"",""time""
""fullscreenenter"",""5"",""40288""
","
","338","","48","","","3000","1","400","49","images/earth.jpg","images/rocket2","images/rocket1","null","images/rocket2","","1","real","null","","","2",""
"d3-animate-choice","190","841102","0.0-76.0-1.18","717","805","9","Female","true","true","true","false","""event"",""trial"",""time""
""fullscreenenter"",""5"",""40288""
","
","
","""event"",""trial"",""time""
""fullscreenenter"",""5"",""40288""
","
","889","","49","","","3000","1","1082,1295,2128,2651","48,49,49,49","images/purpleplanet.jpg","images/alien4","images/alien3","images/rocket2","images/alien3","images/nothing.png","2","real","true","0","2022-02-14 00:31:44.953","1","common"
"two-step-fixation","191","842106","0.0-76.0-2.18","717","805","9","Female","true","true","true","false","""event"",""trial"",""time""
""fullscreenenter"",""5"",""40288""
","
","
","""event"",""trial"",""time""
""fullscreenenter"",""5"",""40288""
","
","","images/earth.jpg","","","","","","","","","","","","","","fixation","","","","","",""
"d3-animate-choice","192","844153","0.0-76.0-0.19","717","805","9","Female","true","true","true","false","""event"",""trial"",""time""
""fullscreenenter"",""5"",""40288""
","
","
","""event"",""trial"",""time""
""fullscreenenter"",""5"",""40288""
","
","37","","48","","","3000","1","196,391,540,848,1038,1125,1498,1725,1846","48,48,49,48,48,49,49,48,49","images/earth.jpg","images/rocket2","images/rocket1","null","images/rocket2","","1","real","null","","","2",""
"d3-animate-choice","193","846327","0.0-76.0-1.19","717","805","9","Female","true","true","true","false","""event"",""trial"",""time""
""fullscreenenter"",""5"",""40288""
","
","
","""event"",""trial"",""time""
""fullscreenenter"",""5"",""40288""
","
","165","","49","","","3000","1","505,740,880,1141,1700,1864,2037","49,48,49,48,48,49,48","images/purpleplanet.jpg","images/alien4","images/alien3","images/rocket2","images/alien3","images/nothing.png","2","real","true","0","2022-02-14 00:31:50.178","1","common"
"two-step-fixation","194","847330","0.0-76.0-2.19","717","805","9","Female","true","true","true","false","""event"",""trial"",""time""
""fullscreenenter"",""5"",""40288""
","
","
","""event"",""trial"",""time""
""fullscreenenter"",""5"",""40288""
","
","","images/earth.jpg","","","","","","","","","","","","","","fixation","","","","","",""
"d3-animate-choice","195","849693","0.0-76.0-0.20","717","805","9","Female","true","true","true","false","""event"",""trial"",""time""
""fullscreenenter"",""5"",""40288""
","
","
","""event"",""trial"",""time""
""fullscreenenter"",""5"",""40288""
","
","359","","48","","","3000","1","761,1005","48,48","images/earth.jpg","images/rocket2","images/rocket1","null","images/rocket2","","1","real","null","","","2",""
"d3-animate-choice","196","852681","0.0-76.0-1.20","717","805","9","Female","true","true","true","false","""event"",""trial"",""time""
""fullscreenenter"",""5"",""40288""
","
","
","""event"",""trial"",""time""
""fullscreenenter"",""5"",""40288""
","
","981","","48","","","3000","1","1173,2977","49,32","images/purpleplanet.jpg","images/alien4","images/alien3","images/rocket2","images/alien4","images/nothing.png","2","real","true","0","2022-02-14 00:31:56.532","2","common"
"two-step-fixation","197","853683","0.0-76.0-2.20","717","805","9","Female","true","true","true","false","""event"",""trial"",""time""
""fullscreenenter"",""5"",""40288""
","
","
","""event"",""trial"",""time""
""fullscreenenter"",""5"",""40288""
","
","","images/earth.jpg","","","","","","","","","","","","","","fixation","","","","","",""
"d3-animate-choice","198","856991","0.0-76.0-0.21","717","805","9","Female","true","true","true","false","""event"",""trial"",""time""
""fullscreenenter"",""5"",""40288""
","
","
","""event"",""trial"",""time""
""fullscreenenter"",""5"",""40288""
","
","1","","32","","","3000","1","587,1301,1575","32,48,49","images/earth.jpg","images/rocket2","images/rocket1","null","images/rocket2","","1","real","null","","","",""
"d3-animate-choice","199","860053","0.0-76.0-1.21","717","805","9","Female","true","true","true","false","""event"",""trial"",""time""
""fullscreenenter"",""5"",""40288""
","
","
","""event"",""trial"",""time""
""fullscreenenter"",""5"",""40288""
","
","1053","","48","","","3000","1","","","images/purpleplanet.jpg","images/alien4","images/alien3","images/rocket2","images/alien4","images/t.png","2","real","true","1","2022-02-14 00:32:03.904","2","common"
"two-step-fixation","200","861055","0.0-76.0-2.21","717","805","9","Female","true","true","true","false","""event"",""trial"",""time""
""fullscreenenter"",""5"",""40288""
","
","
","""event"",""trial"",""time""
""fullscreenenter"",""5"",""40288""
","
","","images/earth.jpg","","","","","","","","","","","","","","fixation","","","","","",""
"d3-animate-choice","201","863646","0.0-76.0-0.22","717","805","9","Female","true","true","true","false","""event"",""trial"",""time""
""fullscreenenter"",""5"",""40288""
","
","
","""event"",""trial"",""time""
""fullscreenenter"",""5"",""40288""
","
","584","","48","","","3000","1","","","images/earth.jpg","images/rocket2","images/rocket1","null","images/rocket2","","1","real","null","","","2",""
"d3-animate-choice","202","866154","0.0-76.0-1.22","717","805","9","Female","true","true","true","false","""event"",""trial"",""time""
""fullscreenenter"",""5"",""40288""
","
","
","""event"",""trial"",""time""
""fullscreenenter"",""5"",""40288""
","
","498","","49","","","3000","1","","","images/purpleplanet.jpg","images/alien4","images/alien3","images/rocket2","images/alien3","images/nothing.png","2","real","true","0","2022-02-14 00:32:10.005","1","common"
"two-step-fixation","203","867159","0.0-76.0-2.22","717","805","9","Female","true","true","true","false","""event"",""trial"",""time""
""fullscreenenter"",""5"",""40288""
","
","
","""event"",""trial"",""time""
""fullscreenenter"",""5"",""40288""
","
","","images/earth.jpg","","","","","","","","","","","","","","fixation","","","","","",""
"d3-animate-choice","204","869775","0.0-76.0-0.23","717","805","9","Female","true","true","true","false","""event"",""trial"",""time""
""fullscreenenter"",""5"",""40288""
","
","
","""event"",""trial"",""time""
""fullscreenenter"",""5"",""40288""
","
","610","","48","","","3000","1","","","images/earth.jpg","images/rocket2","images/rocket1","null","images/rocket2","","1","real","null","","","2",""
"d3-animate-choice","205","872946","0.0-76.0-1.23","717","805","9","Female","true","true","true","false","""event"",""trial"",""time""
""fullscreenenter"",""5"",""40288""
","
","
","""event"",""trial"",""time""
""fullscreenenter"",""5"",""40288""
","
","1161","","48","","","3000","1","","","images/redplanet1.jpg","images/alien2","images/alien1","images/rocket2","images/alien2","images/t.png","2","real","false","1","2022-02-14 00:32:16.797","2","rare"
"two-step-fixation","206","873950","0.0-76.0-2.23","717","805","9","Female","true","true","true","false","""event"",""trial"",""time""
""fullscreenenter"",""5"",""40288""
","
","
","""event"",""trial"",""time""
""fullscreenenter"",""5"",""40288""
","
","","images/earth.jpg","","","","","","","","","","","","","","fixation","","","","","",""
"d3-animate-choice","207","876663","0.0-76.0-0.24","717","805","9","Female","true","true","true","false","""event"",""trial"",""time""
""fullscreenenter"",""5"",""40288""
","
","
","""event"",""trial"",""time""
""fullscreenenter"",""5"",""40288""
","
","707","","49","","","3000","1","709","48","images/earth.jpg","images/rocket2","images/rocket1","null","images/rocket1","","1","real","null","","","1",""
"d3-animate-choice","208","879412","0.0-76.0-1.24","717","805","9","Female","true","true","true","false","""event"",""trial"",""time""
""fullscreenenter"",""5"",""40288""
","
","
","""event"",""trial"",""time""
""fullscreenenter"",""5"",""40288""
","
","745","","48","","","3000","1","","","images/purpleplanet.jpg","images/alien4","images/alien3","images/rocket1","images/alien4","images/t.png","2","real","false","1","2022-02-14 00:32:23.263","2","rare"
"two-step-fixation","209","880417","0.0-76.0-2.24","717","805","9","Female","true","true","true","false","""event"",""trial"",""time""
""fullscreenenter"",""5"",""40288""
","
","
","""event"",""trial"",""time""
""fullscreenenter"",""5"",""40288""
","
","","images/earth.jpg","","","","","","","","","","","","","","fixation","","","","","",""
"d3-animate-choice","210","882989","0.0-76.0-0.25","717","805","9","Female","true","true","true","false","""event"",""trial"",""time""
""fullscreenenter"",""5"",""40288""
","
","
","""event"",""trial"",""time""
""fullscreenenter"",""5"",""40288""
","
","566","","48","","","3000","1","","","images/earth.jpg","images/rocket2","images/rocket1","null","images/rocket2","","1","real","null","","","2",""
"d3-animate-choice","211","885870","0.0-76.0-1.25","717","805","9","Female","true","true","true","false","""event"",""trial"",""time""
""fullscreenenter"",""5"",""40288""
","
","
","""event"",""trial"",""time""
""fullscreenenter"",""5"",""40288""
","
","871","","48","","","3000","1","","","images/purpleplanet.jpg","images/alien4","images/alien3","images/rocket2","images/alien4","images/t.png","2","real","true","1","2022-02-14 00:32:29.721","2","common"
"two-step-fixation","212","886873","0.0-76.0-2.25","717","805","9","Female","true","true","true","false","""event"",""trial"",""time""
""fullscreenenter"",""5"",""40288""
","
","
","""event"",""trial"",""time""
""fullscreenenter"",""5"",""40288""
","
","","images/earth.jpg","","","","","","","","","","","","","","fixation","","","","","",""
"d3-animate-choice","213","888978","0.0-76.0-0.26","717","805","9","Female","true","true","true","false","""event"",""trial"",""time""
""fullscreenenter"",""5"",""40288""
","
","
","""event"",""trial"",""time""
""fullscreenenter"",""5"",""40288""
","
","100","","48","","","3000","1","245","48","images/earth.jpg","images/rocket2","images/rocket1","null","images/rocket2","","1","real","null","","","2",""
"d3-animate-choice","214","891612","0.0-76.0-1.26","717","805","9","Female","true","true","true","false","""event"",""trial"",""time""
""fullscreenenter"",""5"",""40288""
","
","
","""event"",""trial"",""time""
""fullscreenenter"",""5"",""40288""
","
","629","","49","","","3000","1","","","images/redplanet1.jpg","images/alien2","images/alien1","images/rocket2","images/alien1","images/t.png","2","real","false","1","2022-02-14 00:32:35.463","1","rare"
"two-step-fixation","215","892619","0.0-76.0-2.26","717","805","9","Female","true","true","true","false","""event"",""trial"",""time""
""fullscreenenter"",""5"",""40288""
","
","
","""event"",""trial"",""time""
""fullscreenenter"",""5"",""40288""
","
","","images/earth.jpg","","","","","","","","","","","","","","fixation","","","","","",""
"d3-animate-choice","216","894790","0.0-76.0-0.27","717","805","9","Female","true","true","true","false","""event"",""trial"",""time""
""fullscreenenter"",""5"",""40288""
","
","
","""event"",""trial"",""time""
""fullscreenenter"",""5"",""40288""
","
","165","","48","","","3000","1","368","48","images/earth.jpg","images/rocket2","images/rocket1","null","images/rocket2","","1","real","null","","","2",""
"d3-animate-choice","217","897427","0.0-76.0-1.27","717","805","9","Female","true","true","true","false","""event"",""trial"",""time""
""fullscreenenter"",""5"",""40288""
","
","
","""event"",""trial"",""time""
""fullscreenenter"",""5"",""40288""
","
","630","","49","","","3000","1","","","images/redplanet1.jpg","images/alien2","images/alien1","images/rocket2","images/alien1","images/t.png","2","real","false","1","2022-02-14 00:32:41.278","1","rare"
"two-step-fixation","218","898434","0.0-76.0-2.27","717","805","9","Female","true","true","true","false","""event"",""trial"",""time""
""fullscreenenter"",""5"",""40288""
","
","
","""event"",""trial"",""time""
""fullscreenenter"",""5"",""40288""
","
","","images/earth.jpg","","","","","","","","","","","","","","fixation","","","","","",""
"d3-animate-choice","219","900892","0.0-76.0-0.28","717","805","9","Female","true","true","true","false","""event"",""trial"",""time""
""fullscreenenter"",""5"",""40288""
","
","
","""event"",""trial"",""time""
""fullscreenenter"",""5"",""40288""
","
","451","","48","","","3000","1","687","49","images/earth.jpg","images/rocket2","images/rocket1","null","images/rocket2","","1","real","null","","","2",""
"d3-animate-choice","220","903880","0.0-76.0-1.28","717","805","9","Female","true","true","true","false","""event"",""trial"",""time""
""fullscreenenter"",""5"",""40288""
","
","
","""event"",""trial"",""time""
""fullscreenenter"",""5"",""40288""
","
","983","","49","","","3000","1","","","images/purpleplanet.jpg","images/alien4","images/alien3","images/rocket2","images/alien3","images/nothing.png","2","real","true","0","2022-02-14 00:32:47.731","1","common"
"two-step-fixation","221","904883","0.0-76.0-2.28","717","805","9","Female","true","true","true","false","""event"",""trial"",""time""
""fullscreenenter"",""5"",""40288""
","
","
","""event"",""trial"",""time""
""fullscreenenter"",""5"",""40288""
","
","","images/earth.jpg","","","","","","","","","","","","","","fixation","","","","","",""
"d3-animate-choice","222","907306","0.0-76.0-0.29","717","805","9","Female","true","true","true","false","""event"",""trial"",""time""
""fullscreenenter"",""5"",""40288""
","
","
","""event"",""trial"",""time""
""fullscreenenter"",""5"",""40288""
","
","418","","49","","","3000","1","","","images/earth.jpg","images/rocket2","images/rocket1","null","images/rocket1","","1","real","null","","","1",""
"d3-animate-choice","223","909856","0.0-76.0-1.29","717","805","9","Female","true","true","true","false","""event"",""trial"",""time""
""fullscreenenter"",""5"",""40288""
","
","
","""event"",""trial"",""time""
""fullscreenenter"",""5"",""40288""
","
","541","","49","","","3000","1","","","images/redplanet1.jpg","images/alien2","images/alien1","images/rocket1","images/alien1","images/nothing.png","2","real","true","0","2022-02-14 00:32:53.707","1","common"
"two-step-fixation","224","910862","0.0-76.0-2.29","717","805","9","Female","true","true","true","false","""event"",""trial"",""time""
""fullscreenenter"",""5"",""40288""
","
","
","""event"",""trial"",""time""
""fullscreenenter"",""5"",""40288""
","
","","images/earth.jpg","","","","","","","","","","","","","","fixation","","","","","",""
"d3-animate-choice","225","913079","0.0-76.0-0.30","717","805","9","Female","true","true","true","false","""event"",""trial"",""time""
""fullscreenenter"",""5"",""40288""
","
","
","""event"",""trial"",""time""
""fullscreenenter"",""5"",""40288""
","
","212","","49","","","3000","1","","","images/earth.jpg","images/rocket2","images/rocket1","null","images/rocket1","","1","real","null","","","1",""
"d3-animate-choice","226","915895","0.0-76.0-1.30","717","805","9","Female","true","true","true","false","""event"",""trial"",""time""
""fullscreenenter"",""5"",""40288""
","
","
","""event"",""trial"",""time""
""fullscreenenter"",""5"",""40288""
","
","809","","49","","","3000","1","","","images/redplanet1.jpg","images/alien2","images/alien1","images/rocket1","images/alien1","images/t.png","2","real","true","1","2022-02-14 00:32:59.747","1","common"
"two-step-fixation","227","916902","0.0-76.0-2.30","717","805","9","Female","true","true","true","false","""event"",""trial"",""time""
""fullscreenenter"",""5"",""40288""
","
","
","""event"",""trial"",""time""
""fullscreenenter"",""5"",""40288""
","
","","images/earth.jpg","","","","","","","","","","","","","","fixation","","","","","",""
"d3-animate-choice","228","919765","0.0-76.0-0.31","717","805","9","Female","true","true","true","false","""event"",""trial"",""time""
""fullscreenenter"",""5"",""40288""
","
","
","""event"",""trial"",""time""
""fullscreenenter"",""5"",""40288""
","
","853","","49","","","3000","1","","","images/earth.jpg","images/rocket2","images/rocket1","null","images/rocket1","","1","real","null","","","1",""
"d3-animate-choice","229","922434","0.0-76.0-1.31","717","805","9","Female","true","true","true","false","""event"",""trial"",""time""
""fullscreenenter"",""5"",""40288""
","
","
","""event"",""trial"",""time""
""fullscreenenter"",""5"",""40288""
","
","665","","49","","","3000","1","","","images/redplanet1.jpg","images/alien2","images/alien1","images/rocket1","images/alien1","images/nothing.png","2","real","true","0","2022-02-14 00:33:06.286","1","common"
"two-step-fixation","230","923441","0.0-76.0-2.31","717","805","9","Female","true","true","true","false","""event"",""trial"",""time""
""fullscreenenter"",""5"",""40288""
","
","
","""event"",""trial"",""time""
""fullscreenenter"",""5"",""40288""
","
","","images/earth.jpg","","","","","","","","","","","","","","fixation","","","","","",""
"d3-animate-choice","231","927450","0.0-76.0-0.32","717","805","9","Female","true","true","true","false","""event"",""trial"",""time""
""fullscreenenter"",""5"",""40288""
","
","
","""event"",""trial"",""time""
""fullscreenenter"",""5"",""40288""
","
","2282","","49","","","3000","1","","","images/earth.jpg","images/rocket2","images/rocket1","null","images/rocket1","","1","real","null","","","1",""
"d3-animate-choice","232","930125","0.0-76.0-1.32","717","805","9","Female","true","true","true","false","""event"",""trial"",""time""
""fullscreenenter"",""5"",""40288""
","
","
","""event"",""trial"",""time""
""fullscreenenter"",""5"",""40288""
","
","671","","49","","","3000","1","","","images/redplanet1.jpg","images/alien2","images/alien1","images/rocket1","images/alien1","images/nothing.png","2","real","true","0","2022-02-14 00:33:13.976","1","common"
"two-step-fixation","233","931129","0.0-76.0-2.32","717","805","9","Female","true","true","true","false","""event"",""trial"",""time""
""fullscreenenter"",""5"",""40288""
","
","
","""event"",""trial"",""time""
""fullscreenenter"",""5"",""40288""
","
","","images/earth.jpg","","","","","","","","","","","","","","fixation","","","","","",""
"d3-animate-choice","234","934622","0.0-76.0-0.33","717","805","9","Female","true","true","true","false","""event"",""trial"",""time""
""fullscreenenter"",""5"",""40288""
","
","
","""event"",""trial"",""time""
""fullscreenenter"",""5"",""40288""
","
","1483","","48","","","3000","1","","","images/earth.jpg","images/rocket2","images/rocket1","null","images/rocket2","","1","real","null","","","2",""
"d3-animate-choice","235","938257","0.0-76.0-1.33","717","805","9","Female","true","true","true","false","""event"",""trial"",""time""
""fullscreenenter"",""5"",""40288""
","
","
","""event"",""trial"",""time""
""fullscreenenter"",""5"",""40288""
","
","1629","","48","","","3000","1","","","images/redplanet1.jpg","images/alien2","images/alien1","images/rocket2","images/alien2","images/t.png","2","real","false","1","2022-02-14 00:33:22.108","2","rare"
"two-step-fixation","236","939262","0.0-76.0-2.33","717","805","9","Female","true","true","true","false","""event"",""trial"",""time""
""fullscreenenter"",""5"",""40288""
","
","
","""event"",""trial"",""time""
""fullscreenenter"",""5"",""40288""
","
","","images/earth.jpg","","","","","","","","","","","","","","fixation","","","","","",""
"d3-animate-choice","237","941732","0.0-76.0-0.34","717","805","9","Female","true","true","true","false","""event"",""trial"",""time""
""fullscreenenter"",""5"",""40288""
","
","
","""event"",""trial"",""time""
""fullscreenenter"",""5"",""40288""
","
","461","","48","","","3000","1","","","images/earth.jpg","images/rocket2","images/rocket1","null","images/rocket2","","1","real","null","","","2",""
"d3-animate-choice","238","944241","0.0-76.0-1.34","717","805","9","Female","true","true","true","false","""event"",""trial"",""time""
""fullscreenenter"",""5"",""40288""
","
","
","""event"",""trial"",""time""
""fullscreenenter"",""5"",""40288""
","
","502","","48","","","3000","1","713","49","images/purpleplanet.jpg","images/alien4","images/alien3","images/rocket2","images/alien4","images/nothing.png","2","real","true","0","2022-02-14 00:33:28.092","2","common"
"two-step-fixation","239","945245","0.0-76.0-2.34","717","805","9","Female","true","true","true","false","""event"",""trial"",""time""
""fullscreenenter"",""5"",""40288""
","
","
","""event"",""trial"",""time""
""fullscreenenter"",""5"",""40288""
","
","","images/earth.jpg","","","","","","","","","","","","","","fixation","","","","","",""
"d3-animate-choice","240","949258","0.0-76.0-0.35","717","805","9","Female","true","true","true","false","""event"",""trial"",""time""
""fullscreenenter"",""5"",""40288""
","
","
","""event"",""trial"",""time""
""fullscreenenter"",""5"",""40288""
","
","null","","null","","","3000","0","","","images/earth.jpg","images/rocket2","images/rocket1","null","","","1","real","null","","","",""
"d3-animate-choice","241","950269","0.0-76.0-1.35","717","805","9","Female","true","true","true","false","""event"",""trial"",""time""
""fullscreenenter"",""5"",""40288""
","
","
","""event"",""trial"",""time""
""fullscreenenter"",""5"",""40288""
","
","null","","null","","","0","0","","","images/earth.jpg","images/rocket2","images/rocket1","null","","","2","real","null","0","2022-02-14 00:33:34.120","",""
"two-step-fixation","242","951274","0.0-76.0-2.35","717","805","9","Female","true","true","true","false","""event"",""trial"",""time""
""fullscreenenter"",""5"",""40288""
","
","
","""event"",""trial"",""time""
""fullscreenenter"",""5"",""40288""
","
","","images/earth.jpg","","","","","","","","","","","","","","fixation","","","","","",""
"d3-animate-choice","243","953912","0.0-76.0-0.36","717","805","9","Female","true","true","true","false","""event"",""trial"",""time""
""fullscreenenter"",""5"",""40288""
","
","
","""event"",""trial"",""time""
""fullscreenenter"",""5"",""40288""
","
","630","","48","","","3000","1","632","49","images/earth.jpg","images/rocket2","images/rocket1","null","images/rocket2","","1","real","null","","","2",""
"d3-animate-choice","244","956645","0.0-76.0-1.36","717","805","9","Female","true","true","true","false","""event"",""trial"",""time""
""fullscreenenter"",""5"",""40288""
","
","
","""event"",""trial"",""time""
""fullscreenenter"",""5"",""40288""
","
","727","","49","","","3000","1","1489","49","images/purpleplanet.jpg","images/alien4","images/alien3","images/rocket2","images/alien3","images/t.png","2","real","true","1","2022-02-14 00:33:40.496","1","common"
"two-step-fixation","245","957649","0.0-76.0-2.36","717","805","9","Female","true","true","true","false","""event"",""trial"",""time""
""fullscreenenter"",""5"",""40288""
","
","
","""event"",""trial"",""time""
""fullscreenenter"",""5"",""40288""
","
","","images/earth.jpg","","","","","","","","","","","","","","fixation","","","","","",""
"d3-animate-choice","246","960238","0.0-76.0-0.37","717","805","9","Female","true","true","true","false","""event"",""trial"",""time""
""fullscreenenter"",""5"",""40288""
","
","
","""event"",""trial"",""time""
""fullscreenenter"",""5"",""40288""
","
","582","","49","","","3000","1","627,1435,1985","57,49,57","images/earth.jpg","images/rocket2","images/rocket1","null","images/rocket1","","1","real","null","","","1",""
"d3-animate-choice","247","962934","0.0-76.0-1.37","717","805","9","Female","true","true","true","false","""event"",""trial"",""time""
""fullscreenenter"",""5"",""40288""
","
","
","""event"",""trial"",""time""
""fullscreenenter"",""5"",""40288""
","
","651","","51","","","3000","1","690,2531,2547","48,55,49","images/purpleplanet.jpg","images/alien4","images/alien3","images/rocket1","images/alien4","images/nothing.png","2","real","false","0","2022-02-14 00:33:46.786","","rare"
"two-step-fixation","248","963941","0.0-76.0-2.37","717","805","9","Female","true","true","true","false","""event"",""trial"",""time""
""fullscreenenter"",""5"",""40288""
","
","
","""event"",""trial"",""time""
""fullscreenenter"",""5"",""40288""
","
","","images/earth.jpg","","","","","","","","","","","","","","fixation","","","","","",""
"d3-animate-choice","249","966126","0.0-76.0-0.38","717","805","9","Female","true","true","true","false","""event"",""trial"",""time""
""fullscreenenter"",""5"",""40288""
","
","
","""event"",""trial"",""time""
""fullscreenenter"",""5"",""40288""
","
","179","","49","","","3000","1","220,512,536,846,849,1118,1410","55,49,55,49,55,49,49","images/earth.jpg","images/rocket2","images/rocket1","null","images/rocket1","","1","real","null","","","1",""
"d3-animate-choice","250","969092","0.0-76.0-1.38","717","805","9","Female","true","true","true","false","""event"",""trial"",""time""
