"trial_type","trial_index","time_elapsed","internal_node_id","participant_id","subject_id","age","gender","rocket_sides","red_planet_first_rocket","red_display_order","purple_display_order","interactions","blur_events","focus_events","fullscreenenter_events","fullscreenexit_events","rt","stimulus","key_press","button_pressed","success","duration","valid_pressed","rts","keys","planet_text","right_text","left_text","center_text","chosen_text","reward_text","trial_stage","practice_trial","transition_type","choice","transition","reward","timestamp"
"pavlovia","0","3","0.0-0.0","286","660","18","Male","false","false","false","true","
","
","
","
","
","","","","","","","","","","","","","","","","","","","","","",""
"html-keyboard-response","1","2572","0.0-1.0","286","660","18","Male","false","false","false","true","""event"",""trial"",""time""
""blur"",""2"",""5829""
""focus"",""2"",""6802""
","""event"",""trial"",""time""
""blur"",""2"",""5829""
","""event"",""trial"",""time""
""focus"",""2"",""6802""
","
","
","2569","Welcome! Press the space bar to begin.","32","","","","","","","","","","","","","","","","","","",""
"audio-keyboard-response","2","7369","0.0-2.0","286","660","18","Male","false","false","false","true","""event"",""trial"",""time""
""blur"",""2"",""5829""
""focus"",""2"",""6802""
","""event"",""trial"",""time""
""blur"",""2"",""5829""
","""event"",""trial"",""time""
""focus"",""2"",""6802""
","
","
","4800","audio/beep_loop.wav","32","","","","","","","","","","","","","","","","","","",""
"audio-button-response","3","9110","0.0-3.0","286","660","18","Male","false","false","false","true","""event"",""trial"",""time""
""blur"",""2"",""5829""
""focus"",""2"",""6802""
","""event"",""trial"",""time""
""blur"",""2"",""5829""
","""event"",""trial"",""time""
""focus"",""2"",""6802""
","
","
","NaN","audio/fish.mp3","","1","","","","","","","","","","","","","","","","","",""
"audio-button-response","4","11716","0.0-4.0","286","660","18","Male","false","false","false","true","""event"",""trial"",""time""
""blur"",""2"",""5829""
""focus"",""2"",""6802""
""fullscreenenter"",""5"",""14619""
","""event"",""trial"",""time""
""blur"",""2"",""5829""
","""event"",""trial"",""time""
""focus"",""2"",""6802""
","""event"",""trial"",""time""
""fullscreenenter"",""5"",""14619""
","
","NaN","audio/tiger.mp3","","4","","","","","","","","","","","","","","","","","",""
"fullscreen","5","15431","0.0-5.0","286","660","18","Male","false","false","false","true","""event"",""trial"",""time""
""blur"",""2"",""5829""
""focus"",""2"",""6802""
""fullscreenenter"",""5"",""14619""
","""event"",""trial"",""time""
""blur"",""2"",""5829""
","""event"",""trial"",""time""
""focus"",""2"",""6802""
","""event"",""trial"",""time""
""fullscreenenter"",""5"",""14619""
","
","","","","","true","","","","","","","","","","","","","","","","",""
"d3-instructions","6","28480","0.0-6.0","286","660","18","Male","false","false","false","true","""event"",""trial"",""time""
""blur"",""2"",""5829""
""focus"",""2"",""6802""
""fullscreenenter"",""5"",""14619""
","""event"",""trial"",""time""
""blur"",""2"",""5829""
","""event"",""trial"",""time""
""focus"",""2"",""6802""
","""event"",""trial"",""time""
""fullscreenenter"",""5"",""14619""
","
","","","","","","","","","","","","","","","","","","","","","",""
"d3-instructions","7","35854","0.0-7.0","286","660","18","Male","false","false","false","true","""event"",""trial"",""time""
""blur"",""2"",""5829""
""focus"",""2"",""6802""
""fullscreenenter"",""5"",""14619""
","""event"",""trial"",""time""
""blur"",""2"",""5829""
","""event"",""trial"",""time""
""focus"",""2"",""6802""
","""event"",""trial"",""time""
""fullscreenenter"",""5"",""14619""
","
","","","","","","","","","","","","","","","","","","","","","",""
"d3-instructions","8","42867","0.0-8.0","286","660","18","Male","false","false","false","true","""event"",""trial"",""time""
""blur"",""2"",""5829""
""focus"",""2"",""6802""
""fullscreenenter"",""5"",""14619""
","""event"",""trial"",""time""
""blur"",""2"",""5829""
","""event"",""trial"",""time""
""focus"",""2"",""6802""
","""event"",""trial"",""time""
""fullscreenenter"",""5"",""14619""
","
","","","","","","","","","","","","","","","","","","","","","",""
"d3-instructions","9","53415","0.0-9.0","286","660","18","Male","false","false","false","true","""event"",""trial"",""time""
""blur"",""2"",""5829""
""focus"",""2"",""6802""
""fullscreenenter"",""5"",""14619""
","""event"",""trial"",""time""
""blur"",""2"",""5829""
","""event"",""trial"",""time""
""focus"",""2"",""6802""
","""event"",""trial"",""time""
""fullscreenenter"",""5"",""14619""
","
","","","","","","","","","","","","","","","","","","","","","",""
"d3-instructions","10","65794","0.0-10.0","286","660","18","Male","false","false","false","true","""event"",""trial"",""time""
""blur"",""2"",""5829""
""focus"",""2"",""6802""
""fullscreenenter"",""5"",""14619""
","""event"",""trial"",""time""
""blur"",""2"",""5829""
","""event"",""trial"",""time""
""focus"",""2"",""6802""
","""event"",""trial"",""time""
""fullscreenenter"",""5"",""14619""
","
","","","","","","","","","","","","","","","","","","","","","",""
"d3-animate-choice","11","68815","0.0-11.0","286","660","18","Male","false","false","false","true","""event"",""trial"",""time""
""blur"",""2"",""5829""
""focus"",""2"",""6802""
""fullscreenenter"",""5"",""14619""
","""event"",""trial"",""time""
""blur"",""2"",""5829""
","""event"",""trial"",""time""
""focus"",""2"",""6802""
","""event"",""trial"",""time""
""fullscreenenter"",""5"",""14619""
","
","1016","","48","","","3000","1","2602","49","images/tutgreenplanet.jpg","images/tutalien1","images/tutalien2","null","images/tutalien1","","NA","practice","null","","","",""
"d3-animate-choice","12","71236","0.0-12.0","286","660","18","Male","false","false","false","true","""event"",""trial"",""time""
""blur"",""2"",""5829""
""focus"",""2"",""6802""
""fullscreenenter"",""5"",""14619""
","""event"",""trial"",""time""
""blur"",""2"",""5829""
","""event"",""trial"",""time""
""focus"",""2"",""6802""
","""event"",""trial"",""time""
""fullscreenenter"",""5"",""14619""
","
","409","","49","","","3000","1","","","images/tutgreenplanet.jpg","images/tutalien1","images/tutalien2","null","images/tutalien2","","NA","practice","null","","","",""
"d3-animate-choice","13","73577","0.0-13.0","286","660","18","Male","false","false","false","true","""event"",""trial"",""time""
""blur"",""2"",""5829""
""focus"",""2"",""6802""
""fullscreenenter"",""5"",""14619""
","""event"",""trial"",""time""
""blur"",""2"",""5829""
","""event"",""trial"",""time""
""focus"",""2"",""6802""
","""event"",""trial"",""time""
""fullscreenenter"",""5"",""14619""
","
","326","","48","","","3000","1","","","images/tutgreenplanet.jpg","images/tutalien1","images/tutalien2","null","images/tutalien1","","NA","practice","null","","","",""
"d3-animate-choice","14","75841","0.0-14.0","286","660","18","Male","false","false","false","true","""event"",""trial"",""time""
""blur"",""2"",""5829""
""focus"",""2"",""6802""
""fullscreenenter"",""5"",""14619""
","""event"",""trial"",""time""
""blur"",""2"",""5829""
","""event"",""trial"",""time""
""focus"",""2"",""6802""
","""event"",""trial"",""time""
""fullscreenenter"",""5"",""14619""
","
","250","","48","","","3000","1","","","images/tutgreenplanet.jpg","images/tutalien1","images/tutalien2","null","images/tutalien1","","NA","practice","null","","","",""
"d3-instructions","15","81688","0.0-15.0","286","660","18","Male","false","false","false","true","""event"",""trial"",""time""
""blur"",""2"",""5829""
""focus"",""2"",""6802""
""fullscreenenter"",""5"",""14619""
","""event"",""trial"",""time""
""blur"",""2"",""5829""
","""event"",""trial"",""time""
""focus"",""2"",""6802""
","""event"",""trial"",""time""
""fullscreenenter"",""5"",""14619""
","
","","","","","","","","","","","","","","","","","","","","","",""
"d3-instructions","16","88274","0.0-16.0","286","660","18","Male","false","false","false","true","""event"",""trial"",""time""
""blur"",""2"",""5829""
""focus"",""2"",""6802""
""fullscreenenter"",""5"",""14619""
","""event"",""trial"",""time""
""blur"",""2"",""5829""
","""event"",""trial"",""time""
""focus"",""2"",""6802""
","""event"",""trial"",""time""
""fullscreenenter"",""5"",""14619""
","
","","","","","","","","","","","","","","","","","","","","","",""
"d3-instructions","17","96892","0.0-17.0","286","660","18","Male","false","false","false","true","""event"",""trial"",""time""
""blur"",""2"",""5829""
""focus"",""2"",""6802""
""fullscreenenter"",""5"",""14619""
","""event"",""trial"",""time""
""blur"",""2"",""5829""
","""event"",""trial"",""time""
""focus"",""2"",""6802""
","""event"",""trial"",""time""
""fullscreenenter"",""5"",""14619""
","
","","","","","","","","","","","","","","","","","","","","","",""
"d3-instructions","18","110935","0.0-18.0","286","660","18","Male","false","false","false","true","""event"",""trial"",""time""
""blur"",""2"",""5829""
""focus"",""2"",""6802""
""fullscreenenter"",""5"",""14619""
","""event"",""trial"",""time""
""blur"",""2"",""5829""
","""event"",""trial"",""time""
""focus"",""2"",""6802""
","""event"",""trial"",""time""
""fullscreenenter"",""5"",""14619""
","
","","","","","","","","","","","","","","","","","","","","","",""
"d3-instructions","19","117378","0.0-19.0","286","660","18","Male","false","false","false","true","""event"",""trial"",""time""
""blur"",""2"",""5829""
""focus"",""2"",""6802""
""fullscreenenter"",""5"",""14619""
","""event"",""trial"",""time""
""blur"",""2"",""5829""
","""event"",""trial"",""time""
""focus"",""2"",""6802""
","""event"",""trial"",""time""
""fullscreenenter"",""5"",""14619""
","
","","","","","","","","","","","","","","","","","","","","","",""
"d3-animate-choice","20","120284","0.0-20.0","286","660","18","Male","false","false","false","true","""event"",""trial"",""time""
""blur"",""2"",""5829""
""focus"",""2"",""6802""
""fullscreenenter"",""5"",""14619""
","""event"",""trial"",""time""
""blur"",""2"",""5829""
","""event"",""trial"",""time""
""focus"",""2"",""6802""
","""event"",""trial"",""time""
""fullscreenenter"",""5"",""14619""
","
","899","","49","","","3000","1","","","images/tutyellowplanet.jpg","null","images/tutalien3","null","images/tutalien3","images/t.png","NA","practice","null","","","",""
"d3-animate-choice","21","122636","0.0-21.0","286","660","18","Male","false","false","false","true","""event"",""trial"",""time""
""blur"",""2"",""5829""
""focus"",""2"",""6802""
""fullscreenenter"",""5"",""14619""
","""event"",""trial"",""time""
""blur"",""2"",""5829""
","""event"",""trial"",""time""
""focus"",""2"",""6802""
","""event"",""trial"",""time""
""fullscreenenter"",""5"",""14619""
","
","347","","49","","","3000","1","","","images/tutyellowplanet.jpg","null","images/tutalien3","null","images/tutalien3","images/nothing.png","NA","practice","null","","","",""
"d3-animate-choice","22","124858","0.0-22.0","286","660","18","Male","false","false","false","true","""event"",""trial"",""time""
""blur"",""2"",""5829""
""focus"",""2"",""6802""
""fullscreenenter"",""5"",""14619""
","""event"",""trial"",""time""
""blur"",""2"",""5829""
","""event"",""trial"",""time""
""focus"",""2"",""6802""
","""event"",""trial"",""time""
""fullscreenenter"",""5"",""14619""
","
","219","","49","","","3000","1","","","images/tutyellowplanet.jpg","null","images/tutalien3","null","images/tutalien3","images/t.png","NA","practice","null","","","",""
"d3-animate-choice","23","127088","0.0-23.0","286","660","18","Male","false","false","false","true","""event"",""trial"",""time""
""blur"",""2"",""5829""
""focus"",""2"",""6802""
""fullscreenenter"",""5"",""14619""
","""event"",""trial"",""time""
""blur"",""2"",""5829""
","""event"",""trial"",""time""
""focus"",""2"",""6802""
","""event"",""trial"",""time""
""fullscreenenter"",""5"",""14619""
","
","225","","49","","","3000","1","","","images/tutyellowplanet.jpg","null","images/tutalien3","null","images/tutalien3","images/t.png","NA","practice","null","","","",""
"d3-animate-choice","24","129362","0.0-24.0","286","660","18","Male","false","false","false","true","""event"",""trial"",""time""
""blur"",""2"",""5829""
""focus"",""2"",""6802""
""fullscreenenter"",""5"",""14619""
","""event"",""trial"",""time""
""blur"",""2"",""5829""
","""event"",""trial"",""time""
""focus"",""2"",""6802""
","""event"",""trial"",""time""
""fullscreenenter"",""5"",""14619""
","
","269","","49","","","3000","1","","","images/tutyellowplanet.jpg","null","images/tutalien3","null","images/tutalien3","images/t.png","NA","practice","null","","","",""
"d3-animate-choice","25","131593","0.0-25.0","286","660","18","Male","false","false","false","true","""event"",""trial"",""time""
""blur"",""2"",""5829""
""focus"",""2"",""6802""
""fullscreenenter"",""5"",""14619""
","""event"",""trial"",""time""
""blur"",""2"",""5829""
","""event"",""trial"",""time""
""focus"",""2"",""6802""
","""event"",""trial"",""time""
""fullscreenenter"",""5"",""14619""
","
","218","","49","","","3000","1","","","images/tutyellowplanet.jpg","null","images/tutalien3","null","images/tutalien3","images/t.png","NA","practice","null","","","",""
"d3-animate-choice","26","133858","0.0-26.0","286","660","18","Male","false","false","false","true","""event"",""trial"",""time""
""blur"",""2"",""5829""
""focus"",""2"",""6802""
""fullscreenenter"",""5"",""14619""
","""event"",""trial"",""time""
""blur"",""2"",""5829""
","""event"",""trial"",""time""
""focus"",""2"",""6802""
","""event"",""trial"",""time""
""fullscreenenter"",""5"",""14619""
","
","262","","49","","","3000","1","","","images/tutyellowplanet.jpg","null","images/tutalien3","null","images/tutalien3","images/nothing.png","NA","practice","null","","","",""
"d3-animate-choice","27","136137","0.0-27.0","286","660","18","Male","false","false","false","true","""event"",""trial"",""time""
""blur"",""2"",""5829""
""focus"",""2"",""6802""
""fullscreenenter"",""5"",""14619""
","""event"",""trial"",""time""
""blur"",""2"",""5829""
","""event"",""trial"",""time""
""focus"",""2"",""6802""
","""event"",""trial"",""time""
""fullscreenenter"",""5"",""14619""
","
","275","","49","","","3000","1","","","images/tutyellowplanet.jpg","null","images/tutalien3","null","images/tutalien3","images/t.png","NA","practice","null","","","",""
"d3-animate-choice","28","138428","0.0-28.0","286","660","18","Male","false","false","false","true","""event"",""trial"",""time""
""blur"",""2"",""5829""
""focus"",""2"",""6802""
""fullscreenenter"",""5"",""14619""
","""event"",""trial"",""time""
""blur"",""2"",""5829""
","""event"",""trial"",""time""
""focus"",""2"",""6802""
","""event"",""trial"",""time""
""fullscreenenter"",""5"",""14619""
","
","276","","49","","","3000","1","","","images/tutyellowplanet.jpg","null","images/tutalien3","null","images/tutalien3","images/t.png","NA","practice","null","","","",""
"d3-animate-choice","29","140713","0.0-29.0","286","660","18","Male","false","false","false","true","""event"",""trial"",""time""
""blur"",""2"",""5829""
""focus"",""2"",""6802""
""fullscreenenter"",""5"",""14619""
","""event"",""trial"",""time""
""blur"",""2"",""5829""
","""event"",""trial"",""time""
""focus"",""2"",""6802""
","""event"",""trial"",""time""
""fullscreenenter"",""5"",""14619""
","
","269","","49","","","3000","1","","","images/tutyellowplanet.jpg","null","images/tutalien3","null","images/tutalien3","images/t.png","NA","practice","null","","","",""
"d3-instructions","30","143582","0.0-30.0","286","660","18","Male","false","false","false","true","""event"",""trial"",""time""
""blur"",""2"",""5829""
""focus"",""2"",""6802""
""fullscreenenter"",""5"",""14619""
","""event"",""trial"",""time""
""blur"",""2"",""5829""
","""event"",""trial"",""time""
""focus"",""2"",""6802""
","""event"",""trial"",""time""
""fullscreenenter"",""5"",""14619""
","
","","","","","","","","","","","","","","","","","","","","","",""
"d3-instructions","31","147912","0.0-31.0","286","660","18","Male","false","false","false","true","""event"",""trial"",""time""
""blur"",""2"",""5829""
""focus"",""2"",""6802""
""fullscreenenter"",""5"",""14619""
","""event"",""trial"",""time""
""blur"",""2"",""5829""
","""event"",""trial"",""time""
""focus"",""2"",""6802""
","""event"",""trial"",""time""
""fullscreenenter"",""5"",""14619""
","
","","","","","","","","","","","","","","","","","","","","","",""
"d3-instructions","32","150469","0.0-32.0","286","660","18","Male","false","false","false","true","""event"",""trial"",""time""
""blur"",""2"",""5829""
""focus"",""2"",""6802""
""fullscreenenter"",""5"",""14619""
","""event"",""trial"",""time""
""blur"",""2"",""5829""
","""event"",""trial"",""time""
""focus"",""2"",""6802""
","""event"",""trial"",""time""
""fullscreenenter"",""5"",""14619""
","
","","","","","","","","","","","","","","","","","","","","","",""
"d3-instructions","33","152532","0.0-33.0","286","660","18","Male","false","false","false","true","""event"",""trial"",""time""
""blur"",""2"",""5829""
""focus"",""2"",""6802""
""fullscreenenter"",""5"",""14619""
","""event"",""trial"",""time""
""blur"",""2"",""5829""
","""event"",""trial"",""time""
""focus"",""2"",""6802""
","""event"",""trial"",""time""
""fullscreenenter"",""5"",""14619""
","
","","","","","","","","","","","","","","","","","","","","","",""
"d3-animate-choice","34","155407","0.0-34.0","286","660","18","Male","false","false","false","true","""event"",""trial"",""time""
""blur"",""2"",""5829""
""focus"",""2"",""6802""
""fullscreenenter"",""5"",""14619""
","""event"",""trial"",""time""
""blur"",""2"",""5829""
","""event"",""trial"",""time""
""focus"",""2"",""6802""
","""event"",""trial"",""time""
""fullscreenenter"",""5"",""14619""
","
","869","","48","","","3000","1","","","images/tutgreenplanet.jpg","images/tutalien1","images/tutalien2","null","images/tutalien1","images/nothing.png","NA","practice","null","","","",""
"d3-animate-choice","35","157666","0.0-35.0","286","660","18","Male","false","false","false","true","""event"",""trial"",""time""
""blur"",""2"",""5829""
""focus"",""2"",""6802""
""fullscreenenter"",""5"",""14619""
","""event"",""trial"",""time""
""blur"",""2"",""5829""
","""event"",""trial"",""time""
""focus"",""2"",""6802""
","""event"",""trial"",""time""
""fullscreenenter"",""5"",""14619""
","
","245","","48","","","3000","1","","","images/tutgreenplanet.jpg","images/tutalien1","images/tutalien2","null","images/tutalien1","images/nothing.png","NA","practice","null","","","",""
"d3-animate-choice","36","159947","0.0-36.0","286","660","18","Male","false","false","false","true","""event"",""trial"",""time""
""blur"",""2"",""5829""
""focus"",""2"",""6802""
""fullscreenenter"",""5"",""14619""
","""event"",""trial"",""time""
""blur"",""2"",""5829""
","""event"",""trial"",""time""
""focus"",""2"",""6802""
","""event"",""trial"",""time""
""fullscreenenter"",""5"",""14619""
","
","277","","48","","","3000","1","","","images/tutgreenplanet.jpg","images/tutalien1","images/tutalien2","null","images/tutalien1","images/nothing.png","NA","practice","null","","","",""
"d3-animate-choice","37","162155","0.0-37.0","286","660","18","Male","false","false","false","true","""event"",""trial"",""time""
""blur"",""2"",""5829""
""focus"",""2"",""6802""
""fullscreenenter"",""5"",""14619""
","""event"",""trial"",""time""
""blur"",""2"",""5829""
","""event"",""trial"",""time""
""focus"",""2"",""6802""
","""event"",""trial"",""time""
""fullscreenenter"",""5"",""14619""
","
","197","","49","","","3000","1","","","images/tutgreenplanet.jpg","images/tutalien1","images/tutalien2","null","images/tutalien2","images/t.png","NA","practice","null","","","",""
"d3-animate-choice","38","164314","0.0-38.0","286","660","18","Male","false","false","false","true","""event"",""trial"",""time""
""blur"",""2"",""5829""
""focus"",""2"",""6802""
""fullscreenenter"",""5"",""14619""
","""event"",""trial"",""time""
""blur"",""2"",""5829""
","""event"",""trial"",""time""
""focus"",""2"",""6802""
","""event"",""trial"",""time""
""fullscreenenter"",""5"",""14619""
","
","143","","49","","","3000","1","","","images/tutgreenplanet.jpg","images/tutalien1","images/tutalien2","null","images/tutalien2","images/t.png","NA","practice","null","","","",""
"d3-animate-choice","39","166543","0.0-39.0","286","660","18","Male","false","false","false","true","""event"",""trial"",""time""
""blur"",""2"",""5829""
""focus"",""2"",""6802""
""fullscreenenter"",""5"",""14619""
","""event"",""trial"",""time""
""blur"",""2"",""5829""
","""event"",""trial"",""time""
""focus"",""2"",""6802""
","""event"",""trial"",""time""
""fullscreenenter"",""5"",""14619""
","
","219","","49","","","3000","1","","","images/tutgreenplanet.jpg","images/tutalien1","images/tutalien2","null","images/tutalien2","images/t.png","NA","practice","null","","","",""
"d3-animate-choice","40","168762","0.0-40.0","286","660","18","Male","false","false","false","true","""event"",""trial"",""time""
""blur"",""2"",""5829""
""focus"",""2"",""6802""
""fullscreenenter"",""5"",""14619""
","""event"",""trial"",""time""
""blur"",""2"",""5829""
","""event"",""trial"",""time""
""focus"",""2"",""6802""
","""event"",""trial"",""time""
""fullscreenenter"",""5"",""14619""
","
","214","","49","","","3000","1","","","images/tutgreenplanet.jpg","images/tutalien1","images/tutalien2","null","images/tutalien2","images/t.png","NA","practice","null","","","",""
"d3-animate-choice","41","171151","0.0-41.0","286","660","18","Male","false","false","false","true","""event"",""trial"",""time""
""blur"",""2"",""5829""
""focus"",""2"",""6802""
""fullscreenenter"",""5"",""14619""
","""event"",""trial"",""time""
""blur"",""2"",""5829""
","""event"",""trial"",""time""
""focus"",""2"",""6802""
","""event"",""trial"",""time""
""fullscreenenter"",""5"",""14619""
","
","372","","49","","","3000","1","","","images/tutgreenplanet.jpg","images/tutalien1","images/tutalien2","null","images/tutalien2","images/t.png","NA","practice","null","","","",""
"d3-animate-choice","42","173360","0.0-42.0","286","660","18","Male","false","false","false","true","""event"",""trial"",""time""
""blur"",""2"",""5829""
""focus"",""2"",""6802""
""fullscreenenter"",""5"",""14619""
","""event"",""trial"",""time""
""blur"",""2"",""5829""
","""event"",""trial"",""time""
""focus"",""2"",""6802""
","""event"",""trial"",""time""
""fullscreenenter"",""5"",""14619""
","
","200","","49","","","3000","1","","","images/tutgreenplanet.jpg","images/tutalien1","images/tutalien2","null","images/tutalien2","images/t.png","NA","practice","null","","","",""
"d3-animate-choice","43","175560","0.0-43.0","286","660","18","Male","false","false","false","true","""event"",""trial"",""time""
""blur"",""2"",""5829""
""focus"",""2"",""6802""
""fullscreenenter"",""5"",""14619""
","""event"",""trial"",""time""
""blur"",""2"",""5829""
","""event"",""trial"",""time""
""focus"",""2"",""6802""
","""event"",""trial"",""time""
""fullscreenenter"",""5"",""14619""
","
","197","","49","","","3000","1","","","images/tutgreenplanet.jpg","images/tutalien1","images/tutalien2","null","images/tutalien2","images/nothing.png","NA","practice","null","","","",""
"d3-instructions","44","180642","0.0-44.0","286","660","18","Male","false","false","false","true","""event"",""trial"",""time""
""blur"",""2"",""5829""
""focus"",""2"",""6802""
""fullscreenenter"",""5"",""14619""
","""event"",""trial"",""time""
""blur"",""2"",""5829""
","""event"",""trial"",""time""
""focus"",""2"",""6802""
","""event"",""trial"",""time""
""fullscreenenter"",""5"",""14619""
","
","","","","","","","","","","","","","","","","","","","","","",""
"d3-instructions","45","182762","0.0-45.0","286","660","18","Male","false","false","false","true","""event"",""trial"",""time""
""blur"",""2"",""5829""
""focus"",""2"",""6802""
""fullscreenenter"",""5"",""14619""
","""event"",""trial"",""time""
""blur"",""2"",""5829""
","""event"",""trial"",""time""
""focus"",""2"",""6802""
","""event"",""trial"",""time""
""fullscreenenter"",""5"",""14619""
","
","","","","","","","","","","","","","","","","","","","","","",""
"d3-instructions","46","185229","0.0-46.0","286","660","18","Male","false","false","false","true","""event"",""trial"",""time""
""blur"",""2"",""5829""
""focus"",""2"",""6802""
""fullscreenenter"",""5"",""14619""
","""event"",""trial"",""time""
""blur"",""2"",""5829""
","""event"",""trial"",""time""
""focus"",""2"",""6802""
","""event"",""trial"",""time""
""fullscreenenter"",""5"",""14619""
","
","","","","","","","","","","","","","","","","","","","","","",""
"d3-instructions","47","195194","0.0-47.0","286","660","18","Male","false","false","false","true","""event"",""trial"",""time""
""blur"",""2"",""5829""
""focus"",""2"",""6802""
""fullscreenenter"",""5"",""14619""
","""event"",""trial"",""time""
""blur"",""2"",""5829""
","""event"",""trial"",""time""
""focus"",""2"",""6802""
","""event"",""trial"",""time""
""fullscreenenter"",""5"",""14619""
","
","","","","","","","","","","","","","","","","","","","","","",""
"d3-instructions","48","198343","0.0-48.0","286","660","18","Male","false","false","false","true","""event"",""trial"",""time""
""blur"",""2"",""5829""
""focus"",""2"",""6802""
""fullscreenenter"",""5"",""14619""
","""event"",""trial"",""time""
""blur"",""2"",""5829""
","""event"",""trial"",""time""
""focus"",""2"",""6802""
","""event"",""trial"",""time""
""fullscreenenter"",""5"",""14619""
","
","","","","","","","","","","","","","","","","","","","","","",""
"d3-instructions","49","201208","0.0-49.0","286","660","18","Male","false","false","false","true","""event"",""trial"",""time""
""blur"",""2"",""5829""
""focus"",""2"",""6802""
""fullscreenenter"",""5"",""14619""
","""event"",""trial"",""time""
""blur"",""2"",""5829""
","""event"",""trial"",""time""
""focus"",""2"",""6802""
","""event"",""trial"",""time""
""fullscreenenter"",""5"",""14619""
","
","","","","","","","","","","","","","","","","","","","","","",""
"d3-instructions","50","203497","0.0-50.0","286","660","18","Male","false","false","false","true","""event"",""trial"",""time""
""blur"",""2"",""5829""
""focus"",""2"",""6802""
""fullscreenenter"",""5"",""14619""
","""event"",""trial"",""time""
""blur"",""2"",""5829""
","""event"",""trial"",""time""
""focus"",""2"",""6802""
","""event"",""trial"",""time""
""fullscreenenter"",""5"",""14619""
","
","","","","","","","","","","","","","","","","","","","","","",""
"d3-instructions","51","205644","0.0-51.0","286","660","18","Male","false","false","false","true","""event"",""trial"",""time""
""blur"",""2"",""5829""
""focus"",""2"",""6802""
""fullscreenenter"",""5"",""14619""
","""event"",""trial"",""time""
""blur"",""2"",""5829""
","""event"",""trial"",""time""
""focus"",""2"",""6802""
","""event"",""trial"",""time""
""fullscreenenter"",""5"",""14619""
","
","","","","","","","","","","","","","","","","","","","","","",""
"d3-instructions","52","206669","0.0-52.0","286","660","18","Male","false","false","false","true","""event"",""trial"",""time""
""blur"",""2"",""5829""
""focus"",""2"",""6802""
""fullscreenenter"",""5"",""14619""
","""event"",""trial"",""time""
""blur"",""2"",""5829""
","""event"",""trial"",""time""
""focus"",""2"",""6802""
","""event"",""trial"",""time""
""fullscreenenter"",""5"",""14619""
","
","","","","","","","","","","","","","","","","","","","","","",""
"d3-instructions","53","213018","0.0-53.0","286","660","18","Male","false","false","false","true","""event"",""trial"",""time""
""blur"",""2"",""5829""
""focus"",""2"",""6802""
""fullscreenenter"",""5"",""14619""
","""event"",""trial"",""time""
""blur"",""2"",""5829""
","""event"",""trial"",""time""
""focus"",""2"",""6802""
","""event"",""trial"",""time""
""fullscreenenter"",""5"",""14619""
","
","","","","","","","","","","","","","","","","","","","","","",""
"d3-instructions","54","220135","0.0-54.0","286","660","18","Male","false","false","false","true","""event"",""trial"",""time""
""blur"",""2"",""5829""
""focus"",""2"",""6802""
""fullscreenenter"",""5"",""14619""
","""event"",""trial"",""time""
""blur"",""2"",""5829""
","""event"",""trial"",""time""
""focus"",""2"",""6802""
","""event"",""trial"",""time""
""fullscreenenter"",""5"",""14619""
","
","","","","","","","","","","","","","","","","","","","","","",""
"d3-instructions","55","222383","0.0-55.0","286","660","18","Male","false","false","false","true","""event"",""trial"",""time""
""blur"",""2"",""5829""
""focus"",""2"",""6802""
""fullscreenenter"",""5"",""14619""
","""event"",""trial"",""time""
""blur"",""2"",""5829""
","""event"",""trial"",""time""
""focus"",""2"",""6802""
","""event"",""trial"",""time""
""fullscreenenter"",""5"",""14619""
","
","","","","","","","","","","","","","","","","","","","","","",""
"d3-instructions","56","225696","0.0-56.0","286","660","18","Male","false","false","false","true","""event"",""trial"",""time""
""blur"",""2"",""5829""
""focus"",""2"",""6802""
""fullscreenenter"",""5"",""14619""
","""event"",""trial"",""time""
""blur"",""2"",""5829""
","""event"",""trial"",""time""
""focus"",""2"",""6802""
","""event"",""trial"",""time""
""fullscreenenter"",""5"",""14619""
","
","","","","","","","","","","","","","","","","","","","","","",""
"d3-instructions","57","229650","0.0-57.0","286","660","18","Male","false","false","false","true","""event"",""trial"",""time""
""blur"",""2"",""5829""
""focus"",""2"",""6802""
""fullscreenenter"",""5"",""14619""
","""event"",""trial"",""time""
""blur"",""2"",""5829""
","""event"",""trial"",""time""
""focus"",""2"",""6802""
","""event"",""trial"",""time""
""fullscreenenter"",""5"",""14619""
","
","","","","","","","","","","","","","","","","","","","","","",""
"d3-instructions","58","234357","0.0-58.0","286","660","18","Male","false","false","false","true","""event"",""trial"",""time""
""blur"",""2"",""5829""
""focus"",""2"",""6802""
""fullscreenenter"",""5"",""14619""
","""event"",""trial"",""time""
""blur"",""2"",""5829""
","""event"",""trial"",""time""
""focus"",""2"",""6802""
","""event"",""trial"",""time""
""fullscreenenter"",""5"",""14619""
","
","","","","","","","","","","","","","","","","","","","","","",""
"d3-instructions","59","236622","0.0-59.0","286","660","18","Male","false","false","false","true","""event"",""trial"",""time""
""blur"",""2"",""5829""
""focus"",""2"",""6802""
""fullscreenenter"",""5"",""14619""
","""event"",""trial"",""time""
""blur"",""2"",""5829""
","""event"",""trial"",""time""
""focus"",""2"",""6802""
","""event"",""trial"",""time""
""fullscreenenter"",""5"",""14619""
","
","","","","","","","","","","","","","","","","","","","","","",""
"d3-instructions","60","238990","0.0-60.0","286","660","18","Male","false","false","false","true","""event"",""trial"",""time""
""blur"",""2"",""5829""
""focus"",""2"",""6802""
""fullscreenenter"",""5"",""14619""
","""event"",""trial"",""time""
""blur"",""2"",""5829""
","""event"",""trial"",""time""
""focus"",""2"",""6802""
","""event"",""trial"",""time""
""fullscreenenter"",""5"",""14619""
","
","","","","","","","","","","","","","","","","","","","","","",""
"d3-animate-choice","61","241533","0.0-61.0-0.0","286","660","18","Male","false","false","false","true","""event"",""trial"",""time""
""blur"",""2"",""5829""
""focus"",""2"",""6802""
""fullscreenenter"",""5"",""14619""
","""event"",""trial"",""time""
""blur"",""2"",""5829""
","""event"",""trial"",""time""
""focus"",""2"",""6802""
","""event"",""trial"",""time""
""fullscreenenter"",""5"",""14619""
","
","527","","49","","","3000","1","","","images/earth.jpg","images/tutrocket2","images/tutrocket1","null","images/tutrocket1","","1","practice","null","1","","",""
"d3-animate-choice","62","244488","0.0-61.0-1.0","286","660","18","Male","false","false","false","true","""event"",""trial"",""time""
""blur"",""2"",""5829""
""focus"",""2"",""6802""
""fullscreenenter"",""5"",""14619""
","""event"",""trial"",""time""
""blur"",""2"",""5829""
","""event"",""trial"",""time""
""focus"",""2"",""6802""
","""event"",""trial"",""time""
""fullscreenenter"",""5"",""14619""
","
","951","","49","","","3000","1","","","images/tutyellowplanet.jpg","images/tutalien4","images/tutalien3","images/tutrocket1","images/tutalien3","images/t.png","2","practice","true","1","common","1","2022-02-05 21:35:47.205"
"two-step-fixation","63","245495","0.0-61.0-2.0","286","660","18","Male","false","false","false","true","""event"",""trial"",""time""
""blur"",""2"",""5829""
""focus"",""2"",""6802""
""fullscreenenter"",""5"",""14619""
","""event"",""trial"",""time""
""blur"",""2"",""5829""
","""event"",""trial"",""time""
""focus"",""2"",""6802""
","""event"",""trial"",""time""
""fullscreenenter"",""5"",""14619""
","
","","images/earth.jpg","","","","","","","","","","","","","","fixation","","","","","",""
"d3-animate-choice","64","247998","0.0-61.0-0.1","286","660","18","Male","false","false","false","true","""event"",""trial"",""time""
""blur"",""2"",""5829""
""focus"",""2"",""6802""
""fullscreenenter"",""5"",""14619""
","""event"",""trial"",""time""
""blur"",""2"",""5829""
","""event"",""trial"",""time""
""focus"",""2"",""6802""
","""event"",""trial"",""time""
""fullscreenenter"",""5"",""14619""
","
","499","","49","","","3000","1","","","images/earth.jpg","images/tutrocket2","images/tutrocket1","null","images/tutrocket1","","1","practice","null","1","","",""
"d3-animate-choice","65","250373","0.0-61.0-1.1","286","660","18","Male","false","false","false","true","""event"",""trial"",""time""
""blur"",""2"",""5829""
""focus"",""2"",""6802""
""fullscreenenter"",""5"",""14619""
","""event"",""trial"",""time""
""blur"",""2"",""5829""
","""event"",""trial"",""time""
""focus"",""2"",""6802""
","""event"",""trial"",""time""
""fullscreenenter"",""5"",""14619""
","
","359","","49","","","3000","1","","","images/tutyellowplanet.jpg","images/tutalien4","images/tutalien3","images/tutrocket1","images/tutalien3","images/nothing.png","2","practice","true","1","common","0","2022-02-05 21:35:53.090"
"two-step-fixation","66","251385","0.0-61.0-2.1","286","660","18","Male","false","false","false","true","""event"",""trial"",""time""
""blur"",""2"",""5829""
""focus"",""2"",""6802""
""fullscreenenter"",""5"",""14619""
","""event"",""trial"",""time""
""blur"",""2"",""5829""
","""event"",""trial"",""time""
""focus"",""2"",""6802""
","""event"",""trial"",""time""
""fullscreenenter"",""5"",""14619""
","
","","images/earth.jpg","","","","","","","","","","","","","","fixation","","","","","",""
"d3-animate-choice","67","253635","0.0-61.0-0.2","286","660","18","Male","false","false","false","true","""event"",""trial"",""time""
""blur"",""2"",""5829""
""focus"",""2"",""6802""
""fullscreenenter"",""5"",""14619""
","""event"",""trial"",""time""
""blur"",""2"",""5829""
","""event"",""trial"",""time""
""focus"",""2"",""6802""
","""event"",""trial"",""time""
""fullscreenenter"",""5"",""14619""
","
","237","","49","","","3000","1","","","images/earth.jpg","images/tutrocket2","images/tutrocket1","null","images/tutrocket1","","1","practice","null","1","","",""
"d3-animate-choice","68","255996","0.0-61.0-1.2","286","660","18","Male","false","false","false","true","""event"",""trial"",""time""
""blur"",""2"",""5829""
""focus"",""2"",""6802""
""fullscreenenter"",""5"",""14619""
","""event"",""trial"",""time""
""blur"",""2"",""5829""
","""event"",""trial"",""time""
""focus"",""2"",""6802""
","""event"",""trial"",""time""
""fullscreenenter"",""5"",""14619""
","
","347","","49","","","3000","1","","","images/tutyellowplanet.jpg","images/tutalien4","images/tutalien3","images/tutrocket1","images/tutalien3","images/nothing.png","2","practice","true","1","common","0","2022-02-05 21:35:58.713"
"two-step-fixation","69","257005","0.0-61.0-2.2","286","660","18","Male","false","false","false","true","""event"",""trial"",""time""
""blur"",""2"",""5829""
""focus"",""2"",""6802""
""fullscreenenter"",""5"",""14619""
","""event"",""trial"",""time""
""blur"",""2"",""5829""
","""event"",""trial"",""time""
""focus"",""2"",""6802""
","""event"",""trial"",""time""
""fullscreenenter"",""5"",""14619""
","
","","images/earth.jpg","","","","","","","","","","","","","","fixation","","","","","",""
"d3-animate-choice","70","259411","0.0-61.0-0.3","286","660","18","Male","false","false","false","true","""event"",""trial"",""time""
""blur"",""2"",""5829""
""focus"",""2"",""6802""
""fullscreenenter"",""5"",""14619""
","""event"",""trial"",""time""
""blur"",""2"",""5829""
","""event"",""trial"",""time""
""focus"",""2"",""6802""
","""event"",""trial"",""time""
""fullscreenenter"",""5"",""14619""
","
","400","","49","","","3000","1","","","images/earth.jpg","images/tutrocket2","images/tutrocket1","null","images/tutrocket1","","1","practice","null","1","","",""
"d3-animate-choice","71","261686","0.0-61.0-1.3","286","660","18","Male","false","false","false","true","""event"",""trial"",""time""
""blur"",""2"",""5829""
""focus"",""2"",""6802""
""fullscreenenter"",""5"",""14619""
","""event"",""trial"",""time""
""blur"",""2"",""5829""
","""event"",""trial"",""time""
""focus"",""2"",""6802""
","""event"",""trial"",""time""
""fullscreenenter"",""5"",""14619""
","
","261","","48","","","3000","1","","","images/tutyellowplanet.jpg","images/tutalien4","images/tutalien3","images/tutrocket1","images/tutalien4","images/t.png","2","practice","true","2","common","1","2022-02-05 21:36:04.403"
"two-step-fixation","72","262693","0.0-61.0-2.3","286","660","18","Male","false","false","false","true","""event"",""trial"",""time""
""blur"",""2"",""5829""
""focus"",""2"",""6802""
""fullscreenenter"",""5"",""14619""
","""event"",""trial"",""time""
""blur"",""2"",""5829""
","""event"",""trial"",""time""
""focus"",""2"",""6802""
","""event"",""trial"",""time""
""fullscreenenter"",""5"",""14619""
","
","","images/earth.jpg","","","","","","","","","","","","","","fixation","","","","","",""
"d3-animate-choice","73","264953","0.0-61.0-0.4","286","660","18","Male","false","false","false","true","""event"",""trial"",""time""
""blur"",""2"",""5829""
""focus"",""2"",""6802""
""fullscreenenter"",""5"",""14619""
","""event"",""trial"",""time""
""blur"",""2"",""5829""
","""event"",""trial"",""time""
""focus"",""2"",""6802""
","""event"",""trial"",""time""
""fullscreenenter"",""5"",""14619""
","
","253","","49","","","3000","1","","","images/earth.jpg","images/tutrocket2","images/tutrocket1","null","images/tutrocket1","","1","practice","null","1","","",""
"d3-animate-choice","74","267235","0.0-61.0-1.4","286","660","18","Male","false","false","false","true","""event"",""trial"",""time""
""blur"",""2"",""5829""
""focus"",""2"",""6802""
""fullscreenenter"",""5"",""14619""
","""event"",""trial"",""time""
""blur"",""2"",""5829""
","""event"",""trial"",""time""
""focus"",""2"",""6802""
","""event"",""trial"",""time""
""fullscreenenter"",""5"",""14619""
","
","270","","48","","","3000","1","","","images/tutyellowplanet.jpg","images/tutalien4","images/tutalien3","images/tutrocket1","images/tutalien4","images/nothing.png","2","practice","true","2","common","0","2022-02-05 21:36:09.952"
"two-step-fixation","75","268248","0.0-61.0-2.4","286","660","18","Male","false","false","false","true","""event"",""trial"",""time""
""blur"",""2"",""5829""
""focus"",""2"",""6802""
""fullscreenenter"",""5"",""14619""
","""event"",""trial"",""time""
""blur"",""2"",""5829""
","""event"",""trial"",""time""
""focus"",""2"",""6802""
","""event"",""trial"",""time""
""fullscreenenter"",""5"",""14619""
","
","","images/earth.jpg","","","","","","","","","","","","","","fixation","","","","","",""
"d3-animate-choice","76","270533","0.0-61.0-0.5","286","660","18","Male","false","false","false","true","""event"",""trial"",""time""
""blur"",""2"",""5829""
""focus"",""2"",""6802""
""fullscreenenter"",""5"",""14619""
","""event"",""trial"",""time""
""blur"",""2"",""5829""
","""event"",""trial"",""time""
""focus"",""2"",""6802""
","""event"",""trial"",""time""
""fullscreenenter"",""5"",""14619""
","
","268","","48","","","3000","1","","","images/earth.jpg","images/tutrocket2","images/tutrocket1","null","images/tutrocket2","","1","practice","null","2","","",""
"d3-animate-choice","77","272923","0.0-61.0-1.5","286","660","18","Male","false","false","false","true","""event"",""trial"",""time""
""blur"",""2"",""5829""
""focus"",""2"",""6802""
""fullscreenenter"",""5"",""14619""
","""event"",""trial"",""time""
""blur"",""2"",""5829""
","""event"",""trial"",""time""
""focus"",""2"",""6802""
","""event"",""trial"",""time""
""fullscreenenter"",""5"",""14619""
","
","386","","49","","","3000","1","","","images/tutgreenplanet.jpg","images/tutalien2","images/tutalien1","images/tutrocket2","images/tutalien1","images/t.png","2","practice","true","1","common","1","2022-02-05 21:36:15.640"
"two-step-fixation","78","273938","0.0-61.0-2.5","286","660","18","Male","false","false","false","true","""event"",""trial"",""time""
""blur"",""2"",""5829""
""focus"",""2"",""6802""
""fullscreenenter"",""5"",""14619""
","""event"",""trial"",""time""
""blur"",""2"",""5829""
","""event"",""trial"",""time""
""focus"",""2"",""6802""
","""event"",""trial"",""time""
""fullscreenenter"",""5"",""14619""
","
","","images/earth.jpg","","","","","","","","","","","","","","fixation","","","","","",""
"d3-animate-choice","79","276204","0.0-61.0-0.6","286","660","18","Male","false","false","false","true","""event"",""trial"",""time""
""blur"",""2"",""5829""
""focus"",""2"",""6802""
""fullscreenenter"",""5"",""14619""
","""event"",""trial"",""time""
""blur"",""2"",""5829""
","""event"",""trial"",""time""
""focus"",""2"",""6802""
","""event"",""trial"",""time""
""fullscreenenter"",""5"",""14619""
","
","262","","48","","","3000","1","","","images/earth.jpg","images/tutrocket2","images/tutrocket1","null","images/tutrocket2","","1","practice","null","2","","",""
"d3-animate-choice","80","278610","0.0-61.0-1.6","286","660","18","Male","false","false","false","true","""event"",""trial"",""time""
""blur"",""2"",""5829""
""focus"",""2"",""6802""
""fullscreenenter"",""5"",""14619""
","""event"",""trial"",""time""
""blur"",""2"",""5829""
","""event"",""trial"",""time""
""focus"",""2"",""6802""
","""event"",""trial"",""time""
""fullscreenenter"",""5"",""14619""
","
","401","","49","","","3000","1","","","images/tutgreenplanet.jpg","images/tutalien2","images/tutalien1","images/tutrocket2","images/tutalien1","images/nothing.png","2","practice","true","1","common","0","2022-02-05 21:36:21.327"
"two-step-fixation","81","279623","0.0-61.0-2.6","286","660","18","Male","false","false","false","true","""event"",""trial"",""time""
""blur"",""2"",""5829""
""focus"",""2"",""6802""
""fullscreenenter"",""5"",""14619""
","""event"",""trial"",""time""
""blur"",""2"",""5829""
","""event"",""trial"",""time""
""focus"",""2"",""6802""
","""event"",""trial"",""time""
""fullscreenenter"",""5"",""14619""
","
","","images/earth.jpg","","","","","","","","","","","","","","fixation","","","","","",""
"d3-animate-choice","82","281835","0.0-61.0-0.7","286","660","18","Male","false","false","false","true","""event"",""trial"",""time""
""blur"",""2"",""5829""
""focus"",""2"",""6802""
""fullscreenenter"",""5"",""14619""
","""event"",""trial"",""time""
""blur"",""2"",""5829""
","""event"",""trial"",""time""
""focus"",""2"",""6802""
","""event"",""trial"",""time""
""fullscreenenter"",""5"",""14619""
","
","207","","48","","","3000","1","","","images/earth.jpg","images/tutrocket2","images/tutrocket1","null","images/tutrocket2","","1","practice","null","2","","",""
"d3-animate-choice","83","284104","0.0-61.0-1.7","286","660","18","Male","false","false","false","true","""event"",""trial"",""time""
""blur"",""2"",""5829""
""focus"",""2"",""6802""
""fullscreenenter"",""5"",""14619""
","""event"",""trial"",""time""
""blur"",""2"",""5829""
","""event"",""trial"",""time""
""focus"",""2"",""6802""
","""event"",""trial"",""time""
""fullscreenenter"",""5"",""14619""
","
","263","","48","","","3000","1","","","images/tutgreenplanet.jpg","images/tutalien2","images/tutalien1","images/tutrocket2","images/tutalien2","images/nothing.png","2","practice","true","2","common","0","2022-02-05 21:36:26.821"
"two-step-fixation","84","285118","0.0-61.0-2.7","286","660","18","Male","false","false","false","true","""event"",""trial"",""time""
""blur"",""2"",""5829""
""focus"",""2"",""6802""
""fullscreenenter"",""5"",""14619""
","""event"",""trial"",""time""
""blur"",""2"",""5829""
","""event"",""trial"",""time""
""focus"",""2"",""6802""
","""event"",""trial"",""time""
""fullscreenenter"",""5"",""14619""
","
","","images/earth.jpg","","","","","","","","","","","","","","fixation","","","","","",""
"d3-animate-choice","85","287250","0.0-61.0-0.8","286","660","18","Male","false","false","false","true","""event"",""trial"",""time""
""blur"",""2"",""5829""
""focus"",""2"",""6802""
""fullscreenenter"",""5"",""14619""
","""event"",""trial"",""time""
""blur"",""2"",""5829""
","""event"",""trial"",""time""
""focus"",""2"",""6802""
","""event"",""trial"",""time""
""fullscreenenter"",""5"",""14619""
","
","124","","48","","","3000","1","","","images/earth.jpg","images/tutrocket2","images/tutrocket1","null","images/tutrocket2","","1","practice","null","2","","",""
"d3-animate-choice","86","289483","0.0-61.0-1.8","286","660","18","Male","false","false","false","true","""event"",""trial"",""time""
""blur"",""2"",""5829""
""focus"",""2"",""6802""
""fullscreenenter"",""5"",""14619""
","""event"",""trial"",""time""
""blur"",""2"",""5829""
","""event"",""trial"",""time""
""focus"",""2"",""6802""
","""event"",""trial"",""time""
""fullscreenenter"",""5"",""14619""
","
","230","","49","","","3000","1","","","images/tutyellowplanet.jpg","images/tutalien4","images/tutalien3","images/tutrocket2","images/tutalien3","images/nothing.png","2","practice","false","1","rare","0","2022-02-05 21:36:32.201"
"two-step-fixation","87","290495","0.0-61.0-2.8","286","660","18","Male","false","false","false","true","""event"",""trial"",""time""
""blur"",""2"",""5829""
""focus"",""2"",""6802""
""fullscreenenter"",""5"",""14619""
","""event"",""trial"",""time""
""blur"",""2"",""5829""
","""event"",""trial"",""time""
""focus"",""2"",""6802""
","""event"",""trial"",""time""
""fullscreenenter"",""5"",""14619""
","
","","images/earth.jpg","","","","","","","","","","","","","","fixation","","","","","",""
"d3-animate-choice","88","293167","0.0-61.0-0.9","286","660","18","Male","false","false","false","true","""event"",""trial"",""time""
""blur"",""2"",""5829""
""focus"",""2"",""6802""
""fullscreenenter"",""5"",""14619""
","""event"",""trial"",""time""
""blur"",""2"",""5829""
","""event"",""trial"",""time""
""focus"",""2"",""6802""
","""event"",""trial"",""time""
""fullscreenenter"",""5"",""14619""
","
","665","","48","","","3000","1","","","images/earth.jpg","images/tutrocket2","images/tutrocket1","null","images/tutrocket2","","1","practice","null","2","","",""
"d3-animate-choice","89","295597","0.0-61.0-1.9","286","660","18","Male","false","false","false","true","""event"",""trial"",""time""
""blur"",""2"",""5829""
""focus"",""2"",""6802""
""fullscreenenter"",""5"",""14619""
","""event"",""trial"",""time""
""blur"",""2"",""5829""
","""event"",""trial"",""time""
""focus"",""2"",""6802""
","""event"",""trial"",""time""
""fullscreenenter"",""5"",""14619""
","
","413","","48","","","3000","1","","","images/tutgreenplanet.jpg","images/tutalien2","images/tutalien1","images/tutrocket2","images/tutalien2","images/nothing.png","2","practice","true","2","common","0","2022-02-05 21:36:38.314"
"two-step-fixation","90","296602","0.0-61.0-2.9","286","660","18","Male","false","false","false","true","""event"",""trial"",""time""
""blur"",""2"",""5829""
""focus"",""2"",""6802""
""fullscreenenter"",""5"",""14619""
","""event"",""trial"",""time""
""blur"",""2"",""5829""
","""event"",""trial"",""time""
""focus"",""2"",""6802""
","""event"",""trial"",""time""
""fullscreenenter"",""5"",""14619""
","
","","images/earth.jpg","","","","","","","","","","","","","","fixation","","","","","",""
"d3-animate-choice","91","298839","0.0-61.0-0.10","286","660","18","Male","false","false","false","true","""event"",""trial"",""time""
""blur"",""2"",""5829""
""focus"",""2"",""6802""
""fullscreenenter"",""5"",""14619""
","""event"",""trial"",""time""
""blur"",""2"",""5829""
","""event"",""trial"",""time""
""focus"",""2"",""6802""
","""event"",""trial"",""time""
""fullscreenenter"",""5"",""14619""
","
","233","","48","","","3000","1","","","images/earth.jpg","images/tutrocket2","images/tutrocket1","null","images/tutrocket2","","1","practice","null","2","","",""
"d3-animate-choice","92","301135","0.0-61.0-1.10","286","660","18","Male","false","false","false","true","""event"",""trial"",""time""
""blur"",""2"",""5829""
""focus"",""2"",""6802""
""fullscreenenter"",""5"",""14619""
","""event"",""trial"",""time""
""blur"",""2"",""5829""
","""event"",""trial"",""time""
""focus"",""2"",""6802""
","""event"",""trial"",""time""
""fullscreenenter"",""5"",""14619""
","
","294","","49","","","3000","1","","","images/tutyellowplanet.jpg","images/tutalien4","images/tutalien3","images/tutrocket2","images/tutalien3","images/nothing.png","2","practice","false","1","rare","0","2022-02-05 21:36:43.853"
"two-step-fixation","93","302151","0.0-61.0-2.10","286","660","18","Male","false","false","false","true","""event"",""trial"",""time""
""blur"",""2"",""5829""
""focus"",""2"",""6802""
""fullscreenenter"",""5"",""14619""
","""event"",""trial"",""time""
""blur"",""2"",""5829""
","""event"",""trial"",""time""
""focus"",""2"",""6802""
","""event"",""trial"",""time""
""fullscreenenter"",""5"",""14619""
","
","","images/earth.jpg","","","","","","","","","","","","","","fixation","","","","","",""
"d3-animate-choice","94","304382","0.0-61.0-0.11","286","660","18","Male","false","false","false","true","""event"",""trial"",""time""
""blur"",""2"",""5829""
""focus"",""2"",""6802""
""fullscreenenter"",""5"",""14619""
","""event"",""trial"",""time""
""blur"",""2"",""5829""
","""event"",""trial"",""time""
""focus"",""2"",""6802""
","""event"",""trial"",""time""
""fullscreenenter"",""5"",""14619""
","
","219","","48","","","3000","1","","","images/earth.jpg","images/tutrocket2","images/tutrocket1","null","images/tutrocket2","","1","practice","null","2","","",""
"d3-animate-choice","95","307438","0.0-61.0-1.11","286","660","18","Male","false","false","false","true","""event"",""trial"",""time""
""blur"",""2"",""5829""
""focus"",""2"",""6802""
""fullscreenenter"",""5"",""14619""
","""event"",""trial"",""time""
""blur"",""2"",""5829""
","""event"",""trial"",""time""
""focus"",""2"",""6802""
","""event"",""trial"",""time""
""fullscreenenter"",""5"",""14619""
","
","1040","","49","","","3000","1","","","images/tutgreenplanet.jpg","images/tutalien2","images/tutalien1","images/tutrocket2","images/tutalien1","images/nothing.png","2","practice","true","1","common","0","2022-02-05 21:36:50.155"
"two-step-fixation","96","308451","0.0-61.0-2.11","286","660","18","Male","false","false","false","true","""event"",""trial"",""time""
""blur"",""2"",""5829""
""focus"",""2"",""6802""
""fullscreenenter"",""5"",""14619""
","""event"",""trial"",""time""
""blur"",""2"",""5829""
","""event"",""trial"",""time""
""focus"",""2"",""6802""
","""event"",""trial"",""time""
""fullscreenenter"",""5"",""14619""
","
","","images/earth.jpg","","","","","","","","","","","","","","fixation","","","","","",""
"d3-animate-choice","97","310485","0.0-61.0-0.12","286","660","18","Male","false","false","false","true","""event"",""trial"",""time""
""blur"",""2"",""5829""
""focus"",""2"",""6802""
""fullscreenenter"",""5"",""14619""
","""event"",""trial"",""time""
""blur"",""2"",""5829""
","""event"",""trial"",""time""
""focus"",""2"",""6802""
","""event"",""trial"",""time""
""fullscreenenter"",""5"",""14619""
","
","27","","49","","","3000","1","","","images/earth.jpg","images/tutrocket2","images/tutrocket1","null","images/tutrocket1","","1","practice","null","1","","",""
"d3-animate-choice","98","312813","0.0-61.0-1.12","286","660","18","Male","false","false","false","true","""event"",""trial"",""time""
""blur"",""2"",""5829""
""focus"",""2"",""6802""
""fullscreenenter"",""5"",""14619""
","""event"",""trial"",""time""
""blur"",""2"",""5829""
","""event"",""trial"",""time""
""focus"",""2"",""6802""
","""event"",""trial"",""time""
""fullscreenenter"",""5"",""14619""
","
","311","","48","","","3000","1","","","images/tutgreenplanet.jpg","images/tutalien2","images/tutalien1","images/tutrocket1","images/tutalien2","images/nothing.png","2","practice","false","2","rare","0","2022-02-05 21:36:55.530"
"two-step-fixation","99","313829","0.0-61.0-2.12","286","660","18","Male","false","false","false","true","""event"",""trial"",""time""
""blur"",""2"",""5829""
""focus"",""2"",""6802""
""fullscreenenter"",""5"",""14619""
","""event"",""trial"",""time""
""blur"",""2"",""5829""
","""event"",""trial"",""time""
""focus"",""2"",""6802""
","""event"",""trial"",""time""
""fullscreenenter"",""5"",""14619""
","
","","images/earth.jpg","","","","","","","","","","","","","","fixation","","","","","",""
"d3-animate-choice","100","315904","0.0-61.0-0.13","286","660","18","Male","false","false","false","true","""event"",""trial"",""time""
""blur"",""2"",""5829""
""focus"",""2"",""6802""
""fullscreenenter"",""5"",""14619""
","""event"",""trial"",""time""
""blur"",""2"",""5829""
","""event"",""trial"",""time""
""focus"",""2"",""6802""
","""event"",""trial"",""time""
""fullscreenenter"",""5"",""14619""
","
","59","","49","","","3000","1","","","images/earth.jpg","images/tutrocket2","images/tutrocket1","null","images/tutrocket1","","1","practice","null","1","","",""
"d3-animate-choice","101","318230","0.0-61.0-1.13","286","660","18","Male","false","false","false","true","""event"",""trial"",""time""
""blur"",""2"",""5829""
""focus"",""2"",""6802""
""fullscreenenter"",""5"",""14619""
","""event"",""trial"",""time""
""blur"",""2"",""5829""
","""event"",""trial"",""time""
""focus"",""2"",""6802""
","""event"",""trial"",""time""
""fullscreenenter"",""5"",""14619""
","
","320","","49","","","3000","1","","","images/tutyellowplanet.jpg","images/tutalien4","images/tutalien3","images/tutrocket1","images/tutalien3","images/t.png","2","practice","true","1","common","1","2022-02-05 21:37:00.947"
"two-step-fixation","102","319233","0.0-61.0-2.13","286","660","18","Male","false","false","false","true","""event"",""trial"",""time""
""blur"",""2"",""5829""
""focus"",""2"",""6802""
""fullscreenenter"",""5"",""14619""
","""event"",""trial"",""time""
""blur"",""2"",""5829""
","""event"",""trial"",""time""
""focus"",""2"",""6802""
","""event"",""trial"",""time""
""fullscreenenter"",""5"",""14619""
","
","","images/earth.jpg","","","","","","","","","","","","","","fixation","","","","","",""
"d3-animate-choice","103","321372","0.0-61.0-0.14","286","660","18","Male","false","false","false","true","""event"",""trial"",""time""
""blur"",""2"",""5829""
""focus"",""2"",""6802""
""fullscreenenter"",""5"",""14619""
","""event"",""trial"",""time""
""blur"",""2"",""5829""
","""event"",""trial"",""time""
""focus"",""2"",""6802""
","""event"",""trial"",""time""
""fullscreenenter"",""5"",""14619""
","
","132","","49","","","3000","1","327","49","images/earth.jpg","images/tutrocket2","images/tutrocket1","null","images/tutrocket1","","1","practice","null","1","","",""
"d3-animate-choice","104","323746","0.0-61.0-1.14","286","660","18","Male","false","false","false","true","""event"",""trial"",""time""
""blur"",""2"",""5829""
""focus"",""2"",""6802""
""fullscreenenter"",""5"",""14619""
","""event"",""trial"",""time""
""blur"",""2"",""5829""
","""event"",""trial"",""time""
""focus"",""2"",""6802""
","""event"",""trial"",""time""
""fullscreenenter"",""5"",""14619""
","
","364","","49","","","3000","1","","","images/tutyellowplanet.jpg","images/tutalien4","images/tutalien3","images/tutrocket1","images/tutalien3","images/nothing.png","2","practice","true","1","common","0","2022-02-05 21:37:06.463"
"two-step-fixation","105","324760","0.0-61.0-2.14","286","660","18","Male","false","false","false","true","""event"",""trial"",""time""
""blur"",""2"",""5829""
""focus"",""2"",""6802""
""fullscreenenter"",""5"",""14619""
","""event"",""trial"",""time""
""blur"",""2"",""5829""
","""event"",""trial"",""time""
""focus"",""2"",""6802""
","""event"",""trial"",""time""
""fullscreenenter"",""5"",""14619""
","
","","images/earth.jpg","","","","","","","","","","","","","","fixation","","","","","",""
"d3-animate-choice","106","326964","0.0-61.0-0.15","286","660","18","Male","false","false","false","true","""event"",""trial"",""time""
""blur"",""2"",""5829""
""focus"",""2"",""6802""
""fullscreenenter"",""5"",""14619""
","""event"",""trial"",""time""
""blur"",""2"",""5829""
","""event"",""trial"",""time""
""focus"",""2"",""6802""
","""event"",""trial"",""time""
""fullscreenenter"",""5"",""14619""
","
","187","","49","","","3000","1","","","images/earth.jpg","images/tutrocket2","images/tutrocket1","null","images/tutrocket1","","1","practice","null","1","","",""
"d3-animate-choice","107","328989","0.0-61.0-1.15","286","660","18","Male","false","false","false","true","""event"",""trial"",""time""
""blur"",""2"",""5829""
""focus"",""2"",""6802""
""fullscreenenter"",""5"",""14619""
","""event"",""trial"",""time""
""blur"",""2"",""5829""
","""event"",""trial"",""time""
""focus"",""2"",""6802""
","""event"",""trial"",""time""
""fullscreenenter"",""5"",""14619""
","
","16","","49","","","3000","1","","","images/tutyellowplanet.jpg","images/tutalien4","images/tutalien3","images/tutrocket1","images/tutalien3","images/nothing.png","2","practice","true","1","common","0","2022-02-05 21:37:11.706"
"two-step-fixation","108","330000","0.0-61.0-2.15","286","660","18","Male","false","false","false","true","""event"",""trial"",""time""
""blur"",""2"",""5829""
""focus"",""2"",""6802""
""fullscreenenter"",""5"",""14619""
","""event"",""trial"",""time""
""blur"",""2"",""5829""
","""event"",""trial"",""time""
""focus"",""2"",""6802""
","""event"",""trial"",""time""
""fullscreenenter"",""5"",""14619""
","
","","images/earth.jpg","","","","","","","","","","","","","","fixation","","","","","",""
"d3-animate-choice","109","332056","0.0-61.0-0.16","286","660","18","Male","false","false","false","true","""event"",""trial"",""time""
""blur"",""2"",""5829""
""focus"",""2"",""6802""
""fullscreenenter"",""5"",""14619""
","""event"",""trial"",""time""
""blur"",""2"",""5829""
","""event"",""trial"",""time""
""focus"",""2"",""6802""
","""event"",""trial"",""time""
""fullscreenenter"",""5"",""14619""
","
","49","","49","","","3000","1","270","49","images/earth.jpg","images/tutrocket2","images/tutrocket1","null","images/tutrocket1","","1","practice","null","1","","",""
"d3-animate-choice","110","334330","0.0-61.0-1.16","286","660","18","Male","false","false","false","true","""event"",""trial"",""time""
""blur"",""2"",""5829""
""focus"",""2"",""6802""
""fullscreenenter"",""5"",""14619""
","""event"",""trial"",""time""
""blur"",""2"",""5829""
","""event"",""trial"",""time""
""focus"",""2"",""6802""
","""event"",""trial"",""time""
""fullscreenenter"",""5"",""14619""
","
","261","","48","","","3000","1","","","images/tutyellowplanet.jpg","images/tutalien4","images/tutalien3","images/tutrocket1","images/tutalien4","images/nothing.png","2","practice","true","2","common","0","2022-02-05 21:37:17.047"
"two-step-fixation","111","335333","0.0-61.0-2.16","286","660","18","Male","false","false","false","true","""event"",""trial"",""time""
""blur"",""2"",""5829""
""focus"",""2"",""6802""
""fullscreenenter"",""5"",""14619""
","""event"",""trial"",""time""
""blur"",""2"",""5829""
","""event"",""trial"",""time""
""focus"",""2"",""6802""
","""event"",""trial"",""time""
""fullscreenenter"",""5"",""14619""
","
","","images/earth.jpg","","","","","","","","","","","","","","fixation","","","","","",""
"d3-animate-choice","112","337598","0.0-61.0-0.17","286","660","18","Male","false","false","false","true","""event"",""trial"",""time""
""blur"",""2"",""5829""
""focus"",""2"",""6802""
""fullscreenenter"",""5"",""14619""
","""event"",""trial"",""time""
""blur"",""2"",""5829""
","""event"",""trial"",""time""
""focus"",""2"",""6802""
","""event"",""trial"",""time""
""fullscreenenter"",""5"",""14619""
","
","257","","48","","","3000","1","","","images/earth.jpg","images/tutrocket2","images/tutrocket1","null","images/tutrocket2","","1","practice","null","2","","",""
"d3-animate-choice","113","340174","0.0-61.0-1.17","286","660","18","Male","false","false","false","true","""event"",""trial"",""time""
""blur"",""2"",""5829""
""focus"",""2"",""6802""
""fullscreenenter"",""5"",""14619""
","""event"",""trial"",""time""
""blur"",""2"",""5829""
","""event"",""trial"",""time""
""focus"",""2"",""6802""
","""event"",""trial"",""time""
""fullscreenenter"",""5"",""14619""
","
","573","","48","","","3000","1","","","images/tutgreenplanet.jpg","images/tutalien2","images/tutalien1","images/tutrocket2","images/tutalien2","images/nothing.png","2","practice","true","2","common","0","2022-02-05 21:37:22.891"
"two-step-fixation","114","341190","0.0-61.0-2.17","286","660","18","Male","false","false","false","true","""event"",""trial"",""time""
""blur"",""2"",""5829""
""focus"",""2"",""6802""
""fullscreenenter"",""5"",""14619""
","""event"",""trial"",""time""
""blur"",""2"",""5829""
","""event"",""trial"",""time""
""focus"",""2"",""6802""
","""event"",""trial"",""time""
""fullscreenenter"",""5"",""14619""
","
","","images/earth.jpg","","","","","","","","","","","","","","fixation","","","","","",""
"d3-animate-choice","115","343329","0.0-61.0-0.18","286","660","18","Male","false","false","false","true","""event"",""trial"",""time""
""blur"",""2"",""5829""
""focus"",""2"",""6802""
""fullscreenenter"",""5"",""14619""
","""event"",""trial"",""time""
""blur"",""2"",""5829""
","""event"",""trial"",""time""
""focus"",""2"",""6802""
","""event"",""trial"",""time""
""fullscreenenter"",""5"",""14619""
","
","128","","48","","","3000","1","337","48","images/earth.jpg","images/tutrocket2","images/tutrocket1","null","images/tutrocket2","","1","practice","null","2","","",""
"d3-animate-choice","116","345642","0.0-61.0-1.18","286","660","18","Male","false","false","false","true","""event"",""trial"",""time""
""blur"",""2"",""5829""
""focus"",""2"",""6802""
""fullscreenenter"",""5"",""14619""
","""event"",""trial"",""time""
""blur"",""2"",""5829""
","""event"",""trial"",""time""
""focus"",""2"",""6802""
","""event"",""trial"",""time""
""fullscreenenter"",""5"",""14619""
","
","298","","49","","","3000","1","","","images/tutgreenplanet.jpg","images/tutalien2","images/tutalien1","images/tutrocket2","images/tutalien1","images/t.png","2","practice","true","1","common","1","2022-02-05 21:37:28.359"
"two-step-fixation","117","346648","0.0-61.0-2.18","286","660","18","Male","false","false","false","true","""event"",""trial"",""time""
""blur"",""2"",""5829""
""focus"",""2"",""6802""
""fullscreenenter"",""5"",""14619""
","""event"",""trial"",""time""
""blur"",""2"",""5829""
","""event"",""trial"",""time""
""focus"",""2"",""6802""
","""event"",""trial"",""time""
""fullscreenenter"",""5"",""14619""
","
","","images/earth.jpg","","","","","","","","","","","","","","fixation","","","","","",""
"d3-animate-choice","118","348767","0.0-61.0-0.19","286","660","18","Male","false","false","false","true","""event"",""trial"",""time""
""blur"",""2"",""5829""
""focus"",""2"",""6802""
""fullscreenenter"",""5"",""14619""
","""event"",""trial"",""time""
""blur"",""2"",""5829""
","""event"",""trial"",""time""
""focus"",""2"",""6802""
","""event"",""trial"",""time""
""fullscreenenter"",""5"",""14619""
","
","107","","48","","","3000","1","","","images/earth.jpg","images/tutrocket2","images/tutrocket1","null","images/tutrocket2","","1","practice","null","2","","",""
"d3-animate-choice","119","351140","0.0-61.0-1.19","286","660","18","Male","false","false","false","true","""event"",""trial"",""time""
""blur"",""2"",""5829""
""focus"",""2"",""6802""
""fullscreenenter"",""5"",""14619""
","""event"",""trial"",""time""
""blur"",""2"",""5829""
","""event"",""trial"",""time""
""focus"",""2"",""6802""
","""event"",""trial"",""time""
""fullscreenenter"",""5"",""14619""
","
","368","","49","","","3000","1","","","images/tutgreenplanet.jpg","images/tutalien2","images/tutalien1","images/tutrocket2","images/tutalien1","images/nothing.png","2","practice","true","1","common","0","2022-02-05 21:37:33.857"
"two-step-fixation","120","352149","0.0-61.0-2.19","286","660","18","Male","false","false","false","true","""event"",""trial"",""time""
""blur"",""2"",""5829""
""focus"",""2"",""6802""
""fullscreenenter"",""5"",""14619""
","""event"",""trial"",""time""
""blur"",""2"",""5829""
","""event"",""trial"",""time""
""focus"",""2"",""6802""
","""event"",""trial"",""time""
""fullscreenenter"",""5"",""14619""
","
","","images/earth.jpg","","","","","","","","","","","","","","fixation","","","","","",""
"d3-instructions","121","359828","0.0-62.0","286","660","18","Male","false","false","false","true","""event"",""trial"",""time""
""blur"",""2"",""5829""
""focus"",""2"",""6802""
""fullscreenenter"",""5"",""14619""
","""event"",""trial"",""time""
""blur"",""2"",""5829""
","""event"",""trial"",""time""
""focus"",""2"",""6802""
","""event"",""trial"",""time""
""fullscreenenter"",""5"",""14619""
","
","","","","","","","","","","","","","","","","","","","","","",""
"audio-keyboard-response","122","386357","0.0-63.0","286","660","18","Male","false","false","false","true","""event"",""trial"",""time""
""blur"",""2"",""5829""
""focus"",""2"",""6802""
""fullscreenenter"",""5"",""14619""
","""event"",""trial"",""time""
""blur"",""2"",""5829""
","""event"",""trial"",""time""
""focus"",""2"",""6802""
","""event"",""trial"",""time""
""fullscreenenter"",""5"",""14619""
","
","26520","audio/instructions/treasure_feedback.wav","32","","","","","","","","","","","","","","","","","","",""
"d3-instructions","123","394648","0.0-64.0","286","660","18","Male","false","false","false","true","""event"",""trial"",""time""
""blur"",""2"",""5829""
""focus"",""2"",""6802""
""fullscreenenter"",""5"",""14619""
","""event"",""trial"",""time""
""blur"",""2"",""5829""
","""event"",""trial"",""time""
""focus"",""2"",""6802""
","""event"",""trial"",""time""
""fullscreenenter"",""5"",""14619""
","
","","","","","","","","","","","","","","","","","","","","","",""
"d3-instructions","124","399093","0.0-65.0","286","660","18","Male","false","false","false","true","""event"",""trial"",""time""
""blur"",""2"",""5829""
""focus"",""2"",""6802""
""fullscreenenter"",""5"",""14619""
","""event"",""trial"",""time""
""blur"",""2"",""5829""
","""event"",""trial"",""time""
""focus"",""2"",""6802""
","""event"",""trial"",""time""
""fullscreenenter"",""5"",""14619""
","
","","","","","","","","","","","","","","","","","","","","","",""
"d3-instructions","125","409182","0.0-66.0","286","660","18","Male","false","false","false","true","""event"",""trial"",""time""
""blur"",""2"",""5829""
""focus"",""2"",""6802""
""fullscreenenter"",""5"",""14619""
","""event"",""trial"",""time""
""blur"",""2"",""5829""
","""event"",""trial"",""time""
""focus"",""2"",""6802""
","""event"",""trial"",""time""
""fullscreenenter"",""5"",""14619""
","
","","","","","","","","","","","","","","","","","","","","","",""
"d3-instructions","126","414353","0.0-67.0","286","660","18","Male","false","false","false","true","""event"",""trial"",""time""
""blur"",""2"",""5829""
""focus"",""2"",""6802""
""fullscreenenter"",""5"",""14619""
","""event"",""trial"",""time""
""blur"",""2"",""5829""
","""event"",""trial"",""time""
""focus"",""2"",""6802""
","""event"",""trial"",""time""
""fullscreenenter"",""5"",""14619""
","
","","","","","","","","","","","","","","","","","","","","","",""
"d3-instructions","127","416369","0.0-68.0","286","660","18","Male","false","false","false","true","""event"",""trial"",""time""
""blur"",""2"",""5829""
""focus"",""2"",""6802""
""fullscreenenter"",""5"",""14619""
","""event"",""trial"",""time""
""blur"",""2"",""5829""
","""event"",""trial"",""time""
""focus"",""2"",""6802""
","""event"",""trial"",""time""
""fullscreenenter"",""5"",""14619""
","
","","","","","","","","","","","","","","","","","","","","","",""
"instructions-quiz","128","418494","0.0-69.0","286","660","18","Male","false","false","false","true","""event"",""trial"",""time""
""blur"",""2"",""5829""
""focus"",""2"",""6802""
""fullscreenenter"",""5"",""14619""
","""event"",""trial"",""time""
""blur"",""2"",""5829""
","""event"",""trial"",""time""
""focus"",""2"",""6802""
","""event"",""trial"",""time""
""fullscreenenter"",""5"",""14619""
","
","2124","audio/quiz/Q1_Prompt.wav","","1","","","","","","","","","","","","","","","","","",""
"audio-keyboard-response","129","419464","0.0-70.0","286","660","18","Male","false","false","false","true","""event"",""trial"",""time""
""blur"",""2"",""5829""
""focus"",""2"",""6802""
""fullscreenenter"",""5"",""14619""
","""event"",""trial"",""time""
""blur"",""2"",""5829""
","""event"",""trial"",""time""
""focus"",""2"",""6802""
","""event"",""trial"",""time""
""fullscreenenter"",""5"",""14619""
","
","960","audio/quiz/Q1_Correct.wav","32","","","","","","","","","","","","","","","","","","",""
"instructions-quiz","130","422538","0.0-71.0","286","660","18","Male","false","false","false","true","""event"",""trial"",""time""
""blur"",""2"",""5829""
""focus"",""2"",""6802""
""fullscreenenter"",""5"",""14619""
","""event"",""trial"",""time""
""blur"",""2"",""5829""
","""event"",""trial"",""time""
""focus"",""2"",""6802""
","""event"",""trial"",""time""
""fullscreenenter"",""5"",""14619""
","
","3075","audio/quiz/Q2_Prompt.wav","","0","","","","","","","","","","","","","","","","","",""
"audio-keyboard-response","131","423222","0.0-72.0","286","660","18","Male","false","false","false","true","""event"",""trial"",""time""
""blur"",""2"",""5829""
""focus"",""2"",""6802""
""fullscreenenter"",""5"",""14619""
","""event"",""trial"",""time""
""blur"",""2"",""5829""
","""event"",""trial"",""time""
""focus"",""2"",""6802""
","""event"",""trial"",""time""
""fullscreenenter"",""5"",""14619""
","
","680","audio/quiz/Q2_Correct.wav","32","","","","","","","","","","","","","","","","","","",""
"instructions-quiz","132","425169","0.0-73.0","286","660","18","Male","false","false","false","true","""event"",""trial"",""time""
""blur"",""2"",""5829""
""focus"",""2"",""6802""
""fullscreenenter"",""5"",""14619""
","""event"",""trial"",""time""
""blur"",""2"",""5829""
","""event"",""trial"",""time""
""focus"",""2"",""6802""
","""event"",""trial"",""time""
""fullscreenenter"",""5"",""14619""
","
","1947","audio/quiz/Q3_Prompt.wav","","1","","","","","","","","","","","","","","","","","",""
"audio-keyboard-response","133","425753","0.0-74.0","286","660","18","Male","false","false","false","true","""event"",""trial"",""time""
""blur"",""2"",""5829""
""focus"",""2"",""6802""
""fullscreenenter"",""5"",""14619""
","""event"",""trial"",""time""
""blur"",""2"",""5829""
","""event"",""trial"",""time""
""focus"",""2"",""6802""
","""event"",""trial"",""time""
""fullscreenenter"",""5"",""14619""
","
","579","audio/quiz/Q3_Correct.wav","32","","","","","","","","","","","","","","","","","","",""
"d3-instructions","134","431594","0.0-75.0","286","660","18","Male","false","false","false","true","""event"",""trial"",""time""
""blur"",""2"",""5829""
""focus"",""2"",""6802""
""fullscreenenter"",""5"",""14619""
","""event"",""trial"",""time""
""blur"",""2"",""5829""
","""event"",""trial"",""time""
""focus"",""2"",""6802""
","""event"",""trial"",""time""
""fullscreenenter"",""5"",""14619""
","
","","","","","","","","","","","","","","","","","","","","","",""
"d3-animate-choice","135","434488","0.0-76.0-0.0","286","660","18","Male","false","false","false","true","""event"",""trial"",""time""
""blur"",""2"",""5829""
""focus"",""2"",""6802""
""fullscreenenter"",""5"",""14619""
","""event"",""trial"",""time""
""blur"",""2"",""5829""
","""event"",""trial"",""time""
""focus"",""2"",""6802""
","""event"",""trial"",""time""
""fullscreenenter"",""5"",""14619""
","
","889","","49","","","3000","1","","","images/earth.jpg","images/rocket1","images/rocket2","null","images/rocket2","","1","real","null","1","","",""
"d3-animate-choice","136","436998","0.0-76.0-1.0","286","660","18","Male","false","false","false","true","""event"",""trial"",""time""
""blur"",""2"",""5829""
""focus"",""2"",""6802""
""fullscreenenter"",""5"",""14619""
","""event"",""trial"",""time""
""blur"",""2"",""5829""
","""event"",""trial"",""time""
""focus"",""2"",""6802""
","""event"",""trial"",""time""
""fullscreenenter"",""5"",""14619""
","
","500","","49","","","3000","1","","","images/redplanet1.jpg","images/alien2","images/alien1","images/rocket2","images/alien1","images/t.png","2","real","true","1","common","1","2022-02-05 21:38:59.715"
"two-step-fixation","137","437999","0.0-76.0-2.0","286","660","18","Male","false","false","false","true","""event"",""trial"",""time""
""blur"",""2"",""5829""
""focus"",""2"",""6802""
""fullscreenenter"",""5"",""14619""
","""event"",""trial"",""time""
""blur"",""2"",""5829""
","""event"",""trial"",""time""
""focus"",""2"",""6802""
","""event"",""trial"",""time""
""fullscreenenter"",""5"",""14619""
","
","","images/earth.jpg","","","","","","","","","","","","","","fixation","","","","","",""
"d3-animate-choice","138","440320","0.0-76.0-0.1","286","660","18","Male","false","false","false","true","""event"",""trial"",""time""
""blur"",""2"",""5829""
""focus"",""2"",""6802""
""fullscreenenter"",""5"",""14619""
","""event"",""trial"",""time""
""blur"",""2"",""5829""
","""event"",""trial"",""time""
""focus"",""2"",""6802""
","""event"",""trial"",""time""
""fullscreenenter"",""5"",""14619""
","
","312","","49","","","3000","1","","","images/earth.jpg","images/rocket1","images/rocket2","null","images/rocket2","","1","real","null","1","","",""
"d3-animate-choice","139","442580","0.0-76.0-1.1","286","660","18","Male","false","false","false","true","""event"",""trial"",""time""
""blur"",""2"",""5829""
""focus"",""2"",""6802""
""fullscreenenter"",""5"",""14619""
","""event"",""trial"",""time""
""blur"",""2"",""5829""
","""event"",""trial"",""time""
""focus"",""2"",""6802""
","""event"",""trial"",""time""
""fullscreenenter"",""5"",""14619""
","
","256","","49","","","3000","1","","","images/redplanet1.jpg","images/alien2","images/alien1","images/rocket2","images/alien1","images/nothing.png","2","real","true","1","common","0","2022-02-05 21:39:05.297"
"two-step-fixation","140","443596","0.0-76.0-2.1","286","660","18","Male","false","false","false","true","""event"",""trial"",""time""
""blur"",""2"",""5829""
""focus"",""2"",""6802""
""fullscreenenter"",""5"",""14619""
","""event"",""trial"",""time""
""blur"",""2"",""5829""
","""event"",""trial"",""time""
""focus"",""2"",""6802""
","""event"",""trial"",""time""
""fullscreenenter"",""5"",""14619""
","
","","images/earth.jpg","","","","","","","","","","","","","","fixation","","","","","",""
"d3-animate-choice","141","445851","0.0-76.0-0.2","286","660","18","Male","false","false","false","true","""event"",""trial"",""time""
""blur"",""2"",""5829""
""focus"",""2"",""6802""
""fullscreenenter"",""5"",""14619""
","""event"",""trial"",""time""
""blur"",""2"",""5829""
","""event"",""trial"",""time""
""focus"",""2"",""6802""
","""event"",""trial"",""time""
""fullscreenenter"",""5"",""14619""
","
","250","","49","","","3000","1","","","images/earth.jpg","images/rocket1","images/rocket2","null","images/rocket2","","1","real","null","1","","",""
"d3-animate-choice","142","448475","0.0-76.0-1.2","286","660","18","Male","false","false","false","true","""event"",""trial"",""time""
""blur"",""2"",""5829""
""focus"",""2"",""6802""
""fullscreenenter"",""5"",""14619""
","""event"",""trial"",""time""
""blur"",""2"",""5829""
","""event"",""trial"",""time""
""focus"",""2"",""6802""
","""event"",""trial"",""time""
""fullscreenenter"",""5"",""14619""
","
","608","","49","","","3000","1","","","images/purpleplanet.jpg","images/alien4","images/alien3","images/rocket2","images/alien3","images/nothing.png","2","real","false","1","rare","0","2022-02-05 21:39:11.192"
"two-step-fixation","143","449484","0.0-76.0-2.2","286","660","18","Male","false","false","false","true","""event"",""trial"",""time""
""blur"",""2"",""5829""
""focus"",""2"",""6802""
""fullscreenenter"",""5"",""14619""
","""event"",""trial"",""time""
""blur"",""2"",""5829""
","""event"",""trial"",""time""
""focus"",""2"",""6802""
","""event"",""trial"",""time""
""fullscreenenter"",""5"",""14619""
","
","","images/earth.jpg","","","","","","","","","","","","","","fixation","","","","","",""
"d3-animate-choice","144","451699","0.0-76.0-0.3","286","660","18","Male","false","false","false","true","""event"",""trial"",""time""
""blur"",""2"",""5829""
""focus"",""2"",""6802""
""fullscreenenter"",""5"",""14619""
","""event"",""trial"",""time""
""blur"",""2"",""5829""
","""event"",""trial"",""time""
""focus"",""2"",""6802""
","""event"",""trial"",""time""
""fullscreenenter"",""5"",""14619""
","
","197","","49","","","3000","1","","","images/earth.jpg","images/rocket1","images/rocket2","null","images/rocket2","","1","real","null","1","","",""
"d3-animate-choice","145","454031","0.0-76.0-1.3","286","660","18","Male","false","false","false","true","""event"",""trial"",""time""
""blur"",""2"",""5829""
""focus"",""2"",""6802""
""fullscreenenter"",""5"",""14619""
","""event"",""trial"",""time""
""blur"",""2"",""5829""
","""event"",""trial"",""time""
""focus"",""2"",""6802""
","""event"",""trial"",""time""
""fullscreenenter"",""5"",""14619""
","
","317","","48","","","3000","1","","","images/redplanet1.jpg","images/alien2","images/alien1","images/rocket2","images/alien2","images/nothing.png","2","real","true","2","common","0","2022-02-05 21:39:16.748"
"two-step-fixation","146","455034","0.0-76.0-2.3","286","660","18","Male","false","false","false","true","""event"",""trial"",""time""
""blur"",""2"",""5829""
""focus"",""2"",""6802""
""fullscreenenter"",""5"",""14619""
","""event"",""trial"",""time""
""blur"",""2"",""5829""
","""event"",""trial"",""time""
""focus"",""2"",""6802""
","""event"",""trial"",""time""
""fullscreenenter"",""5"",""14619""
","
","","images/earth.jpg","","","","","","","","","","","","","","fixation","","","","","",""
"d3-animate-choice","147","457122","0.0-76.0-0.4","286","660","18","Male","false","false","false","true","""event"",""trial"",""time""
""blur"",""2"",""5829""
""focus"",""2"",""6802""
""fullscreenenter"",""5"",""14619""
","""event"",""trial"",""time""
""blur"",""2"",""5829""
","""event"",""trial"",""time""
""focus"",""2"",""6802""
","""event"",""trial"",""time""
""fullscreenenter"",""5"",""14619""
","
","74","","49","","","3000","1","296","49","images/earth.jpg","images/rocket1","images/rocket2","null","images/rocket2","","1","real","null","1","","",""
"d3-animate-choice","148","459360","0.0-76.0-1.4","286","660","18","Male","false","false","false","true","""event"",""trial"",""time""
""blur"",""2"",""5829""
""focus"",""2"",""6802""
""fullscreenenter"",""5"",""14619""
","""event"",""trial"",""time""
""blur"",""2"",""5829""
","""event"",""trial"",""time""
""focus"",""2"",""6802""
","""event"",""trial"",""time""
""fullscreenenter"",""5"",""14619""
","
","235","","49","","","3000","1","","","images/purpleplanet.jpg","images/alien4","images/alien3","images/rocket2","images/alien3","images/nothing.png","2","real","false","1","rare","0","2022-02-05 21:39:22.077"
"two-step-fixation","149","460374","0.0-76.0-2.4","286","660","18","Male","false","false","false","true","""event"",""trial"",""time""
""blur"",""2"",""5829""
""focus"",""2"",""6802""
""fullscreenenter"",""5"",""14619""
","""event"",""trial"",""time""
""blur"",""2"",""5829""
","""event"",""trial"",""time""
""focus"",""2"",""6802""
","""event"",""trial"",""time""
""fullscreenenter"",""5"",""14619""
","
","","images/earth.jpg","","","","","","","","","","","","","","fixation","","","","","",""
"d3-animate-choice","150","462390","0.0-76.0-0.5","286","660","18","Male","false","false","false","true","""event"",""trial"",""time""
""blur"",""2"",""5829""
""focus"",""2"",""6802""
""fullscreenenter"",""5"",""14619""
","""event"",""trial"",""time""
""blur"",""2"",""5829""
","""event"",""trial"",""time""
""focus"",""2"",""6802""
","""event"",""trial"",""time""
""fullscreenenter"",""5"",""14619""
","
","5","","49","","","3000","1","","","images/earth.jpg","images/rocket1","images/rocket2","null","images/rocket2","","1","real","null","1","","",""
"d3-animate-choice","151","464985","0.0-76.0-1.5","286","660","18","Male","false","false","false","true","""event"",""trial"",""time""
""blur"",""2"",""5829""
""focus"",""2"",""6802""
""fullscreenenter"",""5"",""14619""
","""event"",""trial"",""time""
""blur"",""2"",""5829""
","""event"",""trial"",""time""
""focus"",""2"",""6802""
","""event"",""trial"",""time""
""fullscreenenter"",""5"",""14619""
","
","588","","49","","","3000","1","","","images/redplanet1.jpg","images/alien2","images/alien1","images/rocket2","images/alien1","images/nothing.png","2","real","true","1","common","0","2022-02-05 21:39:27.702"
"two-step-fixation","152","465997","0.0-76.0-2.5","286","660","18","Male","false","false","false","true","""event"",""trial"",""time""
""blur"",""2"",""5829""
""focus"",""2"",""6802""
""fullscreenenter"",""5"",""14619""
","""event"",""trial"",""time""
""blur"",""2"",""5829""
","""event"",""trial"",""time""
""focus"",""2"",""6802""
","""event"",""trial"",""time""
""fullscreenenter"",""5"",""14619""
","
","","images/earth.jpg","","","","","","","","","","","","","","fixation","","","","","",""
"d3-animate-choice","153","468078","0.0-76.0-0.6","286","660","18","Male","false","false","false","true","""event"",""trial"",""time""
""blur"",""2"",""5829""
""focus"",""2"",""6802""
""fullscreenenter"",""5"",""14619""
","""event"",""trial"",""time""
""blur"",""2"",""5829""
","""event"",""trial"",""time""
""focus"",""2"",""6802""
","""event"",""trial"",""time""
""fullscreenenter"",""5"",""14619""
","
","78","","48","","","3000","1","","","images/earth.jpg","images/rocket1","images/rocket2","null","images/rocket1","","1","real","null","2","","",""
"d3-animate-choice","154","470332","0.0-76.0-1.6","286","660","18","Male","false","false","false","true","""event"",""trial"",""time""
""blur"",""2"",""5829""
""focus"",""2"",""6802""
""fullscreenenter"",""5"",""14619""
","""event"",""trial"",""time""
""blur"",""2"",""5829""
","""event"",""trial"",""time""
""focus"",""2"",""6802""
","""event"",""trial"",""time""
""fullscreenenter"",""5"",""14619""
","
","239","","48","","","3000","1","","","images/purpleplanet.jpg","images/alien4","images/alien3","images/rocket1","images/alien4","images/t.png","2","real","true","2","common","1","2022-02-05 21:39:33.049"
"two-step-fixation","155","471341","0.0-76.0-2.6","286","660","18","Male","false","false","false","true","""event"",""trial"",""time""
""blur"",""2"",""5829""
""focus"",""2"",""6802""
""fullscreenenter"",""5"",""14619""
","""event"",""trial"",""time""
""blur"",""2"",""5829""
","""event"",""trial"",""time""
""focus"",""2"",""6802""
","""event"",""trial"",""time""
""fullscreenenter"",""5"",""14619""
","
","","images/earth.jpg","","","","","","","","","","","","","","fixation","","","","","",""
"d3-animate-choice","156","473532","0.0-76.0-0.7","286","660","18","Male","false","false","false","true","""event"",""trial"",""time""
""blur"",""2"",""5829""
""focus"",""2"",""6802""
""fullscreenenter"",""5"",""14619""
","""event"",""trial"",""time""
""blur"",""2"",""5829""
","""event"",""trial"",""time""
""focus"",""2"",""6802""
","""event"",""trial"",""time""
""fullscreenenter"",""5"",""14619""
","
","181","","48","","","3000","1","","","images/earth.jpg","images/rocket1","images/rocket2","null","images/rocket1","","1","real","null","2","","",""
"d3-animate-choice","157","475786","0.0-76.0-1.7","286","660","18","Male","false","false","false","true","""event"",""trial"",""time""
""blur"",""2"",""5829""
""focus"",""2"",""6802""
""fullscreenenter"",""5"",""14619""
","""event"",""trial"",""time""
""blur"",""2"",""5829""
","""event"",""trial"",""time""
""focus"",""2"",""6802""
","""event"",""trial"",""time""
""fullscreenenter"",""5"",""14619""
","
","245","","48","","","3000","1","","","images/purpleplanet.jpg","images/alien4","images/alien3","images/rocket1","images/alien4","images/t.png","2","real","true","2","common","1","2022-02-05 21:39:38.503"
"two-step-fixation","158","476791","0.0-76.0-2.7","286","660","18","Male","false","false","false","true","""event"",""trial"",""time""
""blur"",""2"",""5829""
""focus"",""2"",""6802""
""fullscreenenter"",""5"",""14619""
","""event"",""trial"",""time""
""blur"",""2"",""5829""
","""event"",""trial"",""time""
""focus"",""2"",""6802""
","""event"",""trial"",""time""
""fullscreenenter"",""5"",""14619""
","
","","images/earth.jpg","","","","","","","","","","","","","","fixation","","","","","",""
"d3-animate-choice","159","478993","0.0-76.0-0.8","286","660","18","Male","false","false","false","true","""event"",""trial"",""time""
""blur"",""2"",""5829""
""focus"",""2"",""6802""
""fullscreenenter"",""5"",""14619""
","""event"",""trial"",""time""
""blur"",""2"",""5829""
","""event"",""trial"",""time""
""focus"",""2"",""6802""
","""event"",""trial"",""time""
""fullscreenenter"",""5"",""14619""
","
","192","","48","","","3000","1","","","images/earth.jpg","images/rocket1","images/rocket2","null","images/rocket1","","1","real","null","2","","",""
"d3-animate-choice","160","481205","0.0-76.0-1.8","286","660","18","Male","false","false","false","true","""event"",""trial"",""time""
""blur"",""2"",""5829""
""focus"",""2"",""6802""
""fullscreenenter"",""5"",""14619""
","""event"",""trial"",""time""
""blur"",""2"",""5829""
","""event"",""trial"",""time""
""focus"",""2"",""6802""
","""event"",""trial"",""time""
""fullscreenenter"",""5"",""14619""
","
","209","","48","","","3000","1","","","images/purpleplanet.jpg","images/alien4","images/alien3","images/rocket1","images/alien4","images/nothing.png","2","real","true","2","common","0","2022-02-05 21:39:43.922"
"two-step-fixation","161","482208","0.0-76.0-2.8","286","660","18","Male","false","false","false","true","""event"",""trial"",""time""
""blur"",""2"",""5829""
""focus"",""2"",""6802""
""fullscreenenter"",""5"",""14619""
","""event"",""trial"",""time""
""blur"",""2"",""5829""
","""event"",""trial"",""time""
""focus"",""2"",""6802""
","""event"",""trial"",""time""
""fullscreenenter"",""5"",""14619""
","
","","images/earth.jpg","","","","","","","","","","","","","","fixation","","","","","",""
"d3-animate-choice","162","484295","0.0-76.0-0.9","286","660","18","Male","false","false","false","true","""event"",""trial"",""time""
""blur"",""2"",""5829""
""focus"",""2"",""6802""
""fullscreenenter"",""5"",""14619""
","""event"",""trial"",""time""
""blur"",""2"",""5829""
","""event"",""trial"",""time""
""focus"",""2"",""6802""
","""event"",""trial"",""time""
""fullscreenenter"",""5"",""14619""
","
","78","","48","","","3000","1","","","images/earth.jpg","images/rocket1","images/rocket2","null","images/rocket1","","1","real","null","2","","",""
"d3-animate-choice","163","486481","0.0-76.0-1.9","286","660","18","Male","false","false","false","true","""event"",""trial"",""time""
""blur"",""2"",""5829""
""focus"",""2"",""6802""
""fullscreenenter"",""5"",""14619""
","""event"",""trial"",""time""
""blur"",""2"",""5829""
","""event"",""trial"",""time""
""focus"",""2"",""6802""
","""event"",""trial"",""time""
""fullscreenenter"",""5"",""14619""
","
","180","","48","","","3000","1","","","images/purpleplanet.jpg","images/alien4","images/alien3","images/rocket1","images/alien4","images/t.png","2","real","true","2","common","1","2022-02-05 21:39:49.198"
"two-step-fixation","164","487485","0.0-76.0-2.9","286","660","18","Male","false","false","false","true","""event"",""trial"",""time""
""blur"",""2"",""5829""
""focus"",""2"",""6802""
""fullscreenenter"",""5"",""14619""
","""event"",""trial"",""time""
""blur"",""2"",""5829""
","""event"",""trial"",""time""
""focus"",""2"",""6802""
","""event"",""trial"",""time""
""fullscreenenter"",""5"",""14619""
","
","","images/earth.jpg","","","","","","","","","","","","","","fixation","","","","","",""
"d3-animate-choice","165","489667","0.0-76.0-0.10","286","660","18","Male","false","false","false","true","""event"",""trial"",""time""
""blur"",""2"",""5829""
""focus"",""2"",""6802""
""fullscreenenter"",""5"",""14619""
","""event"",""trial"",""time""
""blur"",""2"",""5829""
","""event"",""trial"",""time""
""focus"",""2"",""6802""
","""event"",""trial"",""time""
""fullscreenenter"",""5"",""14619""
","
","171","","48","","","3000","1","","","images/earth.jpg","images/rocket1","images/rocket2","null","images/rocket1","","1","real","null","2","","",""
"d3-animate-choice","166","491914","0.0-76.0-1.10","286","660","18","Male","false","false","false","true","""event"",""trial"",""time""
""blur"",""2"",""5829""
""focus"",""2"",""6802""
""fullscreenenter"",""5"",""14619""
","""event"",""trial"",""time""
""blur"",""2"",""5829""
","""event"",""trial"",""time""
""focus"",""2"",""6802""
","""event"",""trial"",""time""
""fullscreenenter"",""5"",""14619""
","
","230","","48","","","3000","1","","","images/redplanet1.jpg","images/alien2","images/alien1","images/rocket1","images/alien2","images/t.png","2","real","false","2","rare","1","2022-02-05 21:39:54.631"
"two-step-fixation","167","492923","0.0-76.0-2.10","286","660","18","Male","false","false","false","true","""event"",""trial"",""time""
""blur"",""2"",""5829""
""focus"",""2"",""6802""
""fullscreenenter"",""5"",""14619""
","""event"",""trial"",""time""
""blur"",""2"",""5829""
","""event"",""trial"",""time""
""focus"",""2"",""6802""
","""event"",""trial"",""time""
""fullscreenenter"",""5"",""14619""
","
","","images/earth.jpg","","","","","","","","","","","","","","fixation","","","","","",""
"d3-animate-choice","168","495122","0.0-76.0-0.11","286","660","18","Male","false","false","false","true","""event"",""trial"",""time""
""blur"",""2"",""5829""
""focus"",""2"",""6802""
""fullscreenenter"",""5"",""14619""
","""event"",""trial"",""time""
""blur"",""2"",""5829""
","""event"",""trial"",""time""
""focus"",""2"",""6802""
","""event"",""trial"",""time""
""fullscreenenter"",""5"",""14619""
","
","193","","48","","","3000","1","","","images/earth.jpg","images/rocket1","images/rocket2","null","images/rocket1","","1","real","null","2","","",""
"d3-animate-choice","169","497407","0.0-76.0-1.11","286","660","18","Male","false","false","false","true","""event"",""trial"",""time""
""blur"",""2"",""5829""
""focus"",""2"",""6802""
""fullscreenenter"",""5"",""14619""
","""event"",""trial"",""time""
""blur"",""2"",""5829""
","""event"",""trial"",""time""
""focus"",""2"",""6802""
","""event"",""trial"",""time""
""fullscreenenter"",""5"",""14619""
","
","283","","48","","","3000","1","","","images/purpleplanet.jpg","images/alien4","images/alien3","images/rocket1","images/alien4","images/nothing.png","2","real","true","2","common","0","2022-02-05 21:40:00.125"
"two-step-fixation","170","498419","0.0-76.0-2.11","286","660","18","Male","false","false","false","true","""event"",""trial"",""time""
""blur"",""2"",""5829""
""focus"",""2"",""6802""
""fullscreenenter"",""5"",""14619""
","""event"",""trial"",""time""
""blur"",""2"",""5829""
","""event"",""trial"",""time""
""focus"",""2"",""6802""
","""event"",""trial"",""time""
""fullscreenenter"",""5"",""14619""
","
","","images/earth.jpg","","","","","","","","","","","","","","fixation","","","","","",""
"d3-animate-choice","171","500680","0.0-76.0-0.12","286","660","18","Male","false","false","false","true","""event"",""trial"",""time""
""blur"",""2"",""5829""
""focus"",""2"",""6802""
""fullscreenenter"",""5"",""14619""
","""event"",""trial"",""time""
""blur"",""2"",""5829""
","""event"",""trial"",""time""
""focus"",""2"",""6802""
","""event"",""trial"",""time""
""fullscreenenter"",""5"",""14619""
","
","246","","48","","","3000","1","","","images/earth.jpg","images/rocket1","images/rocket2","null","images/rocket1","","1","real","null","2","","",""
"d3-animate-choice","172","502955","0.0-76.0-1.12","286","660","18","Male","false","false","false","true","""event"",""trial"",""time""
""blur"",""2"",""5829""
""focus"",""2"",""6802""
""fullscreenenter"",""5"",""14619""
","""event"",""trial"",""time""
""blur"",""2"",""5829""
","""event"",""trial"",""time""
""focus"",""2"",""6802""
","""event"",""trial"",""time""
""fullscreenenter"",""5"",""14619""
","
","259","","48","","","3000","1","","","images/purpleplanet.jpg","images/alien4","images/alien3","images/rocket1","images/alien4","images/t.png","2","real","true","2","common","1","2022-02-05 21:40:05.673"
"two-step-fixation","173","503970","0.0-76.0-2.12","286","660","18","Male","false","false","false","true","""event"",""trial"",""time""
""blur"",""2"",""5829""
""focus"",""2"",""6802""
""fullscreenenter"",""5"",""14619""
","""event"",""trial"",""time""
""blur"",""2"",""5829""
","""event"",""trial"",""time""
""focus"",""2"",""6802""
","""event"",""trial"",""time""
""fullscreenenter"",""5"",""14619""
","
","","images/earth.jpg","","","","","","","","","","","","","","fixation","","","","","",""
"d3-animate-choice","174","506078","0.0-76.0-0.13","286","660","18","Male","false","false","false","true","""event"",""trial"",""time""
""blur"",""2"",""5829""
""focus"",""2"",""6802""
""fullscreenenter"",""5"",""14619""
","""event"",""trial"",""time""
""blur"",""2"",""5829""
","""event"",""trial"",""time""
""focus"",""2"",""6802""
","""event"",""trial"",""time""
""fullscreenenter"",""5"",""14619""
","
","104","","48","","","3000","1","333,2034","48,48","images/earth.jpg","images/rocket1","images/rocket2","null","images/rocket1","","1","real","null","2","","",""
"d3-animate-choice","175","508268","0.0-76.0-1.13","286","660","18","Male","false","false","false","true","""event"",""trial"",""time""
""blur"",""2"",""5829""
""focus"",""2"",""6802""
""fullscreenenter"",""5"",""14619""
","""event"",""trial"",""time""
""blur"",""2"",""5829""
","""event"",""trial"",""time""
""focus"",""2"",""6802""
","""event"",""trial"",""time""
""fullscreenenter"",""5"",""14619""
","
","188","","48","","","3000","1","441","48","images/purpleplanet.jpg","images/alien4","images/alien3","images/rocket1","images/alien4","images/t.png","2","real","true","2","common","1","2022-02-05 21:40:10.985"
"two-step-fixation","176","509279","0.0-76.0-2.13","286","660","18","Male","false","false","false","true","""event"",""trial"",""time""
""blur"",""2"",""5829""
""focus"",""2"",""6802""
""fullscreenenter"",""5"",""14619""
","""event"",""trial"",""time""
""blur"",""2"",""5829""
","""event"",""trial"",""time""
""focus"",""2"",""6802""
","""event"",""trial"",""time""
""fullscreenenter"",""5"",""14619""
","
","","images/earth.jpg","","","","","","","","","","","","","","fixation","","","","","",""
"d3-animate-choice","177","511391","0.0-76.0-0.14","286","660","18","Male","false","false","false","true","""event"",""trial"",""time""
""blur"",""2"",""5829""
""focus"",""2"",""6802""
""fullscreenenter"",""5"",""14619""
","""event"",""trial"",""time""
""blur"",""2"",""5829""
","""event"",""trial"",""time""
""focus"",""2"",""6802""
","""event"",""trial"",""time""
""fullscreenenter"",""5"",""14619""
","
","111","","48","","","3000","1","350","48","images/earth.jpg","images/rocket1","images/rocket2","null","images/rocket1","","1","real","null","2","","",""
"d3-animate-choice","178","513630","0.0-76.0-1.14","286","660","18","Male","false","false","false","true","""event"",""trial"",""time""
""blur"",""2"",""5829""
""focus"",""2"",""6802""
""fullscreenenter"",""5"",""14619""
","""event"",""trial"",""time""
""blur"",""2"",""5829""
","""event"",""trial"",""time""
""focus"",""2"",""6802""
","""event"",""trial"",""time""
""fullscreenenter"",""5"",""14619""
","
","231","","48","","","3000","1","","","images/purpleplanet.jpg","images/alien4","images/alien3","images/rocket1","images/alien4","images/t.png","2","real","true","2","common","1","2022-02-05 21:40:16.347"
"two-step-fixation","179","514632","0.0-76.0-2.14","286","660","18","Male","false","false","false","true","""event"",""trial"",""time""
""blur"",""2"",""5829""
""focus"",""2"",""6802""
""fullscreenenter"",""5"",""14619""
","""event"",""trial"",""time""
""blur"",""2"",""5829""
","""event"",""trial"",""time""
""focus"",""2"",""6802""
","""event"",""trial"",""time""
""fullscreenenter"",""5"",""14619""
","
","","images/earth.jpg","","","","","","","","","","","","","","fixation","","","","","",""
"d3-animate-choice","180","516827","0.0-76.0-0.15","286","660","18","Male","false","false","false","true","""event"",""trial"",""time""
""blur"",""2"",""5829""
""focus"",""2"",""6802""
""fullscreenenter"",""5"",""14619""
","""event"",""trial"",""time""
""blur"",""2"",""5829""
","""event"",""trial"",""time""
""focus"",""2"",""6802""
","""event"",""trial"",""time""
""fullscreenenter"",""5"",""14619""
","
","181","","48","","","3000","1","407,2045","48,48","images/earth.jpg","images/rocket1","images/rocket2","null","images/rocket1","","1","real","null","2","","",""
"d3-animate-choice","181","518875","0.0-76.0-1.15","286","660","18","Male","false","false","false","true","""event"",""trial"",""time""
""blur"",""2"",""5829""
""focus"",""2"",""6802""
""fullscreenenter"",""5"",""14619""
","""event"",""trial"",""time""
""blur"",""2"",""5829""
","""event"",""trial"",""time""
""focus"",""2"",""6802""
