"trial_type","trial_index","time_elapsed","internal_node_id","participant_id","subject_id","age","gender","rocket_sides","red_planet_first_rocket","red_display_order","purple_display_order","interactions","blur_events","focus_events","fullscreenenter_events","fullscreenexit_events","rt","stimulus","key_press","button_pressed","success","duration","valid_pressed","rts","keys","planet_text","right_text","left_text","center_text","chosen_text","reward_text","trial_stage","practice_trial","transition_type","choice","transition","reward","timestamp"
"pavlovia","0","9","0.0-0.0","71","650","17","Female","true","false","true","false","
","
","
","
","
","","","","","","","","","","","","","","","","","","","","","",""
"html-keyboard-response","1","1516","0.0-1.0","71","650","17","Female","true","false","true","false","
","
","
","
","
","1504.1000000089407","Welcome! Press the space bar to begin.","32","","","","","","","","","","","","","","","","","","",""
"audio-keyboard-response","2","4263","0.0-2.0","71","650","17","Female","true","false","true","false","
","
","
","
","
","2624","audio/beep_loop.wav","32","","","","","","","","","","","","","","","","","","",""
"audio-button-response","3","6599","0.0-3.0","71","650","17","Female","true","false","true","false","
","
","
","
","
","NaN","audio/fish.mp3","","1","","","","","","","","","","","","","","","","","",""
"audio-button-response","4","9505","0.0-4.0","71","650","17","Female","true","false","true","false","""event"",""trial"",""time""
""fullscreenenter"",""5"",""11906""
","
","
","""event"",""trial"",""time""
""fullscreenenter"",""5"",""11906""
","
","NaN","audio/tiger.mp3","","4","","","","","","","","","","","","","","","","","",""
"fullscreen","5","12900","0.0-5.0","71","650","17","Female","true","false","true","false","""event"",""trial"",""time""
""fullscreenenter"",""5"",""11906""
","
","
","""event"",""trial"",""time""
""fullscreenenter"",""5"",""11906""
","
","","","","","true","","","","","","","","","","","","","","","","",""
"d3-instructions","6","26027","0.0-6.0","71","650","17","Female","true","false","true","false","""event"",""trial"",""time""
""fullscreenenter"",""5"",""11906""
","
","
","""event"",""trial"",""time""
""fullscreenenter"",""5"",""11906""
","
","","","","","","","","","","","","","","","","","","","","","",""
"d3-instructions","7","33803","0.0-7.0","71","650","17","Female","true","false","true","false","""event"",""trial"",""time""
""fullscreenenter"",""5"",""11906""
","
","
","""event"",""trial"",""time""
""fullscreenenter"",""5"",""11906""
","
","","","","","","","","","","","","","","","","","","","","","",""
"d3-instructions","8","40377","0.0-8.0","71","650","17","Female","true","false","true","false","""event"",""trial"",""time""
""fullscreenenter"",""5"",""11906""
","
","
","""event"",""trial"",""time""
""fullscreenenter"",""5"",""11906""
","
","","","","","","","","","","","","","","","","","","","","","",""
"d3-instructions","9","51056","0.0-9.0","71","650","17","Female","true","false","true","false","""event"",""trial"",""time""
""fullscreenenter"",""5"",""11906""
","
","
","""event"",""trial"",""time""
""fullscreenenter"",""5"",""11906""
","
","","","","","","","","","","","","","","","","","","","","","",""
"d3-instructions","10","72174","0.0-10.0","71","650","17","Female","true","false","true","false","""event"",""trial"",""time""
""fullscreenenter"",""5"",""11906""
","
","
","""event"",""trial"",""time""
""fullscreenenter"",""5"",""11906""
","
","","","","","","","","","","","","","","","","","","","","","",""
"d3-animate-choice","11","76303","0.0-11.0","71","650","17","Female","true","false","true","false","""event"",""trial"",""time""
""fullscreenenter"",""5"",""11906""
","
","
","""event"",""trial"",""time""
""fullscreenenter"",""5"",""11906""
","
","2121.5","","49","","","3000","1","2664.0999999940395","48","images/tutgreenplanet.jpg","images/tutalien1","images/tutalien2","null","images/tutalien2","","NA","practice","null","","","",""
"d3-animate-choice","12","78976","0.0-12.0","71","650","17","Female","true","false","true","false","""event"",""trial"",""time""
""fullscreenenter"",""5"",""11906""
","
","
","""event"",""trial"",""time""
""fullscreenenter"",""5"",""11906""
","
","667.6999999880791","","48","","","3000","1","","","images/tutgreenplanet.jpg","images/tutalien1","images/tutalien2","null","images/tutalien1","","NA","practice","null","","","",""
"d3-animate-choice","13","81770","0.0-13.0","71","650","17","Female","true","false","true","false","""event"",""trial"",""time""
""fullscreenenter"",""5"",""11906""
","
","
","""event"",""trial"",""time""
""fullscreenenter"",""5"",""11906""
","
","790","","49","","","3000","1","","","images/tutgreenplanet.jpg","images/tutalien1","images/tutalien2","null","images/tutalien2","","NA","practice","null","","","",""
"d3-animate-choice","14","84014","0.0-14.0","71","650","17","Female","true","false","true","false","""event"",""trial"",""time""
""fullscreenenter"",""5"",""11906""
","
","
","""event"",""trial"",""time""
""fullscreenenter"",""5"",""11906""
","
","240.6000000089407","","49","","","3000","1","","","images/tutgreenplanet.jpg","images/tutalien1","images/tutalien2","null","images/tutalien2","","NA","practice","null","","","",""
"d3-instructions","15","93433","0.0-15.0","71","650","17","Female","true","false","true","false","""event"",""trial"",""time""
""fullscreenenter"",""5"",""11906""
","
","
","""event"",""trial"",""time""
""fullscreenenter"",""5"",""11906""
","
","","","","","","","","","","","","","","","","","","","","","",""
"d3-instructions","16","100337","0.0-16.0","71","650","17","Female","true","false","true","false","""event"",""trial"",""time""
""fullscreenenter"",""5"",""11906""
","
","
","""event"",""trial"",""time""
""fullscreenenter"",""5"",""11906""
","
","","","","","","","","","","","","","","","","","","","","","",""
"d3-instructions","17","108734","0.0-17.0","71","650","17","Female","true","false","true","false","""event"",""trial"",""time""
""fullscreenenter"",""5"",""11906""
","
","
","""event"",""trial"",""time""
""fullscreenenter"",""5"",""11906""
","
","","","","","","","","","","","","","","","","","","","","","",""
"d3-instructions","18","121368","0.0-18.0","71","650","17","Female","true","false","true","false","""event"",""trial"",""time""
""fullscreenenter"",""5"",""11906""
","
","
","""event"",""trial"",""time""
""fullscreenenter"",""5"",""11906""
","
","","","","","","","","","","","","","","","","","","","","","",""
"d3-instructions","19","135796","0.0-19.0","71","650","17","Female","true","false","true","false","""event"",""trial"",""time""
""fullscreenenter"",""5"",""11906""
","
","
","""event"",""trial"",""time""
""fullscreenenter"",""5"",""11906""
","
","","","","","","","","","","","","","","","","","","","","","",""
"d3-animate-choice","20","138226","0.0-20.0","71","650","17","Female","true","false","true","false","""event"",""trial"",""time""
""fullscreenenter"",""5"",""11906""
","
","
","""event"",""trial"",""time""
""fullscreenenter"",""5"",""11906""
","
","425.20000000298023","","49","","","3000","1","1062.9000000059605","49","images/tutyellowplanet.jpg","null","images/tutalien3","null","images/tutalien3","images/t.png","NA","practice","null","","","",""
"d3-animate-choice","21","140565","0.0-21.0","71","650","17","Female","true","false","true","false","""event"",""trial"",""time""
""fullscreenenter"",""5"",""11906""
","
","
","""event"",""trial"",""time""
""fullscreenenter"",""5"",""11906""
","
","336","","49","","","3000","1","","","images/tutyellowplanet.jpg","null","images/tutalien3","null","images/tutalien3","images/t.png","NA","practice","null","","","",""
"d3-animate-choice","22","142854","0.0-22.0","71","650","17","Female","true","false","true","false","""event"",""trial"",""time""
""fullscreenenter"",""5"",""11906""
","
","
","""event"",""trial"",""time""
""fullscreenenter"",""5"",""11906""
","
","285.1000000089407","","49","","","3000","1","","","images/tutyellowplanet.jpg","null","images/tutalien3","null","images/tutalien3","images/t.png","NA","practice","null","","","",""
"d3-animate-choice","23","145049","0.0-23.0","71","650","17","Female","true","false","true","false","""event"",""trial"",""time""
""fullscreenenter"",""5"",""11906""
","
","
","""event"",""trial"",""time""
""fullscreenenter"",""5"",""11906""
","
","192.29999999701977","","49","","","3000","1","","","images/tutyellowplanet.jpg","null","images/tutalien3","null","images/tutalien3","images/t.png","NA","practice","null","","","",""
"d3-animate-choice","24","147264","0.0-24.0","71","650","17","Female","true","false","true","false","""event"",""trial"",""time""
""fullscreenenter"",""5"",""11906""
","
","
","""event"",""trial"",""time""
""fullscreenenter"",""5"",""11906""
","
","211.20000000298023","","49","","","3000","1","","","images/tutyellowplanet.jpg","null","images/tutalien3","null","images/tutalien3","images/t.png","NA","practice","null","","","",""
"d3-animate-choice","25","149391","0.0-25.0","71","650","17","Female","true","false","true","false","""event"",""trial"",""time""
""fullscreenenter"",""5"",""11906""
","
","
","""event"",""trial"",""time""
""fullscreenenter"",""5"",""11906""
","
","123.5","","49","","","3000","1","","","images/tutyellowplanet.jpg","null","images/tutalien3","null","images/tutalien3","images/t.png","NA","practice","null","","","",""
"d3-animate-choice","26","151434","0.0-26.0","71","650","17","Female","true","false","true","false","""event"",""trial"",""time""
""fullscreenenter"",""5"",""11906""
","
","
","""event"",""trial"",""time""
""fullscreenenter"",""5"",""11906""
","
","39.70000000298023","","49","","","3000","1","","","images/tutyellowplanet.jpg","null","images/tutalien3","null","images/tutalien3","images/t.png","NA","practice","null","","","",""
"d3-animate-choice","27","153651","0.0-27.0","71","650","17","Female","true","false","true","false","""event"",""trial"",""time""
""fullscreenenter"",""5"",""11906""
","
","
","""event"",""trial"",""time""
""fullscreenenter"",""5"",""11906""
","
","213.90000000596046","","49","","","3000","1","","","images/tutyellowplanet.jpg","null","images/tutalien3","null","images/tutalien3","images/t.png","NA","practice","null","","","",""
"d3-animate-choice","28","155753","0.0-28.0","71","650","17","Female","true","false","true","false","""event"",""trial"",""time""
""fullscreenenter"",""5"",""11906""
","
","
","""event"",""trial"",""time""
""fullscreenenter"",""5"",""11906""
","
","96","","49","","","3000","1","","","images/tutyellowplanet.jpg","null","images/tutalien3","null","images/tutalien3","images/t.png","NA","practice","null","","","",""
"d3-animate-choice","29","157801","0.0-29.0","71","650","17","Female","true","false","true","false","""event"",""trial"",""time""
""fullscreenenter"",""5"",""11906""
","
","
","""event"",""trial"",""time""
""fullscreenenter"",""5"",""11906""
","
","42.900000005960464","","49","","","3000","1","","","images/tutyellowplanet.jpg","null","images/tutalien3","null","images/tutalien3","images/t.png","NA","practice","null","","","",""
"d3-instructions","30","166766","0.0-30.0","71","650","17","Female","true","false","true","false","""event"",""trial"",""time""
""fullscreenenter"",""5"",""11906""
","
","
","""event"",""trial"",""time""
""fullscreenenter"",""5"",""11906""
","
","","","","","","","","","","","","","","","","","","","","","",""
"d3-instructions","31","176998","0.0-31.0","71","650","17","Female","true","false","true","false","""event"",""trial"",""time""
""fullscreenenter"",""5"",""11906""
","
","
","""event"",""trial"",""time""
""fullscreenenter"",""5"",""11906""
","
","","","","","","","","","","","","","","","","","","","","","",""
"d3-instructions","32","184312","0.0-32.0","71","650","17","Female","true","false","true","false","""event"",""trial"",""time""
""fullscreenenter"",""5"",""11906""
","
","
","""event"",""trial"",""time""
""fullscreenenter"",""5"",""11906""
","
","","","","","","","","","","","","","","","","","","","","","",""
"d3-instructions","33","193558","0.0-33.0","71","650","17","Female","true","false","true","false","""event"",""trial"",""time""
""fullscreenenter"",""5"",""11906""
","
","
","""event"",""trial"",""time""
""fullscreenenter"",""5"",""11906""
","
","","","","","","","","","","","","","","","","","","","","","",""
"d3-animate-choice","34","196353","0.0-34.0","71","650","17","Female","true","false","true","false","""event"",""trial"",""time""
""fullscreenenter"",""5"",""11906""
","
","
","""event"",""trial"",""time""
""fullscreenenter"",""5"",""11906""
","
","790.0999999940395","","49","","","3000","1","","","images/tutgreenplanet.jpg","images/tutalien1","images/tutalien2","null","images/tutalien2","images/t.png","NA","practice","null","","","",""
"d3-animate-choice","35","198652","0.0-35.0","71","650","17","Female","true","false","true","false","""event"",""trial"",""time""
""fullscreenenter"",""5"",""11906""
","
","
","""event"",""trial"",""time""
""fullscreenenter"",""5"",""11906""
","
","295.29999999701977","","49","","","3000","1","","","images/tutgreenplanet.jpg","images/tutalien1","images/tutalien2","null","images/tutalien2","images/t.png","NA","practice","null","","","",""
"d3-animate-choice","36","200907","0.0-36.0","71","650","17","Female","true","false","true","false","""event"",""trial"",""time""
""fullscreenenter"",""5"",""11906""
","
","
","""event"",""trial"",""time""
""fullscreenenter"",""5"",""11906""
","
","248.8999999910593","","49","","","3000","1","","","images/tutgreenplanet.jpg","images/tutalien1","images/tutalien2","null","images/tutalien2","images/t.png","NA","practice","null","","","",""
"d3-animate-choice","37","203161","0.0-37.0","71","650","17","Female","true","false","true","false","""event"",""trial"",""time""
""fullscreenenter"",""5"",""11906""
","
","
","""event"",""trial"",""time""
""fullscreenenter"",""5"",""11906""
","
","250.6000000089407","","49","","","3000","1","","","images/tutgreenplanet.jpg","images/tutalien1","images/tutalien2","null","images/tutalien2","images/t.png","NA","practice","null","","","",""
"d3-animate-choice","38","205352","0.0-38.0","71","650","17","Female","true","false","true","false","""event"",""trial"",""time""
""fullscreenenter"",""5"",""11906""
","
","
","""event"",""trial"",""time""
""fullscreenenter"",""5"",""11906""
","
","186.90000000596046","","49","","","3000","1","","","images/tutgreenplanet.jpg","images/tutalien1","images/tutalien2","null","images/tutalien2","images/t.png","NA","practice","null","","","",""
"d3-animate-choice","39","207560","0.0-39.0","71","650","17","Female","true","false","true","false","""event"",""trial"",""time""
""fullscreenenter"",""5"",""11906""
","
","
","""event"",""trial"",""time""
""fullscreenenter"",""5"",""11906""
","
","203.59999999403954","","49","","","3000","1","","","images/tutgreenplanet.jpg","images/tutalien1","images/tutalien2","null","images/tutalien2","images/t.png","NA","practice","null","","","",""
"d3-animate-choice","40","209771","0.0-40.0","71","650","17","Female","true","false","true","false","""event"",""trial"",""time""
""fullscreenenter"",""5"",""11906""
","
","
","""event"",""trial"",""time""
""fullscreenenter"",""5"",""11906""
","
","207.40000000596046","","49","","","3000","1","","","images/tutgreenplanet.jpg","images/tutalien1","images/tutalien2","null","images/tutalien2","images/t.png","NA","practice","null","","","",""
"d3-animate-choice","41","211957","0.0-41.0","71","650","17","Female","true","false","true","false","""event"",""trial"",""time""
""fullscreenenter"",""5"",""11906""
","
","
","""event"",""trial"",""time""
""fullscreenenter"",""5"",""11906""
","
","181.69999998807907","","49","","","3000","1","","","images/tutgreenplanet.jpg","images/tutalien1","images/tutalien2","null","images/tutalien2","images/t.png","NA","practice","null","","","",""
"d3-animate-choice","42","214105","0.0-42.0","71","650","17","Female","true","false","true","false","""event"",""trial"",""time""
""fullscreenenter"",""5"",""11906""
","
","
","""event"",""trial"",""time""
""fullscreenenter"",""5"",""11906""
","
","144.09999999403954","","49","","","3000","1","","","images/tutgreenplanet.jpg","images/tutalien1","images/tutalien2","null","images/tutalien2","images/t.png","NA","practice","null","","","",""
"d3-animate-choice","43","216243","0.0-43.0","71","650","17","Female","true","false","true","false","""event"",""trial"",""time""
""fullscreenenter"",""5"",""11906""
","
","
","""event"",""trial"",""time""
""fullscreenenter"",""5"",""11906""
","
","134.40000000596046","","49","","","3000","1","","","images/tutgreenplanet.jpg","images/tutalien1","images/tutalien2","null","images/tutalien2","images/t.png","NA","practice","null","","","",""
"d3-instructions","44","229799","0.0-44.0","71","650","17","Female","true","false","true","false","""event"",""trial"",""time""
""fullscreenenter"",""5"",""11906""
","
","
","""event"",""trial"",""time""
""fullscreenenter"",""5"",""11906""
","
","","","","","","","","","","","","","","","","","","","","","",""
"d3-instructions","45","237602","0.0-45.0","71","650","17","Female","true","false","true","false","""event"",""trial"",""time""
""fullscreenenter"",""5"",""11906""
","
","
","""event"",""trial"",""time""
""fullscreenenter"",""5"",""11906""
","
","","","","","","","","","","","","","","","","","","","","","",""
"d3-instructions","46","242407","0.0-46.0","71","650","17","Female","true","false","true","false","""event"",""trial"",""time""
""fullscreenenter"",""5"",""11906""
","
","
","""event"",""trial"",""time""
""fullscreenenter"",""5"",""11906""
","
","","","","","","","","","","","","","","","","","","","","","",""
"d3-instructions","47","259049","0.0-47.0","71","650","17","Female","true","false","true","false","""event"",""trial"",""time""
""fullscreenenter"",""5"",""11906""
","
","
","""event"",""trial"",""time""
""fullscreenenter"",""5"",""11906""
","
","","","","","","","","","","","","","","","","","","","","","",""
"d3-instructions","48","265523","0.0-48.0","71","650","17","Female","true","false","true","false","""event"",""trial"",""time""
""fullscreenenter"",""5"",""11906""
","
","
","""event"",""trial"",""time""
""fullscreenenter"",""5"",""11906""
","
","","","","","","","","","","","","","","","","","","","","","",""
"d3-instructions","49","276423","0.0-49.0","71","650","17","Female","true","false","true","false","""event"",""trial"",""time""
""fullscreenenter"",""5"",""11906""
","
","
","""event"",""trial"",""time""
""fullscreenenter"",""5"",""11906""
","
","","","","","","","","","","","","","","","","","","","","","",""
"d3-instructions","50","285320","0.0-50.0","71","650","17","Female","true","false","true","false","""event"",""trial"",""time""
""fullscreenenter"",""5"",""11906""
","
","
","""event"",""trial"",""time""
""fullscreenenter"",""5"",""11906""
","
","","","","","","","","","","","","","","","","","","","","","",""
"d3-instructions","51","287856","0.0-51.0","71","650","17","Female","true","false","true","false","""event"",""trial"",""time""
""fullscreenenter"",""5"",""11906""
","
","
","""event"",""trial"",""time""
""fullscreenenter"",""5"",""11906""
","
","","","","","","","","","","","","","","","","","","","","","",""
"d3-instructions","52","290657","0.0-52.0","71","650","17","Female","true","false","true","false","""event"",""trial"",""time""
""fullscreenenter"",""5"",""11906""
","
","
","""event"",""trial"",""time""
""fullscreenenter"",""5"",""11906""
","
","","","","","","","","","","","","","","","","","","","","","",""
"d3-instructions","53","302515","0.0-53.0","71","650","17","Female","true","false","true","false","""event"",""trial"",""time""
""fullscreenenter"",""5"",""11906""
","
","
","""event"",""trial"",""time""
""fullscreenenter"",""5"",""11906""
","
","","","","","","","","","","","","","","","","","","","","","",""
"d3-instructions","54","315242","0.0-54.0","71","650","17","Female","true","false","true","false","""event"",""trial"",""time""
""fullscreenenter"",""5"",""11906""
","
","
","""event"",""trial"",""time""
""fullscreenenter"",""5"",""11906""
","
","","","","","","","","","","","","","","","","","","","","","",""
"d3-instructions","55","325413","0.0-55.0","71","650","17","Female","true","false","true","false","""event"",""trial"",""time""
""fullscreenenter"",""5"",""11906""
","
","
","""event"",""trial"",""time""
""fullscreenenter"",""5"",""11906""
","
","","","","","","","","","","","","","","","","","","","","","",""
"d3-instructions","56","333869","0.0-56.0","71","650","17","Female","true","false","true","false","""event"",""trial"",""time""
""fullscreenenter"",""5"",""11906""
","
","
","""event"",""trial"",""time""
""fullscreenenter"",""5"",""11906""
","
","","","","","","","","","","","","","","","","","","","","","",""
"d3-instructions","57","343915","0.0-57.0","71","650","17","Female","true","false","true","false","""event"",""trial"",""time""
""fullscreenenter"",""5"",""11906""
","
","
","""event"",""trial"",""time""
""fullscreenenter"",""5"",""11906""
","
","","","","","","","","","","","","","","","","","","","","","",""
"d3-instructions","58","354321","0.0-58.0","71","650","17","Female","true","false","true","false","""event"",""trial"",""time""
""fullscreenenter"",""5"",""11906""
","
","
","""event"",""trial"",""time""
""fullscreenenter"",""5"",""11906""
","
","","","","","","","","","","","","","","","","","","","","","",""
"d3-instructions","59","359333","0.0-59.0","71","650","17","Female","true","false","true","false","""event"",""trial"",""time""
""fullscreenenter"",""5"",""11906""
","
","
","""event"",""trial"",""time""
""fullscreenenter"",""5"",""11906""
","
","","","","","","","","","","","","","","","","","","","","","",""
"d3-instructions","60","366319","0.0-60.0","71","650","17","Female","true","false","true","false","""event"",""trial"",""time""
""fullscreenenter"",""5"",""11906""
","
","
","""event"",""trial"",""time""
""fullscreenenter"",""5"",""11906""
","
","","","","","","","","","","","","","","","","","","","","","",""
"d3-animate-choice","61","368869","0.0-61.0-0.0","71","650","17","Female","true","false","true","false","""event"",""trial"",""time""
""fullscreenenter"",""5"",""11906""
","
","
","""event"",""trial"",""time""
""fullscreenenter"",""5"",""11906""
","
","544.5999999940395","","49","","","3000","1","","","images/earth.jpg","images/tutrocket1","images/tutrocket2","null","images/tutrocket2","","1","practice","null","1","","",""
"d3-animate-choice","62","372673","0.0-61.0-1.0","71","650","17","Female","true","false","true","false","""event"",""trial"",""time""
""fullscreenenter"",""5"",""11906""
","
","
","""event"",""trial"",""time""
""fullscreenenter"",""5"",""11906""
","
","1796.0999999940395","","49","","","3000","1","","","images/tutgreenplanet.jpg","images/tutalien2","images/tutalien1","images/tutrocket2","images/tutalien1","images/nothing.png","2","practice","true","1","common","0","2022-02-02 18:39:48.173"
"two-step-fixation","63","373691","0.0-61.0-2.0","71","650","17","Female","true","false","true","false","""event"",""trial"",""time""
""fullscreenenter"",""5"",""11906""
","
","
","""event"",""trial"",""time""
""fullscreenenter"",""5"",""11906""
","
","","images/earth.jpg","","","","","","","","","","","","","","fixation","","","","","",""
"d3-animate-choice","64","376213","0.0-61.0-0.1","71","650","17","Female","true","false","true","false","""event"",""trial"",""time""
""fullscreenenter"",""5"",""11906""
","
","
","""event"",""trial"",""time""
""fullscreenenter"",""5"",""11906""
","
","518.5","","48","","","3000","1","","","images/earth.jpg","images/tutrocket1","images/tutrocket2","null","images/tutrocket1","","1","practice","null","2","","",""
"d3-animate-choice","65","378595","0.0-61.0-1.1","71","650","17","Female","true","false","true","false","""event"",""trial"",""time""
""fullscreenenter"",""5"",""11906""
","
","
","""event"",""trial"",""time""
""fullscreenenter"",""5"",""11906""
","
","378.2999999821186","","48","","","3000","1","","","images/tutyellowplanet.jpg","images/tutalien4","images/tutalien3","images/tutrocket1","images/tutalien4","images/t.png","2","practice","true","2","common","1","2022-02-02 18:39:54.096"
"two-step-fixation","66","379599","0.0-61.0-2.1","71","650","17","Female","true","false","true","false","""event"",""trial"",""time""
""fullscreenenter"",""5"",""11906""
","
","
","""event"",""trial"",""time""
""fullscreenenter"",""5"",""11906""
","
","","images/earth.jpg","","","","","","","","","","","","","","fixation","","","","","",""
"d3-animate-choice","67","381911","0.0-61.0-0.2","71","650","17","Female","true","false","true","false","""event"",""trial"",""time""
""fullscreenenter"",""5"",""11906""
","
","
","""event"",""trial"",""time""
""fullscreenenter"",""5"",""11906""
","
","306.5","","48","","","3000","1","","","images/earth.jpg","images/tutrocket1","images/tutrocket2","null","images/tutrocket1","","1","practice","null","2","","",""
"d3-animate-choice","68","384248","0.0-61.0-1.2","71","650","17","Female","true","false","true","false","""event"",""trial"",""time""
""fullscreenenter"",""5"",""11906""
","
","
","""event"",""trial"",""time""
""fullscreenenter"",""5"",""11906""
","
","332.10000002384186","","48","","","3000","1","","","images/tutyellowplanet.jpg","images/tutalien4","images/tutalien3","images/tutrocket1","images/tutalien4","images/nothing.png","2","practice","true","2","common","0","2022-02-02 18:39:59.748"
"two-step-fixation","69","385252","0.0-61.0-2.2","71","650","17","Female","true","false","true","false","""event"",""trial"",""time""
""fullscreenenter"",""5"",""11906""
","
","
","""event"",""trial"",""time""
""fullscreenenter"",""5"",""11906""
","
","","images/earth.jpg","","","","","","","","","","","","","","fixation","","","","","",""
"d3-animate-choice","70","387650","0.0-61.0-0.3","71","650","17","Female","true","false","true","false","""event"",""trial"",""time""
""fullscreenenter"",""5"",""11906""
","
","
","""event"",""trial"",""time""
""fullscreenenter"",""5"",""11906""
","
","394.09999999403954","","49","","","3000","1","","","images/earth.jpg","images/tutrocket1","images/tutrocket2","null","images/tutrocket2","","1","practice","null","1","","",""
"d3-animate-choice","71","390027","0.0-61.0-1.3","71","650","17","Female","true","false","true","false","""event"",""trial"",""time""
""fullscreenenter"",""5"",""11906""
","
","
","""event"",""trial"",""time""
""fullscreenenter"",""5"",""11906""
","
","372.5","","48","","","3000","1","","","images/tutgreenplanet.jpg","images/tutalien2","images/tutalien1","images/tutrocket2","images/tutalien2","images/nothing.png","2","practice","true","2","common","0","2022-02-02 18:40:05.527"
"two-step-fixation","72","391030","0.0-61.0-2.3","71","650","17","Female","true","false","true","false","""event"",""trial"",""time""
""fullscreenenter"",""5"",""11906""
","
","
","""event"",""trial"",""time""
""fullscreenenter"",""5"",""11906""
","
","","images/earth.jpg","","","","","","","","","","","","","","fixation","","","","","",""
"d3-animate-choice","73","393338","0.0-61.0-0.4","71","650","17","Female","true","false","true","false","""event"",""trial"",""time""
""fullscreenenter"",""5"",""11906""
","
","
","""event"",""trial"",""time""
""fullscreenenter"",""5"",""11906""
","
","304.7999999821186","","48","","","3000","1","","","images/earth.jpg","images/tutrocket1","images/tutrocket2","null","images/tutrocket1","","1","practice","null","2","","",""
"d3-animate-choice","74","395717","0.0-61.0-1.4","71","650","17","Female","true","false","true","false","""event"",""trial"",""time""
""fullscreenenter"",""5"",""11906""
","
","
","""event"",""trial"",""time""
""fullscreenenter"",""5"",""11906""
","
","370.69999998807907","","49","","","3000","1","","","images/tutgreenplanet.jpg","images/tutalien2","images/tutalien1","images/tutrocket1","images/tutalien1","images/nothing.png","2","practice","false","1","rare","0","2022-02-02 18:40:11.217"
"two-step-fixation","75","396720","0.0-61.0-2.4","71","650","17","Female","true","false","true","false","""event"",""trial"",""time""
""fullscreenenter"",""5"",""11906""
","
","
","""event"",""trial"",""time""
""fullscreenenter"",""5"",""11906""
","
","","images/earth.jpg","","","","","","","","","","","","","","fixation","","","","","",""
"d3-animate-choice","76","399154","0.0-61.0-0.5","71","650","17","Female","true","false","true","false","""event"",""trial"",""time""
""fullscreenenter"",""5"",""11906""
","
","
","""event"",""trial"",""time""
""fullscreenenter"",""5"",""11906""
","
","429.90000000596046","","48","","","3000","1","","","images/earth.jpg","images/tutrocket1","images/tutrocket2","null","images/tutrocket1","","1","practice","null","2","","",""
"d3-animate-choice","77","401477","0.0-61.0-1.5","71","650","17","Female","true","false","true","false","""event"",""trial"",""time""
""fullscreenenter"",""5"",""11906""
","
","
","""event"",""trial"",""time""
""fullscreenenter"",""5"",""11906""
","
","319.69999998807907","","48","","","3000","1","","","images/tutgreenplanet.jpg","images/tutalien2","images/tutalien1","images/tutrocket1","images/tutalien2","images/nothing.png","2","practice","false","2","rare","0","2022-02-02 18:40:16.977"
"two-step-fixation","78","402481","0.0-61.0-2.5","71","650","17","Female","true","false","true","false","""event"",""trial"",""time""
""fullscreenenter"",""5"",""11906""
","
","
","""event"",""trial"",""time""
""fullscreenenter"",""5"",""11906""
","
","","images/earth.jpg","","","","","","","","","","","","","","fixation","","","","","",""
"d3-animate-choice","79","404666","0.0-61.0-0.6","71","650","17","Female","true","false","true","false","""event"",""trial"",""time""
""fullscreenenter"",""5"",""11906""
","
","
","""event"",""trial"",""time""
""fullscreenenter"",""5"",""11906""
","
","182","","48","","","3000","1","","","images/earth.jpg","images/tutrocket1","images/tutrocket2","null","images/tutrocket1","","1","practice","null","2","","",""
"d3-animate-choice","80","406924","0.0-61.0-1.6","71","650","17","Female","true","false","true","false","""event"",""trial"",""time""
""fullscreenenter"",""5"",""11906""
","
","
","""event"",""trial"",""time""
""fullscreenenter"",""5"",""11906""
","
","255.5","","48","","","3000","1","","","images/tutyellowplanet.jpg","images/tutalien4","images/tutalien3","images/tutrocket1","images/tutalien4","images/nothing.png","2","practice","true","2","common","0","2022-02-02 18:40:22.425"
"two-step-fixation","81","407927","0.0-61.0-2.6","71","650","17","Female","true","false","true","false","""event"",""trial"",""time""
""fullscreenenter"",""5"",""11906""
","
","
","""event"",""trial"",""time""
""fullscreenenter"",""5"",""11906""
","
","","images/earth.jpg","","","","","","","","","","","","","","fixation","","","","","",""
"d3-animate-choice","82","410201","0.0-61.0-0.7","71","650","17","Female","true","false","true","false","""event"",""trial"",""time""
""fullscreenenter"",""5"",""11906""
","
","
","""event"",""trial"",""time""
""fullscreenenter"",""5"",""11906""
","
","270.5","","48","","","3000","1","","","images/earth.jpg","images/tutrocket1","images/tutrocket2","null","images/tutrocket1","","1","practice","null","2","","",""
"d3-animate-choice","83","412583","0.0-61.0-1.7","71","650","17","Female","true","false","true","false","""event"",""trial"",""time""
""fullscreenenter"",""5"",""11906""
","
","
","""event"",""trial"",""time""
""fullscreenenter"",""5"",""11906""
","
","379.2000000178814","","49","","","3000","1","","","images/tutyellowplanet.jpg","images/tutalien4","images/tutalien3","images/tutrocket1","images/tutalien3","images/t.png","2","practice","true","1","common","1","2022-02-02 18:40:28.083"
"two-step-fixation","84","413586","0.0-61.0-2.7","71","650","17","Female","true","false","true","false","""event"",""trial"",""time""
""fullscreenenter"",""5"",""11906""
","
","
","""event"",""trial"",""time""
""fullscreenenter"",""5"",""11906""
","
","","images/earth.jpg","","","","","","","","","","","","","","fixation","","","","","",""
"d3-animate-choice","85","415856","0.0-61.0-0.8","71","650","17","Female","true","false","true","false","""event"",""trial"",""time""
""fullscreenenter"",""5"",""11906""
","
","
","""event"",""trial"",""time""
""fullscreenenter"",""5"",""11906""
","
","265.80000001192093","","48","","","3000","1","","","images/earth.jpg","images/tutrocket1","images/tutrocket2","null","images/tutrocket1","","1","practice","null","2","","",""
"d3-animate-choice","86","418185","0.0-61.0-1.8","71","650","17","Female","true","false","true","false","""event"",""trial"",""time""
""fullscreenenter"",""5"",""11906""
","
","
","""event"",""trial"",""time""
""fullscreenenter"",""5"",""11906""
","
","325.09999999403954","","49","","","3000","1","","","images/tutyellowplanet.jpg","images/tutalien4","images/tutalien3","images/tutrocket1","images/tutalien3","images/t.png","2","practice","true","1","common","1","2022-02-02 18:40:33.685"
"two-step-fixation","87","419188","0.0-61.0-2.8","71","650","17","Female","true","false","true","false","""event"",""trial"",""time""
""fullscreenenter"",""5"",""11906""
","
","
","""event"",""trial"",""time""
""fullscreenenter"",""5"",""11906""
","
","","images/earth.jpg","","","","","","","","","","","","","","fixation","","","","","",""
"d3-animate-choice","88","421388","0.0-61.0-0.9","71","650","17","Female","true","false","true","false","""event"",""trial"",""time""
""fullscreenenter"",""5"",""11906""
","
","
","""event"",""trial"",""time""
""fullscreenenter"",""5"",""11906""
","
","196.60000002384186","","48","","","3000","1","","","images/earth.jpg","images/tutrocket1","images/tutrocket2","null","images/tutrocket1","","1","practice","null","2","","",""
"d3-animate-choice","89","423794","0.0-61.0-1.9","71","650","17","Female","true","false","true","false","""event"",""trial"",""time""
""fullscreenenter"",""5"",""11906""
","
","
","""event"",""trial"",""time""
""fullscreenenter"",""5"",""11906""
","
","402","","49","","","3000","1","","","images/tutyellowplanet.jpg","images/tutalien4","images/tutalien3","images/tutrocket1","images/tutalien3","images/nothing.png","2","practice","true","1","common","0","2022-02-02 18:40:39.294"
"two-step-fixation","90","424797","0.0-61.0-2.9","71","650","17","Female","true","false","true","false","""event"",""trial"",""time""
""fullscreenenter"",""5"",""11906""
","
","
","""event"",""trial"",""time""
""fullscreenenter"",""5"",""11906""
","
","","images/earth.jpg","","","","","","","","","","","","","","fixation","","","","","",""
"d3-animate-choice","91","426846","0.0-61.0-0.10","71","650","17","Female","true","false","true","false","""event"",""trial"",""time""
""fullscreenenter"",""5"",""11906""
","
","
","""event"",""trial"",""time""
""fullscreenenter"",""5"",""11906""
","
","46.099999994039536","","49","","","3000","1","","","images/earth.jpg","images/tutrocket1","images/tutrocket2","null","images/tutrocket2","","1","practice","null","1","","",""
"d3-animate-choice","92","429162","0.0-61.0-1.10","71","650","17","Female","true","false","true","false","""event"",""trial"",""time""
""fullscreenenter"",""5"",""11906""
","
","
","""event"",""trial"",""time""
""fullscreenenter"",""5"",""11906""
","
","311.5","","49","","","3000","1","","","images/tutgreenplanet.jpg","images/tutalien2","images/tutalien1","images/tutrocket2","images/tutalien1","images/nothing.png","2","practice","true","1","common","0","2022-02-02 18:40:44.662"
"two-step-fixation","93","430164","0.0-61.0-2.10","71","650","17","Female","true","false","true","false","""event"",""trial"",""time""
""fullscreenenter"",""5"",""11906""
","
","
","""event"",""trial"",""time""
""fullscreenenter"",""5"",""11906""
","
","","images/earth.jpg","","","","","","","","","","","","","","fixation","","","","","",""
"d3-animate-choice","94","432384","0.0-61.0-0.11","71","650","17","Female","true","false","true","false","""event"",""trial"",""time""
""fullscreenenter"",""5"",""11906""
","
","
","""event"",""trial"",""time""
""fullscreenenter"",""5"",""11906""
","
","216.7999999821186","","49","","","3000","1","","","images/earth.jpg","images/tutrocket1","images/tutrocket2","null","images/tutrocket2","","1","practice","null","1","","",""
"d3-animate-choice","95","434845","0.0-61.0-1.11","71","650","17","Female","true","false","true","false","""event"",""trial"",""time""
""fullscreenenter"",""5"",""11906""
","
","
","""event"",""trial"",""time""
""fullscreenenter"",""5"",""11906""
","
","456.5","","48","","","3000","1","","","images/tutgreenplanet.jpg","images/tutalien2","images/tutalien1","images/tutrocket2","images/tutalien2","images/t.png","2","practice","true","2","common","1","2022-02-02 18:40:50.345"
"two-step-fixation","96","435849","0.0-61.0-2.11","71","650","17","Female","true","false","true","false","""event"",""trial"",""time""
""fullscreenenter"",""5"",""11906""
","
","
","""event"",""trial"",""time""
""fullscreenenter"",""5"",""11906""
","
","","images/earth.jpg","","","","","","","","","","","","","","fixation","","","","","",""
"d3-animate-choice","97","438097","0.0-61.0-0.12","71","650","17","Female","true","false","true","false","""event"",""trial"",""time""
""fullscreenenter"",""5"",""11906""
","
","
","""event"",""trial"",""time""
""fullscreenenter"",""5"",""11906""
","
","243.80000001192093","","49","","","3000","1","","","images/earth.jpg","images/tutrocket1","images/tutrocket2","null","images/tutrocket2","","1","practice","null","1","","",""
"d3-animate-choice","98","440790","0.0-61.0-1.12","71","650","17","Female","true","false","true","false","""event"",""trial"",""time""
""fullscreenenter"",""5"",""11906""
","
","
","""event"",""trial"",""time""
""fullscreenenter"",""5"",""11906""
","
","689.0999999940395","","48","","","3000","1","","","images/tutgreenplanet.jpg","images/tutalien2","images/tutalien1","images/tutrocket2","images/tutalien2","images/t.png","2","practice","true","2","common","1","2022-02-02 18:40:56.290"
"two-step-fixation","99","441793","0.0-61.0-2.12","71","650","17","Female","true","false","true","false","""event"",""trial"",""time""
""fullscreenenter"",""5"",""11906""
","
","
","""event"",""trial"",""time""
""fullscreenenter"",""5"",""11906""
","
","","images/earth.jpg","","","","","","","","","","","","","","fixation","","","","","",""
"d3-animate-choice","100","444092","0.0-61.0-0.13","71","650","17","Female","true","false","true","false","""event"",""trial"",""time""
""fullscreenenter"",""5"",""11906""
","
","
","""event"",""trial"",""time""
""fullscreenenter"",""5"",""11906""
","
","295.19999998807907","","49","","","3000","1","","","images/earth.jpg","images/tutrocket1","images/tutrocket2","null","images/tutrocket2","","1","practice","null","1","","",""
"d3-animate-choice","101","446598","0.0-61.0-1.13","71","650","17","Female","true","false","true","false","""event"",""trial"",""time""
""fullscreenenter"",""5"",""11906""
","
","
","""event"",""trial"",""time""
""fullscreenenter"",""5"",""11906""
","
","502.19999998807907","","48","","","3000","1","","","images/tutgreenplanet.jpg","images/tutalien2","images/tutalien1","images/tutrocket2","images/tutalien2","images/nothing.png","2","practice","true","2","common","0","2022-02-02 18:41:02.098"
"two-step-fixation","102","447601","0.0-61.0-2.13","71","650","17","Female","true","false","true","false","""event"",""trial"",""time""
""fullscreenenter"",""5"",""11906""
","
","
","""event"",""trial"",""time""
""fullscreenenter"",""5"",""11906""
","
","","images/earth.jpg","","","","","","","","","","","","","","fixation","","","","","",""
"d3-animate-choice","103","449892","0.0-61.0-0.14","71","650","17","Female","true","false","true","false","""event"",""trial"",""time""
""fullscreenenter"",""5"",""11906""
","
","
","""event"",""trial"",""time""
""fullscreenenter"",""5"",""11906""
","
","287.09999999403954","","49","","","3000","1","","","images/earth.jpg","images/tutrocket1","images/tutrocket2","null","images/tutrocket2","","1","practice","null","1","","",""
"d3-animate-choice","104","452445","0.0-61.0-1.14","71","650","17","Female","true","false","true","false","""event"",""trial"",""time""
""fullscreenenter"",""5"",""11906""
","
","
","""event"",""trial"",""time""
""fullscreenenter"",""5"",""11906""
","
","550.3000000119209","","49","","","3000","1","","","images/tutyellowplanet.jpg","images/tutalien4","images/tutalien3","images/tutrocket2","images/tutalien3","images/t.png","2","practice","false","1","rare","1","2022-02-02 18:41:07.945"
"two-step-fixation","105","453449","0.0-61.0-2.14","71","650","17","Female","true","false","true","false","""event"",""trial"",""time""
""fullscreenenter"",""5"",""11906""
","
","
","""event"",""trial"",""time""
""fullscreenenter"",""5"",""11906""
","
","","images/earth.jpg","","","","","","","","","","","","","","fixation","","","","","",""
"d3-animate-choice","106","455636","0.0-61.0-0.15","71","650","17","Female","true","false","true","false","""event"",""trial"",""time""
""fullscreenenter"",""5"",""11906""
","
","
","""event"",""trial"",""time""
""fullscreenenter"",""5"",""11906""
","
","183.40000000596046","","49","","","3000","1","","","images/earth.jpg","images/tutrocket1","images/tutrocket2","null","images/tutrocket2","","1","practice","null","1","","",""
"d3-animate-choice","107","458176","0.0-61.0-1.15","71","650","17","Female","true","false","true","false","""event"",""trial"",""time""
""fullscreenenter"",""5"",""11906""
","
","
","""event"",""trial"",""time""
""fullscreenenter"",""5"",""11906""
","
","536","","49","","","3000","1","","","images/tutgreenplanet.jpg","images/tutalien2","images/tutalien1","images/tutrocket2","images/tutalien1","images/t.png","2","practice","true","1","common","1","2022-02-02 18:41:13.676"
"two-step-fixation","108","459178","0.0-61.0-2.15","71","650","17","Female","true","false","true","false","""event"",""trial"",""time""
""fullscreenenter"",""5"",""11906""
","
","
","""event"",""trial"",""time""
""fullscreenenter"",""5"",""11906""
","
","","images/earth.jpg","","","","","","","","","","","","","","fixation","","","","","",""
"d3-animate-choice","109","461335","0.0-61.0-0.16","71","650","17","Female","true","false","true","false","""event"",""trial"",""time""
""fullscreenenter"",""5"",""11906""
","
","
","""event"",""trial"",""time""
""fullscreenenter"",""5"",""11906""
","
","152.5","","49","","","3000","1","","","images/earth.jpg","images/tutrocket1","images/tutrocket2","null","images/tutrocket2","","1","practice","null","1","","",""
"d3-animate-choice","110","463875","0.0-61.0-1.16","71","650","17","Female","true","false","true","false","""event"",""trial"",""time""
""fullscreenenter"",""5"",""11906""
","
","
","""event"",""trial"",""time""
""fullscreenenter"",""5"",""11906""
","
","536.0999999940395","","49","","","3000","1","","","images/tutgreenplanet.jpg","images/tutalien2","images/tutalien1","images/tutrocket2","images/tutalien1","images/t.png","2","practice","true","1","common","1","2022-02-02 18:41:19.375"
"two-step-fixation","111","464877","0.0-61.0-2.16","71","650","17","Female","true","false","true","false","""event"",""trial"",""time""
""fullscreenenter"",""5"",""11906""
","
","
","""event"",""trial"",""time""
""fullscreenenter"",""5"",""11906""
","
","","images/earth.jpg","","","","","","","","","","","","","","fixation","","","","","",""
"d3-animate-choice","112","467136","0.0-61.0-0.17","71","650","17","Female","true","false","true","false","""event"",""trial"",""time""
""fullscreenenter"",""5"",""11906""
","
","
","""event"",""trial"",""time""
""fullscreenenter"",""5"",""11906""
","
","253.40000000596046","","49","","","3000","1","","","images/earth.jpg","images/tutrocket1","images/tutrocket2","null","images/tutrocket2","","1","practice","null","1","","",""
"d3-animate-choice","113","469587","0.0-61.0-1.17","71","650","17","Female","true","false","true","false","""event"",""trial"",""time""
""fullscreenenter"",""5"",""11906""
","
","
","""event"",""trial"",""time""
""fullscreenenter"",""5"",""11906""
","
","447.59999999403954","","49","","","3000","1","","","images/tutgreenplanet.jpg","images/tutalien2","images/tutalien1","images/tutrocket2","images/tutalien1","images/nothing.png","2","practice","true","1","common","0","2022-02-02 18:41:25.087"
"two-step-fixation","114","470590","0.0-61.0-2.17","71","650","17","Female","true","false","true","false","""event"",""trial"",""time""
""fullscreenenter"",""5"",""11906""
","
","
","""event"",""trial"",""time""
""fullscreenenter"",""5"",""11906""
","
","","images/earth.jpg","","","","","","","","","","","","","","fixation","","","","","",""
"d3-animate-choice","115","472712","0.0-61.0-0.18","71","650","17","Female","true","false","true","false","""event"",""trial"",""time""
""fullscreenenter"",""5"",""11906""
","
","
","""event"",""trial"",""time""
""fullscreenenter"",""5"",""11906""
","
","118.90000000596046","","49","","","3000","1","","","images/earth.jpg","images/tutrocket1","images/tutrocket2","null","images/tutrocket2","","1","practice","null","1","","",""
"d3-animate-choice","116","474953","0.0-61.0-1.18","71","650","17","Female","true","false","true","false","""event"",""trial"",""time""
""fullscreenenter"",""5"",""11906""
","
","
","""event"",""trial"",""time""
""fullscreenenter"",""5"",""11906""
","
","237.10000002384186","","48","","","3000","1","","","images/tutgreenplanet.jpg","images/tutalien2","images/tutalien1","images/tutrocket2","images/tutalien2","images/nothing.png","2","practice","true","2","common","0","2022-02-02 18:41:30.453"
"two-step-fixation","117","475955","0.0-61.0-2.18","71","650","17","Female","true","false","true","false","""event"",""trial"",""time""
""fullscreenenter"",""5"",""11906""
","
","
","""event"",""trial"",""time""
""fullscreenenter"",""5"",""11906""
","
","","images/earth.jpg","","","","","","","","","","","","","","fixation","","","","","",""
"d3-animate-choice","118","478178","0.0-61.0-0.19","71","650","17","Female","true","false","true","false","""event"",""trial"",""time""
""fullscreenenter"",""5"",""11906""
","
","
","""event"",""trial"",""time""
""fullscreenenter"",""5"",""11906""
","
","219.40000000596046","","48","","","3000","1","","","images/earth.jpg","images/tutrocket1","images/tutrocket2","null","images/tutrocket1","","1","practice","null","2","","",""
"d3-animate-choice","119","480721","0.0-61.0-1.19","71","650","17","Female","true","false","true","false","""event"",""trial"",""time""
""fullscreenenter"",""5"",""11906""
","
","
","""event"",""trial"",""time""
""fullscreenenter"",""5"",""11906""
","
","539.0999999940395","","49","","","3000","1","","","images/tutgreenplanet.jpg","images/tutalien2","images/tutalien1","images/tutrocket1","images/tutalien1","images/t.png","2","practice","false","1","rare","1","2022-02-02 18:41:36.221"
"two-step-fixation","120","481724","0.0-61.0-2.19","71","650","17","Female","true","false","true","false","""event"",""trial"",""time""
""fullscreenenter"",""5"",""11906""
","
","
","""event"",""trial"",""time""
""fullscreenenter"",""5"",""11906""
","
","","images/earth.jpg","","","","","","","","","","","","","","fixation","","","","","",""
"d3-instructions","121","487461","0.0-62.0","71","650","17","Female","true","false","true","false","""event"",""trial"",""time""
""fullscreenenter"",""5"",""11906""
","
","
","""event"",""trial"",""time""
""fullscreenenter"",""5"",""11906""
","
","","","","","","","","","","","","","","","","","","","","","",""
"audio-keyboard-response","122","490126","0.0-63.0","71","650","17","Female","true","false","true","false","""event"",""trial"",""time""
""fullscreenenter"",""5"",""11906""
","
","
","""event"",""trial"",""time""
""fullscreenenter"",""5"",""11906""
","
","2667","audio/instructions/treasure_feedback.wav","32","","","","","","","","","","","","","","","","","","",""
"d3-instructions","123","507833","0.0-64.0","71","650","17","Female","true","false","true","false","""event"",""trial"",""time""
""fullscreenenter"",""5"",""11906""
","
","
","""event"",""trial"",""time""
""fullscreenenter"",""5"",""11906""
","
","","","","","","","","","","","","","","","","","","","","","",""
"d3-instructions","124","516259","0.0-65.0","71","650","17","Female","true","false","true","false","""event"",""trial"",""time""
""fullscreenenter"",""5"",""11906""
","
","
","""event"",""trial"",""time""
""fullscreenenter"",""5"",""11906""
","
","","","","","","","","","","","","","","","","","","","","","",""
"d3-instructions","125","528541","0.0-66.0","71","650","17","Female","true","false","true","false","""event"",""trial"",""time""
""fullscreenenter"",""5"",""11906""
","
","
","""event"",""trial"",""time""
""fullscreenenter"",""5"",""11906""
","
","","","","","","","","","","","","","","","","","","","","","",""
"d3-instructions","126","541265","0.0-67.0","71","650","17","Female","true","false","true","false","""event"",""trial"",""time""
""fullscreenenter"",""5"",""11906""
","
","
","""event"",""trial"",""time""
""fullscreenenter"",""5"",""11906""
","
","","","","","","","","","","","","","","","","","","","","","",""
"d3-instructions","127","543709","0.0-68.0","71","650","17","Female","true","false","true","false","""event"",""trial"",""time""
""fullscreenenter"",""5"",""11906""
","
","
","""event"",""trial"",""time""
""fullscreenenter"",""5"",""11906""
","
","","","","","","","","","","","","","","","","","","","","","",""
"instructions-quiz","128","546391","0.0-69.0","71","650","17","Female","true","false","true","false","""event"",""trial"",""time""
""fullscreenenter"",""5"",""11906""
","
","
","""event"",""trial"",""time""
""fullscreenenter"",""5"",""11906""
","
","2677.0999999940395","audio/quiz/Q1_Prompt.wav","","1","","","","","","","","","","","","","","","","","",""
"audio-keyboard-response","129","555562","0.0-70.0","71","650","17","Female","true","false","true","false","""event"",""trial"",""time""
""fullscreenenter"",""5"",""11906""
","
","
","""event"",""trial"",""time""
""fullscreenenter"",""5"",""11906""
","
","null","audio/quiz/Q1_Correct.wav","null","","","","","","","","","","","","","","","","","","",""
"instructions-quiz","130","558906","0.0-71.0","71","650","17","Female","true","false","true","false","""event"",""trial"",""time""
""fullscreenenter"",""5"",""11906""
","
","
","""event"",""trial"",""time""
""fullscreenenter"",""5"",""11906""
","
","3341.5999999940395","audio/quiz/Q2_Prompt.wav","","1","","","","","","","","","","","","","","","","","",""
"audio-keyboard-response","131","572981","0.0-72.0","71","650","17","Female","true","false","true","false","""event"",""trial"",""time""
""fullscreenenter"",""5"",""11906""
","
","
","""event"",""trial"",""time""
""fullscreenenter"",""5"",""11906""
","
","null","audio/quiz/Q2_Incorrect.wav","null","","","","","","","","","","","","","","","","","","",""
"instructions-quiz","132","576596","0.0-73.0","71","650","17","Female","true","false","true","false","""event"",""trial"",""time""
""fullscreenenter"",""5"",""11906""
","
","
","""event"",""trial"",""time""
""fullscreenenter"",""5"",""11906""
","
","3612.699999988079","audio/quiz/Q3_Prompt.wav","","1","","","","","","","","","","","","","","","","","",""
"audio-keyboard-response","133","582400","0.0-74.0","71","650","17","Female","true","false","true","false","""event"",""trial"",""time""
""fullscreenenter"",""5"",""11906""
","
","
","""event"",""trial"",""time""
""fullscreenenter"",""5"",""11906""
","
","null","audio/quiz/Q3_Correct.wav","null","","","","","","","","","","","","","","","","","","",""
"d3-instructions","134","587538","0.0-75.0","71","650","17","Female","true","false","true","false","""event"",""trial"",""time""
""fullscreenenter"",""5"",""11906""
","
","
","""event"",""trial"",""time""
""fullscreenenter"",""5"",""11906""
","
","","","","","","","","","","","","","","","","","","","","","",""
"d3-animate-choice","135","590656","0.0-76.0-0.0","71","650","17","Female","true","false","true","false","""event"",""trial"",""time""
""fullscreenenter"",""5"",""11906""
","
","
","""event"",""trial"",""time""
""fullscreenenter"",""5"",""11906""
","
","1113.3999999761581","","49","","","3000","1","","","images/earth.jpg","images/rocket2","images/rocket1","null","images/rocket1","","1","real","null","1","","",""
"d3-animate-choice","136","593128","0.0-76.0-1.0","71","650","17","Female","true","false","true","false","""event"",""trial"",""time""
""fullscreenenter"",""5"",""11906""
","
","
","""event"",""trial"",""time""
""fullscreenenter"",""5"",""11906""
","
","467.90000000596046","","49","","","3000","1","","","images/purpleplanet.jpg","images/alien4","images/alien3","images/rocket1","images/alien3","images/nothing.png","2","real","true","1","common","0","2022-02-02 18:43:28.628"
"two-step-fixation","137","594131","0.0-76.0-2.0","71","650","17","Female","true","false","true","false","""event"",""trial"",""time""
""fullscreenenter"",""5"",""11906""
","
","
","""event"",""trial"",""time""
""fullscreenenter"",""5"",""11906""
","
","","images/earth.jpg","","","","","","","","","","","","","","fixation","","","","","",""
"d3-animate-choice","138","596362","0.0-76.0-0.1","71","650","17","Female","true","false","true","false","""event"",""trial"",""time""
""fullscreenenter"",""5"",""11906""
","
","
","""event"",""trial"",""time""
""fullscreenenter"",""5"",""11906""
","
","226.90000000596046","","49","","","3000","1","","","images/earth.jpg","images/rocket2","images/rocket1","null","images/rocket1","","1","real","null","1","","",""
"d3-animate-choice","139","598616","0.0-76.0-1.1","71","650","17","Female","true","false","true","false","""event"",""trial"",""time""
""fullscreenenter"",""5"",""11906""
","
","
","""event"",""trial"",""time""
""fullscreenenter"",""5"",""11906""
","
","250.19999998807907","","48","","","3000","1","","","images/redplanet1.jpg","images/alien2","images/alien1","images/rocket1","images/alien2","images/t.png","2","real","false","2","rare","1","2022-02-02 18:43:34.116"
"two-step-fixation","140","599620","0.0-76.0-2.1","71","650","17","Female","true","false","true","false","""event"",""trial"",""time""
""fullscreenenter"",""5"",""11906""
","
","
","""event"",""trial"",""time""
""fullscreenenter"",""5"",""11906""
","
","","images/earth.jpg","","","","","","","","","","","","","","fixation","","","","","",""
"d3-animate-choice","141","601877","0.0-76.0-0.2","71","650","17","Female","true","false","true","false","""event"",""trial"",""time""
""fullscreenenter"",""5"",""11906""
","
","
","""event"",""trial"",""time""
""fullscreenenter"",""5"",""11906""
","
","253.40000000596046","","49","","","3000","1","","","images/earth.jpg","images/rocket2","images/rocket1","null","images/rocket1","","1","real","null","1","","",""
"d3-animate-choice","142","604119","0.0-76.0-1.2","71","650","17","Female","true","false","true","false","""event"",""trial"",""time""
""fullscreenenter"",""5"",""11906""
","
","
","""event"",""trial"",""time""
""fullscreenenter"",""5"",""11906""
","
","237.19999998807907","","48","","","3000","1","","","images/redplanet1.jpg","images/alien2","images/alien1","images/rocket1","images/alien2","images/t.png","2","real","false","2","rare","1","2022-02-02 18:43:39.619"
"two-step-fixation","143","605122","0.0-76.0-2.2","71","650","17","Female","true","false","true","false","""event"",""trial"",""time""
""fullscreenenter"",""5"",""11906""
","
","
","""event"",""trial"",""time""
""fullscreenenter"",""5"",""11906""
","
","","images/earth.jpg","","","","","","","","","","","","","","fixation","","","","","",""
"d3-animate-choice","144","607364","0.0-76.0-0.3","71","650","17","Female","true","false","true","false","""event"",""trial"",""time""
""fullscreenenter"",""5"",""11906""
","
","
","""event"",""trial"",""time""
""fullscreenenter"",""5"",""11906""
","
","238.40000000596046","","49","","","3000","1","","","images/earth.jpg","images/rocket2","images/rocket1","null","images/rocket1","","1","real","null","1","","",""
"d3-animate-choice","145","609877","0.0-76.0-1.3","71","650","17","Female","true","false","true","false","""event"",""trial"",""time""
""fullscreenenter"",""5"",""11906""
","
","
","""event"",""trial"",""time""
""fullscreenenter"",""5"",""11906""
","
","509","","48","","","3000","1","","","images/purpleplanet.jpg","images/alien4","images/alien3","images/rocket1","images/alien4","images/t.png","2","real","true","2","common","1","2022-02-02 18:43:45.377"
"two-step-fixation","146","610880","0.0-76.0-2.3","71","650","17","Female","true","false","true","false","""event"",""trial"",""time""
""fullscreenenter"",""5"",""11906""
","
","
","""event"",""trial"",""time""
""fullscreenenter"",""5"",""11906""
","
","","images/earth.jpg","","","","","","","","","","","","","","fixation","","","","","",""
"d3-animate-choice","147","613116","0.0-76.0-0.4","71","650","17","Female","true","false","true","false","""event"",""trial"",""time""
""fullscreenenter"",""5"",""11906""
","
","
","""event"",""trial"",""time""
""fullscreenenter"",""5"",""11906""
","
","231.40000000596046","","49","","","3000","1","","","images/earth.jpg","images/rocket2","images/rocket1","null","images/rocket1","","1","real","null","1","","",""
"d3-animate-choice","148","615462","0.0-76.0-1.4","71","650","17","Female","true","false","true","false","""event"",""trial"",""time""
""fullscreenenter"",""5"",""11906""
","
","
","""event"",""trial"",""time""
""fullscreenenter"",""5"",""11906""
","
","342.5","","48","","","3000","1","","","images/purpleplanet.jpg","images/alien4","images/alien3","images/rocket1","images/alien4","images/t.png","2","real","true","2","common","1","2022-02-02 18:43:50.962"
"two-step-fixation","149","616465","0.0-76.0-2.4","71","650","17","Female","true","false","true","false","""event"",""trial"",""time""
""fullscreenenter"",""5"",""11906""
","
","
","""event"",""trial"",""time""
""fullscreenenter"",""5"",""11906""
","
","","images/earth.jpg","","","","","","","","","","","","","","fixation","","","","","",""
"d3-animate-choice","150","618673","0.0-76.0-0.5","71","650","17","Female","true","false","true","false","""event"",""trial"",""time""
""fullscreenenter"",""5"",""11906""
","
","
","""event"",""trial"",""time""
""fullscreenenter"",""5"",""11906""
","
","203.90000000596046","","49","","","3000","1","","","images/earth.jpg","images/rocket2","images/rocket1","null","images/rocket1","","1","real","null","1","","",""
"d3-animate-choice","151","621001","0.0-76.0-1.5","71","650","17","Female","true","false","true","false","""event"",""trial"",""time""
""fullscreenenter"",""5"",""11906""
","
","
","""event"",""trial"",""time""
""fullscreenenter"",""5"",""11906""
","
","322.90000000596046","","48","","","3000","1","","","images/purpleplanet.jpg","images/alien4","images/alien3","images/rocket1","images/alien4","images/t.png","2","real","true","2","common","1","2022-02-02 18:43:56.501"
"two-step-fixation","152","622004","0.0-76.0-2.5","71","650","17","Female","true","false","true","false","""event"",""trial"",""time""
""fullscreenenter"",""5"",""11906""
","
","
","""event"",""trial"",""time""
""fullscreenenter"",""5"",""11906""
","
","","images/earth.jpg","","","","","","","","","","","","","","fixation","","","","","",""
"d3-animate-choice","153","624025","0.0-76.0-0.6","71","650","17","Female","true","false","true","false","""event"",""trial"",""time""
""fullscreenenter"",""5"",""11906""
","
","
","""event"",""trial"",""time""
""fullscreenenter"",""5"",""11906""
","
","16.69999998807907","","49","","","3000","1","","","images/earth.jpg","images/rocket2","images/rocket1","null","images/rocket1","","1","real","null","1","","",""
"d3-animate-choice","154","626339","0.0-76.0-1.6","71","650","17","Female","true","false","true","false","""event"",""trial"",""time""
""fullscreenenter"",""5"",""11906""
","
","
","""event"",""trial"",""time""
""fullscreenenter"",""5"",""11906""
","
","310.30000001192093","","48","","","3000","1","","","images/purpleplanet.jpg","images/alien4","images/alien3","images/rocket1","images/alien4","images/t.png","2","real","true","2","common","1","2022-02-02 18:44:01.839"
"two-step-fixation","155","627343","0.0-76.0-2.6","71","650","17","Female","true","false","true","false","""event"",""trial"",""time""
""fullscreenenter"",""5"",""11906""
","
","
","""event"",""trial"",""time""
""fullscreenenter"",""5"",""11906""
","
","","images/earth.jpg","","","","","","","","","","","","","","fixation","","","","","",""
"d3-animate-choice","156","629584","0.0-76.0-0.7","71","650","17","Female","true","false","true","false","""event"",""trial"",""time""
""fullscreenenter"",""5"",""11906""
","
","
","""event"",""trial"",""time""
""fullscreenenter"",""5"",""11906""
","
","237.90000000596046","","49","","","3000","1","","","images/earth.jpg","images/rocket2","images/rocket1","null","images/rocket1","","1","real","null","1","","",""
"d3-animate-choice","157","631845","0.0-76.0-1.7","71","650","17","Female","true","false","true","false","""event"",""trial"",""time""
""fullscreenenter"",""5"",""11906""
","
","
","""event"",""trial"",""time""
""fullscreenenter"",""5"",""11906""
","
","257","","48","","","3000","1","","","images/redplanet1.jpg","images/alien2","images/alien1","images/rocket1","images/alien2","images/t.png","2","real","false","2","rare","1","2022-02-02 18:44:07.345"
"two-step-fixation","158","632849","0.0-76.0-2.7","71","650","17","Female","true","false","true","false","""event"",""trial"",""time""
""fullscreenenter"",""5"",""11906""
","
","
","""event"",""trial"",""time""
""fullscreenenter"",""5"",""11906""
","
","","images/earth.jpg","","","","","","","","","","","","","","fixation","","","","","",""
"d3-animate-choice","159","635184","0.0-76.0-0.8","71","650","17","Female","true","false","true","false","""event"",""trial"",""time""
""fullscreenenter"",""5"",""11906""
","
","
","""event"",""trial"",""time""
""fullscreenenter"",""5"",""11906""
","
","331.40000000596046","","49","","","3000","1","","","images/earth.jpg","images/rocket2","images/rocket1","null","images/rocket1","","1","real","null","1","","",""
"d3-animate-choice","160","637614","0.0-76.0-1.8","71","650","17","Female","true","false","true","false","""event"",""trial"",""time""
""fullscreenenter"",""5"",""11906""
","
","
","""event"",""trial"",""time""
""fullscreenenter"",""5"",""11906""
","
","425.40000000596046","","48","","","3000","1","","","images/purpleplanet.jpg","images/alien4","images/alien3","images/rocket1","images/alien4","images/nothing.png","2","real","true","2","common","0","2022-02-02 18:44:13.114"
"two-step-fixation","161","638617","0.0-76.0-2.8","71","650","17","Female","true","false","true","false","""event"",""trial"",""time""
""fullscreenenter"",""5"",""11906""
","
","
","""event"",""trial"",""time""
""fullscreenenter"",""5"",""11906""
","
","","images/earth.jpg","","","","","","","","","","","","","","fixation","","","","","",""
"d3-animate-choice","162","640673","0.0-76.0-0.9","71","650","17","Female","true","false","true","false","""event"",""trial"",""time""
""fullscreenenter"",""5"",""11906""
","
","
","""event"",""trial"",""time""
""fullscreenenter"",""5"",""11906""
","
","51.69999998807907","","49","","","3000","1","","","images/earth.jpg","images/rocket2","images/rocket1","null","images/rocket1","","1","real","null","1","","",""
"d3-animate-choice","163","643128","0.0-76.0-1.9","71","650","17","Female","true","false","true","false","""event"",""trial"",""time""
""fullscreenenter"",""5"",""11906""
","
","
","""event"",""trial"",""time""
""fullscreenenter"",""5"",""11906""
","
","451.80000001192093","","49","","","3000","1","","","images/purpleplanet.jpg","images/alien4","images/alien3","images/rocket1","images/alien3","images/t.png","2","real","true","1","common","1","2022-02-02 18:44:18.629"
"two-step-fixation","164","644132","0.0-76.0-2.9","71","650","17","Female","true","false","true","false","""event"",""trial"",""time""
""fullscreenenter"",""5"",""11906""
","
","
","""event"",""trial"",""time""
""fullscreenenter"",""5"",""11906""
","
","","images/earth.jpg","","","","","","","","","","","","","","fixation","","","","","",""
"d3-animate-choice","165","646311","0.0-76.0-0.10","71","650","17","Female","true","false","true","false","""event"",""trial"",""time""
""fullscreenenter"",""5"",""11906""
","
","
","""event"",""trial"",""time""
""fullscreenenter"",""5"",""11906""
","
","175.40000000596046","","49","","","3000","1","","","images/earth.jpg","images/rocket2","images/rocket1","null","images/rocket1","","1","real","null","1","","",""
"d3-animate-choice","166","648710","0.0-76.0-1.10","71","650","17","Female","true","false","true","false","""event"",""trial"",""time""
""fullscreenenter"",""5"",""11906""
","
","
","""event"",""trial"",""time""
""fullscreenenter"",""5"",""11906""
","
","394.60000002384186","","49","","","3000","1","","","images/purpleplanet.jpg","images/alien4","images/alien3","images/rocket1","images/alien3","images/nothing.png","2","real","true","1","common","0","2022-02-02 18:44:24.210"
"two-step-fixation","167","649713","0.0-76.0-2.10","71","650","17","Female","true","false","true","false","""event"",""trial"",""time""
""fullscreenenter"",""5"",""11906""
","
","
","""event"",""trial"",""time""
""fullscreenenter"",""5"",""11906""
","
","","images/earth.jpg","","","","","","","","","","","","","","fixation","","","","","",""
"d3-animate-choice","168","651992","0.0-76.0-0.11","71","650","17","Female","true","false","true","false","""event"",""trial"",""time""
""fullscreenenter"",""5"",""11906""
","
","
","""event"",""trial"",""time""
""fullscreenenter"",""5"",""11906""
","
","275.40000000596046","","48","","","3000","1","","","images/earth.jpg","images/rocket2","images/rocket1","null","images/rocket2","","1","real","null","2","","",""
"d3-animate-choice","169","654433","0.0-76.0-1.11","71","650","17","Female","true","false","true","false","""event"",""trial"",""time""
""fullscreenenter"",""5"",""11906""
","
","
","""event"",""trial"",""time""
""fullscreenenter"",""5"",""11906""
","
","435.7000000178814","","49","","","3000","1","","","images/redplanet1.jpg","images/alien2","images/alien1","images/rocket2","images/alien1","images/t.png","2","real","true","1","common","1","2022-02-02 18:44:29.933"
"two-step-fixation","170","655437","0.0-76.0-2.11","71","650","17","Female","true","false","true","false","""event"",""trial"",""time""
""fullscreenenter"",""5"",""11906""
","
","
","""event"",""trial"",""time""
""fullscreenenter"",""5"",""11906""
","
","","images/earth.jpg","","","","","","","","","","","","","","fixation","","","","","",""
"d3-animate-choice","171","657535","0.0-76.0-0.12","71","650","17","Female","true","false","true","false","""event"",""trial"",""time""
""fullscreenenter"",""5"",""11906""
","
","
","""event"",""trial"",""time""
""fullscreenenter"",""5"",""11906""
","
","94.19999998807907","","48","","","3000","1","","","images/earth.jpg","images/rocket2","images/rocket1","null","images/rocket2","","1","real","null","2","","",""
"d3-animate-choice","172","659921","0.0-76.0-1.12","71","650","17","Female","true","false","true","false","""event"",""trial"",""time""
""fullscreenenter"",""5"",""11906""
","
","
","""event"",""trial"",""time""
""fullscreenenter"",""5"",""11906""
","
","382","","49","","","3000","1","","","images/redplanet1.jpg","images/alien2","images/alien1","images/rocket2","images/alien1","images/t.png","2","real","true","1","common","1","2022-02-02 18:44:35.421"
"two-step-fixation","173","660924","0.0-76.0-2.12","71","650","17","Female","true","false","true","false","""event"",""trial"",""time""
""fullscreenenter"",""5"",""11906""
","
","
","""event"",""trial"",""time""
""fullscreenenter"",""5"",""11906""
","
","","images/earth.jpg","","","","","","","","","","","","","","fixation","","","","","",""
"d3-animate-choice","174","663025","0.0-76.0-0.13","71","650","17","Female","true","false","true","false","""event"",""trial"",""time""
""fullscreenenter"",""5"",""11906""
","
","
","""event"",""trial"",""time""
""fullscreenenter"",""5"",""11906""
","
","96.80000001192093","","48","","","3000","1","","","images/earth.jpg","images/rocket2","images/rocket1","null","images/rocket2","","1","real","null","2","","",""
"d3-animate-choice","175","665619","0.0-76.0-1.13","71","650","17","Female","true","false","true","false","""event"",""trial"",""time""
""fullscreenenter"",""5"",""11906""
","
","
","""event"",""trial"",""time""
""fullscreenenter"",""5"",""11906""
","
","588.2000000178814","","48","","","3000","1","","","images/purpleplanet.jpg","images/alien4","images/alien3","images/rocket2","images/alien4","images/nothing.png","2","real","false","2","rare","0","2022-02-02 18:44:41.119"
"two-step-fixation","176","666622","0.0-76.0-2.13","71","650","17","Female","true","false","true","false","""event"",""trial"",""time""
""fullscreenenter"",""5"",""11906""
","
","
","""event"",""trial"",""time""
""fullscreenenter"",""5"",""11906""
","
","","images/earth.jpg","","","","","","","","","","","","","","fixation","","","","","",""
"d3-animate-choice","177","669210","0.0-76.0-0.14","71","650","17","Female","true","false","true","false","""event"",""trial"",""time""
""fullscreenenter"",""5"",""11906""
","
","
","""event"",""trial"",""time""
""fullscreenenter"",""5"",""11906""
","
","582.5","","49","","","3000","1","","","images/earth.jpg","images/rocket2","images/rocket1","null","images/rocket1","","1","real","null","1","","",""
"d3-animate-choice","178","671546","0.0-76.0-1.14","71","650","17","Female","true","false","true","false","""event"",""trial"",""time""
""fullscreenenter"",""5"",""11906""
","
","
","""event"",""trial"",""time""
""fullscreenenter"",""5"",""11906""
","
","333.2000000178814","","48","","","3000","1","","","images/purpleplanet.jpg","images/alien4","images/alien3","images/rocket1","images/alien4","images/nothing.png","2","real","true","2","common","0","2022-02-02 18:44:47.047"
"two-step-fixation","179","672550","0.0-76.0-2.14","71","650","17","Female","true","false","true","false","""event"",""trial"",""time""
""fullscreenenter"",""5"",""11906""
","
","
","""event"",""trial"",""time""
""fullscreenenter"",""5"",""11906""
","
","","images/earth.jpg","","","","","","","","","","","","","","fixation","","","","","",""
"d3-animate-choice","180","674814","0.0-76.0-0.15","71","650","17","Female","true","false","true","false","""event"",""trial"",""time""
""fullscreenenter"",""5"",""11906""
","
","
","""event"",""trial"",""time""
""fullscreenenter"",""5"",""11906""
","
","260.2000000178814","","48","","","3000","1","","","images/earth.jpg","images/rocket2","images/rocket1","null","images/rocket2","","1","real","null","2","","",""
"d3-animate-choice","181","677273","0.0-76.0-1.15","71","650","17","Female","true","false","true","false","""event"",""trial"",""time""
""fullscreenenter"",""5"",""11906""
","
","
","""event"",""trial"",""time""
""fullscreenenter"",""5"",""11906""
","
","454.40000000596046","","49","","","3000","1","","","images/purpleplanet.jpg","images/alien4","images/alien3","images/rocket2","images/alien3","images/nothing.png","2","real","false","1","rare","0","2022-02-02 18:44:52.773"
"two-step-fixation","182","678276","0.0-76.0-2.15","71","650","17","Female","true","false","true","false","""event"",""trial"",""time""
""fullscreenenter"",""5"",""11906""
","
","
","""event"",""trial"",""time""
""fullscreenenter"",""5"",""11906""
","
","","images/earth.jpg","","","","","","","","","","","","","","fixation","","","","","",""
"d3-animate-choice","183","680528","0.0-76.0-0.16","71","650","17","Female","true","false","true","false","""event"",""trial"",""time""
""fullscreenenter"",""5"",""11906""
","
","
","""event"",""trial"",""time""
""fullscreenenter"",""5"",""11906""
","
","247.90000000596046","","48","","","3000","1","","","images/earth.jpg","images/rocket2","images/rocket1","null","images/rocket2","","1","real","null","2","","",""
"d3-animate-choice","184","683025","0.0-76.0-1.16","71","650","17","Female","true","false","true","false","""event"",""trial"",""time""
""fullscreenenter"",""5"",""11906""
","
","
","""event"",""trial"",""time""
""fullscreenenter"",""5"",""11906""
","
","492.09999999403954","","48","","","3000","1","","","images/redplanet1.jpg","images/alien2","images/alien1","images/rocket2","images/alien2","images/nothing.png","2","real","true","2","common","0","2022-02-02 18:44:58.525"
"two-step-fixation","185","684029","0.0-76.0-2.16","71","650","17","Female","true","false","true","false","""event"",""trial"",""time""
""fullscreenenter"",""5"",""11906""
","
","
","""event"",""trial"",""time""
""fullscreenenter"",""5"",""11906""
","
","","images/earth.jpg","","","","","","","","","","","","","","fixation","","","","","",""
"d3-animate-choice","186","686182","0.0-76.0-0.17","71","650","17","Female","true","false","true","false","""event"",""trial"",""time""
""fullscreenenter"",""5"",""11906""
","
","
","""event"",""trial"",""time""
""fullscreenenter"",""5"",""11906""
","
","148.09999999403954","","48","","","3000","1","","","images/earth.jpg","images/rocket2","images/rocket1","null","images/rocket2","","1","real","null","2","","",""
"d3-animate-choice","187","688526","0.0-76.0-1.17","71","650","17","Female","true","false","true","false","""event"",""trial"",""time""
""fullscreenenter"",""5"",""11906""
","
","
","""event"",""trial"",""time""
""fullscreenenter"",""5"",""11906""
","
","339.69999998807907","","49","","","3000","1","","","images/redplanet1.jpg","images/alien2","images/alien1","images/rocket2","images/alien1","images/t.png","2","real","true","1","common","1","2022-02-02 18:45:04.026"
"two-step-fixation","188","689529","0.0-76.0-2.17","71","650","17","Female","true","false","true","false","""event"",""trial"",""time""
""fullscreenenter"",""5"",""11906""
","
","
","""event"",""trial"",""time""
""fullscreenenter"",""5"",""11906""
","
","","images/earth.jpg","","","","","","","","","","","","","","fixation","","","","","",""
"d3-animate-choice","189","691769","0.0-76.0-0.18","71","650","17","Female","true","false","true","false","""event"",""trial"",""time""
""fullscreenenter"",""5"",""11906""
","
","
","""event"",""trial"",""time""
""fullscreenenter"",""5"",""11906""
","
","235.09999999403954","","48","","","3000","1","","","images/earth.jpg","images/rocket2","images/rocket1","null","images/rocket2","","1","real","null","2","","",""
"d3-animate-choice","190","694111","0.0-76.0-1.18","71","650","17","Female","true","false","true","false","""event"",""trial"",""time""
""fullscreenenter"",""5"",""11906""
","
","
","""event"",""trial"",""time""
""fullscreenenter"",""5"",""11906""
","
","338.10000002384186","","49","","","3000","1","","","images/redplanet1.jpg","images/alien2","images/alien1","images/rocket2","images/alien1","images/t.png","2","real","true","1","common","1","2022-02-02 18:45:09.611"
"two-step-fixation","191","695115","0.0-76.0-2.18","71","650","17","Female","true","false","true","false","""event"",""trial"",""time""
""fullscreenenter"",""5"",""11906""
","
","
","""event"",""trial"",""time""
""fullscreenenter"",""5"",""11906""
","
","","images/earth.jpg","","","","","","","","","","","","","","fixation","","","","","",""
"d3-animate-choice","192","697392","0.0-76.0-0.19","71","650","17","Female","true","false","true","false","""event"",""trial"",""time""
""fullscreenenter"",""5"",""11906""
","
","
","""event"",""trial"",""time""
""fullscreenenter"",""5"",""11906""
","
","272.69999998807907","","48","","","3000","1","","","images/earth.jpg","images/rocket2","images/rocket1","null","images/rocket2","","1","real","null","2","","",""
"d3-animate-choice","193","699782","0.0-76.0-1.19","71","650","17","Female","true","false","true","false","""event"",""trial"",""time""
""fullscreenenter"",""5"",""11906""
","
","
","""event"",""trial"",""time""
""fullscreenenter"",""5"",""11906""
","
","386.19999998807907","","49","","","3000","1","","","images/redplanet1.jpg","images/alien2","images/alien1","images/rocket2","images/alien1","images/nothing.png","2","real","true","1","common","0","2022-02-02 18:45:15.283"
"two-step-fixation","194","700786","0.0-76.0-2.19","71","650","17","Female","true","false","true","false","""event"",""trial"",""time""
""fullscreenenter"",""5"",""11906""
","
","
","""event"",""trial"",""time""
""fullscreenenter"",""5"",""11906""
","
","","images/earth.jpg","","","","","","","","","","","","","","fixation","","","","","",""
"d3-animate-choice","195","702814","0.0-76.0-0.20","71","650","17","Female","true","false","true","false","""event"",""trial"",""time""
""fullscreenenter"",""5"",""11906""
","
","
","""event"",""trial"",""time""
""fullscreenenter"",""5"",""11906""
","
","23.80000001192093","","49","","","3000","1","","","images/earth.jpg","images/rocket2","images/rocket1","null","images/rocket1","","1","real","null","1","","",""
"d3-animate-choice","196","705175","0.0-76.0-1.20","71","650","17","Female","true","false","true","false","""event"",""trial"",""time""
""fullscreenenter"",""5"",""11906""
","
","
","""event"",""trial"",""time""
""fullscreenenter"",""5"",""11906""
","
","358.10000002384186","","48","","","3000","1","","","images/redplanet1.jpg","images/alien2","images/alien1","images/rocket1","images/alien2","images/nothing.png","2","real","false","2","rare","0","2022-02-02 18:45:20.675"
"two-step-fixation","197","706178","0.0-76.0-2.20","71","650","17","Female","true","false","true","false","""event"",""trial"",""time""
""fullscreenenter"",""5"",""11906""
","
","
","""event"",""trial"",""time""
""fullscreenenter"",""5"",""11906""
","
","","images/earth.jpg","","","","","","","","","","","","","","fixation","","","","","",""
"d3-animate-choice","198","708197","0.0-76.0-0.21","71","650","17","Female","true","false","true","false","""event"",""trial"",""time""
""fullscreenenter"",""5"",""11906""
","
","
","""event"",""trial"",""time""
""fullscreenenter"",""5"",""11906""
","
","13.5","","49","","","3000","1","","","images/earth.jpg","images/rocket2","images/rocket1","null","images/rocket1","","1","real","null","1","","",""
"d3-animate-choice","199","710694","0.0-76.0-1.21","71","650","17","Female","true","false","true","false","""event"",""trial"",""time""
""fullscreenenter"",""5"",""11906""
","
","
","""event"",""trial"",""time""
""fullscreenenter"",""5"",""11906""
","
","493.09999999403954","","49","","","3000","1","","","images/redplanet1.jpg","images/alien2","images/alien1","images/rocket1","images/alien1","images/nothing.png","2","real","false","1","rare","0","2022-02-02 18:45:26.194"
"two-step-fixation","200","711697","0.0-76.0-2.21","71","650","17","Female","true","false","true","false","""event"",""trial"",""time""
""fullscreenenter"",""5"",""11906""
","
","
","""event"",""trial"",""time""
""fullscreenenter"",""5"",""11906""
","
","","images/earth.jpg","","","","","","","","","","","","","","fixation","","","","","",""
"d3-animate-choice","201","713754","0.0-76.0-0.22","71","650","17","Female","true","false","true","false","""event"",""trial"",""time""
""fullscreenenter"",""5"",""11906""
","
","
","""event"",""trial"",""time""
""fullscreenenter"",""5"",""11906""
","
","52.099999994039536","","48","","","3000","1","","","images/earth.jpg","images/rocket2","images/rocket1","null","images/rocket2","","1","real","null","2","","",""
"d3-animate-choice","202","716140","0.0-76.0-1.22","71","650","17","Female","true","false","true","false","""event"",""trial"",""time""
""fullscreenenter"",""5"",""11906""
","
","
","""event"",""trial"",""time""
""fullscreenenter"",""5"",""11906""
","
","382.2000000178814","","48","","","3000","1","","","images/purpleplanet.jpg","images/alien4","images/alien3","images/rocket2","images/alien4","images/t.png","2","real","false","2","rare","1","2022-02-02 18:45:31.641"
"two-step-fixation","203","717144","0.0-76.0-2.22","71","650","17","Female","true","false","true","false","""event"",""trial"",""time""
""fullscreenenter"",""5"",""11906""
","
","
","""event"",""trial"",""time""
""fullscreenenter"",""5"",""11906""
","
","","images/earth.jpg","","","","","","","","","","","","","","fixation","","","","","",""
"d3-animate-choice","204","719233","0.0-76.0-0.23","71","650","17","Female","true","false","true","false","""event"",""trial"",""time""
""fullscreenenter"",""5"",""11906""
","
","
","""event"",""trial"",""time""
""fullscreenenter"",""5"",""11906""
","
","85.69999998807907","","48","","","3000","1","","","images/earth.jpg","images/rocket2","images/rocket1","null","images/rocket2","","1","real","null","2","","",""
"d3-animate-choice","205","721651","0.0-76.0-1.23","71","650","17","Female","true","false","true","false","""event"",""trial"",""time""
""fullscreenenter"",""5"",""11906""
","
","
","""event"",""trial"",""time""
""fullscreenenter"",""5"",""11906""
","
","413.19999998807907","","48","","","3000","1","","","images/redplanet1.jpg","images/alien2","images/alien1","images/rocket2","images/alien2","images/t.png","2","real","true","2","common","1","2022-02-02 18:45:37.151"
"two-step-fixation","206","722655","0.0-76.0-2.23","71","650","17","Female","true","false","true","false","""event"",""trial"",""time""
""fullscreenenter"",""5"",""11906""
","
","
","""event"",""trial"",""time""
""fullscreenenter"",""5"",""11906""
","
","","images/earth.jpg","","","","","","","","","","","","","","fixation","","","","","",""
"d3-animate-choice","207","724757","0.0-76.0-0.24","71","650","17","Female","true","false","true","false","""event"",""trial"",""time""
""fullscreenenter"",""5"",""11906""
","
","
","""event"",""trial"",""time""
""fullscreenenter"",""5"",""11906""
","
","97.5","","48","","","3000","1","","","images/earth.jpg","images/rocket2","images/rocket1","null","images/rocket2","","1","real","null","2","","",""
"d3-animate-choice","208","727117","0.0-76.0-1.24","71","650","17","Female","true","false","true","false","""event"",""trial"",""time""
""fullscreenenter"",""5"",""11906""
","
","
","""event"",""trial"",""time""
""fullscreenenter"",""5"",""11906""
","
","355.30000001192093","","48","","","3000","1","","","images/redplanet1.jpg","images/alien2","images/alien1","images/rocket2","images/alien2","images/t.png","2","real","true","2","common","1","2022-02-02 18:45:42.617"
"two-step-fixation","209","728120","0.0-76.0-2.24","71","650","17","Female","true","false","true","false","""event"",""trial"",""time""
""fullscreenenter"",""5"",""11906""
","
","
","""event"",""trial"",""time""
""fullscreenenter"",""5"",""11906""
","
","","images/earth.jpg","","","","","","","","","","","","","","fixation","","","","","",""
"d3-animate-choice","210","730357","0.0-76.0-0.25","71","650","17","Female","true","false","true","false","""event"",""trial"",""time""
""fullscreenenter"",""5"",""11906""
","
","
","""event"",""trial"",""time""
""fullscreenenter"",""5"",""11906""
","
","232","","48","","","3000","1","","","images/earth.jpg","images/rocket2","images/rocket1","null","images/rocket2","","1","real","null","2","","",""
"d3-animate-choice","211","732755","0.0-76.0-1.25","71","650","17","Female","true","false","true","false","""event"",""trial"",""time""
""fullscreenenter"",""5"",""11906""
","
","
","""event"",""trial"",""time""
""fullscreenenter"",""5"",""11906""
","
","394.69999998807907","","48","","","3000","1","","","images/purpleplanet.jpg","images/alien4","images/alien3","images/rocket2","images/alien4","images/t.png","2","real","false","2","rare","1","2022-02-02 18:45:48.256"
"two-step-fixation","212","733758","0.0-76.0-2.25","71","650","17","Female","true","false","true","false","""event"",""trial"",""time""
""fullscreenenter"",""5"",""11906""
","
","
","""event"",""trial"",""time""
""fullscreenenter"",""5"",""11906""
","
","","images/earth.jpg","","","","","","","","","","","","","","fixation","","","","","",""
"d3-animate-choice","213","736022","0.0-76.0-0.26","71","650","17","Female","true","false","true","false","""event"",""trial"",""time""
""fullscreenenter"",""5"",""11906""
","
","
","""event"",""trial"",""time""
""fullscreenenter"",""5"",""11906""
","
","259.80000001192093","","48","","","3000","1","","","images/earth.jpg","images/rocket2","images/rocket1","null","images/rocket2","","1","real","null","2","","",""
"d3-animate-choice","214","738499","0.0-76.0-1.26","71","650","17","Female","true","false","true","false","""event"",""trial"",""time""
""fullscreenenter"",""5"",""11906""
","
","
","""event"",""trial"",""time""
""fullscreenenter"",""5"",""11906""
","
","473.60000002384186","","48","","","3000","1","","","images/redplanet1.jpg","images/alien2","images/alien1","images/rocket2","images/alien2","images/t.png","2","real","true","2","common","1","2022-02-02 18:45:53.999"
"two-step-fixation","215","739502","0.0-76.0-2.26","71","650","17","Female","true","false","true","false","""event"",""trial"",""time""
""fullscreenenter"",""5"",""11906""
","
","
","""event"",""trial"",""time""
""fullscreenenter"",""5"",""11906""
","
","","images/earth.jpg","","","","","","","","","","","","","","fixation","","","","","",""
"d3-animate-choice","216","741547","0.0-76.0-0.27","71","650","17","Female","true","false","true","false","""event"",""trial"",""time""
""fullscreenenter"",""5"",""11906""
","
","
","""event"",""trial"",""time""
""fullscreenenter"",""5"",""11906""
","
","41.5","","48","","","3000","1","","","images/earth.jpg","images/rocket2","images/rocket1","null","images/rocket2","","1","real","null","2","","",""
"d3-animate-choice","217","744086","0.0-76.0-1.27","71","650","17","Female","true","false","true","false","""event"",""trial"",""time""
""fullscreenenter"",""5"",""11906""
","
","
","""event"",""trial"",""time""
""fullscreenenter"",""5"",""11906""
","
","535.5","","48","","","3000","1","","","images/purpleplanet.jpg","images/alien4","images/alien3","images/rocket2","images/alien4","images/t.png","2","real","false","2","rare","1","2022-02-02 18:45:59.586"
"two-step-fixation","218","745089","0.0-76.0-2.27","71","650","17","Female","true","false","true","false","""event"",""trial"",""time""
""fullscreenenter"",""5"",""11906""
","
","
","""event"",""trial"",""time""
""fullscreenenter"",""5"",""11906""
","
","","images/earth.jpg","","","","","","","","","","","","","","fixation","","","","","",""
"d3-animate-choice","219","747400","0.0-76.0-0.28","71","650","17","Female","true","false","true","false","""event"",""trial"",""time""
""fullscreenenter"",""5"",""11906""
","
","
","""event"",""trial"",""time""
""fullscreenenter"",""5"",""11906""
","
","307.19999998807907","","48","","","3000","1","","","images/earth.jpg","images/rocket2","images/rocket1","null","images/rocket2","","1","real","null","2","","",""
"d3-animate-choice","220","749833","0.0-76.0-1.28","71","650","17","Female","true","false","true","false","""event"",""trial"",""time""
""fullscreenenter"",""5"",""11906""
","
","
","""event"",""trial"",""time""
""fullscreenenter"",""5"",""11906""
","
","429.19999998807907","","48","","","3000","1","","","images/purpleplanet.jpg","images/alien4","images/alien3","images/rocket2","images/alien4","images/t.png","2","real","false","2","rare","1","2022-02-02 18:46:05.333"
"two-step-fixation","221","750836","0.0-76.0-2.28","71","650","17","Female","true","false","true","false","""event"",""trial"",""time""
""fullscreenenter"",""5"",""11906""
","
","
","""event"",""trial"",""time""
""fullscreenenter"",""5"",""11906""
","
","","images/earth.jpg","","","","","","","","","","","","","","fixation","","","","","",""
"d3-animate-choice","222","752939","0.0-76.0-0.29","71","650","17","Female","true","false","true","false","""event"",""trial"",""time""
""fullscreenenter"",""5"",""11906""
","
","
","""event"",""trial"",""time""
""fullscreenenter"",""5"",""11906""
","
","98.2000000178814","","48","","","3000","1","","","images/earth.jpg","images/rocket2","images/rocket1","null","images/rocket2","","1","real","null","2","","",""
"d3-animate-choice","223","755392","0.0-76.0-1.29","71","650","17","Female","true","false","true","false","""event"",""trial"",""time""
""fullscreenenter"",""5"",""11906""
","
","
","""event"",""trial"",""time""
""fullscreenenter"",""5"",""11906""
","
","449.5","","48","","","3000","1","","","images/redplanet1.jpg","images/alien2","images/alien1","images/rocket2","images/alien2","images/t.png","2","real","true","2","common","1","2022-02-02 18:46:10.892"
"two-step-fixation","224","756395","0.0-76.0-2.29","71","650","17","Female","true","false","true","false","""event"",""trial"",""time""
""fullscreenenter"",""5"",""11906""
","
","
","""event"",""trial"",""time""
""fullscreenenter"",""5"",""11906""
","
","","images/earth.jpg","","","","","","","","","","","","","","fixation","","","","","",""
"d3-animate-choice","225","758619","0.0-76.0-0.30","71","650","17","Female","true","false","true","false","""event"",""trial"",""time""
""fullscreenenter"",""5"",""11906""
","
","
","""event"",""trial"",""time""
""fullscreenenter"",""5"",""11906""
","
","220.80000001192093","","48","","","3000","1","","","images/earth.jpg","images/rocket2","images/rocket1","null","images/rocket2","","1","real","null","2","","",""
"d3-animate-choice","226","760872","0.0-76.0-1.30","71","650","17","Female","true","false","true","false","""event"",""trial"",""time""
""fullscreenenter"",""5"",""11906""
","
","
","""event"",""trial"",""time""
""fullscreenenter"",""5"",""11906""
","
","249.60000002384186","","48","","","3000","1","","","images/purpleplanet.jpg","images/alien4","images/alien3","images/rocket2","images/alien4","images/t.png","2","real","false","2","rare","1","2022-02-02 18:46:16.372"
"two-step-fixation","227","761875","0.0-76.0-2.30","71","650","17","Female","true","false","true","false","""event"",""trial"",""time""
""fullscreenenter"",""5"",""11906""
","
","
","""event"",""trial"",""time""
""fullscreenenter"",""5"",""11906""
","
","","images/earth.jpg","","","","","","","","","","","","","","fixation","","","","","",""
"d3-animate-choice","228","764053","0.0-76.0-0.31","71","650","17","Female","true","false","true","false","""event"",""trial"",""time""
""fullscreenenter"",""5"",""11906""
","
","
","""event"",""trial"",""time""
""fullscreenenter"",""5"",""11906""
","
","174.69999998807907","","48","","","3000","1","","","images/earth.jpg","images/rocket2","images/rocket1","null","images/rocket2","","1","real","null","2","","",""
"d3-animate-choice","229","766586","0.0-76.0-1.31","71","650","17","Female","true","false","true","false","""event"",""trial"",""time""
""fullscreenenter"",""5"",""11906""
","
","
","""event"",""trial"",""time""
""fullscreenenter"",""5"",""11906""
","
","528.5","","48","","","3000","1","","","images/redplanet1.jpg","images/alien2","images/alien1","images/rocket2","images/alien2","images/t.png","2","real","true","2","common","1","2022-02-02 18:46:22.086"
"two-step-fixation","230","767589","0.0-76.0-2.31","71","650","17","Female","true","false","true","false","""event"",""trial"",""time""
""fullscreenenter"",""5"",""11906""
","
","
","""event"",""trial"",""time""
""fullscreenenter"",""5"",""11906""
","
","","images/earth.jpg","","","","","","","","","","","","","","fixation","","","","","",""
"d3-animate-choice","231","769715","0.0-76.0-0.32","71","650","17","Female","true","false","true","false","""event"",""trial"",""time""
""fullscreenenter"",""5"",""11906""
","
","
","""event"",""trial"",""time""
""fullscreenenter"",""5"",""11906""
","
","122.40000000596046","","48","","","3000","1","","","images/earth.jpg","images/rocket2","images/rocket1","null","images/rocket2","","1","real","null","2","","",""
"d3-animate-choice","232","772152","0.0-76.0-1.32","71","650","17","Female","true","false","true","false","""event"",""trial"",""time""
""fullscreenenter"",""5"",""11906""
","
","
","""event"",""trial"",""time""
""fullscreenenter"",""5"",""11906""
","
","433.5","","48","","","3000","1","","","images/purpleplanet.jpg","images/alien4","images/alien3","images/rocket2","images/alien4","images/t.png","2","real","false","2","rare","1","2022-02-02 18:46:27.652"
"two-step-fixation","233","773156","0.0-76.0-2.32","71","650","17","Female","true","false","true","false","""event"",""trial"",""time""
""fullscreenenter"",""5"",""11906""
","
","
","""event"",""trial"",""time""
""fullscreenenter"",""5"",""11906""
","
","","images/earth.jpg","","","","","","","","","","","","","","fixation","","","","","",""
"d3-animate-choice","234","775371","0.0-76.0-0.33","71","650","17","Female","true","false","true","false","""event"",""trial"",""time""
""fullscreenenter"",""5"",""11906""
","
","
","""event"",""trial"",""time""
""fullscreenenter"",""5"",""11906""
","
","211.90000000596046","","48","","","3000","1","","","images/earth.jpg","images/rocket2","images/rocket1","null","images/rocket2","","1","real","null","2","","",""
"d3-animate-choice","235","777835","0.0-76.0-1.33","71","650","17","Female","true","false","true","false","""event"",""trial"",""time""
""fullscreenenter"",""5"",""11906""
","
","
","""event"",""trial"",""time""
""fullscreenenter"",""5"",""11906""
","
","460.2999999821186","","48","","","3000","1","","","images/purpleplanet.jpg","images/alien4","images/alien3","images/rocket2","images/alien4","images/nothing.png","2","real","false","2","rare","0","2022-02-02 18:46:33.335"
"two-step-fixation","236","778838","0.0-76.0-2.33","71","650","17","Female","true","false","true","false","""event"",""trial"",""time""
""fullscreenenter"",""5"",""11906""
","
","
","""event"",""trial"",""time""
""fullscreenenter"",""5"",""11906""
","
","","images/earth.jpg","","","","","","","","","","","","","","fixation","","","","","",""
"d3-animate-choice","237","780986","0.0-76.0-0.34","71","650","17","Female","true","false","true","false","""event"",""trial"",""time""
""fullscreenenter"",""5"",""11906""
","
","
","""event"",""trial"",""time""
""fullscreenenter"",""5"",""11906""
","
","144.59999999403954","","48","","","3000","1","","","images/earth.jpg","images/rocket2","images/rocket1","null","images/rocket2","","1","real","null","2","","",""
"d3-animate-choice","238","783236","0.0-76.0-1.34","71","650","17","Female","true","false","true","false","""event"",""trial"",""time""
""fullscreenenter"",""5"",""11906""
","
","
","""event"",""trial"",""time""
""fullscreenenter"",""5"",""11906""
","
","245.19999998807907","","49","","","3000","1","","","images/purpleplanet.jpg","images/alien4","images/alien3","images/rocket2","images/alien3","images/nothing.png","2","real","false","1","rare","0","2022-02-02 18:46:38.736"
"two-step-fixation","239","784239","0.0-76.0-2.34","71","650","17","Female","true","false","true","false","""event"",""trial"",""time""
""fullscreenenter"",""5"",""11906""
","
","
","""event"",""trial"",""time""
""fullscreenenter"",""5"",""11906""
","
","","images/earth.jpg","","","","","","","","","","","","","","fixation","","","","","",""
"d3-animate-choice","240","786278","0.0-76.0-0.35","71","650","17","Female","true","false","true","false","""event"",""trial"",""time""
""fullscreenenter"",""5"",""11906""
","
","
","""event"",""trial"",""time""
""fullscreenenter"",""5"",""11906""
","
","34.900000005960464","","49","","","3000","1","","","images/earth.jpg","images/rocket2","images/rocket1","null","images/rocket1","","1","real","null","1","","",""
"d3-animate-choice","241","788583","0.0-76.0-1.35","71","650","17","Female","true","false","true","false","""event"",""trial"",""time""
""fullscreenenter"",""5"",""11906""
","
","
","""event"",""trial"",""time""
""fullscreenenter"",""5"",""11906""
","
","301.7999999821186","","48","","","3000","1","","","images/purpleplanet.jpg","images/alien4","images/alien3","images/rocket1","images/alien4","images/nothing.png","2","real","true","2","common","0","2022-02-02 18:46:44.083"
"two-step-fixation","242","789588","0.0-76.0-2.35","71","650","17","Female","true","false","true","false","""event"",""trial"",""time""
""fullscreenenter"",""5"",""11906""
","
","
","""event"",""trial"",""time""
""fullscreenenter"",""5"",""11906""
","
","","images/earth.jpg","","","","","","","","","","","","","","fixation","","","","","",""
"d3-animate-choice","243","791872","0.0-76.0-0.36","71","650","17","Female","true","false","true","false","""event"",""trial"",""time""
""fullscreenenter"",""5"",""11906""
","
","
","""event"",""trial"",""time""
""fullscreenenter"",""5"",""11906""
","
","280.19999998807907","","48","","","3000","1","","","images/earth.jpg","images/rocket2","images/rocket1","null","images/rocket2","","1","real","null","2","","",""
"d3-animate-choice","244","794281","0.0-76.0-1.36","71","650","17","Female","true","false","true","false","""event"",""trial"",""time""
""fullscreenenter"",""5"",""11906""
","
","
","""event"",""trial"",""time""
""fullscreenenter"",""5"",""11906""
","
","404.80000001192093","","49","","","3000","1","","","images/redplanet1.jpg","images/alien2","images/alien1","images/rocket2","images/alien1","images/nothing.png","2","real","true","1","common","0","2022-02-02 18:46:49.781"
"two-step-fixation","245","795284","0.0-76.0-2.36","71","650","17","Female","true","false","true","false","""event"",""trial"",""time""
""fullscreenenter"",""5"",""11906""
","
","
","""event"",""trial"",""time""
""fullscreenenter"",""5"",""11906""
","
","","images/earth.jpg","","","","","","","","","","","","","","fixation","","","","","",""
"d3-animate-choice","246","797581","0.0-76.0-0.37","71","650","17","Female","true","false","true","false","""event"",""trial"",""time""
""fullscreenenter"",""5"",""11906""
","
","
","""event"",""trial"",""time""
""fullscreenenter"",""5"",""11906""
","
","292.90000000596046","","48","","","3000","1","","","images/earth.jpg","images/rocket2","images/rocket1","null","images/rocket2","","1","real","null","2","","",""
"d3-animate-choice","247","799971","0.0-76.0-1.37","71","650","17","Female","true","false","true","false","""event"",""trial"",""time""
""fullscreenenter"",""5"",""11906""
","
","
","""event"",""trial"",""time""
