"trial_type","trial_index","time_elapsed","internal_node_id","participant_id","subject_id","age","gender","rocket_sides","red_planet_first_rocket","red_display_order","purple_display_order","interactions","blur_events","focus_events","fullscreenenter_events","fullscreenexit_events","rt","stimulus","key_press","button_pressed","success","duration","valid_pressed","rts","keys","planet_text","right_text","left_text","center_text","chosen_text","reward_text","trial_stage","practice_trial","transition_type","choice","transition","reward","timestamp"
"pavlovia","0","3","0.0-0.0","1022","4964","11","Female","false","true","false","false","
","
","
","
","
","","","","","","","","","","","","","","","","","","","","","",""
"html-keyboard-response","1","3071","0.0-1.0","1022","4964","11","Female","false","true","false","false","
","
","
","
","
","3067.0999999046326","Welcome! Press the space bar to begin.","32","","","","","","","","","","","","","","","","","","",""
"audio-keyboard-response","2","4998","0.0-2.0","1022","4964","11","Female","false","true","false","false","
","
","
","
","
","1880","audio/beep_loop.wav","32","","","","","","","","","","","","","","","","","","",""
"audio-button-response","3","8606","0.0-3.0","1022","4964","11","Female","false","true","false","false","
","
","
","
","
","NaN","audio/fish.mp3","","1","","","","","","","","","","","","","","","","","",""
"audio-button-response","4","11894","0.0-4.0","1022","4964","11","Female","false","true","false","false","""event"",""trial"",""time""
""fullscreenenter"",""5"",""15321""
","
","
","""event"",""trial"",""time""
""fullscreenenter"",""5"",""15321""
","
","NaN","audio/tiger.mp3","","4","","","","","","","","","","","","","","","","","",""
"fullscreen","5","16185","0.0-5.0","1022","4964","11","Female","false","true","false","false","""event"",""trial"",""time""
""fullscreenenter"",""5"",""15321""
","
","
","""event"",""trial"",""time""
""fullscreenenter"",""5"",""15321""
","
","","","","","true","","","","","","","","","","","","","","","","",""
"d3-instructions","6","24863","0.0-6.0","1022","4964","11","Female","false","true","false","false","""event"",""trial"",""time""
""fullscreenenter"",""5"",""15321""
","
","
","""event"",""trial"",""time""
""fullscreenenter"",""5"",""15321""
","
","","","","","","","","","","","","","","","","","","","","","",""
"d3-instructions","7","31327","0.0-7.0","1022","4964","11","Female","false","true","false","false","""event"",""trial"",""time""
""fullscreenenter"",""5"",""15321""
","
","
","""event"",""trial"",""time""
""fullscreenenter"",""5"",""15321""
","
","","","","","","","","","","","","","","","","","","","","","",""
"d3-instructions","8","40666","0.0-8.0","1022","4964","11","Female","false","true","false","false","""event"",""trial"",""time""
""fullscreenenter"",""5"",""15321""
","
","
","""event"",""trial"",""time""
""fullscreenenter"",""5"",""15321""
","
","","","","","","","","","","","","","","","","","","","","","",""
"d3-instructions","9","47587","0.0-9.0","1022","4964","11","Female","false","true","false","false","""event"",""trial"",""time""
""fullscreenenter"",""5"",""15321""
","
","
","""event"",""trial"",""time""
""fullscreenenter"",""5"",""15321""
","
","","","","","","","","","","","","","","","","","","","","","",""
"d3-instructions","10","57788","0.0-10.0","1022","4964","11","Female","false","true","false","false","""event"",""trial"",""time""
""fullscreenenter"",""5"",""15321""
","
","
","""event"",""trial"",""time""
""fullscreenenter"",""5"",""15321""
","
","","","","","","","","","","","","","","","","","","","","","",""
"d3-animate-choice","11","61209","0.0-11.0","1022","4964","11","Female","false","true","false","false","""event"",""trial"",""time""
""fullscreenenter"",""5"",""15321""
","
","
","""event"",""trial"",""time""
""fullscreenenter"",""5"",""15321""
","
","1394.9000000953674","","49","","","3000","1","","","images/tutgreenplanet.jpg","images/tutalien1","images/tutalien2","null","images/tutalien2","","NA","practice","null","","","",""
"d3-animate-choice","12","63978","0.0-12.0","1022","4964","11","Female","false","true","false","false","""event"",""trial"",""time""
""fullscreenenter"",""5"",""15321""
","
","
","""event"",""trial"",""time""
""fullscreenenter"",""5"",""15321""
","
","750.8999996185303","","48","","","3000","1","","","images/tutgreenplanet.jpg","images/tutalien1","images/tutalien2","null","images/tutalien1","","NA","practice","null","","","",""
"d3-animate-choice","13","66365","0.0-13.0","1022","4964","11","Female","false","true","false","false","""event"",""trial"",""time""
""fullscreenenter"",""5"",""15321""
","
","
","""event"",""trial"",""time""
""fullscreenenter"",""5"",""15321""
","
","379.5","","49","","","3000","1","","","images/tutgreenplanet.jpg","images/tutalien1","images/tutalien2","null","images/tutalien2","","NA","practice","null","","","",""
"d3-animate-choice","14","68770","0.0-14.0","1022","4964","11","Female","false","true","false","false","""event"",""trial"",""time""
""fullscreenenter"",""5"",""15321""
","
","
","""event"",""trial"",""time""
""fullscreenenter"",""5"",""15321""
","
","379.7999997138977","","48","","","3000","1","","","images/tutgreenplanet.jpg","images/tutalien1","images/tutalien2","null","images/tutalien1","","NA","practice","null","","","",""
"d3-instructions","15","72828","0.0-15.0","1022","4964","11","Female","false","true","false","false","""event"",""trial"",""time""
""fullscreenenter"",""5"",""15321""
","
","
","""event"",""trial"",""time""
""fullscreenenter"",""5"",""15321""
","
","","","","","","","","","","","","","","","","","","","","","",""
"d3-instructions","16","75282","0.0-16.0","1022","4964","11","Female","false","true","false","false","""event"",""trial"",""time""
""fullscreenenter"",""5"",""15321""
","
","
","""event"",""trial"",""time""
""fullscreenenter"",""5"",""15321""
","
","","","","","","","","","","","","","","","","","","","","","",""
"d3-instructions","17","78889","0.0-17.0","1022","4964","11","Female","false","true","false","false","""event"",""trial"",""time""
""fullscreenenter"",""5"",""15321""
","
","
","""event"",""trial"",""time""
""fullscreenenter"",""5"",""15321""
","
","","","","","","","","","","","","","","","","","","","","","",""
"d3-instructions","18","91393","0.0-18.0","1022","4964","11","Female","false","true","false","false","""event"",""trial"",""time""
""fullscreenenter"",""5"",""15321""
","
","
","""event"",""trial"",""time""
""fullscreenenter"",""5"",""15321""
","
","","","","","","","","","","","","","","","","","","","","","",""
"d3-instructions","19","95749","0.0-19.0","1022","4964","11","Female","false","true","false","false","""event"",""trial"",""time""
""fullscreenenter"",""5"",""15321""
","
","
","""event"",""trial"",""time""
""fullscreenenter"",""5"",""15321""
","
","","","","","","","","","","","","","","","","","","","","","",""
"d3-animate-choice","20","98708","0.0-20.0","1022","4964","11","Female","false","true","false","false","""event"",""trial"",""time""
""fullscreenenter"",""5"",""15321""
","
","
","""event"",""trial"",""time""
""fullscreenenter"",""5"",""15321""
","
","950","","49","","","3000","1","","","images/tutyellowplanet.jpg","null","images/tutalien3","null","images/tutalien3","images/t.png","NA","practice","null","","","",""
"d3-animate-choice","21","101111","0.0-21.0","1022","4964","11","Female","false","true","false","false","""event"",""trial"",""time""
""fullscreenenter"",""5"",""15321""
","
","
","""event"",""trial"",""time""
""fullscreenenter"",""5"",""15321""
","
","393.40000009536743","","49","","","3000","1","","","images/tutyellowplanet.jpg","null","images/tutalien3","null","images/tutalien3","images/t.png","NA","practice","null","","","",""
"d3-animate-choice","22","103600","0.0-22.0","1022","4964","11","Female","false","true","false","false","""event"",""trial"",""time""
""fullscreenenter"",""5"",""15321""
","
","
","""event"",""trial"",""time""
""fullscreenenter"",""5"",""15321""
","
","466.90000009536743","","49","","","3000","1","","","images/tutyellowplanet.jpg","null","images/tutalien3","null","images/tutalien3","images/nothing.png","NA","practice","null","","","",""
"d3-animate-choice","23","106161","0.0-23.0","1022","4964","11","Female","false","true","false","false","""event"",""trial"",""time""
""fullscreenenter"",""5"",""15321""
","
","
","""event"",""trial"",""time""
""fullscreenenter"",""5"",""15321""
","
","540","","49","","","3000","1","","","images/tutyellowplanet.jpg","null","images/tutalien3","null","images/tutalien3","images/t.png","NA","practice","null","","","",""
"d3-animate-choice","24","108448","0.0-24.0","1022","4964","11","Female","false","true","false","false","""event"",""trial"",""time""
""fullscreenenter"",""5"",""15321""
","
","
","""event"",""trial"",""time""
""fullscreenenter"",""5"",""15321""
","
","271.80000019073486","","49","","","3000","1","","","images/tutyellowplanet.jpg","null","images/tutalien3","null","images/tutalien3","images/nothing.png","NA","practice","null","","","",""
"d3-animate-choice","25","110983","0.0-25.0","1022","4964","11","Female","false","true","false","false","""event"",""trial"",""time""
""fullscreenenter"",""5"",""15321""
","
","
","""event"",""trial"",""time""
""fullscreenenter"",""5"",""15321""
","
","520.9000000953674","","49","","","3000","1","","","images/tutyellowplanet.jpg","null","images/tutalien3","null","images/tutalien3","images/nothing.png","NA","practice","null","","","",""
"d3-animate-choice","26","113427","0.0-26.0","1022","4964","11","Female","false","true","false","false","""event"",""trial"",""time""
""fullscreenenter"",""5"",""15321""
","
","
","""event"",""trial"",""time""
""fullscreenenter"",""5"",""15321""
","
","431.59999990463257","","49","","","3000","1","","","images/tutyellowplanet.jpg","null","images/tutalien3","null","images/tutalien3","images/t.png","NA","practice","null","","","",""
"d3-animate-choice","27","115709","0.0-27.0","1022","4964","11","Female","false","true","false","false","""event"",""trial"",""time""
""fullscreenenter"",""5"",""15321""
","
","
","""event"",""trial"",""time""
""fullscreenenter"",""5"",""15321""
","
","265.59999990463257","","49","","","3000","1","","","images/tutyellowplanet.jpg","null","images/tutalien3","null","images/tutalien3","images/t.png","NA","practice","null","","","",""
"d3-animate-choice","28","118244","0.0-28.0","1022","4964","11","Female","false","true","false","false","""event"",""trial"",""time""
""fullscreenenter"",""5"",""15321""
","
","
","""event"",""trial"",""time""
""fullscreenenter"",""5"",""15321""
","
","525.7000002861023","","49","","","3000","1","","","images/tutyellowplanet.jpg","null","images/tutalien3","null","images/tutalien3","images/nothing.png","NA","practice","null","","","",""
"d3-animate-choice","29","120914","0.0-29.0","1022","4964","11","Female","false","true","false","false","""event"",""trial"",""time""
""fullscreenenter"",""5"",""15321""
","
","
","""event"",""trial"",""time""
""fullscreenenter"",""5"",""15321""
","
","647.2000002861023","","49","","","3000","1","","","images/tutyellowplanet.jpg","null","images/tutalien3","null","images/tutalien3","images/t.png","NA","practice","null","","","",""
"d3-instructions","30","124866","0.0-30.0","1022","4964","11","Female","false","true","false","false","""event"",""trial"",""time""
""fullscreenenter"",""5"",""15321""
","
","
","""event"",""trial"",""time""
""fullscreenenter"",""5"",""15321""
","
","","","","","","","","","","","","","","","","","","","","","",""
"d3-instructions","31","134050","0.0-31.0","1022","4964","11","Female","false","true","false","false","""event"",""trial"",""time""
""fullscreenenter"",""5"",""15321""
","
","
","""event"",""trial"",""time""
""fullscreenenter"",""5"",""15321""
","
","","","","","","","","","","","","","","","","","","","","","",""
"d3-instructions","32","141119","0.0-32.0","1022","4964","11","Female","false","true","false","false","""event"",""trial"",""time""
""fullscreenenter"",""5"",""15321""
","
","
","""event"",""trial"",""time""
""fullscreenenter"",""5"",""15321""
","
","","","","","","","","","","","","","","","","","","","","","",""
"d3-instructions","33","143739","0.0-33.0","1022","4964","11","Female","false","true","false","false","""event"",""trial"",""time""
""fullscreenenter"",""5"",""15321""
","
","
","""event"",""trial"",""time""
""fullscreenenter"",""5"",""15321""
","
","","","","","","","","","","","","","","","","","","","","","",""
"d3-animate-choice","34","146828","0.0-34.0","1022","4964","11","Female","false","true","false","false","""event"",""trial"",""time""
""fullscreenenter"",""5"",""15321""
","
","
","""event"",""trial"",""time""
""fullscreenenter"",""5"",""15321""
","
","1079.5","","49","","","3000","1","","","images/tutgreenplanet.jpg","images/tutalien1","images/tutalien2","null","images/tutalien2","images/t.png","NA","practice","null","","","",""
"d3-animate-choice","35","149347","0.0-35.0","1022","4964","11","Female","false","true","false","false","""event"",""trial"",""time""
""fullscreenenter"",""5"",""15321""
","
","
","""event"",""trial"",""time""
""fullscreenenter"",""5"",""15321""
","
","497.5","","48","","","3000","1","","","images/tutgreenplanet.jpg","images/tutalien1","images/tutalien2","null","images/tutalien1","images/nothing.png","NA","practice","null","","","",""
"d3-animate-choice","36","151768","0.0-36.0","1022","4964","11","Female","false","true","false","false","""event"",""trial"",""time""
""fullscreenenter"",""5"",""15321""
","
","
","""event"",""trial"",""time""
""fullscreenenter"",""5"",""15321""
","
","410","","48","","","3000","1","","","images/tutgreenplanet.jpg","images/tutalien1","images/tutalien2","null","images/tutalien1","images/nothing.png","NA","practice","null","","","",""
"d3-animate-choice","37","154053","0.0-37.0","1022","4964","11","Female","false","true","false","false","""event"",""trial"",""time""
""fullscreenenter"",""5"",""15321""
","
","
","""event"",""trial"",""time""
""fullscreenenter"",""5"",""15321""
","
","280","","48","","","3000","1","","","images/tutgreenplanet.jpg","images/tutalien1","images/tutalien2","null","images/tutalien1","images/nothing.png","NA","practice","null","","","",""
"d3-animate-choice","38","156270","0.0-38.0","1022","4964","11","Female","false","true","false","false","""event"",""trial"",""time""
""fullscreenenter"",""5"",""15321""
","
","
","""event"",""trial"",""time""
""fullscreenenter"",""5"",""15321""
","
","208.59999990463257","","49","","","3000","1","","","images/tutgreenplanet.jpg","images/tutalien1","images/tutalien2","null","images/tutalien2","images/t.png","NA","practice","null","","","",""
"d3-animate-choice","39","158573","0.0-39.0","1022","4964","11","Female","false","true","false","false","""event"",""trial"",""time""
""fullscreenenter"",""5"",""15321""
","
","
","""event"",""trial"",""time""
""fullscreenenter"",""5"",""15321""
","
","294.3999996185303","","49","","","3000","1","","","images/tutgreenplanet.jpg","images/tutalien1","images/tutalien2","null","images/tutalien2","images/t.png","NA","practice","null","","","",""
"d3-animate-choice","40","160868","0.0-40.0","1022","4964","11","Female","false","true","false","false","""event"",""trial"",""time""
""fullscreenenter"",""5"",""15321""
","
","
","""event"",""trial"",""time""
""fullscreenenter"",""5"",""15321""
","
","286.59999990463257","","49","","","3000","1","","","images/tutgreenplanet.jpg","images/tutalien1","images/tutalien2","null","images/tutalien2","images/t.png","NA","practice","null","","","",""
"d3-animate-choice","41","163307","0.0-41.0","1022","4964","11","Female","false","true","false","false","""event"",""trial"",""time""
""fullscreenenter"",""5"",""15321""
","
","
","""event"",""trial"",""time""
""fullscreenenter"",""5"",""15321""
","
","422.69999980926514","","49","","","3000","1","2383.0999999046326","49","images/tutgreenplanet.jpg","images/tutalien1","images/tutalien2","null","images/tutalien2","images/t.png","NA","practice","null","","","",""
"d3-animate-choice","42","165909","0.0-42.0","1022","4964","11","Female","false","true","false","false","""event"",""trial"",""time""
""fullscreenenter"",""5"",""15321""
","
","
","""event"",""trial"",""time""
""fullscreenenter"",""5"",""15321""
","
","586","","49","","","3000","1","","","images/tutgreenplanet.jpg","images/tutalien1","images/tutalien2","null","images/tutalien2","images/nothing.png","NA","practice","null","","","",""
"d3-animate-choice","43","168899","0.0-43.0","1022","4964","11","Female","false","true","false","false","""event"",""trial"",""time""
""fullscreenenter"",""5"",""15321""
","
","
","""event"",""trial"",""time""
""fullscreenenter"",""5"",""15321""
","
","970.8000001907349","","49","","","3000","1","","","images/tutgreenplanet.jpg","images/tutalien1","images/tutalien2","null","images/tutalien2","images/t.png","NA","practice","null","","","",""
"d3-instructions","44","177579","0.0-44.0","1022","4964","11","Female","false","true","false","false","""event"",""trial"",""time""
""fullscreenenter"",""5"",""15321""
","
","
","""event"",""trial"",""time""
""fullscreenenter"",""5"",""15321""
","
","","","","","","","","","","","","","","","","","","","","","",""
"d3-instructions","45","180211","0.0-45.0","1022","4964","11","Female","false","true","false","false","""event"",""trial"",""time""
""fullscreenenter"",""5"",""15321""
","
","
","""event"",""trial"",""time""
""fullscreenenter"",""5"",""15321""
","
","","","","","","","","","","","","","","","","","","","","","",""
"d3-instructions","46","183347","0.0-46.0","1022","4964","11","Female","false","true","false","false","""event"",""trial"",""time""
""fullscreenenter"",""5"",""15321""
","
","
","""event"",""trial"",""time""
""fullscreenenter"",""5"",""15321""
","
","","","","","","","","","","","","","","","","","","","","","",""
"d3-instructions","47","190076","0.0-47.0","1022","4964","11","Female","false","true","false","false","""event"",""trial"",""time""
""fullscreenenter"",""5"",""15321""
","
","
","""event"",""trial"",""time""
""fullscreenenter"",""5"",""15321""
","
","","","","","","","","","","","","","","","","","","","","","",""
"d3-instructions","48","193760","0.0-48.0","1022","4964","11","Female","false","true","false","false","""event"",""trial"",""time""
""fullscreenenter"",""5"",""15321""
","
","
","""event"",""trial"",""time""
""fullscreenenter"",""5"",""15321""
","
","","","","","","","","","","","","","","","","","","","","","",""
"d3-instructions","49","197623","0.0-49.0","1022","4964","11","Female","false","true","false","false","""event"",""trial"",""time""
""fullscreenenter"",""5"",""15321""
","
","
","""event"",""trial"",""time""
""fullscreenenter"",""5"",""15321""
","
","","","","","","","","","","","","","","","","","","","","","",""
"d3-instructions","50","200399","0.0-50.0","1022","4964","11","Female","false","true","false","false","""event"",""trial"",""time""
""fullscreenenter"",""5"",""15321""
","
","
","""event"",""trial"",""time""
""fullscreenenter"",""5"",""15321""
","
","","","","","","","","","","","","","","","","","","","","","",""
"d3-instructions","51","203652","0.0-51.0","1022","4964","11","Female","false","true","false","false","""event"",""trial"",""time""
""fullscreenenter"",""5"",""15321""
","
","
","""event"",""trial"",""time""
""fullscreenenter"",""5"",""15321""
","
","","","","","","","","","","","","","","","","","","","","","",""
"d3-instructions","52","207005","0.0-52.0","1022","4964","11","Female","false","true","false","false","""event"",""trial"",""time""
""fullscreenenter"",""5"",""15321""
","
","
","""event"",""trial"",""time""
""fullscreenenter"",""5"",""15321""
","
","","","","","","","","","","","","","","","","","","","","","",""
"d3-instructions","53","217237","0.0-53.0","1022","4964","11","Female","false","true","false","false","""event"",""trial"",""time""
""fullscreenenter"",""5"",""15321""
","
","
","""event"",""trial"",""time""
""fullscreenenter"",""5"",""15321""
","
","","","","","","","","","","","","","","","","","","","","","",""
"d3-instructions","54","221775","0.0-54.0","1022","4964","11","Female","false","true","false","false","""event"",""trial"",""time""
""fullscreenenter"",""5"",""15321""
","
","
","""event"",""trial"",""time""
""fullscreenenter"",""5"",""15321""
","
","","","","","","","","","","","","","","","","","","","","","",""
"d3-instructions","55","223843","0.0-55.0","1022","4964","11","Female","false","true","false","false","""event"",""trial"",""time""
""fullscreenenter"",""5"",""15321""
","
","
","""event"",""trial"",""time""
""fullscreenenter"",""5"",""15321""
","
","","","","","","","","","","","","","","","","","","","","","",""
"d3-instructions","56","227580","0.0-56.0","1022","4964","11","Female","false","true","false","false","""event"",""trial"",""time""
""fullscreenenter"",""5"",""15321""
","
","
","""event"",""trial"",""time""
""fullscreenenter"",""5"",""15321""
","
","","","","","","","","","","","","","","","","","","","","","",""
"d3-instructions","57","230321","0.0-57.0","1022","4964","11","Female","false","true","false","false","""event"",""trial"",""time""
""fullscreenenter"",""5"",""15321""
","
","
","""event"",""trial"",""time""
""fullscreenenter"",""5"",""15321""
","
","","","","","","","","","","","","","","","","","","","","","",""
"d3-instructions","58","233407","0.0-58.0","1022","4964","11","Female","false","true","false","false","""event"",""trial"",""time""
""fullscreenenter"",""5"",""15321""
","
","
","""event"",""trial"",""time""
""fullscreenenter"",""5"",""15321""
","
","","","","","","","","","","","","","","","","","","","","","",""
"d3-instructions","59","235542","0.0-59.0","1022","4964","11","Female","false","true","false","false","""event"",""trial"",""time""
""fullscreenenter"",""5"",""15321""
","
","
","""event"",""trial"",""time""
""fullscreenenter"",""5"",""15321""
","
","","","","","","","","","","","","","","","","","","","","","",""
"d3-instructions","60","237658","0.0-60.0","1022","4964","11","Female","false","true","false","false","""event"",""trial"",""time""
""fullscreenenter"",""5"",""15321""
","
","
","""event"",""trial"",""time""
""fullscreenenter"",""5"",""15321""
","
","","","","","","","","","","","","","","","","","","","","","",""
"d3-animate-choice","61","241182","0.0-61.0-0.0","1022","4964","11","Female","false","true","false","false","""event"",""trial"",""time""
""fullscreenenter"",""5"",""15321""
","
","
","""event"",""trial"",""time""
""fullscreenenter"",""5"",""15321""
","
","1515.5999999046326","","49","","","3000","1","","","images/earth.jpg","images/tutrocket2","images/tutrocket1","null","images/tutrocket1","","1","practice","null","1","","",""
"d3-animate-choice","62","244461","0.0-61.0-1.0","1022","4964","11","Female","false","true","false","false","""event"",""trial"",""time""
""fullscreenenter"",""5"",""15321""
","
","
","""event"",""trial"",""time""
""fullscreenenter"",""5"",""15321""
","
","1270.6999998092651","","49","","","3000","1","","","images/tutgreenplanet.jpg","images/tutalien2","images/tutalien1","images/tutrocket1","images/tutalien1","images/nothing.png","2","practice","true","1","common","0","2022-12-10 20:21:54.592"
"two-step-fixation","63","245510","0.0-61.0-2.0","1022","4964","11","Female","false","true","false","false","""event"",""trial"",""time""
""fullscreenenter"",""5"",""15321""
","
","
","""event"",""trial"",""time""
""fullscreenenter"",""5"",""15321""
","
","","images/earth.jpg","","","","","","","","","","","","","","fixation","","","","","",""
"d3-animate-choice","64","248488","0.0-61.0-0.1","1022","4964","11","Female","false","true","false","false","""event"",""trial"",""time""
""fullscreenenter"",""5"",""15321""
","
","
","""event"",""trial"",""time""
""fullscreenenter"",""5"",""15321""
","
","971","","49","","","3000","1","","","images/earth.jpg","images/tutrocket2","images/tutrocket1","null","images/tutrocket1","","1","practice","null","1","","",""
"d3-animate-choice","65","251334","0.0-61.0-1.1","1022","4964","11","Female","false","true","false","false","""event"",""trial"",""time""
""fullscreenenter"",""5"",""15321""
","
","
","""event"",""trial"",""time""
""fullscreenenter"",""5"",""15321""
","
","828.6999998092651","","48","","","3000","1","","","images/tutgreenplanet.jpg","images/tutalien2","images/tutalien1","images/tutrocket1","images/tutalien2","images/nothing.png","2","practice","true","2","common","0","2022-12-10 20:22:01.465"
"two-step-fixation","66","252343","0.0-61.0-2.1","1022","4964","11","Female","false","true","false","false","""event"",""trial"",""time""
""fullscreenenter"",""5"",""15321""
","
","
","""event"",""trial"",""time""
""fullscreenenter"",""5"",""15321""
","
","","images/earth.jpg","","","","","","","","","","","","","","fixation","","","","","",""
"d3-animate-choice","67","254835","0.0-61.0-0.2","1022","4964","11","Female","false","true","false","false","""event"",""trial"",""time""
""fullscreenenter"",""5"",""15321""
","
","
","""event"",""trial"",""time""
""fullscreenenter"",""5"",""15321""
","
","482.5","","49","","","3000","1","","","images/earth.jpg","images/tutrocket2","images/tutrocket1","null","images/tutrocket1","","1","practice","null","1","","",""
"d3-animate-choice","68","257581","0.0-61.0-1.2","1022","4964","11","Female","false","true","false","false","""event"",""trial"",""time""
""fullscreenenter"",""5"",""15321""
","
","
","""event"",""trial"",""time""
""fullscreenenter"",""5"",""15321""
","
","742","","49","","","3000","1","","","images/tutgreenplanet.jpg","images/tutalien2","images/tutalien1","images/tutrocket1","images/tutalien1","images/nothing.png","2","practice","true","1","common","0","2022-12-10 20:22:07.712"
"two-step-fixation","69","258589","0.0-61.0-2.2","1022","4964","11","Female","false","true","false","false","""event"",""trial"",""time""
""fullscreenenter"",""5"",""15321""
","
","
","""event"",""trial"",""time""
""fullscreenenter"",""5"",""15321""
","
","","images/earth.jpg","","","","","","","","","","","","","","fixation","","","","","",""
"d3-animate-choice","70","261085","0.0-61.0-0.3","1022","4964","11","Female","false","true","false","false","""event"",""trial"",""time""
""fullscreenenter"",""5"",""15321""
","
","
","""event"",""trial"",""time""
""fullscreenenter"",""5"",""15321""
","
","483.30000019073486","","48","","","3000","1","","","images/earth.jpg","images/tutrocket2","images/tutrocket1","null","images/tutrocket2","","1","practice","null","2","","",""
"d3-animate-choice","71","263893","0.0-61.0-1.3","1022","4964","11","Female","false","true","false","false","""event"",""trial"",""time""
""fullscreenenter"",""5"",""15321""
","
","
","""event"",""trial"",""time""
""fullscreenenter"",""5"",""15321""
","
","800.5","","48","","","3000","1","","","images/tutgreenplanet.jpg","images/tutalien2","images/tutalien1","images/tutrocket2","images/tutalien2","images/nothing.png","2","practice","false","2","rare","0","2022-12-10 20:22:14.024"
"two-step-fixation","72","264900","0.0-61.0-2.3","1022","4964","11","Female","false","true","false","false","""event"",""trial"",""time""
""fullscreenenter"",""5"",""15321""
","
","
","""event"",""trial"",""time""
""fullscreenenter"",""5"",""15321""
","
","","images/earth.jpg","","","","","","","","","","","","","","fixation","","","","","",""
"d3-animate-choice","73","267204","0.0-61.0-0.4","1022","4964","11","Female","false","true","false","false","""event"",""trial"",""time""
""fullscreenenter"",""5"",""15321""
","
","
","""event"",""trial"",""time""
""fullscreenenter"",""5"",""15321""
","
","294.90000009536743","","48","","","3000","1","","","images/earth.jpg","images/tutrocket2","images/tutrocket1","null","images/tutrocket2","","1","practice","null","2","","",""
"d3-animate-choice","74","270408","0.0-61.0-1.4","1022","4964","11","Female","false","true","false","false","""event"",""trial"",""time""
""fullscreenenter"",""5"",""15321""
","
","
","""event"",""trial"",""time""
""fullscreenenter"",""5"",""15321""
","
","1199.2000002861023","","48","","","3000","1","","","images/tutyellowplanet.jpg","images/tutalien4","images/tutalien3","images/tutrocket2","images/tutalien4","images/nothing.png","2","practice","true","2","common","0","2022-12-10 20:22:20.540"
"two-step-fixation","75","271412","0.0-61.0-2.4","1022","4964","11","Female","false","true","false","false","""event"",""trial"",""time""
""fullscreenenter"",""5"",""15321""
","
","
","""event"",""trial"",""time""
""fullscreenenter"",""5"",""15321""
","
","","images/earth.jpg","","","","","","","","","","","","","","fixation","","","","","",""
"d3-animate-choice","76","273676","0.0-61.0-0.5","1022","4964","11","Female","false","true","false","false","""event"",""trial"",""time""
""fullscreenenter"",""5"",""15321""
","
","
","""event"",""trial"",""time""
""fullscreenenter"",""5"",""15321""
","
","261.40000009536743","","48","","","3000","1","","","images/earth.jpg","images/tutrocket2","images/tutrocket1","null","images/tutrocket2","","1","practice","null","2","","",""
"d3-animate-choice","77","276413","0.0-61.0-1.5","1022","4964","11","Female","false","true","false","false","""event"",""trial"",""time""
""fullscreenenter"",""5"",""15321""
","
","
","""event"",""trial"",""time""
""fullscreenenter"",""5"",""15321""
","
","729.3000001907349","","49","","","3000","1","","","images/tutyellowplanet.jpg","images/tutalien4","images/tutalien3","images/tutrocket2","images/tutalien3","images/nothing.png","2","practice","true","1","common","0","2022-12-10 20:22:26.544"
"two-step-fixation","78","277420","0.0-61.0-2.5","1022","4964","11","Female","false","true","false","false","""event"",""trial"",""time""
""fullscreenenter"",""5"",""15321""
","
","
","""event"",""trial"",""time""
""fullscreenenter"",""5"",""15321""
","
","","images/earth.jpg","","","","","","","","","","","","","","fixation","","","","","",""
"d3-animate-choice","79","279572","0.0-61.0-0.6","1022","4964","11","Female","false","true","false","false","""event"",""trial"",""time""
""fullscreenenter"",""5"",""15321""
","
","
","""event"",""trial"",""time""
""fullscreenenter"",""5"",""15321""
","
","145.7999997138977","","48","","","3000","1","","","images/earth.jpg","images/tutrocket2","images/tutrocket1","null","images/tutrocket2","","1","practice","null","2","","",""
"d3-animate-choice","80","282556","0.0-61.0-1.6","1022","4964","11","Female","false","true","false","false","""event"",""trial"",""time""
""fullscreenenter"",""5"",""15321""
","
","
","""event"",""trial"",""time""
""fullscreenenter"",""5"",""15321""
","
","979.7000002861023","","48","","","3000","1","","","images/tutgreenplanet.jpg","images/tutalien2","images/tutalien1","images/tutrocket2","images/tutalien2","images/t.png","2","practice","false","2","rare","1","2022-12-10 20:22:32.687"
"two-step-fixation","81","283565","0.0-61.0-2.6","1022","4964","11","Female","false","true","false","false","""event"",""trial"",""time""
""fullscreenenter"",""5"",""15321""
","
","
","""event"",""trial"",""time""
""fullscreenenter"",""5"",""15321""
","
","","images/earth.jpg","","","","","","","","","","","","","","fixation","","","","","",""
"d3-animate-choice","82","285836","0.0-61.0-0.7","1022","4964","11","Female","false","true","false","false","""event"",""trial"",""time""
""fullscreenenter"",""5"",""15321""
","
","
","""event"",""trial"",""time""
""fullscreenenter"",""5"",""15321""
","
","266.59999990463257","","48","","","3000","1","","","images/earth.jpg","images/tutrocket2","images/tutrocket1","null","images/tutrocket2","","1","practice","null","2","","",""
"d3-animate-choice","83","288308","0.0-61.0-1.7","1022","4964","11","Female","false","true","false","false","""event"",""trial"",""time""
""fullscreenenter"",""5"",""15321""
","
","
","""event"",""trial"",""time""
""fullscreenenter"",""5"",""15321""
","
","463.5","","48","","","3000","1","","","images/tutgreenplanet.jpg","images/tutalien2","images/tutalien1","images/tutrocket2","images/tutalien2","images/t.png","2","practice","false","2","rare","1","2022-12-10 20:22:38.440"
"two-step-fixation","84","289331","0.0-61.0-2.7","1022","4964","11","Female","false","true","false","false","""event"",""trial"",""time""
""fullscreenenter"",""5"",""15321""
","
","
","""event"",""trial"",""time""
""fullscreenenter"",""5"",""15321""
","
","","images/earth.jpg","","","","","","","","","","","","","","fixation","","","","","",""
"d3-animate-choice","85","291861","0.0-61.0-0.8","1022","4964","11","Female","false","true","false","false","""event"",""trial"",""time""
""fullscreenenter"",""5"",""15321""
","
","
","""event"",""trial"",""time""
""fullscreenenter"",""5"",""15321""
","
","525.7999997138977","","48","","","3000","1","","","images/earth.jpg","images/tutrocket2","images/tutrocket1","null","images/tutrocket2","","1","practice","null","2","","",""
"d3-animate-choice","86","294534","0.0-61.0-1.8","1022","4964","11","Female","false","true","false","false","""event"",""trial"",""time""
""fullscreenenter"",""5"",""15321""
","
","
","""event"",""trial"",""time""
""fullscreenenter"",""5"",""15321""
","
","663.9000000953674","","48","","","3000","1","","","images/tutyellowplanet.jpg","images/tutalien4","images/tutalien3","images/tutrocket2","images/tutalien4","images/nothing.png","2","practice","true","2","common","0","2022-12-10 20:22:44.665"
"two-step-fixation","87","295541","0.0-61.0-2.8","1022","4964","11","Female","false","true","false","false","""event"",""trial"",""time""
""fullscreenenter"",""5"",""15321""
","
","
","""event"",""trial"",""time""
""fullscreenenter"",""5"",""15321""
","
","","images/earth.jpg","","","","","","","","","","","","","","fixation","","","","","",""
"d3-animate-choice","88","297987","0.0-61.0-0.9","1022","4964","11","Female","false","true","false","false","""event"",""trial"",""time""
""fullscreenenter"",""5"",""15321""
","
","
","""event"",""trial"",""time""
""fullscreenenter"",""5"",""15321""
","
","438.6000003814697","","49","","","3000","1","","","images/earth.jpg","images/tutrocket2","images/tutrocket1","null","images/tutrocket1","","1","practice","null","1","","",""
"d3-animate-choice","89","300947","0.0-61.0-1.9","1022","4964","11","Female","false","true","false","false","""event"",""trial"",""time""
""fullscreenenter"",""5"",""15321""
","
","
","""event"",""trial"",""time""
""fullscreenenter"",""5"",""15321""
","
","953.8000001907349","","49","","","3000","1","","","images/tutyellowplanet.jpg","images/tutalien4","images/tutalien3","images/tutrocket1","images/tutalien3","images/t.png","2","practice","false","1","rare","1","2022-12-10 20:22:51.079"
"two-step-fixation","90","301954","0.0-61.0-2.9","1022","4964","11","Female","false","true","false","false","""event"",""trial"",""time""
""fullscreenenter"",""5"",""15321""
","
","
","""event"",""trial"",""time""
""fullscreenenter"",""5"",""15321""
","
","","images/earth.jpg","","","","","","","","","","","","","","fixation","","","","","",""
"d3-animate-choice","91","304020","0.0-61.0-0.10","1022","4964","11","Female","false","true","false","false","""event"",""trial"",""time""
""fullscreenenter"",""5"",""15321""
","
","
","""event"",""trial"",""time""
""fullscreenenter"",""5"",""15321""
","
","57.09999990463257","","49","","","3000","1","","","images/earth.jpg","images/tutrocket2","images/tutrocket1","null","images/tutrocket1","","1","practice","null","1","","",""
"d3-animate-choice","92","307164","0.0-61.0-1.10","1022","4964","11","Female","false","true","false","false","""event"",""trial"",""time""
""fullscreenenter"",""5"",""15321""
","
","
","""event"",""trial"",""time""
""fullscreenenter"",""5"",""15321""
","
","1128.7999997138977","","48","","","3000","1","","","images/tutgreenplanet.jpg","images/tutalien2","images/tutalien1","images/tutrocket1","images/tutalien2","images/nothing.png","2","practice","true","2","common","0","2022-12-10 20:22:57.295"
"two-step-fixation","93","308172","0.0-61.0-2.10","1022","4964","11","Female","false","true","false","false","""event"",""trial"",""time""
""fullscreenenter"",""5"",""15321""
","
","
","""event"",""trial"",""time""
""fullscreenenter"",""5"",""15321""
","
","","images/earth.jpg","","","","","","","","","","","","","","fixation","","","","","",""
"d3-animate-choice","94","310709","0.0-61.0-0.11","1022","4964","11","Female","false","true","false","false","""event"",""trial"",""time""
""fullscreenenter"",""5"",""15321""
","
","
","""event"",""trial"",""time""
""fullscreenenter"",""5"",""15321""
","
","527.7999997138977","","49","","","3000","1","","","images/earth.jpg","images/tutrocket2","images/tutrocket1","null","images/tutrocket1","","1","practice","null","1","","",""
"d3-animate-choice","95","313847","0.0-61.0-1.11","1022","4964","11","Female","false","true","false","false","""event"",""trial"",""time""
""fullscreenenter"",""5"",""15321""
","
","
","""event"",""trial"",""time""
""fullscreenenter"",""5"",""15321""
","
","1133.5999999046326","","49","","","3000","1","","","images/tutgreenplanet.jpg","images/tutalien2","images/tutalien1","images/tutrocket1","images/tutalien1","images/nothing.png","2","practice","true","1","common","0","2022-12-10 20:23:03.978"
"two-step-fixation","96","314851","0.0-61.0-2.11","1022","4964","11","Female","false","true","false","false","""event"",""trial"",""time""
""fullscreenenter"",""5"",""15321""
","
","
","""event"",""trial"",""time""
""fullscreenenter"",""5"",""15321""
","
","","images/earth.jpg","","","","","","","","","","","","","","fixation","","","","","",""
"d3-animate-choice","97","316876","0.0-61.0-0.12","1022","4964","11","Female","false","true","false","false","""event"",""trial"",""time""
""fullscreenenter"",""5"",""15321""
","
","
","""event"",""trial"",""time""
""fullscreenenter"",""5"",""15321""
","
","15.900000095367432","","49","","","3000","1","","","images/earth.jpg","images/tutrocket2","images/tutrocket1","null","images/tutrocket1","","1","practice","null","1","","",""
"d3-animate-choice","98","319410","0.0-61.0-1.12","1022","4964","11","Female","false","true","false","false","""event"",""trial"",""time""
""fullscreenenter"",""5"",""15321""
","
","
","""event"",""trial"",""time""
""fullscreenenter"",""5"",""15321""
","
","527.9000000953674","","48","","","3000","1","","","images/tutyellowplanet.jpg","images/tutalien4","images/tutalien3","images/tutrocket1","images/tutalien4","images/nothing.png","2","practice","false","2","rare","0","2022-12-10 20:23:09.541"
"two-step-fixation","99","320420","0.0-61.0-2.12","1022","4964","11","Female","false","true","false","false","""event"",""trial"",""time""
""fullscreenenter"",""5"",""15321""
","
","
","""event"",""trial"",""time""
""fullscreenenter"",""5"",""15321""
","
","","images/earth.jpg","","","","","","","","","","","","","","fixation","","","","","",""
"d3-animate-choice","100","322843","0.0-61.0-0.13","1022","4964","11","Female","false","true","false","false","""event"",""trial"",""time""
""fullscreenenter"",""5"",""15321""
","
","
","""event"",""trial"",""time""
""fullscreenenter"",""5"",""15321""
","
","412.2000002861023","","49","","","3000","1","","","images/earth.jpg","images/tutrocket2","images/tutrocket1","null","images/tutrocket1","","1","practice","null","1","","",""
"d3-animate-choice","101","325251","0.0-61.0-1.13","1022","4964","11","Female","false","true","false","false","""event"",""trial"",""time""
""fullscreenenter"",""5"",""15321""
","
","
","""event"",""trial"",""time""
""fullscreenenter"",""5"",""15321""
","
","397.09999990463257","","49","","","3000","1","","","images/tutgreenplanet.jpg","images/tutalien2","images/tutalien1","images/tutrocket1","images/tutalien1","images/nothing.png","2","practice","true","1","common","0","2022-12-10 20:23:15.382"
"two-step-fixation","102","326260","0.0-61.0-2.13","1022","4964","11","Female","false","true","false","false","""event"",""trial"",""time""
""fullscreenenter"",""5"",""15321""
","
","
","""event"",""trial"",""time""
""fullscreenenter"",""5"",""15321""
","
","","images/earth.jpg","","","","","","","","","","","","","","fixation","","","","","",""
"d3-animate-choice","103","328796","0.0-61.0-0.14","1022","4964","11","Female","false","true","false","false","""event"",""trial"",""time""
""fullscreenenter"",""5"",""15321""
","
","
","""event"",""trial"",""time""
""fullscreenenter"",""5"",""15321""
","
","527.3000001907349","","48","","","3000","1","","","images/earth.jpg","images/tutrocket2","images/tutrocket1","null","images/tutrocket2","","1","practice","null","2","","",""
"d3-animate-choice","104","331935","0.0-61.0-1.14","1022","4964","11","Female","false","true","false","false","""event"",""trial"",""time""
""fullscreenenter"",""5"",""15321""
","
","
","""event"",""trial"",""time""
""fullscreenenter"",""5"",""15321""
","
","1133.8000001907349","","49","","","3000","1","","","images/tutyellowplanet.jpg","images/tutalien4","images/tutalien3","images/tutrocket2","images/tutalien3","images/nothing.png","2","practice","true","1","common","0","2022-12-10 20:23:22.067"
"two-step-fixation","105","332939","0.0-61.0-2.14","1022","4964","11","Female","false","true","false","false","""event"",""trial"",""time""
""fullscreenenter"",""5"",""15321""
","
","
","""event"",""trial"",""time""
""fullscreenenter"",""5"",""15321""
","
","","images/earth.jpg","","","","","","","","","","","","","","fixation","","","","","",""
"d3-animate-choice","106","335396","0.0-61.0-0.15","1022","4964","11","Female","false","true","false","false","""event"",""trial"",""time""
""fullscreenenter"",""5"",""15321""
","
","
","""event"",""trial"",""time""
""fullscreenenter"",""5"",""15321""
","
","447.5","","49","","","3000","1","","","images/earth.jpg","images/tutrocket2","images/tutrocket1","null","images/tutrocket1","","1","practice","null","1","","",""
"d3-animate-choice","107","339084","0.0-61.0-1.15","1022","4964","11","Female","false","true","false","false","""event"",""trial"",""time""
""fullscreenenter"",""5"",""15321""
","
","
","""event"",""trial"",""time""
""fullscreenenter"",""5"",""15321""
","
","1680.5999999046326","","49","","","3000","1","","","images/tutgreenplanet.jpg","images/tutalien2","images/tutalien1","images/tutrocket1","images/tutalien1","images/nothing.png","2","practice","true","1","common","0","2022-12-10 20:23:29.215"
"two-step-fixation","108","340092","0.0-61.0-2.15","1022","4964","11","Female","false","true","false","false","""event"",""trial"",""time""
""fullscreenenter"",""5"",""15321""
","
","
","""event"",""trial"",""time""
""fullscreenenter"",""5"",""15321""
","
","","images/earth.jpg","","","","","","","","","","","","","","fixation","","","","","",""
"d3-animate-choice","109","342444","0.0-61.0-0.16","1022","4964","11","Female","false","true","false","false","""event"",""trial"",""time""
""fullscreenenter"",""5"",""15321""
","
","
","""event"",""trial"",""time""
""fullscreenenter"",""5"",""15321""
","
","347.40000009536743","","49","","","3000","1","","","images/earth.jpg","images/tutrocket2","images/tutrocket1","null","images/tutrocket1","","1","practice","null","1","","",""
"d3-animate-choice","110","345523","0.0-61.0-1.16","1022","4964","11","Female","false","true","false","false","""event"",""trial"",""time""
""fullscreenenter"",""5"",""15321""
","
","
","""event"",""trial"",""time""
""fullscreenenter"",""5"",""15321""
","
","1071.5999999046326","","48","","","3000","1","","","images/tutyellowplanet.jpg","images/tutalien4","images/tutalien3","images/tutrocket1","images/tutalien4","images/nothing.png","2","practice","false","2","rare","0","2022-12-10 20:23:35.654"
"two-step-fixation","111","346531","0.0-61.0-2.16","1022","4964","11","Female","false","true","false","false","""event"",""trial"",""time""
""fullscreenenter"",""5"",""15321""
","
","
","""event"",""trial"",""time""
""fullscreenenter"",""5"",""15321""
","
","","images/earth.jpg","","","","","","","","","","","","","","fixation","","","","","",""
"d3-animate-choice","112","348707","0.0-61.0-0.17","1022","4964","11","Female","false","true","false","false","""event"",""trial"",""time""
""fullscreenenter"",""5"",""15321""
","
","
","""event"",""trial"",""time""
""fullscreenenter"",""5"",""15321""
","
","170.40000009536743","","49","","","3000","1","","","images/earth.jpg","images/tutrocket2","images/tutrocket1","null","images/tutrocket1","","1","practice","null","1","","",""
"d3-animate-choice","113","351587","0.0-61.0-1.17","1022","4964","11","Female","false","true","false","false","""event"",""trial"",""time""
""fullscreenenter"",""5"",""15321""
","
","
","""event"",""trial"",""time""
""fullscreenenter"",""5"",""15321""
","
","875.5","","48","","","3000","1","","","images/tutgreenplanet.jpg","images/tutalien2","images/tutalien1","images/tutrocket1","images/tutalien2","images/nothing.png","2","practice","true","2","common","0","2022-12-10 20:23:41.718"
"two-step-fixation","114","352596","0.0-61.0-2.17","1022","4964","11","Female","false","true","false","false","""event"",""trial"",""time""
""fullscreenenter"",""5"",""15321""
","
","
","""event"",""trial"",""time""
""fullscreenenter"",""5"",""15321""
","
","","images/earth.jpg","","","","","","","","","","","","","","fixation","","","","","",""
"d3-animate-choice","115","356203","0.0-61.0-0.18","1022","4964","11","Female","false","true","false","false","""event"",""trial"",""time""
""fullscreenenter"",""5"",""15321""
","
","
","""event"",""trial"",""time""
""fullscreenenter"",""5"",""15321""
","
","1596.3000001907349","","48","","","3000","1","","","images/earth.jpg","images/tutrocket2","images/tutrocket1","null","images/tutrocket2","","1","practice","null","2","","",""
"d3-animate-choice","116","359166","0.0-61.0-1.18","1022","4964","11","Female","false","true","false","false","""event"",""trial"",""time""
""fullscreenenter"",""5"",""15321""
","
","
","""event"",""trial"",""time""
""fullscreenenter"",""5"",""15321""
","
","952.2999997138977","","49","","","3000","1","","","images/tutyellowplanet.jpg","images/tutalien4","images/tutalien3","images/tutrocket2","images/tutalien3","images/t.png","2","practice","true","1","common","1","2022-12-10 20:23:49.298"
"two-step-fixation","117","360171","0.0-61.0-2.18","1022","4964","11","Female","false","true","false","false","""event"",""trial"",""time""
""fullscreenenter"",""5"",""15321""
","
","
","""event"",""trial"",""time""
""fullscreenenter"",""5"",""15321""
","
","","images/earth.jpg","","","","","","","","","","","","","","fixation","","","","","",""
"d3-animate-choice","118","363153","0.0-61.0-0.19","1022","4964","11","Female","false","true","false","false","""event"",""trial"",""time""
""fullscreenenter"",""5"",""15321""
","
","
","""event"",""trial"",""time""
""fullscreenenter"",""5"",""15321""
","
","958.5","","48","","","3000","1","","","images/earth.jpg","images/tutrocket2","images/tutrocket1","null","images/tutrocket2","","1","practice","null","2","","",""
"d3-animate-choice","119","365597","0.0-61.0-1.19","1022","4964","11","Female","false","true","false","false","""event"",""trial"",""time""
""fullscreenenter"",""5"",""15321""
","
","
","""event"",""trial"",""time""
""fullscreenenter"",""5"",""15321""
","
","436.7000002861023","","49","","","3000","1","","","images/tutyellowplanet.jpg","images/tutalien4","images/tutalien3","images/tutrocket2","images/tutalien3","images/t.png","2","practice","true","1","common","1","2022-12-10 20:23:55.728"
"two-step-fixation","120","366603","0.0-61.0-2.19","1022","4964","11","Female","false","true","false","false","""event"",""trial"",""time""
""fullscreenenter"",""5"",""15321""
","
","
","""event"",""trial"",""time""
""fullscreenenter"",""5"",""15321""
","
","","images/earth.jpg","","","","","","","","","","","","","","fixation","","","","","",""
"d3-instructions","121","369907","0.0-62.0","1022","4964","11","Female","false","true","false","false","""event"",""trial"",""time""
""fullscreenenter"",""5"",""15321""
","
","
","""event"",""trial"",""time""
""fullscreenenter"",""5"",""15321""
","
","","","","","","","","","","","","","","","","","","","","","",""
"audio-keyboard-response","122","371436","0.0-63.0","1022","4964","11","Female","false","true","false","false","""event"",""trial"",""time""
""fullscreenenter"",""5"",""15321""
","
","
","""event"",""trial"",""time""
""fullscreenenter"",""5"",""15321""
","
","1531","audio/instructions/treasure_feedback.wav","32","","","","","","","","","","","","","","","","","","",""
"d3-instructions","123","376018","0.0-64.0","1022","4964","11","Female","false","true","false","false","""event"",""trial"",""time""
""fullscreenenter"",""5"",""15321""
","
","
","""event"",""trial"",""time""
""fullscreenenter"",""5"",""15321""
","
","","","","","","","","","","","","","","","","","","","","","",""
"d3-instructions","124","380730","0.0-65.0","1022","4964","11","Female","false","true","false","false","""event"",""trial"",""time""
""fullscreenenter"",""5"",""15321""
","
","
","""event"",""trial"",""time""
""fullscreenenter"",""5"",""15321""
","
","","","","","","","","","","","","","","","","","","","","","",""
"d3-instructions","125","387088","0.0-66.0","1022","4964","11","Female","false","true","false","false","""event"",""trial"",""time""
""fullscreenenter"",""5"",""15321""
","
","
","""event"",""trial"",""time""
""fullscreenenter"",""5"",""15321""
","
","","","","","","","","","","","","","","","","","","","","","",""
"d3-instructions","126","389411","0.0-67.0","1022","4964","11","Female","false","true","false","false","""event"",""trial"",""time""
""fullscreenenter"",""5"",""15321""
","
","
","""event"",""trial"",""time""
""fullscreenenter"",""5"",""15321""
","
","","","","","","","","","","","","","","","","","","","","","",""
"d3-instructions","127","391572","0.0-68.0","1022","4964","11","Female","false","true","false","false","""event"",""trial"",""time""
""fullscreenenter"",""5"",""15321""
","
","
","""event"",""trial"",""time""
""fullscreenenter"",""5"",""15321""
","
","","","","","","","","","","","","","","","","","","","","","",""
"instructions-quiz","128","396665","0.0-69.0","1022","4964","11","Female","false","true","false","false","""event"",""trial"",""time""
""fullscreenenter"",""5"",""15321""
","
","
","""event"",""trial"",""time""
""fullscreenenter"",""5"",""15321""
","
","5090.900000095367","audio/quiz/Q1_Prompt.wav","","1","","","","","","","","","","","","","","","","","",""
"audio-keyboard-response","129","397828","0.0-70.0","1022","4964","11","Female","false","true","false","false","""event"",""trial"",""time""
""fullscreenenter"",""5"",""15321""
","
","
","""event"",""trial"",""time""
""fullscreenenter"",""5"",""15321""
","
","1160","audio/quiz/Q1_Correct.wav","32","","","","","","","","","","","","","","","","","","",""
"instructions-quiz","130","402421","0.0-71.0","1022","4964","11","Female","false","true","false","false","""event"",""trial"",""time""
""fullscreenenter"",""5"",""15321""
","
","
","""event"",""trial"",""time""
""fullscreenenter"",""5"",""15321""
","
","4590.89999961853","audio/quiz/Q2_Prompt.wav","","0","","","","","","","","","","","","","","","","","",""
"audio-keyboard-response","131","403787","0.0-72.0","1022","4964","11","Female","false","true","false","false","""event"",""trial"",""time""
""fullscreenenter"",""5"",""15321""
","
","
","""event"",""trial"",""time""
""fullscreenenter"",""5"",""15321""
","
","1368","audio/quiz/Q2_Correct.wav","32","","","","","","","","","","","","","","","","","","",""
"instructions-quiz","132","411315","0.0-73.0","1022","4964","11","Female","false","true","false","false","""event"",""trial"",""time""
""fullscreenenter"",""5"",""15321""
","
","
","""event"",""trial"",""time""
""fullscreenenter"",""5"",""15321""
","
","7526.799999713898","audio/quiz/Q3_Prompt.wav","","1","","","","","","","","","","","","","","","","","",""
"audio-keyboard-response","133","412110","0.0-74.0","1022","4964","11","Female","false","true","false","false","""event"",""trial"",""time""
""fullscreenenter"",""5"",""15321""
","
","
","""event"",""trial"",""time""
""fullscreenenter"",""5"",""15321""
","
","789","audio/quiz/Q3_Correct.wav","32","","","","","","","","","","","","","","","","","","",""
"d3-instructions","134","415107","0.0-75.0","1022","4964","11","Female","false","true","false","false","""event"",""trial"",""time""
""fullscreenenter"",""5"",""15321""
","
","
","""event"",""trial"",""time""
""fullscreenenter"",""5"",""15321""
","
","","","","","","","","","","","","","","","","","","","","","",""
"d3-animate-choice","135","418173","0.0-76.0-0.0","1022","4964","11","Female","false","true","false","false","""event"",""trial"",""time""
""fullscreenenter"",""5"",""15321""
","
","
","""event"",""trial"",""time""
""fullscreenenter"",""5"",""15321""
","
","1060.2000002861023","","49","","","3000","1","","","images/earth.jpg","images/rocket1","images/rocket2","null","images/rocket2","","1","real","null","1","","",""
"d3-animate-choice","136","420972","0.0-76.0-1.0","1022","4964","11","Female","false","true","false","false","""event"",""trial"",""time""
""fullscreenenter"",""5"",""15321""
","
","
","""event"",""trial"",""time""
""fullscreenenter"",""5"",""15321""
","
","789.5999999046326","","49","","","3000","1","","","images/redplanet1.jpg","images/alien2","images/alien1","images/rocket2","images/alien1","images/nothing.png","2","real","false","1","rare","0","2022-12-10 20:24:51.103"
"two-step-fixation","137","421978","0.0-76.0-2.0","1022","4964","11","Female","false","true","false","false","""event"",""trial"",""time""
""fullscreenenter"",""5"",""15321""
","
","
","""event"",""trial"",""time""
""fullscreenenter"",""5"",""15321""
","
","","images/earth.jpg","","","","","","","","","","","","","","fixation","","","","","",""
"d3-animate-choice","138","424404","0.0-76.0-0.1","1022","4964","11","Female","false","true","false","false","""event"",""trial"",""time""
""fullscreenenter"",""5"",""15321""
","
","
","""event"",""trial"",""time""
""fullscreenenter"",""5"",""15321""
","
","416.5","","49","","","3000","1","","","images/earth.jpg","images/rocket1","images/rocket2","null","images/rocket2","","1","real","null","1","","",""
"d3-animate-choice","139","426813","0.0-76.0-1.1","1022","4964","11","Female","false","true","false","false","""event"",""trial"",""time""
""fullscreenenter"",""5"",""15321""
","
","
","""event"",""trial"",""time""
""fullscreenenter"",""5"",""15321""
","
","403.7000002861023","","48","","","3000","1","","","images/purpleplanet.jpg","images/alien4","images/alien3","images/rocket2","images/alien4","images/nothing.png","2","real","true","2","common","0","2022-12-10 20:24:56.944"
"two-step-fixation","140","427821","0.0-76.0-2.1","1022","4964","11","Female","false","true","false","false","""event"",""trial"",""time""
""fullscreenenter"",""5"",""15321""
","
","
","""event"",""trial"",""time""
""fullscreenenter"",""5"",""15321""
","
","","images/earth.jpg","","","","","","","","","","","","","","fixation","","","","","",""
"d3-animate-choice","141","430452","0.0-76.0-0.2","1022","4964","11","Female","false","true","false","false","""event"",""trial"",""time""
""fullscreenenter"",""5"",""15321""
","
","
","""event"",""trial"",""time""
""fullscreenenter"",""5"",""15321""
","
","621.6999998092651","","49","","","3000","1","","","images/earth.jpg","images/rocket1","images/rocket2","null","images/rocket2","","1","real","null","1","","",""
"d3-animate-choice","142","433632","0.0-76.0-1.2","1022","4964","11","Female","false","true","false","false","""event"",""trial"",""time""
""fullscreenenter"",""5"",""15321""
","
","
","""event"",""trial"",""time""
""fullscreenenter"",""5"",""15321""
","
","1164","","48","","","3000","1","","","images/redplanet1.jpg","images/alien2","images/alien1","images/rocket2","images/alien2","images/nothing.png","2","real","false","2","rare","0","2022-12-10 20:25:03.763"
"two-step-fixation","143","434647","0.0-76.0-2.2","1022","4964","11","Female","false","true","false","false","""event"",""trial"",""time""
""fullscreenenter"",""5"",""15321""
","
","
","""event"",""trial"",""time""
""fullscreenenter"",""5"",""15321""
","
","","images/earth.jpg","","","","","","","","","","","","","","fixation","","","","","",""
"d3-animate-choice","144","437468","0.0-76.0-0.3","1022","4964","11","Female","false","true","false","false","""event"",""trial"",""time""
""fullscreenenter"",""5"",""15321""
","
","
","""event"",""trial"",""time""
""fullscreenenter"",""5"",""15321""
","
","812.8000001907349","","49","","","3000","1","975.7000002861023","48","images/earth.jpg","images/rocket1","images/rocket2","null","images/rocket2","","1","real","null","1","","",""
"d3-animate-choice","145","439844","0.0-76.0-1.3","1022","4964","11","Female","false","true","false","false","""event"",""trial"",""time""
""fullscreenenter"",""5"",""15321""
","
","
","""event"",""trial"",""time""
""fullscreenenter"",""5"",""15321""
","
","367.3999996185303","","49","","","3000","1","","","images/purpleplanet.jpg","images/alien4","images/alien3","images/rocket2","images/alien3","images/nothing.png","2","real","true","1","common","0","2022-12-10 20:25:09.975"
"two-step-fixation","146","440849","0.0-76.0-2.3","1022","4964","11","Female","false","true","false","false","""event"",""trial"",""time""
""fullscreenenter"",""5"",""15321""
","
","
","""event"",""trial"",""time""
""fullscreenenter"",""5"",""15321""
","
","","images/earth.jpg","","","","","","","","","","","","","","fixation","","","","","",""
"d3-animate-choice","147","444231","0.0-76.0-0.4","1022","4964","11","Female","false","true","false","false","""event"",""trial"",""time""
""fullscreenenter"",""5"",""15321""
","
","
","""event"",""trial"",""time""
""fullscreenenter"",""5"",""15321""
","
","1375.4000000953674","","49","","","3000","1","","","images/earth.jpg","images/rocket1","images/rocket2","null","images/rocket2","","1","real","null","1","","",""
"d3-animate-choice","148","446747","0.0-76.0-1.4","1022","4964","11","Female","false","true","false","false","""event"",""trial"",""time""
""fullscreenenter"",""5"",""15321""
","
","
","""event"",""trial"",""time""
""fullscreenenter"",""5"",""15321""
","
","511.5","","48","","","3000","1","","","images/purpleplanet.jpg","images/alien4","images/alien3","images/rocket2","images/alien4","images/t.png","2","real","true","2","common","1","2022-12-10 20:25:16.878"
"two-step-fixation","149","447756","0.0-76.0-2.4","1022","4964","11","Female","false","true","false","false","""event"",""trial"",""time""
""fullscreenenter"",""5"",""15321""
","
","
","""event"",""trial"",""time""
""fullscreenenter"",""5"",""15321""
","
","","images/earth.jpg","","","","","","","","","","","","","","fixation","","","","","",""
"d3-animate-choice","150","450210","0.0-76.0-0.5","1022","4964","11","Female","false","true","false","false","""event"",""trial"",""time""
""fullscreenenter"",""5"",""15321""
","
","
","""event"",""trial"",""time""
""fullscreenenter"",""5"",""15321""
","
","446.5","","49","","","3000","1","","","images/earth.jpg","images/rocket1","images/rocket2","null","images/rocket2","","1","real","null","1","","",""
"d3-animate-choice","151","452724","0.0-76.0-1.5","1022","4964","11","Female","false","true","false","false","""event"",""trial"",""time""
""fullscreenenter"",""5"",""15321""
","
","
","""event"",""trial"",""time""
""fullscreenenter"",""5"",""15321""
","
","504.5","","48","","","3000","1","","","images/purpleplanet.jpg","images/alien4","images/alien3","images/rocket2","images/alien4","images/t.png","2","real","true","2","common","1","2022-12-10 20:25:22.855"
"two-step-fixation","152","453732","0.0-76.0-2.5","1022","4964","11","Female","false","true","false","false","""event"",""trial"",""time""
""fullscreenenter"",""5"",""15321""
","
","
","""event"",""trial"",""time""
""fullscreenenter"",""5"",""15321""
","
","","images/earth.jpg","","","","","","","","","","","","","","fixation","","","","","",""
"d3-animate-choice","153","455915","0.0-76.0-0.6","1022","4964","11","Female","false","true","false","false","""event"",""trial"",""time""
""fullscreenenter"",""5"",""15321""
","
","
","""event"",""trial"",""time""
""fullscreenenter"",""5"",""15321""
","
","179.10000038146973","","49","","","3000","1","","","images/earth.jpg","images/rocket1","images/rocket2","null","images/rocket2","","1","real","null","1","","",""
"d3-animate-choice","154","459067","0.0-76.0-1.6","1022","4964","11","Female","false","true","false","false","""event"",""trial"",""time""
""fullscreenenter"",""5"",""15321""
","
","
","""event"",""trial"",""time""
""fullscreenenter"",""5"",""15321""
","
","1148.7000002861023","","49","","","3000","1","","","images/redplanet1.jpg","images/alien2","images/alien1","images/rocket2","images/alien1","images/t.png","2","real","false","1","rare","1","2022-12-10 20:25:29.198"
"two-step-fixation","155","460076","0.0-76.0-2.6","1022","4964","11","Female","false","true","false","false","""event"",""trial"",""time""
""fullscreenenter"",""5"",""15321""
","
","
","""event"",""trial"",""time""
""fullscreenenter"",""5"",""15321""
","
","","images/earth.jpg","","","","","","","","","","","","","","fixation","","","","","",""
"d3-animate-choice","156","462468","0.0-76.0-0.7","1022","4964","11","Female","false","true","false","false","""event"",""trial"",""time""
""fullscreenenter"",""5"",""15321""
","
","
","""event"",""trial"",""time""
""fullscreenenter"",""5"",""15321""
","
","381.2999997138977","","49","","","3000","1","","","images/earth.jpg","images/rocket1","images/rocket2","null","images/rocket2","","1","real","null","1","","",""
"d3-animate-choice","157","465011","0.0-76.0-1.7","1022","4964","11","Female","false","true","false","false","""event"",""trial"",""time""
""fullscreenenter"",""5"",""15321""
","
","
","""event"",""trial"",""time""
""fullscreenenter"",""5"",""15321""
","
","539.7000002861023","","48","","","3000","1","","","images/purpleplanet.jpg","images/alien4","images/alien3","images/rocket2","images/alien4","images/t.png","2","real","true","2","common","1","2022-12-10 20:25:35.142"
"two-step-fixation","158","466017","0.0-76.0-2.7","1022","4964","11","Female","false","true","false","false","""event"",""trial"",""time""
""fullscreenenter"",""5"",""15321""
","
","
","""event"",""trial"",""time""
""fullscreenenter"",""5"",""15321""
","
","","images/earth.jpg","","","","","","","","","","","","","","fixation","","","","","",""
"d3-animate-choice","159","468324","0.0-76.0-0.8","1022","4964","11","Female","false","true","false","false","""event"",""trial"",""time""
""fullscreenenter"",""5"",""15321""
","
","
","""event"",""trial"",""time""
""fullscreenenter"",""5"",""15321""
","
","302.19999980926514","","49","","","3000","1","585.0999999046326","49","images/earth.jpg","images/rocket1","images/rocket2","null","images/rocket2","","1","real","null","1","","",""
"d3-animate-choice","160","470940","0.0-76.0-1.8","1022","4964","11","Female","false","true","false","false","""event"",""trial"",""time""
""fullscreenenter"",""5"",""15321""
","
","
","""event"",""trial"",""time""
""fullscreenenter"",""5"",""15321""
","
","606.2999997138977","","48","","","3000","1","","","images/purpleplanet.jpg","images/alien4","images/alien3","images/rocket2","images/alien4","images/nothing.png","2","real","true","2","common","0","2022-12-10 20:25:41.071"
"two-step-fixation","161","471946","0.0-76.0-2.8","1022","4964","11","Female","false","true","false","false","""event"",""trial"",""time""
""fullscreenenter"",""5"",""15321""
","
","
","""event"",""trial"",""time""
""fullscreenenter"",""5"",""15321""
","
","","images/earth.jpg","","","","","","","","","","","","","","fixation","","","","","",""
"d3-animate-choice","162","474284","0.0-76.0-0.9","1022","4964","11","Female","false","true","false","false","""event"",""trial"",""time""
""fullscreenenter"",""5"",""15321""
","
","
","""event"",""trial"",""time""
""fullscreenenter"",""5"",""15321""
","
","332.6000003814697","","49","","","3000","1","","","images/earth.jpg","images/rocket1","images/rocket2","null","images/rocket2","","1","real","null","1","","",""
"d3-animate-choice","163","476717","0.0-76.0-1.9","1022","4964","11","Female","false","true","false","false","""event"",""trial"",""time""
""fullscreenenter"",""5"",""15321""
","
","
","""event"",""trial"",""time""
""fullscreenenter"",""5"",""15321""
","
","426.30000019073486","","48","","","3000","1","","","images/purpleplanet.jpg","images/alien4","images/alien3","images/rocket2","images/alien4","images/t.png","2","real","true","2","common","1","2022-12-10 20:25:46.848"
"two-step-fixation","164","477723","0.0-76.0-2.9","1022","4964","11","Female","false","true","false","false","""event"",""trial"",""time""
""fullscreenenter"",""5"",""15321""
","
","
","""event"",""trial"",""time""
""fullscreenenter"",""5"",""15321""
","
","","images/earth.jpg","","","","","","","","","","","","","","fixation","","","","","",""
"d3-animate-choice","165","480037","0.0-76.0-0.10","1022","4964","11","Female","false","true","false","false","""event"",""trial"",""time""
""fullscreenenter"",""5"",""15321""
","
","
","""event"",""trial"",""time""
""fullscreenenter"",""5"",""15321""
","
","302.90000009536743","","49","","","3000","1","","","images/earth.jpg","images/rocket1","images/rocket2","null","images/rocket2","","1","real","null","1","","",""
"d3-animate-choice","166","482420","0.0-76.0-1.10","1022","4964","11","Female","false","true","false","false","""event"",""trial"",""time""
""fullscreenenter"",""5"",""15321""
","
","
","""event"",""trial"",""time""
""fullscreenenter"",""5"",""15321""
","
","378.30000019073486","","48","","","3000","1","","","images/purpleplanet.jpg","images/alien4","images/alien3","images/rocket2","images/alien4","images/t.png","2","real","true","2","common","1","2022-12-10 20:25:52.551"
"two-step-fixation","167","483423","0.0-76.0-2.10","1022","4964","11","Female","false","true","false","false","""event"",""trial"",""time""
""fullscreenenter"",""5"",""15321""
","
","
","""event"",""trial"",""time""
""fullscreenenter"",""5"",""15321""
","
","","images/earth.jpg","","","","","","","","","","","","","","fixation","","","","","",""
"d3-animate-choice","168","487354","0.0-76.0-0.11","1022","4964","11","Female","false","true","false","false","""event"",""trial"",""time""
""fullscreenenter"",""5"",""15321""
","
","
","""event"",""trial"",""time""
""fullscreenenter"",""5"",""15321""
","
","1927.2999997138977","","49","","","3000","1","","","images/earth.jpg","images/rocket1","images/rocket2","null","images/rocket2","","1","real","null","1","","",""
"d3-animate-choice","169","490003","0.0-76.0-1.11","1022","4964","11","Female","false","true","false","false","""event"",""trial"",""time""
""fullscreenenter"",""5"",""15321""
","
","
","""event"",""trial"",""time""
""fullscreenenter"",""5"",""15321""
","
","645.2999997138977","","48","","","3000","1","","","images/purpleplanet.jpg","images/alien4","images/alien3","images/rocket2","images/alien4","images/t.png","2","real","true","2","common","1","2022-12-10 20:26:00.134"
"two-step-fixation","170","491012","0.0-76.0-2.11","1022","4964","11","Female","false","true","false","false","""event"",""trial"",""time""
""fullscreenenter"",""5"",""15321""
","
","
","""event"",""trial"",""time""
""fullscreenenter"",""5"",""15321""
","
","","images/earth.jpg","","","","","","","","","","","","","","fixation","","","","","",""
"d3-animate-choice","171","493699","0.0-76.0-0.12","1022","4964","11","Female","false","true","false","false","""event"",""trial"",""time""
""fullscreenenter"",""5"",""15321""
","
","
","""event"",""trial"",""time""
""fullscreenenter"",""5"",""15321""
","
","683","","49","","","3000","1","1411.5","32","images/earth.jpg","images/rocket1","images/rocket2","null","images/rocket2","","1","real","null","1","","",""
"d3-animate-choice","172","495988","0.0-76.0-1.12","1022","4964","11","Female","false","true","false","false","""event"",""trial"",""time""
""fullscreenenter"",""5"",""15321""
","
","
","""event"",""trial"",""time""
""fullscreenenter"",""5"",""15321""
","
","282.7000002861023","","48","","","3000","1","","","images/purpleplanet.jpg","images/alien4","images/alien3","images/rocket2","images/alien4","images/nothing.png","2","real","true","2","common","0","2022-12-10 20:26:06.119"
"two-step-fixation","173","496995","0.0-76.0-2.12","1022","4964","11","Female","false","true","false","false","""event"",""trial"",""time""
""fullscreenenter"",""5"",""15321""
","
","
","""event"",""trial"",""time""
""fullscreenenter"",""5"",""15321""
","
","","images/earth.jpg","","","","","","","","","","","","","","fixation","","","","","",""
"d3-animate-choice","174","500157","0.0-76.0-0.13","1022","4964","11","Female","false","true","false","false","""event"",""trial"",""time""
""fullscreenenter"",""5"",""15321""
","
","
","""event"",""trial"",""time""
""fullscreenenter"",""5"",""15321""
","
","1150.2000002861023","","49","","","3000","1","","","images/earth.jpg","images/rocket1","images/rocket2","null","images/rocket2","","1","real","null","1","","",""
"d3-animate-choice","175","503108","0.0-76.0-1.13","1022","4964","11","Female","false","true","false","false","""event"",""trial"",""time""
""fullscreenenter"",""5"",""15321""
","
","
","""event"",""trial"",""time""
""fullscreenenter"",""5"",""15321""
","
","941.9000000953674","","49","","","3000","1","","","images/redplanet1.jpg","images/alien2","images/alien1","images/rocket2","images/alien1","images/t.png","2","real","false","1","rare","1","2022-12-10 20:26:13.240"
"two-step-fixation","176","504116","0.0-76.0-2.13","1022","4964","11","Female","false","true","false","false","""event"",""trial"",""time""
""fullscreenenter"",""5"",""15321""
","
","
","""event"",""trial"",""time""
""fullscreenenter"",""5"",""15321""
","
","","images/earth.jpg","","","","","","","","","","","","","","fixation","","","","","",""
"d3-animate-choice","177","506420","0.0-76.0-0.14","1022","4964","11","Female","false","true","false","false","""event"",""trial"",""time""
""fullscreenenter"",""5"",""15321""
","
","
","""event"",""trial"",""time""
""fullscreenenter"",""5"",""15321""
","
","295.40000009536743","","48","","","3000","1","","","images/earth.jpg","images/rocket1","images/rocket2","null","images/rocket1","","1","real","null","2","","",""
"d3-animate-choice","178","509204","0.0-76.0-1.14","1022","4964","11","Female","false","true","false","false","""event"",""trial"",""time""
""fullscreenenter"",""5"",""15321""
","
","
","""event"",""trial"",""time""
""fullscreenenter"",""5"",""15321""
","
","778.4000000953674","","49","","","3000","1","","","images/purpleplanet.jpg","images/alien4","images/alien3","images/rocket1","images/alien3","images/nothing.png","2","real","false","1","rare","0","2022-12-10 20:26:19.335"
"two-step-fixation","179","510213","0.0-76.0-2.14","1022","4964","11","Female","false","true","false","false","""event"",""trial"",""time""
""fullscreenenter"",""5"",""15321""
","
","
","""event"",""trial"",""time""
""fullscreenenter"",""5"",""15321""
","
","","images/earth.jpg","","","","","","","","","","","","","","fixation","","","","","",""
"d3-animate-choice","180","514220","0.0-76.0-0.15","1022","4964","11","Female","false","true","false","false","""event"",""trial"",""time""
""fullscreenenter"",""5"",""15321""
","
","
","""event"",""trial"",""time""
""fullscreenenter"",""5"",""15321""
","
","2195.800000190735","","48","","","3000","1","","","images/earth.jpg","images/rocket1","images/rocket2","null","images/rocket1","","1","real","null","2","","",""
"d3-animate-choice","181","516835","0.0-76.0-1.15","1022","4964","11","Female","false","true","false","false","""event"",""trial"",""time""
""fullscreenenter"",""5"",""15321""
","
","
","""event"",""trial"",""time""
""fullscreenenter"",""5"",""15321""
","
","608.2999997138977","","49","","","3000","1","","","images/redplanet1.jpg","images/alien2","images/alien1","images/rocket1","images/alien1","images/t.png","2","real","true","1","common","1","2022-12-10 20:26:26.966"
"two-step-fixation","182","517844","0.0-76.0-2.15","1022","4964","11","Female","false","true","false","false","""event"",""trial"",""time""
""fullscreenenter"",""5"",""15321""
","
","
","""event"",""trial"",""time""
""fullscreenenter"",""5"",""15321""
","
","","images/earth.jpg","","","","","","","","","","","","","","fixation","","","","","",""
"d3-animate-choice","183","521232","0.0-76.0-0.16","1022","4964","11","Female","false","true","false","false","""event"",""trial"",""time""
""fullscreenenter"",""5"",""15321""
","
","
","""event"",""trial"",""time""
""fullscreenenter"",""5"",""15321""
","
","1382.6999998092651","","48","","","3000","1","","","images/earth.jpg","images/rocket1","images/rocket2","null","images/rocket1","","1","real","null","2","","",""
"d3-animate-choice","184","524013","0.0-76.0-1.16","1022","4964","11","Female","false","true","false","false","""event"",""trial"",""time""
""fullscreenenter"",""5"",""15321""
","
","
","""event"",""trial"",""time""
""fullscreenenter"",""5"",""15321""
","
","771.5","","48","","","3000","1","","","images/purpleplanet.jpg","images/alien4","images/alien3","images/rocket1","images/alien4","images/t.png","2","real","false","2","rare","1","2022-12-10 20:26:34.144"
"two-step-fixation","185","525020","0.0-76.0-2.16","1022","4964","11","Female","false","true","false","false","""event"",""trial"",""time""
""fullscreenenter"",""5"",""15321""
","
","
","""event"",""trial"",""time""
""fullscreenenter"",""5"",""15321""
","
","","images/earth.jpg","","","","","","","","","","","","","","fixation","","","","","",""
"d3-animate-choice","186","527220","0.0-76.0-0.17","1022","4964","11","Female","false","true","false","false","""event"",""trial"",""time""
""fullscreenenter"",""5"",""15321""
","
","
","""event"",""trial"",""time""
""fullscreenenter"",""5"",""15321""
","
","194.40000009536743","","48","","","3000","1","","","images/earth.jpg","images/rocket1","images/rocket2","null","images/rocket1","","1","real","null","2","","",""
"d3-animate-choice","187","529826","0.0-76.0-1.17","1022","4964","11","Female","false","true","false","false","""event"",""trial"",""time""
""fullscreenenter"",""5"",""15321""
","
","
","""event"",""trial"",""time""
""fullscreenenter"",""5"",""15321""
","
","602","","48","","","3000","1","","","images/redplanet1.jpg","images/alien2","images/alien1","images/rocket1","images/alien2","images/t.png","2","real","true","2","common","1","2022-12-10 20:26:39.958"
"two-step-fixation","188","530836","0.0-76.0-2.17","1022","4964","11","Female","false","true","false","false","""event"",""trial"",""time""
""fullscreenenter"",""5"",""15321""
","
","
","""event"",""trial"",""time""
""fullscreenenter"",""5"",""15321""
","
","","images/earth.jpg","","","","","","","","","","","","","","fixation","","","","","",""
"d3-animate-choice","189","533252","0.0-76.0-0.18","1022","4964","11","Female","false","true","false","false","""event"",""trial"",""time""
""fullscreenenter"",""5"",""15321""
","
","
","""event"",""trial"",""time""
""fullscreenenter"",""5"",""15321""
","
","407.09999990463257","","48","","","3000","1","","","images/earth.jpg","images/rocket1","images/rocket2","null","images/rocket1","","1","real","null","2","","",""
"d3-animate-choice","190","535556","0.0-76.0-1.18","1022","4964","11","Female","false","true","false","false","""event"",""trial"",""time""
""fullscreenenter"",""5"",""15321""
","
","
","""event"",""trial"",""time""
""fullscreenenter"",""5"",""15321""
","
","298.30000019073486","","48","","","3000","1","","","images/redplanet1.jpg","images/alien2","images/alien1","images/rocket1","images/alien2","images/nothing.png","2","real","true","2","common","0","2022-12-10 20:26:45.687"
"two-step-fixation","191","536565","0.0-76.0-2.18","1022","4964","11","Female","false","true","false","false","""event"",""trial"",""time""
""fullscreenenter"",""5"",""15321""
","
","
","""event"",""trial"",""time""
""fullscreenenter"",""5"",""15321""
","
","","images/earth.jpg","","","","","","","","","","","","","","fixation","","","","","",""
"d3-animate-choice","192","539044","0.0-76.0-0.19","1022","4964","11","Female","false","true","false","false","""event"",""trial"",""time""
""fullscreenenter"",""5"",""15321""
","
","
","""event"",""trial"",""time""
""fullscreenenter"",""5"",""15321""
","
","472.09999990463257","","48","","","3000","1","","","images/earth.jpg","images/rocket1","images/rocket2","null","images/rocket1","","1","real","null","2","","",""
"d3-animate-choice","193","541652","0.0-76.0-1.19","1022","4964","11","Female","false","true","false","false","""event"",""trial"",""time""
""fullscreenenter"",""5"",""15321""
","
","
","""event"",""trial"",""time""
""fullscreenenter"",""5"",""15321""
","
","600.0999999046326","","49","","","3000","1","","","images/redplanet1.jpg","images/alien2","images/alien1","images/rocket1","images/alien1","images/nothing.png","2","real","true","1","common","0","2022-12-10 20:26:51.783"
"two-step-fixation","194","542661","0.0-76.0-2.19","1022","4964","11","Female","false","true","false","false","""event"",""trial"",""time""
""fullscreenenter"",""5"",""15321""
","
","
","""event"",""trial"",""time""
""fullscreenenter"",""5"",""15321""
","
","","images/earth.jpg","","","","","","","","","","","","","","fixation","","","","","",""
"d3-animate-choice","195","545948","0.0-76.0-0.20","1022","4964","11","Female","false","true","false","false","""event"",""trial"",""time""
""fullscreenenter"",""5"",""15321""
","
","
","""event"",""trial"",""time""
""fullscreenenter"",""5"",""15321""
","
","1279.2999997138977","","49","","","3000","1","","","images/earth.jpg","images/rocket1","images/rocket2","null","images/rocket2","","1","real","null","1","","",""
"d3-animate-choice","196","549068","0.0-76.0-1.20","1022","4964","11","Female","false","true","false","false","""event"",""trial"",""time""
""fullscreenenter"",""5"",""15321""
","
","
","""event"",""trial"",""time""
""fullscreenenter"",""5"",""15321""
","
","1115.0999999046326","","48","","","3000","1","","","images/purpleplanet.jpg","images/alien4","images/alien3","images/rocket2","images/alien4","images/t.png","2","real","true","2","common","1","2022-12-10 20:26:59.199"
"two-step-fixation","197","550077","0.0-76.0-2.20","1022","4964","11","Female","false","true","false","false","""event"",""trial"",""time""
""fullscreenenter"",""5"",""15321""
","
","
","""event"",""trial"",""time""
""fullscreenenter"",""5"",""15321""
","
","","images/earth.jpg","","","","","","","","","","","","","","fixation","","","","","",""
"d3-animate-choice","198","552572","0.0-76.0-0.21","1022","4964","11","Female","false","true","false","false","""event"",""trial"",""time""
""fullscreenenter"",""5"",""15321""
","
","
","""event"",""trial"",""time""
""fullscreenenter"",""5"",""15321""
","
","485","","49","","","3000","1","","","images/earth.jpg","images/rocket1","images/rocket2","null","images/rocket2","","1","real","null","1","","",""
"d3-animate-choice","199","555410","0.0-76.0-1.21","1022","4964","11","Female","false","true","false","false","""event"",""trial"",""time""
""fullscreenenter"",""5"",""15321""
","
","
","""event"",""trial"",""time""
""fullscreenenter"",""5"",""15321""
","
","830.3999996185303","","48","","","3000","1","","","images/purpleplanet.jpg","images/alien4","images/alien3","images/rocket2","images/alien4","images/nothing.png","2","real","true","2","common","0","2022-12-10 20:27:05.541"
"two-step-fixation","200","556420","0.0-76.0-2.21","1022","4964","11","Female","false","true","false","false","""event"",""trial"",""time""
""fullscreenenter"",""5"",""15321""
","
","
","""event"",""trial"",""time""
""fullscreenenter"",""5"",""15321""
","
","","images/earth.jpg","","","","","","","","","","","","","","fixation","","","","","",""
"d3-animate-choice","201","559116","0.0-76.0-0.22","1022","4964","11","Female","false","true","false","false","""event"",""trial"",""time""
""fullscreenenter"",""5"",""15321""
","
","
","""event"",""trial"",""time""
""fullscreenenter"",""5"",""15321""
","
","687.9000000953674","","48","","","3000","1","","","images/earth.jpg","images/rocket1","images/rocket2","null","images/rocket1","","1","real","null","2","","",""
"d3-animate-choice","202","561732","0.0-76.0-1.22","1022","4964","11","Female","false","true","false","false","""event"",""trial"",""time""
""fullscreenenter"",""5"",""15321""
","
","
","""event"",""trial"",""time""
""fullscreenenter"",""5"",""15321""
","
","605.9000000953674","","48","","","3000","1","","","images/purpleplanet.jpg","images/alien4","images/alien3","images/rocket1","images/alien4","images/nothing.png","2","real","false","2","rare","0","2022-12-10 20:27:11.863"
"two-step-fixation","203","562741","0.0-76.0-2.22","1022","4964","11","Female","false","true","false","false","""event"",""trial"",""time""
""fullscreenenter"",""5"",""15321""
","
","
","""event"",""trial"",""time""
""fullscreenenter"",""5"",""15321""
","
","","images/earth.jpg","","","","","","","","","","","","","","fixation","","","","","",""
"d3-animate-choice","204","564980","0.0-76.0-0.23","1022","4964","11","Female","false","true","false","false","""event"",""trial"",""time""
""fullscreenenter"",""5"",""15321""
","
","
","""event"",""trial"",""time""
""fullscreenenter"",""5"",""15321""
","
","228.7000002861023","","49","","","3000","1","","","images/earth.jpg","images/rocket1","images/rocket2","null","images/rocket2","","1","real","null","1","","",""
"d3-animate-choice","205","567668","0.0-76.0-1.23","1022","4964","11","Female","false","true","false","false","""event"",""trial"",""time""
""fullscreenenter"",""5"",""15321""
","
","
","""event"",""trial"",""time""
""fullscreenenter"",""5"",""15321""
","
","681.6999998092651","","48","","","3000","1","","","images/purpleplanet.jpg","images/alien4","images/alien3","images/rocket2","images/alien4","images/t.png","2","real","true","2","common","1","2022-12-10 20:27:17.800"
"two-step-fixation","206","568676","0.0-76.0-2.23","1022","4964","11","Female","false","true","false","false","""event"",""trial"",""time""
""fullscreenenter"",""5"",""15321""
","
","
","""event"",""trial"",""time""
""fullscreenenter"",""5"",""15321""
","
","","images/earth.jpg","","","","","","","","","","","","","","fixation","","","","","",""
"d3-animate-choice","207","571301","0.0-76.0-0.24","1022","4964","11","Female","false","true","false","false","""event"",""trial"",""time""
""fullscreenenter"",""5"",""15321""
","
","
","""event"",""trial"",""time""
""fullscreenenter"",""5"",""15321""
","
","615.3999996185303","","49","","","3000","1","","","images/earth.jpg","images/rocket1","images/rocket2","null","images/rocket2","","1","real","null","1","","",""
"d3-animate-choice","208","574069","0.0-76.0-1.24","1022","4964","11","Female","false","true","false","false","""event"",""trial"",""time""
""fullscreenenter"",""5"",""15321""
","
","
","""event"",""trial"",""time""
""fullscreenenter"",""5"",""15321""
","
","757","","48","","","3000","1","","","images/purpleplanet.jpg","images/alien4","images/alien3","images/rocket2","images/alien4","images/t.png","2","real","true","2","common","1","2022-12-10 20:27:24.200"
"two-step-fixation","209","575076","0.0-76.0-2.24","1022","4964","11","Female","false","true","false","false","""event"",""trial"",""time""
""fullscreenenter"",""5"",""15321""
","
","
","""event"",""trial"",""time""
""fullscreenenter"",""5"",""15321""
","
","","images/earth.jpg","","","","","","","","","","","","","","fixation","","","","","",""
"d3-animate-choice","210","577671","0.0-76.0-0.25","1022","4964","11","Female","false","true","false","false","""event"",""trial"",""time""
""fullscreenenter"",""5"",""15321""
","
","
","""event"",""trial"",""time""
""fullscreenenter"",""5"",""15321""
","
","580.8000001907349","","49","","","3000","1","","","images/earth.jpg","images/rocket1","images/rocket2","null","images/rocket2","","1","real","null","1","","",""
"d3-animate-choice","211","580076","0.0-76.0-1.25","1022","4964","11","Female","false","true","false","false","""event"",""trial"",""time""
""fullscreenenter"",""5"",""15321""
","
","
","""event"",""trial"",""time""
""fullscreenenter"",""5"",""15321""
","
","395","","48","","","3000","1","","","images/purpleplanet.jpg","images/alien4","images/alien3","images/rocket2","images/alien4","images/t.png","2","real","true","2","common","1","2022-12-10 20:27:30.207"
"two-step-fixation","212","581084","0.0-76.0-2.25","1022","4964","11","Female","false","true","false","false","""event"",""trial"",""time""
""fullscreenenter"",""5"",""15321""
","
","
","""event"",""trial"",""time""
""fullscreenenter"",""5"",""15321""
","
","","images/earth.jpg","","","","","","","","","","","","","","fixation","","","","","",""
"d3-animate-choice","213","583524","0.0-76.0-0.26","1022","4964","11","Female","false","true","false","false","""event"",""trial"",""time""
""fullscreenenter"",""5"",""15321""
","
","
","""event"",""trial"",""time""
""fullscreenenter"",""5"",""15321""
","
","432.5","","49","","","3000","1","","","images/earth.jpg","images/rocket1","images/rocket2","null","images/rocket2","","1","real","null","1","","",""
"d3-animate-choice","214","586068","0.0-76.0-1.26","1022","4964","11","Female","false","true","false","false","""event"",""trial"",""time""
""fullscreenenter"",""5"",""15321""
","
","
","""event"",""trial"",""time""
""fullscreenenter"",""5"",""15321""
","
","536.0999999046326","","48","","","3000","1","","","images/purpleplanet.jpg","images/alien4","images/alien3","images/rocket2","images/alien4","images/t.png","2","real","true","2","common","1","2022-12-10 20:27:36.200"
"two-step-fixation","215","587076","0.0-76.0-2.26","1022","4964","11","Female","false","true","false","false","""event"",""trial"",""time""
""fullscreenenter"",""5"",""15321""
","
","
","""event"",""trial"",""time""
""fullscreenenter"",""5"",""15321""
","
","","images/earth.jpg","","","","","","","","","","","","","","fixation","","","","","",""
"d3-animate-choice","216","589812","0.0-76.0-0.27","1022","4964","11","Female","false","true","false","false","""event"",""trial"",""time""
""fullscreenenter"",""5"",""15321""
","
","
","""event"",""trial"",""time""
""fullscreenenter"",""5"",""15321""
","
","727.4000000953674","","49","","","3000","1","","","images/earth.jpg","images/rocket1","images/rocket2","null","images/rocket2","","1","real","null","1","","",""
"d3-animate-choice","217","592164","0.0-76.0-1.27","1022","4964","11","Female","false","true","false","false","""event"",""trial"",""time""
""fullscreenenter"",""5"",""15321""
","
","
","""event"",""trial"",""time""
""fullscreenenter"",""5"",""15321""
","
","345.09999990463257","","48","","","3000","1","","","images/redplanet1.jpg","images/alien2","images/alien1","images/rocket2","images/alien2","images/t.png","2","real","false","2","rare","1","2022-12-10 20:27:42.295"
"two-step-fixation","218","593173","0.0-76.0-2.27","1022","4964","11","Female","false","true","false","false","""event"",""trial"",""time""
""fullscreenenter"",""5"",""15321""
","
","
","""event"",""trial"",""time""
""fullscreenenter"",""5"",""15321""
","
","","images/earth.jpg","","","","","","","","","","","","","","fixation","","","","","",""
"d3-animate-choice","219","595724","0.0-76.0-0.28","1022","4964","11","Female","false","true","false","false","""event"",""trial"",""time""
""fullscreenenter"",""5"",""15321""
","
","
","""event"",""trial"",""time""
""fullscreenenter"",""5"",""15321""
","
","547.2999997138977","","49","","","3000","1","","","images/earth.jpg","images/rocket1","images/rocket2","null","images/rocket2","","1","real","null","1","","",""
"d3-animate-choice","220","598604","0.0-76.0-1.28","1022","4964","11","Female","false","true","false","false","""event"",""trial"",""time""
""fullscreenenter"",""5"",""15321""
","
","
","""event"",""trial"",""time""
""fullscreenenter"",""5"",""15321""
","
","870.9000000953674","","48","","","3000","1","","","images/redplanet1.jpg","images/alien2","images/alien1","images/rocket2","images/alien2","images/t.png","2","real","false","2","rare","1","2022-12-10 20:27:48.735"
"two-step-fixation","221","599613","0.0-76.0-2.28","1022","4964","11","Female","false","true","false","false","""event"",""trial"",""time""
""fullscreenenter"",""5"",""15321""
","
","
","""event"",""trial"",""time""
""fullscreenenter"",""5"",""15321""
","
","","images/earth.jpg","","","","","","","","","","","","","","fixation","","","","","",""
"d3-animate-choice","222","603627","0.0-76.0-0.29","1022","4964","11","Female","false","true","false","false","""event"",""trial"",""time""
""fullscreenenter"",""5"",""15321""
","
","
","""event"",""trial"",""time""
""fullscreenenter"",""5"",""15321""
","
","2578.5","","48","","","3000","1","","","images/earth.jpg","images/rocket1","images/rocket2","null","images/rocket1","","1","real","null","2","","",""
"d3-animate-choice","223","606389","0.0-76.0-1.29","1022","4964","11","Female","false","true","false","false","""event"",""trial"",""time""
""fullscreenenter"",""5"",""15321""
","
","
","""event"",""trial"",""time""
""fullscreenenter"",""5"",""15321""
","
","755.6999998092651","","49","","","3000","1","","","images/purpleplanet.jpg","images/alien4","images/alien3","images/rocket1","images/alien3","images/nothing.png","2","real","false","1","rare","0","2022-12-10 20:27:56.520"
"two-step-fixation","224","607394","0.0-76.0-2.29","1022","4964","11","Female","false","true","false","false","""event"",""trial"",""time""
""fullscreenenter"",""5"",""15321""
","
","
","""event"",""trial"",""time""
""fullscreenenter"",""5"",""15321""
","
","","images/earth.jpg","","","","","","","","","","","","","","fixation","","","","","",""
"d3-animate-choice","225","609933","0.0-76.0-0.30","1022","4964","11","Female","false","true","false","false","""event"",""trial"",""time""
""fullscreenenter"",""5"",""15321""
","
","
","""event"",""trial"",""time""
""fullscreenenter"",""5"",""15321""
","
","528.6999998092651","","48","","","3000","1","","","images/earth.jpg","images/rocket1","images/rocket2","null","images/rocket1","","1","real","null","2","","",""
"d3-animate-choice","226","613148","0.0-76.0-1.30","1022","4964","11","Female","false","true","false","false","""event"",""trial"",""time""
""fullscreenenter"",""5"",""15321""
","
","
","""event"",""trial"",""time""
""fullscreenenter"",""5"",""15321""
","
","1212.6999998092651","","49","","","3000","1","","","images/redplanet1.jpg","images/alien2","images/alien1","images/rocket1","images/alien1","images/t.png","2","real","true","1","common","1","2022-12-10 20:28:03.279"
"two-step-fixation","227","614156","0.0-76.0-2.30","1022","4964","11","Female","false","true","false","false","""event"",""trial"",""time""
""fullscreenenter"",""5"",""15321""
","
","
","""event"",""trial"",""time""
""fullscreenenter"",""5"",""15321""
","
","","images/earth.jpg","","","","","","","","","","","","","","fixation","","","","","",""
"d3-animate-choice","228","616468","0.0-76.0-0.31","1022","4964","11","Female","false","true","false","false","""event"",""trial"",""time""
""fullscreenenter"",""5"",""15321""
","
","
","""event"",""trial"",""time""
""fullscreenenter"",""5"",""15321""
","
","305","","49","","","3000","1","","","images/earth.jpg","images/rocket1","images/rocket2","null","images/rocket2","","1","real","null","1","","",""
"d3-animate-choice","229","619324","0.0-76.0-1.31","1022","4964","11","Female","false","true","false","false","""event"",""trial"",""time""
""fullscreenenter"",""5"",""15321""
","
","
","""event"",""trial"",""time""
""fullscreenenter"",""5"",""15321""
","
","852.0999999046326","","49","","","3000","1","","","images/redplanet1.jpg","images/alien2","images/alien1","images/rocket2","images/alien1","images/t.png","2","real","false","1","rare","1","2022-12-10 20:28:09.455"
"two-step-fixation","230","620332","0.0-76.0-2.31","1022","4964","11","Female","false","true","false","false","""event"",""trial"",""time""
""fullscreenenter"",""5"",""15321""
","
","
","""event"",""trial"",""time""
""fullscreenenter"",""5"",""15321""
","
","","images/earth.jpg","","","","","","","","","","","","","","fixation","","","","","",""
"d3-animate-choice","231","622668","0.0-76.0-0.32","1022","4964","11","Female","false","true","false","false","""event"",""trial"",""time""
""fullscreenenter"",""5"",""15321""
","
","
","""event"",""trial"",""time""
""fullscreenenter"",""5"",""15321""
","
","330","","49","","","3000","1","","","images/earth.jpg","images/rocket1","images/rocket2","null","images/rocket2","","1","real","null","1","","",""
"d3-animate-choice","232","625484","0.0-76.0-1.32","1022","4964","11","Female","false","true","false","false","""event"",""trial"",""time""
""fullscreenenter"",""5"",""15321""
","
","
","""event"",""trial"",""time""
""fullscreenenter"",""5"",""15321""
","
","812.5","","48","","","3000","1","","","images/purpleplanet.jpg","images/alien4","images/alien3","images/rocket2","images/alien4","images/t.png","2","real","true","2","common","1","2022-12-10 20:28:15.615"
"two-step-fixation","233","626493","0.0-76.0-2.32","1022","4964","11","Female","false","true","false","false","""event"",""trial"",""time""
""fullscreenenter"",""5"",""15321""
","
","
","""event"",""trial"",""time""
""fullscreenenter"",""5"",""15321""
","
","","images/earth.jpg","","","","","","","","","","","","","","fixation","","","","","",""
"d3-animate-choice","234","629308","0.0-76.0-0.33","1022","4964","11","Female","false","true","false","false","""event"",""trial"",""time""
""fullscreenenter"",""5"",""15321""
","
","
","""event"",""trial"",""time""
""fullscreenenter"",""5"",""15321""
","
","809.5999999046326","","48","","","3000","1","","","images/earth.jpg","images/rocket1","images/rocket2","null","images/rocket1","","1","real","null","2","","",""
"d3-animate-choice","235","631636","0.0-76.0-1.33","1022","4964","11","Female","false","true","false","false","""event"",""trial"",""time""
""fullscreenenter"",""5"",""15321""
","
","
","""event"",""trial"",""time""
""fullscreenenter"",""5"",""15321""
","
","321.09999990463257","","49","","","3000","1","","","images/redplanet1.jpg","images/alien2","images/alien1","images/rocket1","images/alien1","images/t.png","2","real","true","1","common","1","2022-12-10 20:28:21.767"
"two-step-fixation","236","632648","0.0-76.0-2.33","1022","4964","11","Female","false","true","false","false","""event"",""trial"",""time""
""fullscreenenter"",""5"",""15321""
","
","
","""event"",""trial"",""time""
""fullscreenenter"",""5"",""15321""
","
","","images/earth.jpg","","","","","","","","","","","","","","fixation","","","","","",""
"d3-animate-choice","237","635036","0.0-76.0-0.34","1022","4964","11","Female","false","true","false","false","""event"",""trial"",""time""
""fullscreenenter"",""5"",""15321""
","
","
","""event"",""trial"",""time""
""fullscreenenter"",""5"",""15321""
","
","378.5","","49","","","3000","1","","","images/earth.jpg","images/rocket1","images/rocket2","null","images/rocket2","","1","real","null","1","","",""
"d3-animate-choice","238","638156","0.0-76.0-1.34","1022","4964","11","Female","false","true","false","false","""event"",""trial"",""time""
""fullscreenenter"",""5"",""15321""
","
","
","""event"",""trial"",""time""
""fullscreenenter"",""5"",""15321""
","
","1115.4000000953674","","48","","","3000","1","","","images/purpleplanet.jpg","images/alien4","images/alien3","images/rocket2","images/alien4","images/nothing.png","2","real","true","2","common","0","2022-12-10 20:28:28.287"
"two-step-fixation","239","639164","0.0-76.0-2.34","1022","4964","11","Female","false","true","false","false","""event"",""trial"",""time""
""fullscreenenter"",""5"",""15321""
","
","
","""event"",""trial"",""time""
""fullscreenenter"",""5"",""15321""
","
","","images/earth.jpg","","","","","","","","","","","","","","fixation","","","","","",""
"d3-animate-choice","240","641707","0.0-76.0-0.35","1022","4964","11","Female","false","true","false","false","""event"",""trial"",""time""
""fullscreenenter"",""5"",""15321""
","
","
","""event"",""trial"",""time""
""fullscreenenter"",""5"",""15321""
","
","535.9000000953674","","49","","","3000","1","","","images/earth.jpg","images/rocket1","images/rocket2","null","images/rocket2","","1","real","null","1","","",""
"d3-animate-choice","241","645186","0.0-76.0-1.35","1022","4964","11","Female","false","true","false","false","""event"",""trial"",""time""
""fullscreenenter"",""5"",""15321""
","
","
","""event"",""trial"",""time""
""fullscreenenter"",""5"",""15321""
","
","1476.0999999046326","","49","","","3000","1","","","images/redplanet1.jpg","images/alien2","images/alien1","images/rocket2","images/alien1","images/t.png","2","real","false","1","rare","1","2022-12-10 20:28:35.318"
"two-step-fixation","242","646196","0.0-76.0-2.35","1022","4964","11","Female","false","true","false","false","""event"",""trial"",""time""
""fullscreenenter"",""5"",""15321""
","
","
","""event"",""trial"",""time""
""fullscreenenter"",""5"",""15321""
","
","","images/earth.jpg","","","","","","","","","","","","","","fixation","","","","","",""
"d3-animate-choice","243","648565","0.0-76.0-0.36","1022","4964","11","Female","false","true","false","false","""event"",""trial"",""time""
""fullscreenenter"",""5"",""15321""
","
","
","""event"",""trial"",""time""
""fullscreenenter"",""5"",""15321""
","
","362.1000003814697","","49","","","3000","1","","","images/earth.jpg","images/rocket1","images/rocket2","null","images/rocket2","","1","real","null","1","","",""
"d3-animate-choice","244","651557","0.0-76.0-1.36","1022","4964","11","Female","false","true","false","false","""event"",""trial"",""time""
""fullscreenenter"",""5"",""15321""
","
","
","""event"",""trial"",""time""
""fullscreenenter"",""5"",""15321""
","
","986.9000000953674","","48","","","3000","1","","","images/purpleplanet.jpg","images/alien4","images/alien3","images/rocket2","images/alien4","images/t.png","2","real","true","2","common","1","2022-12-10 20:28:41.688"
