"trial_type","trial_index","time_elapsed","internal_node_id","participant_id","subject_id","age","gender","rocket_sides","red_planet_first_rocket","red_display_order","purple_display_order","interactions","blur_events","focus_events","fullscreenenter_events","fullscreenexit_events","rt","stimulus","key_press","button_pressed","success","duration","valid_pressed","rts","keys","planet_text","right_text","left_text","center_text","chosen_text","reward_text","trial_stage","practice_trial","transition_type","choice","transition","reward","timestamp"
"pavlovia","0","5","0.0-0.0","423","646","20","Female","true","true","true","false","
","
","
","
","
","","","","","","","","","","","","","","","","","","","","","",""
"html-keyboard-response","1","1712","0.0-1.0","423","646","20","Female","true","true","true","false","
","
","
","
","
","1705.6000000014901","Welcome! Press the space bar to begin.","32","","","","","","","","","","","","","","","","","","",""
"audio-keyboard-response","2","7307","0.0-2.0","423","646","20","Female","true","true","true","false","""event"",""trial"",""time""
""blur"",""3"",""12765""
""focus"",""3"",""12963""
","""event"",""trial"",""time""
""blur"",""3"",""12765""
","""event"",""trial"",""time""
""focus"",""3"",""12963""
","
","
","4896","audio/beep_loop.wav","32","","","","","","","","","","","","","","","","","","",""
"audio-button-response","3","13752","0.0-3.0","423","646","20","Female","true","true","true","false","""event"",""trial"",""time""
""blur"",""3"",""12765""
""focus"",""3"",""12963""
","""event"",""trial"",""time""
""blur"",""3"",""12765""
","""event"",""trial"",""time""
""focus"",""3"",""12963""
","
","
","NaN","audio/fish.mp3","","1","","","","","","","","","","","","","","","","","",""
"audio-button-response","4","16383","0.0-4.0","423","646","20","Female","true","true","true","false","""event"",""trial"",""time""
""blur"",""3"",""12765""
""focus"",""3"",""12963""
""fullscreenenter"",""5"",""20051""
","""event"",""trial"",""time""
""blur"",""3"",""12765""
","""event"",""trial"",""time""
""focus"",""3"",""12963""
","""event"",""trial"",""time""
""fullscreenenter"",""5"",""20051""
","
","NaN","audio/tiger.mp3","","4","","","","","","","","","","","","","","","","","",""
"fullscreen","5","20893","0.0-5.0","423","646","20","Female","true","true","true","false","""event"",""trial"",""time""
""blur"",""3"",""12765""
""focus"",""3"",""12963""
""fullscreenenter"",""5"",""20051""
","""event"",""trial"",""time""
""blur"",""3"",""12765""
","""event"",""trial"",""time""
""focus"",""3"",""12963""
","""event"",""trial"",""time""
""fullscreenenter"",""5"",""20051""
","
","","","","","true","","","","","","","","","","","","","","","","",""
"d3-instructions","6","35209","0.0-6.0","423","646","20","Female","true","true","true","false","""event"",""trial"",""time""
""blur"",""3"",""12765""
""focus"",""3"",""12963""
""fullscreenenter"",""5"",""20051""
","""event"",""trial"",""time""
""blur"",""3"",""12765""
","""event"",""trial"",""time""
""focus"",""3"",""12963""
","""event"",""trial"",""time""
""fullscreenenter"",""5"",""20051""
","
","","","","","","","","","","","","","","","","","","","","","",""
"d3-instructions","7","45009","0.0-7.0","423","646","20","Female","true","true","true","false","""event"",""trial"",""time""
""blur"",""3"",""12765""
""focus"",""3"",""12963""
""fullscreenenter"",""5"",""20051""
","""event"",""trial"",""time""
""blur"",""3"",""12765""
","""event"",""trial"",""time""
""focus"",""3"",""12963""
","""event"",""trial"",""time""
""fullscreenenter"",""5"",""20051""
","
","","","","","","","","","","","","","","","","","","","","","",""
"d3-instructions","8","51007","0.0-8.0","423","646","20","Female","true","true","true","false","""event"",""trial"",""time""
""blur"",""3"",""12765""
""focus"",""3"",""12963""
""fullscreenenter"",""5"",""20051""
","""event"",""trial"",""time""
""blur"",""3"",""12765""
","""event"",""trial"",""time""
""focus"",""3"",""12963""
","""event"",""trial"",""time""
""fullscreenenter"",""5"",""20051""
","
","","","","","","","","","","","","","","","","","","","","","",""
"d3-instructions","9","64025","0.0-9.0","423","646","20","Female","true","true","true","false","""event"",""trial"",""time""
""blur"",""3"",""12765""
""focus"",""3"",""12963""
""fullscreenenter"",""5"",""20051""
","""event"",""trial"",""time""
""blur"",""3"",""12765""
","""event"",""trial"",""time""
""focus"",""3"",""12963""
","""event"",""trial"",""time""
""fullscreenenter"",""5"",""20051""
","
","","","","","","","","","","","","","","","","","","","","","",""
"d3-instructions","10","80870","0.0-10.0","423","646","20","Female","true","true","true","false","""event"",""trial"",""time""
""blur"",""3"",""12765""
""focus"",""3"",""12963""
""fullscreenenter"",""5"",""20051""
","""event"",""trial"",""time""
""blur"",""3"",""12765""
","""event"",""trial"",""time""
""focus"",""3"",""12963""
","""event"",""trial"",""time""
""fullscreenenter"",""5"",""20051""
","
","","","","","","","","","","","","","","","","","","","","","",""
"d3-animate-choice","11","88223","0.0-11.0","423","646","20","Female","true","true","true","false","""event"",""trial"",""time""
""blur"",""3"",""12765""
""focus"",""3"",""12963""
""fullscreenenter"",""5"",""20051""
","""event"",""trial"",""time""
""blur"",""3"",""12765""
","""event"",""trial"",""time""
""focus"",""3"",""12963""
","""event"",""trial"",""time""
""fullscreenenter"",""5"",""20051""
","
","5337.10000000149","","49","","","3000","1","6566.29999999702","49","images/tutgreenplanet.jpg","images/tutalien1","images/tutalien2","null","images/tutalien2","","NA","practice","null","","","",""
"d3-animate-choice","12","91983","0.0-12.0","423","646","20","Female","true","true","true","false","""event"",""trial"",""time""
""blur"",""3"",""12765""
""focus"",""3"",""12963""
""fullscreenenter"",""5"",""20051""
","""event"",""trial"",""time""
""blur"",""3"",""12765""
","""event"",""trial"",""time""
""focus"",""3"",""12963""
","""event"",""trial"",""time""
""fullscreenenter"",""5"",""20051""
","
","1752.2000000029802","","48","","","3000","1","2461.10000000149","32","images/tutgreenplanet.jpg","images/tutalien1","images/tutalien2","null","images/tutalien1","","NA","practice","null","","","",""
"d3-animate-choice","13","94734","0.0-13.0","423","646","20","Female","true","true","true","false","""event"",""trial"",""time""
""blur"",""3"",""12765""
""focus"",""3"",""12963""
""fullscreenenter"",""5"",""20051""
","""event"",""trial"",""time""
""blur"",""3"",""12765""
","""event"",""trial"",""time""
""focus"",""3"",""12963""
","""event"",""trial"",""time""
""fullscreenenter"",""5"",""20051""
","
","742.0999999940395","","49","","","3000","1","","","images/tutgreenplanet.jpg","images/tutalien1","images/tutalien2","null","images/tutalien2","","NA","practice","null","","","",""
"d3-animate-choice","14","97097","0.0-14.0","423","646","20","Female","true","true","true","false","""event"",""trial"",""time""
""blur"",""3"",""12765""
""focus"",""3"",""12963""
""fullscreenenter"",""5"",""20051""
","""event"",""trial"",""time""
""blur"",""3"",""12765""
","""event"",""trial"",""time""
""focus"",""3"",""12963""
","""event"",""trial"",""time""
""fullscreenenter"",""5"",""20051""
","
","352.79999999701977","","48","","","3000","1","","","images/tutgreenplanet.jpg","images/tutalien1","images/tutalien2","null","images/tutalien1","","NA","practice","null","","","",""
"d3-instructions","15","104545","0.0-15.0","423","646","20","Female","true","true","true","false","""event"",""trial"",""time""
""blur"",""3"",""12765""
""focus"",""3"",""12963""
""fullscreenenter"",""5"",""20051""
","""event"",""trial"",""time""
""blur"",""3"",""12765""
","""event"",""trial"",""time""
""focus"",""3"",""12963""
","""event"",""trial"",""time""
""fullscreenenter"",""5"",""20051""
","
","","","","","","","","","","","","","","","","","","","","","",""
"d3-instructions","16","108449","0.0-16.0","423","646","20","Female","true","true","true","false","""event"",""trial"",""time""
""blur"",""3"",""12765""
""focus"",""3"",""12963""
""fullscreenenter"",""5"",""20051""
","""event"",""trial"",""time""
""blur"",""3"",""12765""
","""event"",""trial"",""time""
""focus"",""3"",""12963""
","""event"",""trial"",""time""
""fullscreenenter"",""5"",""20051""
","
","","","","","","","","","","","","","","","","","","","","","",""
"d3-instructions","17","113834","0.0-17.0","423","646","20","Female","true","true","true","false","""event"",""trial"",""time""
""blur"",""3"",""12765""
""focus"",""3"",""12963""
""fullscreenenter"",""5"",""20051""
","""event"",""trial"",""time""
""blur"",""3"",""12765""
","""event"",""trial"",""time""
""focus"",""3"",""12963""
","""event"",""trial"",""time""
""fullscreenenter"",""5"",""20051""
","
","","","","","","","","","","","","","","","","","","","","","",""
"d3-instructions","18","123582","0.0-18.0","423","646","20","Female","true","true","true","false","""event"",""trial"",""time""
""blur"",""3"",""12765""
""focus"",""3"",""12963""
""fullscreenenter"",""5"",""20051""
","""event"",""trial"",""time""
""blur"",""3"",""12765""
","""event"",""trial"",""time""
""focus"",""3"",""12963""
","""event"",""trial"",""time""
""fullscreenenter"",""5"",""20051""
","
","","","","","","","","","","","","","","","","","","","","","",""
"d3-instructions","19","131445","0.0-19.0","423","646","20","Female","true","true","true","false","""event"",""trial"",""time""
""blur"",""3"",""12765""
""focus"",""3"",""12963""
""fullscreenenter"",""5"",""20051""
","""event"",""trial"",""time""
""blur"",""3"",""12765""
","""event"",""trial"",""time""
""focus"",""3"",""12963""
","""event"",""trial"",""time""
""fullscreenenter"",""5"",""20051""
","
","","","","","","","","","","","","","","","","","","","","","",""
"d3-animate-choice","20","134013","0.0-20.0","423","646","20","Female","true","true","true","false","""event"",""trial"",""time""
""blur"",""3"",""12765""
""focus"",""3"",""12963""
""fullscreenenter"",""5"",""20051""
","""event"",""trial"",""time""
""blur"",""3"",""12765""
","""event"",""trial"",""time""
""focus"",""3"",""12963""
","""event"",""trial"",""time""
""fullscreenenter"",""5"",""20051""
","
","562.2999999970198","","49","","","3000","1","1005.6000000014901,1364.7999999970198,2234","49,49,49","images/tutyellowplanet.jpg","null","images/tutalien3","null","images/tutalien3","images/nothing.png","NA","practice","null","","","",""
"d3-animate-choice","21","136403","0.0-21.0","423","646","20","Female","true","true","true","false","""event"",""trial"",""time""
""blur"",""3"",""12765""
""focus"",""3"",""12963""
""fullscreenenter"",""5"",""20051""
","""event"",""trial"",""time""
""blur"",""3"",""12765""
","""event"",""trial"",""time""
""focus"",""3"",""12963""
","""event"",""trial"",""time""
""fullscreenenter"",""5"",""20051""
","
","382.79999999701977","","49","","","3000","1","932.2999999970198,1833.5","49,49","images/tutyellowplanet.jpg","null","images/tutalien3","null","images/tutalien3","images/t.png","NA","practice","null","","","",""
"d3-animate-choice","22","138744","0.0-22.0","423","646","20","Female","true","true","true","false","""event"",""trial"",""time""
""blur"",""3"",""12765""
""focus"",""3"",""12963""
""fullscreenenter"",""5"",""20051""
","""event"",""trial"",""time""
""blur"",""3"",""12765""
","""event"",""trial"",""time""
""focus"",""3"",""12963""
","""event"",""trial"",""time""
""fullscreenenter"",""5"",""20051""
","
","334.79999999701977","","49","","","3000","1","1918.2999999970198","49","images/tutyellowplanet.jpg","null","images/tutalien3","null","images/tutalien3","images/t.png","NA","practice","null","","","",""
"d3-animate-choice","23","141150","0.0-23.0","423","646","20","Female","true","true","true","false","""event"",""trial"",""time""
""blur"",""3"",""12765""
""focus"",""3"",""12963""
""fullscreenenter"",""5"",""20051""
","""event"",""trial"",""time""
""blur"",""3"",""12765""
","""event"",""trial"",""time""
""focus"",""3"",""12963""
","""event"",""trial"",""time""
""fullscreenenter"",""5"",""20051""
","
","401.19999999552965","","49","","","3000","1","1787.0999999940395","49","images/tutyellowplanet.jpg","null","images/tutalien3","null","images/tutalien3","images/t.png","NA","practice","null","","","",""
"d3-animate-choice","24","143473","0.0-24.0","423","646","20","Female","true","true","true","false","""event"",""trial"",""time""
""blur"",""3"",""12765""
""focus"",""3"",""12963""
""fullscreenenter"",""5"",""20051""
","""event"",""trial"",""time""
""blur"",""3"",""12765""
","""event"",""trial"",""time""
""focus"",""3"",""12963""
","""event"",""trial"",""time""
""fullscreenenter"",""5"",""20051""
","
","317.1000000014901","","49","","","3000","1","1753.6999999955297","49","images/tutyellowplanet.jpg","null","images/tutalien3","null","images/tutalien3","images/t.png","NA","practice","null","","","",""
"d3-animate-choice","25","145752","0.0-25.0","423","646","20","Female","true","true","true","false","""event"",""trial"",""time""
""blur"",""3"",""12765""
""focus"",""3"",""12963""
""fullscreenenter"",""5"",""20051""
","""event"",""trial"",""time""
""blur"",""3"",""12765""
","""event"",""trial"",""time""
""focus"",""3"",""12963""
","""event"",""trial"",""time""
""fullscreenenter"",""5"",""20051""
","
","271.3999999985099","","49","","","3000","1","","","images/tutyellowplanet.jpg","null","images/tutalien3","null","images/tutalien3","images/t.png","NA","practice","null","","","",""
"d3-animate-choice","26","148024","0.0-26.0","423","646","20","Female","true","true","true","false","""event"",""trial"",""time""
""blur"",""3"",""12765""
""focus"",""3"",""12963""
""fullscreenenter"",""5"",""20051""
","""event"",""trial"",""time""
""blur"",""3"",""12765""
","""event"",""trial"",""time""
""focus"",""3"",""12963""
","""event"",""trial"",""time""
""fullscreenenter"",""5"",""20051""
","
","262.20000000298023","","49","","","3000","1","1768.7000000029802","49","images/tutyellowplanet.jpg","null","images/tutalien3","null","images/tutalien3","images/t.png","NA","practice","null","","","",""
"d3-animate-choice","27","150445","0.0-27.0","423","646","20","Female","true","true","true","false","""event"",""trial"",""time""
""blur"",""3"",""12765""
""focus"",""3"",""12963""
""fullscreenenter"",""5"",""20051""
","""event"",""trial"",""time""
""blur"",""3"",""12765""
","""event"",""trial"",""time""
""focus"",""3"",""12963""
","""event"",""trial"",""time""
""fullscreenenter"",""5"",""20051""
","
","416.70000000298023","","49","","","3000","1","2086.2000000029802","49","images/tutyellowplanet.jpg","null","images/tutalien3","null","images/tutalien3","images/t.png","NA","practice","null","","","",""
"d3-animate-choice","28","152850","0.0-28.0","423","646","20","Female","true","true","true","false","""event"",""trial"",""time""
""blur"",""3"",""12765""
""focus"",""3"",""12963""
""fullscreenenter"",""5"",""20051""
","""event"",""trial"",""time""
""blur"",""3"",""12765""
","""event"",""trial"",""time""
""focus"",""3"",""12963""
","""event"",""trial"",""time""
""fullscreenenter"",""5"",""20051""
","
","400.5","","49","","","3000","1","2192.3000000044703","49","images/tutyellowplanet.jpg","null","images/tutalien3","null","images/tutalien3","images/t.png","NA","practice","null","","","",""
"d3-animate-choice","29","155495","0.0-29.0","423","646","20","Female","true","true","true","false","""event"",""trial"",""time""
""blur"",""3"",""12765""
""focus"",""3"",""12963""
""fullscreenenter"",""5"",""20051""
","""event"",""trial"",""time""
""blur"",""3"",""12765""
","""event"",""trial"",""time""
""focus"",""3"",""12963""
","""event"",""trial"",""time""
""fullscreenenter"",""5"",""20051""
","
","639.7999999970198","","49","","","3000","1","","","images/tutyellowplanet.jpg","null","images/tutalien3","null","images/tutalien3","images/t.png","NA","practice","null","","","",""
"d3-instructions","30","161024","0.0-30.0","423","646","20","Female","true","true","true","false","""event"",""trial"",""time""
""blur"",""3"",""12765""
""focus"",""3"",""12963""
""fullscreenenter"",""5"",""20051""
","""event"",""trial"",""time""
""blur"",""3"",""12765""
","""event"",""trial"",""time""
""focus"",""3"",""12963""
","""event"",""trial"",""time""
""fullscreenenter"",""5"",""20051""
","
","","","","","","","","","","","","","","","","","","","","","",""
"d3-instructions","31","164793","0.0-31.0","423","646","20","Female","true","true","true","false","""event"",""trial"",""time""
""blur"",""3"",""12765""
""focus"",""3"",""12963""
""fullscreenenter"",""5"",""20051""
","""event"",""trial"",""time""
""blur"",""3"",""12765""
","""event"",""trial"",""time""
""focus"",""3"",""12963""
","""event"",""trial"",""time""
""fullscreenenter"",""5"",""20051""
","
","","","","","","","","","","","","","","","","","","","","","",""
"d3-instructions","32","168783","0.0-32.0","423","646","20","Female","true","true","true","false","""event"",""trial"",""time""
""blur"",""3"",""12765""
""focus"",""3"",""12963""
""fullscreenenter"",""5"",""20051""
","""event"",""trial"",""time""
""blur"",""3"",""12765""
","""event"",""trial"",""time""
""focus"",""3"",""12963""
","""event"",""trial"",""time""
""fullscreenenter"",""5"",""20051""
","
","","","","","","","","","","","","","","","","","","","","","",""
"d3-instructions","33","171521","0.0-33.0","423","646","20","Female","true","true","true","false","""event"",""trial"",""time""
""blur"",""3"",""12765""
""focus"",""3"",""12963""
""fullscreenenter"",""5"",""20051""
","""event"",""trial"",""time""
""blur"",""3"",""12765""
","""event"",""trial"",""time""
""focus"",""3"",""12963""
","""event"",""trial"",""time""
""fullscreenenter"",""5"",""20051""
","
","","","","","","","","","","","","","","","","","","","","","",""
"d3-animate-choice","34","174487","0.0-34.0","423","646","20","Female","true","true","true","false","""event"",""trial"",""time""
""blur"",""3"",""12765""
""focus"",""3"",""12963""
""fullscreenenter"",""5"",""20051""
","""event"",""trial"",""time""
""blur"",""3"",""12765""
","""event"",""trial"",""time""
""focus"",""3"",""12963""
","""event"",""trial"",""time""
""fullscreenenter"",""5"",""20051""
","
","960.5","","48","","","3000","1","","","images/tutgreenplanet.jpg","images/tutalien1","images/tutalien2","null","images/tutalien1","images/nothing.png","NA","practice","null","","","",""
"d3-animate-choice","35","176924","0.0-35.0","423","646","20","Female","true","true","true","false","""event"",""trial"",""time""
""blur"",""3"",""12765""
""focus"",""3"",""12963""
""fullscreenenter"",""5"",""20051""
","""event"",""trial"",""time""
""blur"",""3"",""12765""
","""event"",""trial"",""time""
""focus"",""3"",""12963""
","""event"",""trial"",""time""
""fullscreenenter"",""5"",""20051""
","
","429.90000000596046","","49","","","3000","1","","","images/tutgreenplanet.jpg","images/tutalien1","images/tutalien2","null","images/tutalien2","images/t.png","NA","practice","null","","","",""
"d3-animate-choice","36","179287","0.0-36.0","423","646","20","Female","true","true","true","false","""event"",""trial"",""time""
""blur"",""3"",""12765""
""focus"",""3"",""12963""
""fullscreenenter"",""5"",""20051""
","""event"",""trial"",""time""
""blur"",""3"",""12765""
","""event"",""trial"",""time""
""focus"",""3"",""12963""
","""event"",""trial"",""time""
""fullscreenenter"",""5"",""20051""
","
","352.6000000014901","","48","","","3000","1","","","images/tutgreenplanet.jpg","images/tutalien1","images/tutalien2","null","images/tutalien1","images/nothing.png","NA","practice","null","","","",""
"d3-animate-choice","37","181613","0.0-37.0","423","646","20","Female","true","true","true","false","""event"",""trial"",""time""
""blur"",""3"",""12765""
""focus"",""3"",""12963""
""fullscreenenter"",""5"",""20051""
","""event"",""trial"",""time""
""blur"",""3"",""12765""
","""event"",""trial"",""time""
""focus"",""3"",""12963""
","""event"",""trial"",""time""
""fullscreenenter"",""5"",""20051""
","
","322","","49","","","3000","1","","","images/tutgreenplanet.jpg","images/tutalien1","images/tutalien2","null","images/tutalien2","images/t.png","NA","practice","null","","","",""
"d3-animate-choice","38","183996","0.0-38.0","423","646","20","Female","true","true","true","false","""event"",""trial"",""time""
""blur"",""3"",""12765""
""focus"",""3"",""12963""
""fullscreenenter"",""5"",""20051""
","""event"",""trial"",""time""
""blur"",""3"",""12765""
","""event"",""trial"",""time""
""focus"",""3"",""12963""
","""event"",""trial"",""time""
""fullscreenenter"",""5"",""20051""
","
","378.6000000014901","","49","","","3000","1","","","images/tutgreenplanet.jpg","images/tutalien1","images/tutalien2","null","images/tutalien2","images/t.png","NA","practice","null","","","",""
"d3-animate-choice","39","186540","0.0-39.0","423","646","20","Female","true","true","true","false","""event"",""trial"",""time""
""blur"",""3"",""12765""
""focus"",""3"",""12963""
""fullscreenenter"",""5"",""20051""
","""event"",""trial"",""time""
""blur"",""3"",""12765""
","""event"",""trial"",""time""
""focus"",""3"",""12963""
","""event"",""trial"",""time""
""fullscreenenter"",""5"",""20051""
","
","535.8000000044703","","49","","","3000","1","","","images/tutgreenplanet.jpg","images/tutalien1","images/tutalien2","null","images/tutalien2","images/t.png","NA","practice","null","","","",""
"d3-animate-choice","40","189121","0.0-40.0","423","646","20","Female","true","true","true","false","""event"",""trial"",""time""
""blur"",""3"",""12765""
""focus"",""3"",""12963""
""fullscreenenter"",""5"",""20051""
","""event"",""trial"",""time""
""blur"",""3"",""12765""
","""event"",""trial"",""time""
""focus"",""3"",""12963""
","""event"",""trial"",""time""
""fullscreenenter"",""5"",""20051""
","
","576.7000000029802","","49","","","3000","1","","","images/tutgreenplanet.jpg","images/tutalien1","images/tutalien2","null","images/tutalien2","images/t.png","NA","practice","null","","","",""
"d3-animate-choice","41","191707","0.0-41.0","423","646","20","Female","true","true","true","false","""event"",""trial"",""time""
""blur"",""3"",""12765""
""focus"",""3"",""12963""
""fullscreenenter"",""5"",""20051""
","""event"",""trial"",""time""
""blur"",""3"",""12765""
","""event"",""trial"",""time""
""focus"",""3"",""12963""
","""event"",""trial"",""time""
""fullscreenenter"",""5"",""20051""
","
","581","","49","","","3000","1","","","images/tutgreenplanet.jpg","images/tutalien1","images/tutalien2","null","images/tutalien2","images/t.png","NA","practice","null","","","",""
"d3-animate-choice","42","194163","0.0-42.0","423","646","20","Female","true","true","true","false","""event"",""trial"",""time""
""blur"",""3"",""12765""
""focus"",""3"",""12963""
""fullscreenenter"",""5"",""20051""
","""event"",""trial"",""time""
""blur"",""3"",""12765""
","""event"",""trial"",""time""
""focus"",""3"",""12963""
","""event"",""trial"",""time""
""fullscreenenter"",""5"",""20051""
","
","449.70000000298023","","49","","","3000","1","","","images/tutgreenplanet.jpg","images/tutalien1","images/tutalien2","null","images/tutalien2","images/t.png","NA","practice","null","","","",""
"d3-animate-choice","43","196647","0.0-43.0","423","646","20","Female","true","true","true","false","""event"",""trial"",""time""
""blur"",""3"",""12765""
""focus"",""3"",""12963""
""fullscreenenter"",""5"",""20051""
","""event"",""trial"",""time""
""blur"",""3"",""12765""
","""event"",""trial"",""time""
""focus"",""3"",""12963""
","""event"",""trial"",""time""
""fullscreenenter"",""5"",""20051""
","
","478.3999999985099","","49","","","3000","1","","","images/tutgreenplanet.jpg","images/tutalien1","images/tutalien2","null","images/tutalien2","images/t.png","NA","practice","null","","","",""
"d3-instructions","44","202528","0.0-44.0","423","646","20","Female","true","true","true","false","""event"",""trial"",""time""
""blur"",""3"",""12765""
""focus"",""3"",""12963""
""fullscreenenter"",""5"",""20051""
","""event"",""trial"",""time""
""blur"",""3"",""12765""
","""event"",""trial"",""time""
""focus"",""3"",""12963""
","""event"",""trial"",""time""
""fullscreenenter"",""5"",""20051""
","
","","","","","","","","","","","","","","","","","","","","","",""
"d3-instructions","45","204895","0.0-45.0","423","646","20","Female","true","true","true","false","""event"",""trial"",""time""
""blur"",""3"",""12765""
""focus"",""3"",""12963""
""fullscreenenter"",""5"",""20051""
","""event"",""trial"",""time""
""blur"",""3"",""12765""
","""event"",""trial"",""time""
""focus"",""3"",""12963""
","""event"",""trial"",""time""
""fullscreenenter"",""5"",""20051""
","
","","","","","","","","","","","","","","","","","","","","","",""
"d3-instructions","46","206654","0.0-46.0","423","646","20","Female","true","true","true","false","""event"",""trial"",""time""
""blur"",""3"",""12765""
""focus"",""3"",""12963""
""fullscreenenter"",""5"",""20051""
","""event"",""trial"",""time""
""blur"",""3"",""12765""
","""event"",""trial"",""time""
""focus"",""3"",""12963""
","""event"",""trial"",""time""
""fullscreenenter"",""5"",""20051""
","
","","","","","","","","","","","","","","","","","","","","","",""
"d3-instructions","47","210028","0.0-47.0","423","646","20","Female","true","true","true","false","""event"",""trial"",""time""
""blur"",""3"",""12765""
""focus"",""3"",""12963""
""fullscreenenter"",""5"",""20051""
","""event"",""trial"",""time""
""blur"",""3"",""12765""
","""event"",""trial"",""time""
""focus"",""3"",""12963""
","""event"",""trial"",""time""
""fullscreenenter"",""5"",""20051""
","
","","","","","","","","","","","","","","","","","","","","","",""
"d3-instructions","48","211880","0.0-48.0","423","646","20","Female","true","true","true","false","""event"",""trial"",""time""
""blur"",""3"",""12765""
""focus"",""3"",""12963""
""fullscreenenter"",""5"",""20051""
","""event"",""trial"",""time""
""blur"",""3"",""12765""
","""event"",""trial"",""time""
""focus"",""3"",""12963""
","""event"",""trial"",""time""
""fullscreenenter"",""5"",""20051""
","
","","","","","","","","","","","","","","","","","","","","","",""
"d3-instructions","49","214499","0.0-49.0","423","646","20","Female","true","true","true","false","""event"",""trial"",""time""
""blur"",""3"",""12765""
""focus"",""3"",""12963""
""fullscreenenter"",""5"",""20051""
","""event"",""trial"",""time""
""blur"",""3"",""12765""
","""event"",""trial"",""time""
""focus"",""3"",""12963""
","""event"",""trial"",""time""
""fullscreenenter"",""5"",""20051""
","
","","","","","","","","","","","","","","","","","","","","","",""
"d3-instructions","50","216932","0.0-50.0","423","646","20","Female","true","true","true","false","""event"",""trial"",""time""
""blur"",""3"",""12765""
""focus"",""3"",""12963""
""fullscreenenter"",""5"",""20051""
","""event"",""trial"",""time""
""blur"",""3"",""12765""
","""event"",""trial"",""time""
""focus"",""3"",""12963""
","""event"",""trial"",""time""
""fullscreenenter"",""5"",""20051""
","
","","","","","","","","","","","","","","","","","","","","","",""
"d3-instructions","51","218957","0.0-51.0","423","646","20","Female","true","true","true","false","""event"",""trial"",""time""
""blur"",""3"",""12765""
""focus"",""3"",""12963""
""fullscreenenter"",""5"",""20051""
","""event"",""trial"",""time""
""blur"",""3"",""12765""
","""event"",""trial"",""time""
""focus"",""3"",""12963""
","""event"",""trial"",""time""
""fullscreenenter"",""5"",""20051""
","
","","","","","","","","","","","","","","","","","","","","","",""
"d3-instructions","52","220318","0.0-52.0","423","646","20","Female","true","true","true","false","""event"",""trial"",""time""
""blur"",""3"",""12765""
""focus"",""3"",""12963""
""fullscreenenter"",""5"",""20051""
","""event"",""trial"",""time""
""blur"",""3"",""12765""
","""event"",""trial"",""time""
""focus"",""3"",""12963""
","""event"",""trial"",""time""
""fullscreenenter"",""5"",""20051""
","
","","","","","","","","","","","","","","","","","","","","","",""
"d3-instructions","53","225228","0.0-53.0","423","646","20","Female","true","true","true","false","""event"",""trial"",""time""
""blur"",""3"",""12765""
""focus"",""3"",""12963""
""fullscreenenter"",""5"",""20051""
","""event"",""trial"",""time""
""blur"",""3"",""12765""
","""event"",""trial"",""time""
""focus"",""3"",""12963""
","""event"",""trial"",""time""
""fullscreenenter"",""5"",""20051""
","
","","","","","","","","","","","","","","","","","","","","","",""
"d3-instructions","54","231127","0.0-54.0","423","646","20","Female","true","true","true","false","""event"",""trial"",""time""
""blur"",""3"",""12765""
""focus"",""3"",""12963""
""fullscreenenter"",""5"",""20051""
","""event"",""trial"",""time""
""blur"",""3"",""12765""
","""event"",""trial"",""time""
""focus"",""3"",""12963""
","""event"",""trial"",""time""
""fullscreenenter"",""5"",""20051""
","
","","","","","","","","","","","","","","","","","","","","","",""
"d3-instructions","55","233927","0.0-55.0","423","646","20","Female","true","true","true","false","""event"",""trial"",""time""
""blur"",""3"",""12765""
""focus"",""3"",""12963""
""fullscreenenter"",""5"",""20051""
","""event"",""trial"",""time""
""blur"",""3"",""12765""
","""event"",""trial"",""time""
""focus"",""3"",""12963""
","""event"",""trial"",""time""
""fullscreenenter"",""5"",""20051""
","
","","","","","","","","","","","","","","","","","","","","","",""
"d3-instructions","56","236115","0.0-56.0","423","646","20","Female","true","true","true","false","""event"",""trial"",""time""
""blur"",""3"",""12765""
""focus"",""3"",""12963""
""fullscreenenter"",""5"",""20051""
","""event"",""trial"",""time""
""blur"",""3"",""12765""
","""event"",""trial"",""time""
""focus"",""3"",""12963""
","""event"",""trial"",""time""
""fullscreenenter"",""5"",""20051""
","
","","","","","","","","","","","","","","","","","","","","","",""
"d3-instructions","57","241996","0.0-57.0","423","646","20","Female","true","true","true","false","""event"",""trial"",""time""
""blur"",""3"",""12765""
""focus"",""3"",""12963""
""fullscreenenter"",""5"",""20051""
","""event"",""trial"",""time""
""blur"",""3"",""12765""
","""event"",""trial"",""time""
""focus"",""3"",""12963""
","""event"",""trial"",""time""
""fullscreenenter"",""5"",""20051""
","
","","","","","","","","","","","","","","","","","","","","","",""
"d3-instructions","58","246216","0.0-58.0","423","646","20","Female","true","true","true","false","""event"",""trial"",""time""
""blur"",""3"",""12765""
""focus"",""3"",""12963""
""fullscreenenter"",""5"",""20051""
","""event"",""trial"",""time""
""blur"",""3"",""12765""
","""event"",""trial"",""time""
""focus"",""3"",""12963""
","""event"",""trial"",""time""
""fullscreenenter"",""5"",""20051""
","
","","","","","","","","","","","","","","","","","","","","","",""
"d3-instructions","59","249090","0.0-59.0","423","646","20","Female","true","true","true","false","""event"",""trial"",""time""
""blur"",""3"",""12765""
""focus"",""3"",""12963""
""fullscreenenter"",""5"",""20051""
","""event"",""trial"",""time""
""blur"",""3"",""12765""
","""event"",""trial"",""time""
""focus"",""3"",""12963""
","""event"",""trial"",""time""
""fullscreenenter"",""5"",""20051""
","
","","","","","","","","","","","","","","","","","","","","","",""
"d3-instructions","60","251828","0.0-60.0","423","646","20","Female","true","true","true","false","""event"",""trial"",""time""
""blur"",""3"",""12765""
""focus"",""3"",""12963""
""fullscreenenter"",""5"",""20051""
","""event"",""trial"",""time""
""blur"",""3"",""12765""
","""event"",""trial"",""time""
""focus"",""3"",""12963""
","""event"",""trial"",""time""
""fullscreenenter"",""5"",""20051""
","
","","","","","","","","","","","","","","","","","","","","","",""
"d3-animate-choice","61","254499","0.0-61.0-0.0","423","646","20","Female","true","true","true","false","""event"",""trial"",""time""
""blur"",""3"",""12765""
""focus"",""3"",""12963""
""fullscreenenter"",""5"",""20051""
","""event"",""trial"",""time""
""blur"",""3"",""12765""
","""event"",""trial"",""time""
""focus"",""3"",""12963""
","""event"",""trial"",""time""
""fullscreenenter"",""5"",""20051""
","
","663.3999999985099","","49","","","3000","1","","","images/earth.jpg","images/tutrocket1","images/tutrocket2","null","images/tutrocket2","","1","practice","null","1","","",""
"d3-animate-choice","62","257338","0.0-61.0-1.0","423","646","20","Female","true","true","true","false","""event"",""trial"",""time""
""blur"",""3"",""12765""
""focus"",""3"",""12963""
""fullscreenenter"",""5"",""20051""
","""event"",""trial"",""time""
""blur"",""3"",""12765""
","""event"",""trial"",""time""
""focus"",""3"",""12963""
","""event"",""trial"",""time""
""fullscreenenter"",""5"",""20051""
","
","826.7999999970198","","49","","","3000","1","","","images/tutyellowplanet.jpg","images/tutalien4","images/tutalien3","images/tutrocket2","images/tutalien3","images/t.png","2","practice","true","1","common","1","2022-02-04 06:37:40.047"
"two-step-fixation","63","258491","0.0-61.0-2.0","423","646","20","Female","true","true","true","false","""event"",""trial"",""time""
""blur"",""3"",""12765""
""focus"",""3"",""12963""
""fullscreenenter"",""5"",""20051""
","""event"",""trial"",""time""
""blur"",""3"",""12765""
","""event"",""trial"",""time""
""focus"",""3"",""12963""
","""event"",""trial"",""time""
""fullscreenenter"",""5"",""20051""
","
","","images/earth.jpg","","","","","","","","","","","","","","fixation","","","","","",""
"d3-animate-choice","64","261354","0.0-61.0-0.1","423","646","20","Female","true","true","true","false","""event"",""trial"",""time""
""blur"",""3"",""12765""
""focus"",""3"",""12963""
""fullscreenenter"",""5"",""20051""
","""event"",""trial"",""time""
""blur"",""3"",""12765""
","""event"",""trial"",""time""
""focus"",""3"",""12963""
","""event"",""trial"",""time""
""fullscreenenter"",""5"",""20051""
","
","856.2000000029802","","48","","","3000","1","","","images/earth.jpg","images/tutrocket1","images/tutrocket2","null","images/tutrocket1","","1","practice","null","2","","",""
"d3-animate-choice","65","263848","0.0-61.0-1.1","423","646","20","Female","true","true","true","false","""event"",""trial"",""time""
""blur"",""3"",""12765""
""focus"",""3"",""12963""
""fullscreenenter"",""5"",""20051""
","""event"",""trial"",""time""
""blur"",""3"",""12765""
","""event"",""trial"",""time""
""focus"",""3"",""12963""
","""event"",""trial"",""time""
""fullscreenenter"",""5"",""20051""
","
","486.8999999985099","","49","","","3000","1","","","images/tutgreenplanet.jpg","images/tutalien2","images/tutalien1","images/tutrocket1","images/tutalien1","images/t.png","2","practice","true","1","common","1","2022-02-04 06:37:46.557"
"two-step-fixation","66","264854","0.0-61.0-2.1","423","646","20","Female","true","true","true","false","""event"",""trial"",""time""
""blur"",""3"",""12765""
""focus"",""3"",""12963""
""fullscreenenter"",""5"",""20051""
","""event"",""trial"",""time""
""blur"",""3"",""12765""
","""event"",""trial"",""time""
""focus"",""3"",""12963""
","""event"",""trial"",""time""
""fullscreenenter"",""5"",""20051""
","
","","images/earth.jpg","","","","","","","","","","","","","","fixation","","","","","",""
"d3-animate-choice","67","268064","0.0-61.0-0.2","423","646","20","Female","true","true","true","false","""event"",""trial"",""time""
""blur"",""3"",""12765""
""focus"",""3"",""12963""
""fullscreenenter"",""5"",""20051""
","""event"",""trial"",""time""
""blur"",""3"",""12765""
","""event"",""trial"",""time""
""focus"",""3"",""12963""
","""event"",""trial"",""time""
""fullscreenenter"",""5"",""20051""
","
","1197.7999999970198","","49","","","3000","1","","","images/earth.jpg","images/tutrocket1","images/tutrocket2","null","images/tutrocket2","","1","practice","null","1","","",""
"d3-animate-choice","68","270906","0.0-61.0-1.2","423","646","20","Female","true","true","true","false","""event"",""trial"",""time""
""blur"",""3"",""12765""
""focus"",""3"",""12963""
""fullscreenenter"",""5"",""20051""
","""event"",""trial"",""time""
""blur"",""3"",""12765""
","""event"",""trial"",""time""
""focus"",""3"",""12963""
","""event"",""trial"",""time""
""fullscreenenter"",""5"",""20051""
","
","835.1999999955297","","48","","","3000","1","","","images/tutgreenplanet.jpg","images/tutalien2","images/tutalien1","images/tutrocket2","images/tutalien2","images/nothing.png","2","practice","false","2","rare","0","2022-02-04 06:37:53.614"
"two-step-fixation","69","271914","0.0-61.0-2.2","423","646","20","Female","true","true","true","false","""event"",""trial"",""time""
""blur"",""3"",""12765""
""focus"",""3"",""12963""
""fullscreenenter"",""5"",""20051""
","""event"",""trial"",""time""
""blur"",""3"",""12765""
","""event"",""trial"",""time""
""focus"",""3"",""12963""
","""event"",""trial"",""time""
""fullscreenenter"",""5"",""20051""
","
","","images/earth.jpg","","","","","","","","","","","","","","fixation","","","","","",""
"d3-animate-choice","70","274236","0.0-61.0-0.3","423","646","20","Female","true","true","true","false","""event"",""trial"",""time""
""blur"",""3"",""12765""
""focus"",""3"",""12963""
""fullscreenenter"",""5"",""20051""
","""event"",""trial"",""time""
""blur"",""3"",""12765""
","""event"",""trial"",""time""
""focus"",""3"",""12963""
","""event"",""trial"",""time""
""fullscreenenter"",""5"",""20051""
","
","314.8999999985099","","48","","","3000","1","","","images/earth.jpg","images/tutrocket1","images/tutrocket2","null","images/tutrocket1","","1","practice","null","2","","",""
"d3-animate-choice","71","276633","0.0-61.0-1.3","423","646","20","Female","true","true","true","false","""event"",""trial"",""time""
""blur"",""3"",""12765""
""focus"",""3"",""12963""
""fullscreenenter"",""5"",""20051""
","""event"",""trial"",""time""
""blur"",""3"",""12765""
","""event"",""trial"",""time""
""focus"",""3"",""12963""
","""event"",""trial"",""time""
""fullscreenenter"",""5"",""20051""
","
","391","","49","","","3000","1","","","images/tutgreenplanet.jpg","images/tutalien2","images/tutalien1","images/tutrocket1","images/tutalien1","images/nothing.png","2","practice","true","1","common","0","2022-02-04 06:37:59.342"
"two-step-fixation","72","277640","0.0-61.0-2.3","423","646","20","Female","true","true","true","false","""event"",""trial"",""time""
""blur"",""3"",""12765""
""focus"",""3"",""12963""
""fullscreenenter"",""5"",""20051""
","""event"",""trial"",""time""
""blur"",""3"",""12765""
","""event"",""trial"",""time""
""focus"",""3"",""12963""
","""event"",""trial"",""time""
""fullscreenenter"",""5"",""20051""
","
","","images/earth.jpg","","","","","","","","","","","","","","fixation","","","","","",""
"d3-animate-choice","73","279951","0.0-61.0-0.4","423","646","20","Female","true","true","true","false","""event"",""trial"",""time""
""blur"",""3"",""12765""
""focus"",""3"",""12963""
""fullscreenenter"",""5"",""20051""
","""event"",""trial"",""time""
""blur"",""3"",""12765""
","""event"",""trial"",""time""
""focus"",""3"",""12963""
","""event"",""trial"",""time""
""fullscreenenter"",""5"",""20051""
","
","302.80000000447035","","49","","","3000","1","","","images/earth.jpg","images/tutrocket1","images/tutrocket2","null","images/tutrocket2","","1","practice","null","1","","",""
"d3-animate-choice","74","282536","0.0-61.0-1.4","423","646","20","Female","true","true","true","false","""event"",""trial"",""time""
""blur"",""3"",""12765""
""focus"",""3"",""12963""
""fullscreenenter"",""5"",""20051""
","""event"",""trial"",""time""
""blur"",""3"",""12765""
","""event"",""trial"",""time""
""focus"",""3"",""12963""
","""event"",""trial"",""time""
""fullscreenenter"",""5"",""20051""
","
","576.3999999985099","","48","","","3000","1","1277.1000000014901","48","images/tutyellowplanet.jpg","images/tutalien4","images/tutalien3","images/tutrocket2","images/tutalien4","images/t.png","2","practice","true","2","common","1","2022-02-04 06:38:05.244"
"two-step-fixation","75","283542","0.0-61.0-2.4","423","646","20","Female","true","true","true","false","""event"",""trial"",""time""
""blur"",""3"",""12765""
""focus"",""3"",""12963""
""fullscreenenter"",""5"",""20051""
","""event"",""trial"",""time""
""blur"",""3"",""12765""
","""event"",""trial"",""time""
""focus"",""3"",""12963""
","""event"",""trial"",""time""
""fullscreenenter"",""5"",""20051""
","
","","images/earth.jpg","","","","","","","","","","","","","","fixation","","","","","",""
"d3-animate-choice","76","286077","0.0-61.0-0.5","423","646","20","Female","true","true","true","false","""event"",""trial"",""time""
""blur"",""3"",""12765""
""focus"",""3"",""12963""
""fullscreenenter"",""5"",""20051""
","""event"",""trial"",""time""
""blur"",""3"",""12765""
","""event"",""trial"",""time""
""focus"",""3"",""12963""
","""event"",""trial"",""time""
""fullscreenenter"",""5"",""20051""
","
","525.1000000014901","","49","","","3000","1","","","images/earth.jpg","images/tutrocket1","images/tutrocket2","null","images/tutrocket2","","1","practice","null","1","","",""
"d3-animate-choice","77","288443","0.0-61.0-1.5","423","646","20","Female","true","true","true","false","""event"",""trial"",""time""
""blur"",""3"",""12765""
""focus"",""3"",""12963""
""fullscreenenter"",""5"",""20051""
","""event"",""trial"",""time""
""blur"",""3"",""12765""
","""event"",""trial"",""time""
""focus"",""3"",""12963""
","""event"",""trial"",""time""
""fullscreenenter"",""5"",""20051""
","
","358.69999999552965","","48","","","3000","1","","","images/tutyellowplanet.jpg","images/tutalien4","images/tutalien3","images/tutrocket2","images/tutalien4","images/nothing.png","2","practice","true","2","common","0","2022-02-04 06:38:11.151"
"two-step-fixation","78","289451","0.0-61.0-2.5","423","646","20","Female","true","true","true","false","""event"",""trial"",""time""
""blur"",""3"",""12765""
""focus"",""3"",""12963""
""fullscreenenter"",""5"",""20051""
","""event"",""trial"",""time""
""blur"",""3"",""12765""
","""event"",""trial"",""time""
""focus"",""3"",""12963""
","""event"",""trial"",""time""
""fullscreenenter"",""5"",""20051""
","
","","images/earth.jpg","","","","","","","","","","","","","","fixation","","","","","",""
"d3-animate-choice","79","291761","0.0-61.0-0.6","423","646","20","Female","true","true","true","false","""event"",""trial"",""time""
""blur"",""3"",""12765""
""focus"",""3"",""12963""
""fullscreenenter"",""5"",""20051""
","""event"",""trial"",""time""
""blur"",""3"",""12765""
","""event"",""trial"",""time""
""focus"",""3"",""12963""
","""event"",""trial"",""time""
""fullscreenenter"",""5"",""20051""
","
","304.29999999701977","","49","","","3000","1","2026.5","49","images/earth.jpg","images/tutrocket1","images/tutrocket2","null","images/tutrocket2","","1","practice","null","1","","",""
"d3-animate-choice","80","294086","0.0-61.0-1.6","423","646","20","Female","true","true","true","false","""event"",""trial"",""time""
""blur"",""3"",""12765""
""focus"",""3"",""12963""
""fullscreenenter"",""5"",""20051""
","""event"",""trial"",""time""
""blur"",""3"",""12765""
","""event"",""trial"",""time""
""focus"",""3"",""12963""
","""event"",""trial"",""time""
""fullscreenenter"",""5"",""20051""
","
","316.1000000014901","","49","","","3000","1","","","images/tutyellowplanet.jpg","images/tutalien4","images/tutalien3","images/tutrocket2","images/tutalien3","images/nothing.png","2","practice","true","1","common","0","2022-02-04 06:38:16.794"
"two-step-fixation","81","295091","0.0-61.0-2.6","423","646","20","Female","true","true","true","false","""event"",""trial"",""time""
""blur"",""3"",""12765""
""focus"",""3"",""12963""
""fullscreenenter"",""5"",""20051""
","""event"",""trial"",""time""
""blur"",""3"",""12765""
","""event"",""trial"",""time""
""focus"",""3"",""12963""
","""event"",""trial"",""time""
""fullscreenenter"",""5"",""20051""
","
","","images/earth.jpg","","","","","","","","","","","","","","fixation","","","","","",""
"d3-animate-choice","82","297136","0.0-61.0-0.7","423","646","20","Female","true","true","true","false","""event"",""trial"",""time""
""blur"",""3"",""12765""
""focus"",""3"",""12963""
""fullscreenenter"",""5"",""20051""
","""event"",""trial"",""time""
""blur"",""3"",""12765""
","""event"",""trial"",""time""
""focus"",""3"",""12963""
","""event"",""trial"",""time""
""fullscreenenter"",""5"",""20051""
","
","37.5","","49","","","3000","1","403.3999999985099","48","images/earth.jpg","images/tutrocket1","images/tutrocket2","null","images/tutrocket2","","1","practice","null","1","","",""
"d3-animate-choice","83","299680","0.0-61.0-1.7","423","646","20","Female","true","true","true","false","""event"",""trial"",""time""
""blur"",""3"",""12765""
""focus"",""3"",""12963""
""fullscreenenter"",""5"",""20051""
","""event"",""trial"",""time""
""blur"",""3"",""12765""
","""event"",""trial"",""time""
""focus"",""3"",""12963""
","""event"",""trial"",""time""
""fullscreenenter"",""5"",""20051""
","
","533","","48","","","3000","1","","","images/tutyellowplanet.jpg","images/tutalien4","images/tutalien3","images/tutrocket2","images/tutalien4","images/t.png","2","practice","true","2","common","1","2022-02-04 06:38:22.388"
"two-step-fixation","84","300688","0.0-61.0-2.7","423","646","20","Female","true","true","true","false","""event"",""trial"",""time""
""blur"",""3"",""12765""
""focus"",""3"",""12963""
""fullscreenenter"",""5"",""20051""
","""event"",""trial"",""time""
""blur"",""3"",""12765""
","""event"",""trial"",""time""
""focus"",""3"",""12963""
","""event"",""trial"",""time""
""fullscreenenter"",""5"",""20051""
","
","","images/earth.jpg","","","","","","","","","","","","","","fixation","","","","","",""
"d3-animate-choice","85","302768","0.0-61.0-0.8","423","646","20","Female","true","true","true","false","""event"",""trial"",""time""
""blur"",""3"",""12765""
""focus"",""3"",""12963""
""fullscreenenter"",""5"",""20051""
","""event"",""trial"",""time""
""blur"",""3"",""12765""
","""event"",""trial"",""time""
""focus"",""3"",""12963""
","""event"",""trial"",""time""
""fullscreenenter"",""5"",""20051""
","
","71.10000000149012","","49","","","3000","1","","","images/earth.jpg","images/tutrocket1","images/tutrocket2","null","images/tutrocket2","","1","practice","null","1","","",""
"d3-animate-choice","86","305292","0.0-61.0-1.8","423","646","20","Female","true","true","true","false","""event"",""trial"",""time""
""blur"",""3"",""12765""
""focus"",""3"",""12963""
""fullscreenenter"",""5"",""20051""
","""event"",""trial"",""time""
""blur"",""3"",""12765""
","""event"",""trial"",""time""
""focus"",""3"",""12963""
","""event"",""trial"",""time""
""fullscreenenter"",""5"",""20051""
","
","520.4000000059605","","48","","","3000","1","","","images/tutyellowplanet.jpg","images/tutalien4","images/tutalien3","images/tutrocket2","images/tutalien4","images/t.png","2","practice","true","2","common","1","2022-02-04 06:38:28.000"
"two-step-fixation","87","306298","0.0-61.0-2.8","423","646","20","Female","true","true","true","false","""event"",""trial"",""time""
""blur"",""3"",""12765""
""focus"",""3"",""12963""
""fullscreenenter"",""5"",""20051""
","""event"",""trial"",""time""
""blur"",""3"",""12765""
","""event"",""trial"",""time""
""focus"",""3"",""12963""
","""event"",""trial"",""time""
""fullscreenenter"",""5"",""20051""
","
","","images/earth.jpg","","","","","","","","","","","","","","fixation","","","","","",""
"d3-animate-choice","88","308413","0.0-61.0-0.9","423","646","20","Female","true","true","true","false","""event"",""trial"",""time""
""blur"",""3"",""12765""
""focus"",""3"",""12963""
""fullscreenenter"",""5"",""20051""
","""event"",""trial"",""time""
""blur"",""3"",""12765""
","""event"",""trial"",""time""
""focus"",""3"",""12963""
","""event"",""trial"",""time""
""fullscreenenter"",""5"",""20051""
","
","104.39999999850988","","49","","","3000","1","1124","49","images/earth.jpg","images/tutrocket1","images/tutrocket2","null","images/tutrocket2","","1","practice","null","1","","",""
"d3-animate-choice","89","310901","0.0-61.0-1.9","423","646","20","Female","true","true","true","false","""event"",""trial"",""time""
""blur"",""3"",""12765""
""focus"",""3"",""12963""
""fullscreenenter"",""5"",""20051""
","""event"",""trial"",""time""
""blur"",""3"",""12765""
","""event"",""trial"",""time""
""focus"",""3"",""12963""
","""event"",""trial"",""time""
""fullscreenenter"",""5"",""20051""
","
","482.69999999552965","","49","","","3000","1","","","images/tutgreenplanet.jpg","images/tutalien2","images/tutalien1","images/tutrocket2","images/tutalien1","images/nothing.png","2","practice","false","1","rare","0","2022-02-04 06:38:33.609"
"two-step-fixation","90","311909","0.0-61.0-2.9","423","646","20","Female","true","true","true","false","""event"",""trial"",""time""
""blur"",""3"",""12765""
""focus"",""3"",""12963""
""fullscreenenter"",""5"",""20051""
","""event"",""trial"",""time""
""blur"",""3"",""12765""
","""event"",""trial"",""time""
""focus"",""3"",""12963""
","""event"",""trial"",""time""
""fullscreenenter"",""5"",""20051""
","
","","images/earth.jpg","","","","","","","","","","","","","","fixation","","","","","",""
"d3-animate-choice","91","314336","0.0-61.0-0.10","423","646","20","Female","true","true","true","false","""event"",""trial"",""time""
""blur"",""3"",""12765""
""focus"",""3"",""12963""
""fullscreenenter"",""5"",""20051""
","""event"",""trial"",""time""
""blur"",""3"",""12765""
","""event"",""trial"",""time""
""focus"",""3"",""12963""
","""event"",""trial"",""time""
""fullscreenenter"",""5"",""20051""
","
","421.1000000014901","","48","","","3000","1","","","images/earth.jpg","images/tutrocket1","images/tutrocket2","null","images/tutrocket1","","1","practice","null","2","","",""
"d3-animate-choice","92","316750","0.0-61.0-1.10","423","646","20","Female","true","true","true","false","""event"",""trial"",""time""
""blur"",""3"",""12765""
""focus"",""3"",""12963""
""fullscreenenter"",""5"",""20051""
","""event"",""trial"",""time""
""blur"",""3"",""12765""
","""event"",""trial"",""time""
""focus"",""3"",""12963""
","""event"",""trial"",""time""
""fullscreenenter"",""5"",""20051""
","
","409","","49","","","3000","1","","","images/tutyellowplanet.jpg","images/tutalien4","images/tutalien3","images/tutrocket1","images/tutalien3","images/nothing.png","2","practice","false","1","rare","0","2022-02-04 06:38:39.458"
"two-step-fixation","93","317757","0.0-61.0-2.10","423","646","20","Female","true","true","true","false","""event"",""trial"",""time""
""blur"",""3"",""12765""
""focus"",""3"",""12963""
""fullscreenenter"",""5"",""20051""
","""event"",""trial"",""time""
""blur"",""3"",""12765""
","""event"",""trial"",""time""
""focus"",""3"",""12963""
","""event"",""trial"",""time""
""fullscreenenter"",""5"",""20051""
","
","","images/earth.jpg","","","","","","","","","","","","","","fixation","","","","","",""
"d3-animate-choice","94","319802","0.0-61.0-0.11","423","646","20","Female","true","true","true","false","""event"",""trial"",""time""
""blur"",""3"",""12765""
""focus"",""3"",""12963""
""fullscreenenter"",""5"",""20051""
","""event"",""trial"",""time""
""blur"",""3"",""12765""
","""event"",""trial"",""time""
""focus"",""3"",""12963""
","""event"",""trial"",""time""
""fullscreenenter"",""5"",""20051""
","
","35.900000005960464","","49","","","3000","1","497.40000000596046","48","images/earth.jpg","images/tutrocket1","images/tutrocket2","null","images/tutrocket2","","1","practice","null","1","","",""
"d3-animate-choice","95","322263","0.0-61.0-1.11","423","646","20","Female","true","true","true","false","""event"",""trial"",""time""
""blur"",""3"",""12765""
""focus"",""3"",""12963""
""fullscreenenter"",""5"",""20051""
","""event"",""trial"",""time""
""blur"",""3"",""12765""
","""event"",""trial"",""time""
""focus"",""3"",""12963""
","""event"",""trial"",""time""
""fullscreenenter"",""5"",""20051""
","
","454.30000000447035","","49","","","3000","1","","","images/tutyellowplanet.jpg","images/tutalien4","images/tutalien3","images/tutrocket2","images/tutalien3","images/nothing.png","2","practice","true","1","common","0","2022-02-04 06:38:44.971"
"two-step-fixation","96","323268","0.0-61.0-2.11","423","646","20","Female","true","true","true","false","""event"",""trial"",""time""
""blur"",""3"",""12765""
""focus"",""3"",""12963""
""fullscreenenter"",""5"",""20051""
","""event"",""trial"",""time""
""blur"",""3"",""12765""
","""event"",""trial"",""time""
""focus"",""3"",""12963""
","""event"",""trial"",""time""
""fullscreenenter"",""5"",""20051""
","
","","images/earth.jpg","","","","","","","","","","","","","","fixation","","","","","",""
"d3-animate-choice","97","325554","0.0-61.0-0.12","423","646","20","Female","true","true","true","false","""event"",""trial"",""time""
""blur"",""3"",""12765""
""focus"",""3"",""12963""
""fullscreenenter"",""5"",""20051""
","""event"",""trial"",""time""
""blur"",""3"",""12765""
","""event"",""trial"",""time""
""focus"",""3"",""12963""
","""event"",""trial"",""time""
""fullscreenenter"",""5"",""20051""
","
","277.1000000014901","","48","","","3000","1","","","images/earth.jpg","images/tutrocket1","images/tutrocket2","null","images/tutrocket1","","1","practice","null","2","","",""
"d3-animate-choice","98","327989","0.0-61.0-1.12","423","646","20","Female","true","true","true","false","""event"",""trial"",""time""
""blur"",""3"",""12765""
""focus"",""3"",""12963""
""fullscreenenter"",""5"",""20051""
","""event"",""trial"",""time""
""blur"",""3"",""12765""
","""event"",""trial"",""time""
""focus"",""3"",""12963""
","""event"",""trial"",""time""
""fullscreenenter"",""5"",""20051""
","
","426.20000000298023","","49","","","3000","1","","","images/tutgreenplanet.jpg","images/tutalien2","images/tutalien1","images/tutrocket1","images/tutalien1","images/t.png","2","practice","true","1","common","1","2022-02-04 06:38:50.697"
"two-step-fixation","99","328997","0.0-61.0-2.12","423","646","20","Female","true","true","true","false","""event"",""trial"",""time""
""blur"",""3"",""12765""
""focus"",""3"",""12963""
""fullscreenenter"",""5"",""20051""
","""event"",""trial"",""time""
""blur"",""3"",""12765""
","""event"",""trial"",""time""
""focus"",""3"",""12963""
","""event"",""trial"",""time""
""fullscreenenter"",""5"",""20051""
","
","","images/earth.jpg","","","","","","","","","","","","","","fixation","","","","","",""
"d3-animate-choice","100","331589","0.0-61.0-0.13","423","646","20","Female","true","true","true","false","""event"",""trial"",""time""
""blur"",""3"",""12765""
""focus"",""3"",""12963""
""fullscreenenter"",""5"",""20051""
","""event"",""trial"",""time""
""blur"",""3"",""12765""
","""event"",""trial"",""time""
""focus"",""3"",""12963""
","""event"",""trial"",""time""
""fullscreenenter"",""5"",""20051""
","
","584.7999999970198","","49","","","3000","1","","","images/earth.jpg","images/tutrocket1","images/tutrocket2","null","images/tutrocket2","","1","practice","null","1","","",""
"d3-animate-choice","101","334176","0.0-61.0-1.13","423","646","20","Female","true","true","true","false","""event"",""trial"",""time""
""blur"",""3"",""12765""
""focus"",""3"",""12963""
""fullscreenenter"",""5"",""20051""
","""event"",""trial"",""time""
""blur"",""3"",""12765""
","""event"",""trial"",""time""
""focus"",""3"",""12963""
","""event"",""trial"",""time""
""fullscreenenter"",""5"",""20051""
","
","576.7999999970198","","48","","","3000","1","","","images/tutyellowplanet.jpg","images/tutalien4","images/tutalien3","images/tutrocket2","images/tutalien4","images/t.png","2","practice","true","2","common","1","2022-02-04 06:38:56.884"
"two-step-fixation","102","335183","0.0-61.0-2.13","423","646","20","Female","true","true","true","false","""event"",""trial"",""time""
""blur"",""3"",""12765""
""focus"",""3"",""12963""
""fullscreenenter"",""5"",""20051""
","""event"",""trial"",""time""
""blur"",""3"",""12765""
","""event"",""trial"",""time""
""focus"",""3"",""12963""
","""event"",""trial"",""time""
""fullscreenenter"",""5"",""20051""
","
","","images/earth.jpg","","","","","","","","","","","","","","fixation","","","","","",""
"d3-animate-choice","103","337530","0.0-61.0-0.14","423","646","20","Female","true","true","true","false","""event"",""trial"",""time""
""blur"",""3"",""12765""
""focus"",""3"",""12963""
""fullscreenenter"",""5"",""20051""
","""event"",""trial"",""time""
""blur"",""3"",""12765""
","""event"",""trial"",""time""
""focus"",""3"",""12963""
","""event"",""trial"",""time""
""fullscreenenter"",""5"",""20051""
","
","339.5","","49","","","3000","1","","","images/earth.jpg","images/tutrocket1","images/tutrocket2","null","images/tutrocket2","","1","practice","null","1","","",""
"d3-animate-choice","104","339946","0.0-61.0-1.14","423","646","20","Female","true","true","true","false","""event"",""trial"",""time""
""blur"",""3"",""12765""
""focus"",""3"",""12963""
""fullscreenenter"",""5"",""20051""
","""event"",""trial"",""time""
""blur"",""3"",""12765""
","""event"",""trial"",""time""
""focus"",""3"",""12963""
","""event"",""trial"",""time""
""fullscreenenter"",""5"",""20051""
","
","410.8999999985099","","48","","","3000","1","","","images/tutgreenplanet.jpg","images/tutalien2","images/tutalien1","images/tutrocket2","images/tutalien2","images/nothing.png","2","practice","false","2","rare","0","2022-02-04 06:39:02.654"
"two-step-fixation","105","340954","0.0-61.0-2.14","423","646","20","Female","true","true","true","false","""event"",""trial"",""time""
""blur"",""3"",""12765""
""focus"",""3"",""12963""
""fullscreenenter"",""5"",""20051""
","""event"",""trial"",""time""
""blur"",""3"",""12765""
","""event"",""trial"",""time""
""focus"",""3"",""12963""
","""event"",""trial"",""time""
""fullscreenenter"",""5"",""20051""
","
","","images/earth.jpg","","","","","","","","","","","","","","fixation","","","","","",""
"d3-animate-choice","106","343846","0.0-61.0-0.15","423","646","20","Female","true","true","true","false","""event"",""trial"",""time""
""blur"",""3"",""12765""
""focus"",""3"",""12963""
""fullscreenenter"",""5"",""20051""
","""event"",""trial"",""time""
""blur"",""3"",""12765""
","""event"",""trial"",""time""
""focus"",""3"",""12963""
","""event"",""trial"",""time""
""fullscreenenter"",""5"",""20051""
","
","885.6000000014901","","48","","","3000","1","","","images/earth.jpg","images/tutrocket1","images/tutrocket2","null","images/tutrocket1","","1","practice","null","2","","",""
"d3-animate-choice","107","346097","0.0-61.0-1.15","423","646","20","Female","true","true","true","false","""event"",""trial"",""time""
""blur"",""3"",""12765""
""focus"",""3"",""12963""
""fullscreenenter"",""5"",""20051""
","""event"",""trial"",""time""
""blur"",""3"",""12765""
","""event"",""trial"",""time""
""focus"",""3"",""12963""
","""event"",""trial"",""time""
""fullscreenenter"",""5"",""20051""
","
","243.10000000149012","","49","","","3000","1","1961.7999999970198","49","images/tutyellowplanet.jpg","images/tutalien4","images/tutalien3","images/tutrocket1","images/tutalien3","images/t.png","2","practice","false","1","rare","1","2022-02-04 06:39:08.805"
"two-step-fixation","108","347101","0.0-61.0-2.15","423","646","20","Female","true","true","true","false","""event"",""trial"",""time""
""blur"",""3"",""12765""
""focus"",""3"",""12963""
""fullscreenenter"",""5"",""20051""
","""event"",""trial"",""time""
""blur"",""3"",""12765""
","""event"",""trial"",""time""
""focus"",""3"",""12963""
","""event"",""trial"",""time""
""fullscreenenter"",""5"",""20051""
","
","","images/earth.jpg","","","","","","","","","","","","","","fixation","","","","","",""
"d3-animate-choice","109","349482","0.0-61.0-0.16","423","646","20","Female","true","true","true","false","""event"",""trial"",""time""
""blur"",""3"",""12765""
""focus"",""3"",""12963""
""fullscreenenter"",""5"",""20051""
","""event"",""trial"",""time""
""blur"",""3"",""12765""
","""event"",""trial"",""time""
""focus"",""3"",""12963""
","""event"",""trial"",""time""
""fullscreenenter"",""5"",""20051""
","
","373.80000000447035","","49","","","3000","1","2166","48","images/earth.jpg","images/tutrocket1","images/tutrocket2","null","images/tutrocket2","","1","practice","null","1","","",""
"d3-animate-choice","110","351653","0.0-61.0-1.16","423","646","20","Female","true","true","true","false","""event"",""trial"",""time""
""blur"",""3"",""12765""
""focus"",""3"",""12963""
""fullscreenenter"",""5"",""20051""
","""event"",""trial"",""time""
""blur"",""3"",""12765""
","""event"",""trial"",""time""
""focus"",""3"",""12963""
","""event"",""trial"",""time""
""fullscreenenter"",""5"",""20051""
","
","165.70000000298023","","48","","","3000","1","2085.3000000044703","49","images/tutyellowplanet.jpg","images/tutalien4","images/tutalien3","images/tutrocket2","images/tutalien4","images/nothing.png","2","practice","true","2","common","0","2022-02-04 06:39:14.361"
"two-step-fixation","111","352658","0.0-61.0-2.16","423","646","20","Female","true","true","true","false","""event"",""trial"",""time""
""blur"",""3"",""12765""
""focus"",""3"",""12963""
""fullscreenenter"",""5"",""20051""
","""event"",""trial"",""time""
""blur"",""3"",""12765""
","""event"",""trial"",""time""
""focus"",""3"",""12963""
","""event"",""trial"",""time""
""fullscreenenter"",""5"",""20051""
","
","","images/earth.jpg","","","","","","","","","","","","","","fixation","","","","","",""
"d3-animate-choice","112","355303","0.0-61.0-0.17","423","646","20","Female","true","true","true","false","""event"",""trial"",""time""
""blur"",""3"",""12765""
""focus"",""3"",""12963""
""fullscreenenter"",""5"",""20051""
","""event"",""trial"",""time""
""blur"",""3"",""12765""
","""event"",""trial"",""time""
""focus"",""3"",""12963""
","""event"",""trial"",""time""
""fullscreenenter"",""5"",""20051""
","
","639.1000000014901","","49","","","3000","1","","","images/earth.jpg","images/tutrocket1","images/tutrocket2","null","images/tutrocket2","","1","practice","null","1","","",""
"d3-animate-choice","113","357664","0.0-61.0-1.17","423","646","20","Female","true","true","true","false","""event"",""trial"",""time""
""blur"",""3"",""12765""
""focus"",""3"",""12963""
""fullscreenenter"",""5"",""20051""
","""event"",""trial"",""time""
""blur"",""3"",""12765""
","""event"",""trial"",""time""
""focus"",""3"",""12963""
","""event"",""trial"",""time""
""fullscreenenter"",""5"",""20051""
","
","355.80000000447035","","48","","","3000","1","824.5,1545","48,48","images/tutgreenplanet.jpg","images/tutalien2","images/tutalien1","images/tutrocket2","images/tutalien2","images/nothing.png","2","practice","false","2","rare","0","2022-02-04 06:39:20.372"
"two-step-fixation","114","358670","0.0-61.0-2.17","423","646","20","Female","true","true","true","false","""event"",""trial"",""time""
""blur"",""3"",""12765""
""focus"",""3"",""12963""
""fullscreenenter"",""5"",""20051""
","""event"",""trial"",""time""
""blur"",""3"",""12765""
","""event"",""trial"",""time""
""focus"",""3"",""12963""
","""event"",""trial"",""time""
""fullscreenenter"",""5"",""20051""
","
","","images/earth.jpg","","","","","","","","","","","","","","fixation","","","","","",""
"d3-animate-choice","115","361297","0.0-61.0-0.18","423","646","20","Female","true","true","true","false","""event"",""trial"",""time""
""blur"",""3"",""12765""
""focus"",""3"",""12963""
""fullscreenenter"",""5"",""20051""
","""event"",""trial"",""time""
""blur"",""3"",""12765""
","""event"",""trial"",""time""
""focus"",""3"",""12963""
","""event"",""trial"",""time""
""fullscreenenter"",""5"",""20051""
","
","620.3999999985099","","49","","","3000","1","1093.6000000014901","49","images/earth.jpg","images/tutrocket1","images/tutrocket2","null","images/tutrocket2","","1","practice","null","1","","",""
"d3-animate-choice","116","363745","0.0-61.0-1.18","423","646","20","Female","true","true","true","false","""event"",""trial"",""time""
""blur"",""3"",""12765""
""focus"",""3"",""12963""
""fullscreenenter"",""5"",""20051""
","""event"",""trial"",""time""
""blur"",""3"",""12765""
","""event"",""trial"",""time""
""focus"",""3"",""12963""
","""event"",""trial"",""time""
""fullscreenenter"",""5"",""20051""
","
","441.1000000014901","","48","","","3000","1","2039.7999999970198","48","images/tutyellowplanet.jpg","images/tutalien4","images/tutalien3","images/tutrocket2","images/tutalien4","images/t.png","2","practice","true","2","common","1","2022-02-04 06:39:26.453"
"two-step-fixation","117","364751","0.0-61.0-2.18","423","646","20","Female","true","true","true","false","""event"",""trial"",""time""
""blur"",""3"",""12765""
""focus"",""3"",""12963""
""fullscreenenter"",""5"",""20051""
","""event"",""trial"",""time""
""blur"",""3"",""12765""
","""event"",""trial"",""time""
""focus"",""3"",""12963""
","""event"",""trial"",""time""
""fullscreenenter"",""5"",""20051""
","
","","images/earth.jpg","","","","","","","","","","","","","","fixation","","","","","",""
"d3-animate-choice","118","366996","0.0-61.0-0.19","423","646","20","Female","true","true","true","false","""event"",""trial"",""time""
""blur"",""3"",""12765""
""focus"",""3"",""12963""
""fullscreenenter"",""5"",""20051""
","""event"",""trial"",""time""
""blur"",""3"",""12765""
","""event"",""trial"",""time""
""focus"",""3"",""12963""
","""event"",""trial"",""time""
""fullscreenenter"",""5"",""20051""
","
","238.29999999701977","","49","","","3000","1","1391","48","images/earth.jpg","images/tutrocket1","images/tutrocket2","null","images/tutrocket2","","1","practice","null","1","","",""
"d3-animate-choice","119","370153","0.0-61.0-1.19","423","646","20","Female","true","true","true","false","""event"",""trial"",""time""
""blur"",""3"",""12765""
""focus"",""3"",""12963""
""fullscreenenter"",""5"",""20051""
","""event"",""trial"",""time""
""blur"",""3"",""12765""
","""event"",""trial"",""time""
""focus"",""3"",""12963""
","""event"",""trial"",""time""
""fullscreenenter"",""5"",""20051""
","
","1149.8999999985099","","48","","","3000","1","1935.8999999985099","48","images/tutyellowplanet.jpg","images/tutalien4","images/tutalien3","images/tutrocket2","images/tutalien4","images/nothing.png","2","practice","true","2","common","0","2022-02-04 06:39:32.861"
"two-step-fixation","120","371164","0.0-61.0-2.19","423","646","20","Female","true","true","true","false","""event"",""trial"",""time""
""blur"",""3"",""12765""
""focus"",""3"",""12963""
""fullscreenenter"",""5"",""20051""
","""event"",""trial"",""time""
""blur"",""3"",""12765""
","""event"",""trial"",""time""
""focus"",""3"",""12963""
","""event"",""trial"",""time""
""fullscreenenter"",""5"",""20051""
","
","","images/earth.jpg","","","","","","","","","","","","","","fixation","","","","","",""
"d3-instructions","121","374957","0.0-62.0","423","646","20","Female","true","true","true","false","""event"",""trial"",""time""
""blur"",""3"",""12765""
""focus"",""3"",""12963""
""fullscreenenter"",""5"",""20051""
","""event"",""trial"",""time""
""blur"",""3"",""12765""
","""event"",""trial"",""time""
""focus"",""3"",""12963""
","""event"",""trial"",""time""
""fullscreenenter"",""5"",""20051""
","
","","","","","","","","","","","","","","","","","","","","","",""
"audio-keyboard-response","122","377571","0.0-63.0","423","646","20","Female","true","true","true","false","""event"",""trial"",""time""
""blur"",""3"",""12765""
""focus"",""3"",""12963""
""fullscreenenter"",""5"",""20051""
","""event"",""trial"",""time""
""blur"",""3"",""12765""
","""event"",""trial"",""time""
""focus"",""3"",""12963""
","""event"",""trial"",""time""
""fullscreenenter"",""5"",""20051""
","
","2613","audio/instructions/treasure_feedback.wav","32","","","","","","","","","","","","","","","","","","",""
"d3-instructions","123","385702","0.0-64.0","423","646","20","Female","true","true","true","false","""event"",""trial"",""time""
""blur"",""3"",""12765""
""focus"",""3"",""12963""
""fullscreenenter"",""5"",""20051""
","""event"",""trial"",""time""
""blur"",""3"",""12765""
","""event"",""trial"",""time""
""focus"",""3"",""12963""
","""event"",""trial"",""time""
""fullscreenenter"",""5"",""20051""
","
","","","","","","","","","","","","","","","","","","","","","",""
"d3-instructions","124","392845","0.0-65.0","423","646","20","Female","true","true","true","false","""event"",""trial"",""time""
""blur"",""3"",""12765""
""focus"",""3"",""12963""
""fullscreenenter"",""5"",""20051""
","""event"",""trial"",""time""
""blur"",""3"",""12765""
","""event"",""trial"",""time""
""focus"",""3"",""12963""
","""event"",""trial"",""time""
""fullscreenenter"",""5"",""20051""
","
","","","","","","","","","","","","","","","","","","","","","",""
"d3-instructions","125","403179","0.0-66.0","423","646","20","Female","true","true","true","false","""event"",""trial"",""time""
""blur"",""3"",""12765""
""focus"",""3"",""12963""
""fullscreenenter"",""5"",""20051""
","""event"",""trial"",""time""
""blur"",""3"",""12765""
","""event"",""trial"",""time""
""focus"",""3"",""12963""
","""event"",""trial"",""time""
""fullscreenenter"",""5"",""20051""
","
","","","","","","","","","","","","","","","","","","","","","",""
"d3-instructions","126","408022","0.0-67.0","423","646","20","Female","true","true","true","false","""event"",""trial"",""time""
""blur"",""3"",""12765""
""focus"",""3"",""12963""
""fullscreenenter"",""5"",""20051""
","""event"",""trial"",""time""
""blur"",""3"",""12765""
","""event"",""trial"",""time""
""focus"",""3"",""12963""
","""event"",""trial"",""time""
""fullscreenenter"",""5"",""20051""
","
","","","","","","","","","","","","","","","","","","","","","",""
"d3-instructions","127","410947","0.0-68.0","423","646","20","Female","true","true","true","false","""event"",""trial"",""time""
""blur"",""3"",""12765""
""focus"",""3"",""12963""
""fullscreenenter"",""5"",""20051""
","""event"",""trial"",""time""
""blur"",""3"",""12765""
","""event"",""trial"",""time""
""focus"",""3"",""12963""
","""event"",""trial"",""time""
""fullscreenenter"",""5"",""20051""
","
","","","","","","","","","","","","","","","","","","","","","",""
"instructions-quiz","128","416542","0.0-69.0","423","646","20","Female","true","true","true","false","""event"",""trial"",""time""
""blur"",""3"",""12765""
""focus"",""3"",""12963""
""fullscreenenter"",""5"",""20051""
","""event"",""trial"",""time""
""blur"",""3"",""12765""
","""event"",""trial"",""time""
""focus"",""3"",""12963""
","""event"",""trial"",""time""
""fullscreenenter"",""5"",""20051""
","
","5591.30000000447","audio/quiz/Q1_Prompt.wav","","1","","","","","","","","","","","","","","","","","",""
"audio-keyboard-response","129","420355","0.0-70.0","423","646","20","Female","true","true","true","false","""event"",""trial"",""time""
""blur"",""3"",""12765""
""focus"",""3"",""12963""
""fullscreenenter"",""5"",""20051""
","""event"",""trial"",""time""
""blur"",""3"",""12765""
","""event"",""trial"",""time""
""focus"",""3"",""12963""
","""event"",""trial"",""time""
""fullscreenenter"",""5"",""20051""
","
","3712","audio/quiz/Q1_Correct.wav","32","","","","","","","","","","","","","","","","","","",""
"instructions-quiz","130","425527","0.0-71.0","423","646","20","Female","true","true","true","false","""event"",""trial"",""time""
""blur"",""3"",""12765""
""focus"",""3"",""12963""
""fullscreenenter"",""5"",""20051""
","""event"",""trial"",""time""
""blur"",""3"",""12765""
","""event"",""trial"",""time""
""focus"",""3"",""12963""
","""event"",""trial"",""time""
""fullscreenenter"",""5"",""20051""
","
","5170.20000000298","audio/quiz/Q2_Prompt.wav","","1","","","","","","","","","","","","","","","","","",""
"audio-keyboard-response","131","428047","0.0-72.0","423","646","20","Female","true","true","true","false","""event"",""trial"",""time""
""blur"",""3"",""12765""
""focus"",""3"",""12963""
""fullscreenenter"",""5"",""20051""
","""event"",""trial"",""time""
""blur"",""3"",""12765""
","""event"",""trial"",""time""
""focus"",""3"",""12963""
","""event"",""trial"",""time""
""fullscreenenter"",""5"",""20051""
","
","2517","audio/quiz/Q2_Incorrect.wav","32","","","","","","","","","","","","","","","","","","",""
"instructions-quiz","132","431388","0.0-73.0","423","646","20","Female","true","true","true","false","""event"",""trial"",""time""
""blur"",""3"",""12765""
""focus"",""3"",""12963""
""fullscreenenter"",""5"",""20051""
","""event"",""trial"",""time""
""blur"",""3"",""12765""
","""event"",""trial"",""time""
""focus"",""3"",""12963""
","""event"",""trial"",""time""
""fullscreenenter"",""5"",""20051""
","
","3338.7999999970198","audio/quiz/Q3_Prompt.wav","","0","","","","","","","","","","","","","","","","","",""
"audio-keyboard-response","133","432500","0.0-74.0","423","646","20","Female","true","true","true","false","""event"",""trial"",""time""
""blur"",""3"",""12765""
""focus"",""3"",""12963""
""fullscreenenter"",""5"",""20051""
","""event"",""trial"",""time""
""blur"",""3"",""12765""
","""event"",""trial"",""time""
""focus"",""3"",""12963""
","""event"",""trial"",""time""
""fullscreenenter"",""5"",""20051""
","
","1109","audio/quiz/Q3_Incorrect.wav","32","","","","","","","","","","","","","","","","","","",""
"d3-instructions","134","437499","0.0-75.0","423","646","20","Female","true","true","true","false","""event"",""trial"",""time""
""blur"",""3"",""12765""
""focus"",""3"",""12963""
""fullscreenenter"",""5"",""20051""
","""event"",""trial"",""time""
""blur"",""3"",""12765""
","""event"",""trial"",""time""
""focus"",""3"",""12963""
","""event"",""trial"",""time""
""fullscreenenter"",""5"",""20051""
","
","","","","","","","","","","","","","","","","","","","","","",""
"d3-animate-choice","135","440440","0.0-76.0-0.0","423","646","20","Female","true","true","true","false","""event"",""trial"",""time""
""blur"",""3"",""12765""
""focus"",""3"",""12963""
""fullscreenenter"",""5"",""20051""
","""event"",""trial"",""time""
""blur"",""3"",""12765""
","""event"",""trial"",""time""
""focus"",""3"",""12963""
","""event"",""trial"",""time""
""fullscreenenter"",""5"",""20051""
","
","935.3000000044703","","48","","","3000","1","","","images/earth.jpg","images/rocket2","images/rocket1","null","images/rocket2","","1","real","null","2","","",""
"d3-animate-choice","136","443042","0.0-76.0-1.0","423","646","20","Female","true","true","true","false","""event"",""trial"",""time""
""blur"",""3"",""12765""
""focus"",""3"",""12963""
""fullscreenenter"",""5"",""20051""
","""event"",""trial"",""time""
""blur"",""3"",""12765""
","""event"",""trial"",""time""
""focus"",""3"",""12963""
","""event"",""trial"",""time""
""fullscreenenter"",""5"",""20051""
","
","594.7999999970198","","49","","","3000","1","","","images/purpleplanet.jpg","images/alien4","images/alien3","images/rocket2","images/alien3","images/nothing.png","2","real","true","1","common","0","2022-02-04 06:40:45.750"
"two-step-fixation","137","444050","0.0-76.0-2.0","423","646","20","Female","true","true","true","false","""event"",""trial"",""time""
""blur"",""3"",""12765""
""focus"",""3"",""12963""
""fullscreenenter"",""5"",""20051""
","""event"",""trial"",""time""
""blur"",""3"",""12765""
","""event"",""trial"",""time""
""focus"",""3"",""12963""
","""event"",""trial"",""time""
""fullscreenenter"",""5"",""20051""
","
","","images/earth.jpg","","","","","","","","","","","","","","fixation","","","","","",""
"d3-animate-choice","138","446405","0.0-76.0-0.1","423","646","20","Female","true","true","true","false","""event"",""trial"",""time""
""blur"",""3"",""12765""
""focus"",""3"",""12963""
""fullscreenenter"",""5"",""20051""
","""event"",""trial"",""time""
""blur"",""3"",""12765""
","""event"",""trial"",""time""
""focus"",""3"",""12963""
","""event"",""trial"",""time""
""fullscreenenter"",""5"",""20051""
","
","347.19999999552965","","49","","","3000","1","","","images/earth.jpg","images/rocket2","images/rocket1","null","images/rocket1","","1","real","null","1","","",""
"d3-animate-choice","139","449017","0.0-76.0-1.1","423","646","20","Female","true","true","true","false","""event"",""trial"",""time""
""blur"",""3"",""12765""
""focus"",""3"",""12963""
""fullscreenenter"",""5"",""20051""
","""event"",""trial"",""time""
""blur"",""3"",""12765""
","""event"",""trial"",""time""
""focus"",""3"",""12963""
","""event"",""trial"",""time""
""fullscreenenter"",""5"",""20051""
","
","607.2000000029802","","48","","","3000","1","","","images/redplanet1.jpg","images/alien2","images/alien1","images/rocket1","images/alien2","images/t.png","2","real","true","2","common","1","2022-02-04 06:40:51.725"
"two-step-fixation","140","450023","0.0-76.0-2.1","423","646","20","Female","true","true","true","false","""event"",""trial"",""time""
""blur"",""3"",""12765""
""focus"",""3"",""12963""
""fullscreenenter"",""5"",""20051""
","""event"",""trial"",""time""
""blur"",""3"",""12765""
","""event"",""trial"",""time""
""focus"",""3"",""12963""
","""event"",""trial"",""time""
""fullscreenenter"",""5"",""20051""
","
","","images/earth.jpg","","","","","","","","","","","","","","fixation","","","","","",""
"d3-animate-choice","141","452554","0.0-76.0-0.2","423","646","20","Female","true","true","true","false","""event"",""trial"",""time""
""blur"",""3"",""12765""
""focus"",""3"",""12963""
""fullscreenenter"",""5"",""20051""
","""event"",""trial"",""time""
""blur"",""3"",""12765""
","""event"",""trial"",""time""
""focus"",""3"",""12963""
","""event"",""trial"",""time""
""fullscreenenter"",""5"",""20051""
","
","522.2999999970198","","49","","","3000","1","","","images/earth.jpg","images/rocket2","images/rocket1","null","images/rocket1","","1","real","null","1","","",""
"d3-animate-choice","142","455072","0.0-76.0-1.2","423","646","20","Female","true","true","true","false","""event"",""trial"",""time""
""blur"",""3"",""12765""
""focus"",""3"",""12963""
""fullscreenenter"",""5"",""20051""
","""event"",""trial"",""time""
""blur"",""3"",""12765""
","""event"",""trial"",""time""
""focus"",""3"",""12963""
","""event"",""trial"",""time""
""fullscreenenter"",""5"",""20051""
","
","509.8999999985099","","49","","","3000","1","","","images/redplanet1.jpg","images/alien2","images/alien1","images/rocket1","images/alien1","images/nothing.png","2","real","true","1","common","0","2022-02-04 06:40:57.780"
"two-step-fixation","143","456079","0.0-76.0-2.2","423","646","20","Female","true","true","true","false","""event"",""trial"",""time""
""blur"",""3"",""12765""
""focus"",""3"",""12963""
""fullscreenenter"",""5"",""20051""
","""event"",""trial"",""time""
""blur"",""3"",""12765""
","""event"",""trial"",""time""
""focus"",""3"",""12963""
","""event"",""trial"",""time""
""fullscreenenter"",""5"",""20051""
","
","","images/earth.jpg","","","","","","","","","","","","","","fixation","","","","","",""
"d3-animate-choice","144","458501","0.0-76.0-0.3","423","646","20","Female","true","true","true","false","""event"",""trial"",""time""
""blur"",""3"",""12765""
""focus"",""3"",""12963""
""fullscreenenter"",""5"",""20051""
","""event"",""trial"",""time""
""blur"",""3"",""12765""
","""event"",""trial"",""time""
""focus"",""3"",""12963""
","""event"",""trial"",""time""
""fullscreenenter"",""5"",""20051""
","
","416.20000000298023","","48","","","3000","1","","","images/earth.jpg","images/rocket2","images/rocket1","null","images/rocket2","","1","real","null","2","","",""
"d3-animate-choice","145","461033","0.0-76.0-1.3","423","646","20","Female","true","true","true","false","""event"",""trial"",""time""
""blur"",""3"",""12765""
""focus"",""3"",""12963""
""fullscreenenter"",""5"",""20051""
","""event"",""trial"",""time""
""blur"",""3"",""12765""
","""event"",""trial"",""time""
""focus"",""3"",""12963""
","""event"",""trial"",""time""
""fullscreenenter"",""5"",""20051""
","
","524.6999999955297","","49","","","3000","1","","","images/purpleplanet.jpg","images/alien4","images/alien3","images/rocket2","images/alien3","images/t.png","2","real","true","1","common","1","2022-02-04 06:41:03.741"
"two-step-fixation","146","462039","0.0-76.0-2.3","423","646","20","Female","true","true","true","false","""event"",""trial"",""time""
""blur"",""3"",""12765""
""focus"",""3"",""12963""
""fullscreenenter"",""5"",""20051""
","""event"",""trial"",""time""
""blur"",""3"",""12765""
","""event"",""trial"",""time""
""focus"",""3"",""12963""
","""event"",""trial"",""time""
""fullscreenenter"",""5"",""20051""
","
","","images/earth.jpg","","","","","","","","","","","","","","fixation","","","","","",""
"d3-animate-choice","147","464505","0.0-76.0-0.4","423","646","20","Female","true","true","true","false","""event"",""trial"",""time""
""blur"",""3"",""12765""
""focus"",""3"",""12963""
""fullscreenenter"",""5"",""20051""
","""event"",""trial"",""time""
""blur"",""3"",""12765""
","""event"",""trial"",""time""
""focus"",""3"",""12963""
","""event"",""trial"",""time""
""fullscreenenter"",""5"",""20051""
","
","460.8999999985099","","49","","","3000","1","","","images/earth.jpg","images/rocket2","images/rocket1","null","images/rocket1","","1","real","null","1","","",""
"d3-animate-choice","148","467011","0.0-76.0-1.4","423","646","20","Female","true","true","true","false","""event"",""trial"",""time""
""blur"",""3"",""12765""
""focus"",""3"",""12963""
""fullscreenenter"",""5"",""20051""
","""event"",""trial"",""time""
""blur"",""3"",""12765""
","""event"",""trial"",""time""
""focus"",""3"",""12963""
","""event"",""trial"",""time""
""fullscreenenter"",""5"",""20051""
","
","500.20000000298023","","48","","","3000","1","","","images/purpleplanet.jpg","images/alien4","images/alien3","images/rocket1","images/alien4","images/t.png","2","real","false","2","rare","1","2022-02-04 06:41:09.719"
"two-step-fixation","149","468016","0.0-76.0-2.4","423","646","20","Female","true","true","true","false","""event"",""trial"",""time""
""blur"",""3"",""12765""
""focus"",""3"",""12963""
""fullscreenenter"",""5"",""20051""
","""event"",""trial"",""time""
""blur"",""3"",""12765""
","""event"",""trial"",""time""
""focus"",""3"",""12963""
","""event"",""trial"",""time""
""fullscreenenter"",""5"",""20051""
","
","","images/earth.jpg","","","","","","","","","","","","","","fixation","","","","","",""
"d3-animate-choice","150","470347","0.0-76.0-0.5","423","646","20","Female","true","true","true","false","""event"",""trial"",""time""
""blur"",""3"",""12765""
""focus"",""3"",""12963""
""fullscreenenter"",""5"",""20051""
","""event"",""trial"",""time""
""blur"",""3"",""12765""
","""event"",""trial"",""time""
""focus"",""3"",""12963""
","""event"",""trial"",""time""
""fullscreenenter"",""5"",""20051""
","
","324.6000000014901","","49","","","3000","1","","","images/earth.jpg","images/rocket2","images/rocket1","null","images/rocket1","","1","real","null","1","","",""
"d3-animate-choice","151","472802","0.0-76.0-1.5","423","646","20","Female","true","true","true","false","""event"",""trial"",""time""
""blur"",""3"",""12765""
""focus"",""3"",""12963""
""fullscreenenter"",""5"",""20051""
","""event"",""trial"",""time""
""blur"",""3"",""12765""
","""event"",""trial"",""time""
""focus"",""3"",""12963""
","""event"",""trial"",""time""
""fullscreenenter"",""5"",""20051""
","
","450.19999999552965","","48","","","3000","1","","","images/redplanet1.jpg","images/alien2","images/alien1","images/rocket1","images/alien2","images/t.png","2","real","true","2","common","1","2022-02-04 06:41:15.510"
"two-step-fixation","152","473807","0.0-76.0-2.5","423","646","20","Female","true","true","true","false","""event"",""trial"",""time""
""blur"",""3"",""12765""
""focus"",""3"",""12963""
""fullscreenenter"",""5"",""20051""
","""event"",""trial"",""time""
""blur"",""3"",""12765""
","""event"",""trial"",""time""
""focus"",""3"",""12963""
","""event"",""trial"",""time""
""fullscreenenter"",""5"",""20051""
","
","","images/earth.jpg","","","","","","","","","","","","","","fixation","","","","","",""
"d3-animate-choice","153","476251","0.0-76.0-0.6","423","646","20","Female","true","true","true","false","""event"",""trial"",""time""
""blur"",""3"",""12765""
""focus"",""3"",""12963""
""fullscreenenter"",""5"",""20051""
","""event"",""trial"",""time""
""blur"",""3"",""12765""
","""event"",""trial"",""time""
""focus"",""3"",""12963""
","""event"",""trial"",""time""
""fullscreenenter"",""5"",""20051""
","
","434.5","","49","","","3000","1","","","images/earth.jpg","images/rocket2","images/rocket1","null","images/rocket1","","1","real","null","1","","",""
"d3-animate-choice","154","478646","0.0-76.0-1.6","423","646","20","Female","true","true","true","false","""event"",""trial"",""time""
""blur"",""3"",""12765""
""focus"",""3"",""12963""
""fullscreenenter"",""5"",""20051""
","""event"",""trial"",""time""
""blur"",""3"",""12765""
","""event"",""trial"",""time""
""focus"",""3"",""12963""
","""event"",""trial"",""time""
""fullscreenenter"",""5"",""20051""
","
","387.29999999701977","","48","","","3000","1","","","images/redplanet1.jpg","images/alien2","images/alien1","images/rocket1","images/alien2","images/t.png","2","real","true","2","common","1","2022-02-04 06:41:21.354"
"two-step-fixation","155","479651","0.0-76.0-2.6","423","646","20","Female","true","true","true","false","""event"",""trial"",""time""
""blur"",""3"",""12765""
""focus"",""3"",""12963""
""fullscreenenter"",""5"",""20051""
","""event"",""trial"",""time""
""blur"",""3"",""12765""
","""event"",""trial"",""time""
""focus"",""3"",""12963""
","""event"",""trial"",""time""
""fullscreenenter"",""5"",""20051""
","
","","images/earth.jpg","","","","","","","","","","","","","","fixation","","","","","",""
"d3-animate-choice","156","482090","0.0-76.0-0.7","423","646","20","Female","true","true","true","false","""event"",""trial"",""time""
""blur"",""3"",""12765""
""focus"",""3"",""12963""
""fullscreenenter"",""5"",""20051""
","""event"",""trial"",""time""
""blur"",""3"",""12765""
","""event"",""trial"",""time""
""focus"",""3"",""12963""
","""event"",""trial"",""time""
""fullscreenenter"",""5"",""20051""
","
","432.8999999985099","","49","","","3000","1","","","images/earth.jpg","images/rocket2","images/rocket1","null","images/rocket1","","1","real","null","1","","",""
"d3-animate-choice","157","484592","0.0-76.0-1.7","423","646","20","Female","true","true","true","false","""event"",""trial"",""time""
""blur"",""3"",""12765""
""focus"",""3"",""12963""
""fullscreenenter"",""5"",""20051""
","""event"",""trial"",""time""
""blur"",""3"",""12765""
","""event"",""trial"",""time""
""focus"",""3"",""12963""
","""event"",""trial"",""time""
""fullscreenenter"",""5"",""20051""
","
","496.40000000596046","","48","","","3000","1","","","images/redplanet1.jpg","images/alien2","images/alien1","images/rocket1","images/alien2","images/nothing.png","2","real","true","2","common","0","2022-02-04 06:41:27.300"
"two-step-fixation","158","485598","0.0-76.0-2.7","423","646","20","Female","true","true","true","false","""event"",""trial"",""time""
""blur"",""3"",""12765""
""focus"",""3"",""12963""
""fullscreenenter"",""5"",""20051""
","""event"",""trial"",""time""
""blur"",""3"",""12765""
","""event"",""trial"",""time""
""focus"",""3"",""12963""
","""event"",""trial"",""time""
""fullscreenenter"",""5"",""20051""
","
","","images/earth.jpg","","","","","","","","","","","","","","fixation","","","","","",""
"d3-animate-choice","159","487931","0.0-76.0-0.8","423","646","20","Female","true","true","true","false","""event"",""trial"",""time""
""blur"",""3"",""12765""
""focus"",""3"",""12963""
""fullscreenenter"",""5"",""20051""
","""event"",""trial"",""time""
""blur"",""3"",""12765""
","""event"",""trial"",""time""
""focus"",""3"",""12963""
","""event"",""trial"",""time""
""fullscreenenter"",""5"",""20051""
","
","323.40000000596046","","48","","","3000","1","","","images/earth.jpg","images/rocket2","images/rocket1","null","images/rocket2","","1","real","null","2","","",""
"d3-animate-choice","160","490336","0.0-76.0-1.8","423","646","20","Female","true","true","true","false","""event"",""trial"",""time""
""blur"",""3"",""12765""
""focus"",""3"",""12963""
""fullscreenenter"",""5"",""20051""
","""event"",""trial"",""time""
""blur"",""3"",""12765""
","""event"",""trial"",""time""
""focus"",""3"",""12963""
","""event"",""trial"",""time""
""fullscreenenter"",""5"",""20051""
","
","398.20000000298023","","49","","","3000","1","","","images/purpleplanet.jpg","images/alien4","images/alien3","images/rocket2","images/alien3","images/t.png","2","real","true","1","common","1","2022-02-04 06:41:33.044"
"two-step-fixation","161","491344","0.0-76.0-2.8","423","646","20","Female","true","true","true","false","""event"",""trial"",""time""
""blur"",""3"",""12765""
""focus"",""3"",""12963""
""fullscreenenter"",""5"",""20051""
","""event"",""trial"",""time""
""blur"",""3"",""12765""
","""event"",""trial"",""time""
""focus"",""3"",""12963""
","""event"",""trial"",""time""
""fullscreenenter"",""5"",""20051""
","
","","images/earth.jpg","","","","","","","","","","","","","","fixation","","","","","",""
"d3-animate-choice","162","493690","0.0-76.0-0.9","423","646","20","Female","true","true","true","false","""event"",""trial"",""time""
""blur"",""3"",""12765""
""focus"",""3"",""12963""
""fullscreenenter"",""5"",""20051""
","""event"",""trial"",""time""
""blur"",""3"",""12765""
","""event"",""trial"",""time""
""focus"",""3"",""12963""
","""event"",""trial"",""time""
""fullscreenenter"",""5"",""20051""
","
","339.30000000447035","","48","","","3000","1","","","images/earth.jpg","images/rocket2","images/rocket1","null","images/rocket2","","1","real","null","2","","",""
"d3-animate-choice","163","496192","0.0-76.0-1.9","423","646","20","Female","true","true","true","false","""event"",""trial"",""time""
""blur"",""3"",""12765""
""focus"",""3"",""12963""
""fullscreenenter"",""5"",""20051""
","""event"",""trial"",""time""
""blur"",""3"",""12765""
","""event"",""trial"",""time""
""focus"",""3"",""12963""
","""event"",""trial"",""time""
""fullscreenenter"",""5"",""20051""
","
","496.30000000447035","","49","","","3000","1","","","images/redplanet1.jpg","images/alien2","images/alien1","images/rocket2","images/alien1","images/t.png","2","real","false","1","rare","1","2022-02-04 06:41:38.900"
"two-step-fixation","164","497202","0.0-76.0-2.9","423","646","20","Female","true","true","true","false","""event"",""trial"",""time""
""blur"",""3"",""12765""
""focus"",""3"",""12963""
""fullscreenenter"",""5"",""20051""
","""event"",""trial"",""time""
""blur"",""3"",""12765""
","""event"",""trial"",""time""
""focus"",""3"",""12963""
","""event"",""trial"",""time""
""fullscreenenter"",""5"",""20051""
","
","","images/earth.jpg","","","","","","","","","","","","","","fixation","","","","","",""
"d3-animate-choice","165","499573","0.0-76.0-0.10","423","646","20","Female","true","true","true","false","""event"",""trial"",""time""
""blur"",""3"",""12765""
""focus"",""3"",""12963""
""fullscreenenter"",""5"",""20051""
","""event"",""trial"",""time""
""blur"",""3"",""12765""
","""event"",""trial"",""time""
""focus"",""3"",""12963""
","""event"",""trial"",""time""
""fullscreenenter"",""5"",""20051""
","
","363.40000000596046","","48","","","3000","1","","","images/earth.jpg","images/rocket2","images/rocket1","null","images/rocket2","","1","real","null","2","","",""
"d3-animate-choice","166","502048","0.0-76.0-1.10","423","646","20","Female","true","true","true","false","""event"",""trial"",""time""
""blur"",""3"",""12765""
""focus"",""3"",""12963""
""fullscreenenter"",""5"",""20051""
","""event"",""trial"",""time""
""blur"",""3"",""12765""
","""event"",""trial"",""time""
""focus"",""3"",""12963""
","""event"",""trial"",""time""
""fullscreenenter"",""5"",""20051""
","
","469.59999999403954","","49","","","3000","1","","","images/purpleplanet.jpg","images/alien4","images/alien3","images/rocket2","images/alien3","images/t.png","2","real","true","1","common","1","2022-02-04 06:41:44.756"
"two-step-fixation","167","503056","0.0-76.0-2.10","423","646","20","Female","true","true","true","false","""event"",""trial"",""time""
""blur"",""3"",""12765""
""focus"",""3"",""12963""
""fullscreenenter"",""5"",""20051""
","""event"",""trial"",""time""
""blur"",""3"",""12765""
","""event"",""trial"",""time""
""focus"",""3"",""12963""
","""event"",""trial"",""time""
""fullscreenenter"",""5"",""20051""
","
","","images/earth.jpg","","","","","","","","","","","","","","fixation","","","","","",""
"d3-animate-choice","168","505476","0.0-76.0-0.11","423","646","20","Female","true","true","true","false","""event"",""trial"",""time""
""blur"",""3"",""12765""
""focus"",""3"",""12963""
""fullscreenenter"",""5"",""20051""
","""event"",""trial"",""time""
""blur"",""3"",""12765""
","""event"",""trial"",""time""
""focus"",""3"",""12963""
","""event"",""trial"",""time""
""fullscreenenter"",""5"",""20051""
","
","415.29999999701977","","48","","","3000","1","","","images/earth.jpg","images/rocket2","images/rocket1","null","images/rocket2","","1","real","null","2","","",""
"d3-animate-choice","169","507993","0.0-76.0-1.11","423","646","20","Female","true","true","true","false","""event"",""trial"",""time""
""blur"",""3"",""12765""
""focus"",""3"",""12963""
""fullscreenenter"",""5"",""20051""
","""event"",""trial"",""time""
""blur"",""3"",""12765""
","""event"",""trial"",""time""
""focus"",""3"",""12963""
","""event"",""trial"",""time""
""fullscreenenter"",""5"",""20051""
","
","509.09999999403954","","49","","","3000","1","","","images/purpleplanet.jpg","images/alien4","images/alien3","images/rocket2","images/alien3","images/t.png","2","real","true","1","common","1","2022-02-04 06:41:50.701"
"two-step-fixation","170","509000","0.0-76.0-2.11","423","646","20","Female","true","true","true","false","""event"",""trial"",""time""
""blur"",""3"",""12765""
""focus"",""3"",""12963""
""fullscreenenter"",""5"",""20051""
","""event"",""trial"",""time""
""blur"",""3"",""12765""
","""event"",""trial"",""time""
""focus"",""3"",""12963""
","""event"",""trial"",""time""
""fullscreenenter"",""5"",""20051""
","
","","images/earth.jpg","","","","","","","","","","","","","","fixation","","","","","",""
"d3-animate-choice","171","511336","0.0-76.0-0.12","423","646","20","Female","true","true","true","false","""event"",""trial"",""time""
""blur"",""3"",""12765""
""focus"",""3"",""12963""
""fullscreenenter"",""5"",""20051""
","""event"",""trial"",""time""
""blur"",""3"",""12765""
","""event"",""trial"",""time""
""focus"",""3"",""12963""
","""event"",""trial"",""time""
""fullscreenenter"",""5"",""20051""
","
","329.1000000014901","","48","","","3000","1","","","images/earth.jpg","images/rocket2","images/rocket1","null","images/rocket2","","1","real","null","2","","",""
"d3-animate-choice","172","513687","0.0-76.0-1.12","423","646","20","Female","true","true","true","false","""event"",""trial"",""time""
""blur"",""3"",""12765""
""focus"",""3"",""12963""
""fullscreenenter"",""5"",""20051""
","""event"",""trial"",""time""
""blur"",""3"",""12765""
","""event"",""trial"",""time""
""focus"",""3"",""12963""
","""event"",""trial"",""time""
""fullscreenenter"",""5"",""20051""
","
","346","","49","","","3000","1","","","images/redplanet1.jpg","images/alien2","images/alien1","images/rocket2","images/alien1","images/t.png","2","real","false","1","rare","1","2022-02-04 06:41:56.395"
"two-step-fixation","173","514695","0.0-76.0-2.12","423","646","20","Female","true","true","true","false","""event"",""trial"",""time""
""blur"",""3"",""12765""
""focus"",""3"",""12963""
""fullscreenenter"",""5"",""20051""
","""event"",""trial"",""time""
""blur"",""3"",""12765""
","""event"",""trial"",""time""
""focus"",""3"",""12963""
","""event"",""trial"",""time""
""fullscreenenter"",""5"",""20051""
","
","","images/earth.jpg","","","","","","","","","","","","","","fixation","","","","","",""
"d3-animate-choice","174","516996","0.0-76.0-0.13","423","646","20","Female","true","true","true","false","""event"",""trial"",""time""
""blur"",""3"",""12765""
""focus"",""3"",""12963""
""fullscreenenter"",""5"",""20051""
","""event"",""trial"",""time""
""blur"",""3"",""12765""
","""event"",""trial"",""time""
""focus"",""3"",""12963""
","""event"",""trial"",""time""
""fullscreenenter"",""5"",""20051""
","
","295.1000000014901","","48","","","3000","1","","","images/earth.jpg","images/rocket2","images/rocket1","null","images/rocket2","","1","real","null","2","","",""
"d3-animate-choice","175","519797","0.0-76.0-1.13","423","646","20","Female","true","true","true","false","""event"",""trial"",""time""
""blur"",""3"",""12765""
""focus"",""3"",""12963""
""fullscreenenter"",""5"",""20051""
","""event"",""trial"",""time""
""blur"",""3"",""12765""
","""event"",""trial"",""time""
""focus"",""3"",""12963""
","""event"",""trial"",""time""
""fullscreenenter"",""5"",""20051""
","
","793.7999999970198","","49","","","3000","1","","","images/purpleplanet.jpg","images/alien4","images/alien3","images/rocket2","images/alien3","images/nothing.png","2","real","true","1","common","0","2022-02-04 06:42:02.505"
"two-step-fixation","176","520802","0.0-76.0-2.13","423","646","20","Female","true","true","true","false","""event"",""trial"",""time""
""blur"",""3"",""12765""
""focus"",""3"",""12963""
""fullscreenenter"",""5"",""20051""
","""event"",""trial"",""time""
""blur"",""3"",""12765""
","""event"",""trial"",""time""
""focus"",""3"",""12963""
","""event"",""trial"",""time""
""fullscreenenter"",""5"",""20051""
","
","","images/earth.jpg","","","","","","","","","","","","","","fixation","","","","","",""
"d3-animate-choice","177","523124","0.0-76.0-0.14","423","646","20","Female","true","true","true","false","""event"",""trial"",""time""
""blur"",""3"",""12765""
""focus"",""3"",""12963""
""fullscreenenter"",""5"",""20051""
","""event"",""trial"",""time""
""blur"",""3"",""12765""
","""event"",""trial"",""time""
""focus"",""3"",""12963""
","""event"",""trial"",""time""
""fullscreenenter"",""5"",""20051""
","
