"trial_type","trial_index","time_elapsed","internal_node_id","participant_id","subject_id","age","gender","rocket_sides","red_planet_first_rocket","red_display_order","purple_display_order","interactions","blur_events","focus_events","fullscreenenter_events","fullscreenexit_events","rt","stimulus","key_press","button_pressed","success","duration","valid_pressed","rts","keys","planet_text","right_text","left_text","center_text","chosen_text","reward_text","trial_stage","practice_trial","transition_type","choice","transition","reward","timestamp"
"pavlovia","0","6","0.0-0.0","29","750","11","Male","false","false","false","true","
","
","
","
","
","","","","","","","","","","","","","","","","","","","","","",""
"html-keyboard-response","1","2080","0.0-1.0","29","750","11","Male","false","false","false","true","
","
","
","
","
","2073","Welcome! Press the space bar to begin.","32","","","","","","","","","","","","","","","","","","",""
"audio-keyboard-response","2","6263","0.0-2.0","29","750","11","Male","false","false","false","true","
","
","
","
","
","3531","audio/beep_loop.wav","32","","","","","","","","","","","","","","","","","","",""
"audio-button-response","3","8802","0.0-3.0","29","750","11","Male","false","false","false","true","
","
","
","
","
","NaN","audio/fish.mp3","","1","","","","","","","","","","","","","","","","","",""
"audio-button-response","4","11494","0.0-4.0","29","750","11","Male","false","false","false","true","""event"",""trial"",""time""
""fullscreenenter"",""5"",""16099""
","
","
","""event"",""trial"",""time""
""fullscreenenter"",""5"",""16099""
","
","NaN","audio/tiger.mp3","","4","","","","","","","","","","","","","","","","","",""
"fullscreen","5","17059","0.0-5.0","29","750","11","Male","false","false","false","true","""event"",""trial"",""time""
""fullscreenenter"",""5"",""16099""
","
","
","""event"",""trial"",""time""
""fullscreenenter"",""5"",""16099""
","
","","","","","true","","","","","","","","","","","","","","","","",""
"d3-instructions","6","30686","0.0-6.0","29","750","11","Male","false","false","false","true","""event"",""trial"",""time""
""fullscreenenter"",""5"",""16099""
","
","
","""event"",""trial"",""time""
""fullscreenenter"",""5"",""16099""
","
","","","","","","","","","","","","","","","","","","","","","",""
"d3-instructions","7","36873","0.0-7.0","29","750","11","Male","false","false","false","true","""event"",""trial"",""time""
""fullscreenenter"",""5"",""16099""
","
","
","""event"",""trial"",""time""
""fullscreenenter"",""5"",""16099""
","
","","","","","","","","","","","","","","","","","","","","","",""
"d3-instructions","8","40745","0.0-8.0","29","750","11","Male","false","false","false","true","""event"",""trial"",""time""
""fullscreenenter"",""5"",""16099""
","
","
","""event"",""trial"",""time""
""fullscreenenter"",""5"",""16099""
","
","","","","","","","","","","","","","","","","","","","","","",""
"d3-instructions","9","51895","0.0-9.0","29","750","11","Male","false","false","false","true","""event"",""trial"",""time""
""fullscreenenter"",""5"",""16099""
","
","
","""event"",""trial"",""time""
""fullscreenenter"",""5"",""16099""
","
","","","","","","","","","","","","","","","","","","","","","",""
"d3-instructions","10","72346","0.0-10.0","29","750","11","Male","false","false","false","true","""event"",""trial"",""time""
""fullscreenenter"",""5"",""16099""
","
","
","""event"",""trial"",""time""
""fullscreenenter"",""5"",""16099""
","
","","","","","","","","","","","","","","","","","","","","","",""
"d3-animate-choice","11","75221","0.0-11.0","29","750","11","Male","false","false","false","true","""event"",""trial"",""time""
""fullscreenenter"",""5"",""16099""
","
","
","""event"",""trial"",""time""
""fullscreenenter"",""5"",""16099""
","
","856.7999999523163","","49","","","3000","1","","","images/tutgreenplanet.jpg","images/tutalien1","images/tutalien2","null","images/tutalien2","","NA","practice","null","","","",""
"d3-animate-choice","12","78632","0.0-12.0","29","750","11","Male","false","false","false","true","""event"",""trial"",""time""
""fullscreenenter"",""5"",""16099""
","
","
","""event"",""trial"",""time""
""fullscreenenter"",""5"",""16099""
","
","1390.8999999761581","","48","","","3000","1","","","images/tutgreenplanet.jpg","images/tutalien1","images/tutalien2","null","images/tutalien1","","NA","practice","null","","","",""
"d3-animate-choice","13","81511","0.0-13.0","29","750","11","Male","false","false","false","true","""event"",""trial"",""time""
""fullscreenenter"",""5"",""16099""
","
","
","""event"",""trial"",""time""
""fullscreenenter"",""5"",""16099""
","
","860.6000000238419","","49","","","3000","1","1599.5","48","images/tutgreenplanet.jpg","images/tutalien1","images/tutalien2","null","images/tutalien2","","NA","practice","null","","","",""
"d3-animate-choice","14","86582","0.0-14.0","29","750","11","Male","false","false","false","true","""event"",""trial"",""time""
""fullscreenenter"",""5"",""16099""
","
","
","""event"",""trial"",""time""
""fullscreenenter"",""5"",""16099""
","
","400.89999997615814","","32","","","3000","1","3059.6999999284744,3119.899999976158,3670.1999999284744,3950.2999999523163,4190.299999952316","49,48,48,48,48","images/tutgreenplanet.jpg","images/tutalien1","images/tutalien2","null","images/tutalien2","","NA","practice","null","","","",""
"d3-instructions","15","93347","0.0-15.0","29","750","11","Male","false","false","false","true","""event"",""trial"",""time""
""fullscreenenter"",""5"",""16099""
","
","
","""event"",""trial"",""time""
""fullscreenenter"",""5"",""16099""
","
","","","","","","","","","","","","","","","","","","","","","",""
"d3-instructions","16","96935","0.0-16.0","29","750","11","Male","false","false","false","true","""event"",""trial"",""time""
""fullscreenenter"",""5"",""16099""
","
","
","""event"",""trial"",""time""
""fullscreenenter"",""5"",""16099""
","
","","","","","","","","","","","","","","","","","","","","","",""
"d3-instructions","17","103807","0.0-17.0","29","750","11","Male","false","false","false","true","""event"",""trial"",""time""
""fullscreenenter"",""5"",""16099""
","
","
","""event"",""trial"",""time""
""fullscreenenter"",""5"",""16099""
","
","","","","","","","","","","","","","","","","","","","","","",""
"d3-instructions","18","110867","0.0-18.0","29","750","11","Male","false","false","false","true","""event"",""trial"",""time""
""fullscreenenter"",""5"",""16099""
","
","
","""event"",""trial"",""time""
""fullscreenenter"",""5"",""16099""
","
","","","","","","","","","","","","","","","","","","","","","",""
"d3-instructions","19","119206","0.0-19.0","29","750","11","Male","false","false","false","true","""event"",""trial"",""time""
""fullscreenenter"",""5"",""16099""
","
","
","""event"",""trial"",""time""
""fullscreenenter"",""5"",""16099""
","
","","","","","","","","","","","","","","","","","","","","","",""
"d3-animate-choice","20","122251","0.0-20.0","29","750","11","Male","false","false","false","true","""event"",""trial"",""time""
""fullscreenenter"",""5"",""16099""
","
","
","""event"",""trial"",""time""
""fullscreenenter"",""5"",""16099""
","
","1032.7999999523163","","49","","","3000","1","","","images/tutyellowplanet.jpg","null","images/tutalien3","null","images/tutalien3","images/t.png","NA","practice","null","","","",""
"d3-animate-choice","21","124611","0.0-21.0","29","750","11","Male","false","false","false","true","""event"",""trial"",""time""
""fullscreenenter"",""5"",""16099""
","
","
","""event"",""trial"",""time""
""fullscreenenter"",""5"",""16099""
","
","348.90000009536743","","49","","","3000","1","","","images/tutyellowplanet.jpg","null","images/tutalien3","null","images/tutalien3","images/nothing.png","NA","practice","null","","","",""
"d3-animate-choice","22","127090","0.0-22.0","29","750","11","Male","false","false","false","true","""event"",""trial"",""time""
""fullscreenenter"",""5"",""16099""
","
","
","""event"",""trial"",""time""
""fullscreenenter"",""5"",""16099""
","
","469.39999997615814","","49","","","3000","1","","","images/tutyellowplanet.jpg","null","images/tutalien3","null","images/tutalien3","images/t.png","NA","practice","null","","","",""
"d3-animate-choice","23","129471","0.0-23.0","29","750","11","Male","false","false","false","true","""event"",""trial"",""time""
""fullscreenenter"",""5"",""16099""
","
","
","""event"",""trial"",""time""
""fullscreenenter"",""5"",""16099""
","
","370.39999997615814","","49","","","3000","1","","","images/tutyellowplanet.jpg","null","images/tutalien3","null","images/tutalien3","images/t.png","NA","practice","null","","","",""
"d3-animate-choice","24","131981","0.0-24.0","29","750","11","Male","false","false","false","true","""event"",""trial"",""time""
""fullscreenenter"",""5"",""16099""
","
","
","""event"",""trial"",""time""
""fullscreenenter"",""5"",""16099""
","
","500.1999999284744","","49","","","3000","1","","","images/tutyellowplanet.jpg","null","images/tutalien3","null","images/tutalien3","images/t.png","NA","practice","null","","","",""
"d3-animate-choice","25","134420","0.0-25.0","29","750","11","Male","false","false","false","true","""event"",""trial"",""time""
""fullscreenenter"",""5"",""16099""
","
","
","""event"",""trial"",""time""
""fullscreenenter"",""5"",""16099""
","
","429.39999997615814","","49","","","3000","1","2140.2999999523163,2380.2999999523163","49,49","images/tutyellowplanet.jpg","null","images/tutalien3","null","images/tutalien3","images/t.png","NA","practice","null","","","",""
"d3-animate-choice","26","136841","0.0-26.0","29","750","11","Male","false","false","false","true","""event"",""trial"",""time""
""fullscreenenter"",""5"",""16099""
","
","
","""event"",""trial"",""time""
""fullscreenenter"",""5"",""16099""
","
","402.60000002384186","","49","","","3000","1","","","images/tutyellowplanet.jpg","null","images/tutalien3","null","images/tutalien3","images/t.png","NA","practice","null","","","",""
"d3-animate-choice","27","139221","0.0-27.0","29","750","11","Male","false","false","false","true","""event"",""trial"",""time""
""fullscreenenter"",""5"",""16099""
","
","
","""event"",""trial"",""time""
""fullscreenenter"",""5"",""16099""
","
","361.6999999284744","","49","","","3000","1","","","images/tutyellowplanet.jpg","null","images/tutalien3","null","images/tutalien3","images/t.png","NA","practice","null","","","",""
"d3-animate-choice","28","141522","0.0-28.0","29","750","11","Male","false","false","false","true","""event"",""trial"",""time""
""fullscreenenter"",""5"",""16099""
","
","
","""event"",""trial"",""time""
""fullscreenenter"",""5"",""16099""
","
","290.10000002384186","","49","","","3000","1","","","images/tutyellowplanet.jpg","null","images/tutalien3","null","images/tutalien3","images/t.png","NA","practice","null","","","",""
"d3-animate-choice","29","143835","0.0-29.0","29","750","11","Male","false","false","false","true","""event"",""trial"",""time""
""fullscreenenter"",""5"",""16099""
","
","
","""event"",""trial"",""time""
""fullscreenenter"",""5"",""16099""
","
","300.5","","49","","","3000","1","","","images/tutyellowplanet.jpg","null","images/tutalien3","null","images/tutalien3","images/t.png","NA","practice","null","","","",""
"d3-instructions","30","147966","0.0-30.0","29","750","11","Male","false","false","false","true","""event"",""trial"",""time""
""fullscreenenter"",""5"",""16099""
","
","
","""event"",""trial"",""time""
""fullscreenenter"",""5"",""16099""
","
","","","","","","","","","","","","","","","","","","","","","",""
"d3-instructions","31","155806","0.0-31.0","29","750","11","Male","false","false","false","true","""event"",""trial"",""time""
""fullscreenenter"",""5"",""16099""
","
","
","""event"",""trial"",""time""
""fullscreenenter"",""5"",""16099""
","
","","","","","","","","","","","","","","","","","","","","","",""
"d3-instructions","32","165694","0.0-32.0","29","750","11","Male","false","false","false","true","""event"",""trial"",""time""
""fullscreenenter"",""5"",""16099""
","
","
","""event"",""trial"",""time""
""fullscreenenter"",""5"",""16099""
","
","","","","","","","","","","","","","","","","","","","","","",""
"d3-instructions","33","169396","0.0-33.0","29","750","11","Male","false","false","false","true","""event"",""trial"",""time""
""fullscreenenter"",""5"",""16099""
","
","
","""event"",""trial"",""time""
""fullscreenenter"",""5"",""16099""
","
","","","","","","","","","","","","","","","","","","","","","",""
"d3-animate-choice","34","172891","0.0-34.0","29","750","11","Male","false","false","false","true","""event"",""trial"",""time""
""fullscreenenter"",""5"",""16099""
","
","
","""event"",""trial"",""time""
""fullscreenenter"",""5"",""16099""
","
","1474.1000000238419","","49","","","3000","1","","","images/tutgreenplanet.jpg","images/tutalien1","images/tutalien2","null","images/tutalien2","images/t.png","NA","practice","null","","","",""
"d3-animate-choice","35","175550","0.0-35.0","29","750","11","Male","false","false","false","true","""event"",""trial"",""time""
""fullscreenenter"",""5"",""16099""
","
","
","""event"",""trial"",""time""
""fullscreenenter"",""5"",""16099""
","
","642.3000000715256","","49","","","3000","1","","","images/tutgreenplanet.jpg","images/tutalien1","images/tutalien2","null","images/tutalien2","images/t.png","NA","practice","null","","","",""
"d3-animate-choice","36","178220","0.0-36.0","29","750","11","Male","false","false","false","true","""event"",""trial"",""time""
""fullscreenenter"",""5"",""16099""
","
","
","""event"",""trial"",""time""
""fullscreenenter"",""5"",""16099""
","
","650.7999999523163","","49","","","3000","1","","","images/tutgreenplanet.jpg","images/tutalien1","images/tutalien2","null","images/tutalien2","images/t.png","NA","practice","null","","","",""
"d3-animate-choice","37","180571","0.0-37.0","29","750","11","Male","false","false","false","true","""event"",""trial"",""time""
""fullscreenenter"",""5"",""16099""
","
","
","""event"",""trial"",""time""
""fullscreenenter"",""5"",""16099""
","
","341.3000000715256","","49","","","3000","1","","","images/tutgreenplanet.jpg","images/tutalien1","images/tutalien2","null","images/tutalien2","images/t.png","NA","practice","null","","","",""
"d3-animate-choice","38","182961","0.0-38.0","29","750","11","Male","false","false","false","true","""event"",""trial"",""time""
""fullscreenenter"",""5"",""16099""
","
","
","""event"",""trial"",""time""
""fullscreenenter"",""5"",""16099""
","
","368.5","","49","","","3000","1","","","images/tutgreenplanet.jpg","images/tutalien1","images/tutalien2","null","images/tutalien2","images/t.png","NA","practice","null","","","",""
"d3-animate-choice","39","185371","0.0-39.0","29","750","11","Male","false","false","false","true","""event"",""trial"",""time""
""fullscreenenter"",""5"",""16099""
","
","
","""event"",""trial"",""time""
""fullscreenenter"",""5"",""16099""
","
","389.7999999523163","","49","","","3000","1","","","images/tutgreenplanet.jpg","images/tutalien1","images/tutalien2","null","images/tutalien2","images/t.png","NA","practice","null","","","",""
"d3-animate-choice","40","187686","0.0-40.0","29","750","11","Male","false","false","false","true","""event"",""trial"",""time""
""fullscreenenter"",""5"",""16099""
","
","
","""event"",""trial"",""time""
""fullscreenenter"",""5"",""16099""
","
","311.09999990463257","","49","","","3000","1","","","images/tutgreenplanet.jpg","images/tutalien1","images/tutalien2","null","images/tutalien2","images/t.png","NA","practice","null","","","",""
"d3-animate-choice","41","190091","0.0-41.0","29","750","11","Male","false","false","false","true","""event"",""trial"",""time""
""fullscreenenter"",""5"",""16099""
","
","
","""event"",""trial"",""time""
""fullscreenenter"",""5"",""16099""
","
","385.5","","49","","","3000","1","","","images/tutgreenplanet.jpg","images/tutalien1","images/tutalien2","null","images/tutalien2","images/nothing.png","NA","practice","null","","","",""
"d3-animate-choice","42","192410","0.0-42.0","29","750","11","Male","false","false","false","true","""event"",""trial"",""time""
""fullscreenenter"",""5"",""16099""
","
","
","""event"",""trial"",""time""
""fullscreenenter"",""5"",""16099""
","
","309.6999999284744","","49","","","3000","1","","","images/tutgreenplanet.jpg","images/tutalien1","images/tutalien2","null","images/tutalien2","images/t.png","NA","practice","null","","","",""
"d3-animate-choice","43","194935","0.0-43.0","29","750","11","Male","false","false","false","true","""event"",""trial"",""time""
""fullscreenenter"",""5"",""16099""
","
","
","""event"",""trial"",""time""
""fullscreenenter"",""5"",""16099""
","
","522.1000000238419","","48","","","3000","1","","","images/tutgreenplanet.jpg","images/tutalien1","images/tutalien2","null","images/tutalien1","images/nothing.png","NA","practice","null","","","",""
"d3-instructions","44","208477","0.0-44.0","29","750","11","Male","false","false","false","true","""event"",""trial"",""time""
""fullscreenenter"",""5"",""16099""
","
","
","""event"",""trial"",""time""
""fullscreenenter"",""5"",""16099""
","
","","","","","","","","","","","","","","","","","","","","","",""
"d3-instructions","45","213066","0.0-45.0","29","750","11","Male","false","false","false","true","""event"",""trial"",""time""
""fullscreenenter"",""5"",""16099""
","
","
","""event"",""trial"",""time""
""fullscreenenter"",""5"",""16099""
","
","","","","","","","","","","","","","","","","","","","","","",""
"d3-instructions","46","218437","0.0-46.0","29","750","11","Male","false","false","false","true","""event"",""trial"",""time""
""fullscreenenter"",""5"",""16099""
","
","
","""event"",""trial"",""time""
""fullscreenenter"",""5"",""16099""
","
","","","","","","","","","","","","","","","","","","","","","",""
"d3-instructions","47","230776","0.0-47.0","29","750","11","Male","false","false","false","true","""event"",""trial"",""time""
""fullscreenenter"",""5"",""16099""
","
","
","""event"",""trial"",""time""
""fullscreenenter"",""5"",""16099""
","
","","","","","","","","","","","","","","","","","","","","","",""
"d3-instructions","48","237365","0.0-48.0","29","750","11","Male","false","false","false","true","""event"",""trial"",""time""
""fullscreenenter"",""5"",""16099""
","
","
","""event"",""trial"",""time""
""fullscreenenter"",""5"",""16099""
","
","","","","","","","","","","","","","","","","","","","","","",""
"d3-instructions","49","242796","0.0-49.0","29","750","11","Male","false","false","false","true","""event"",""trial"",""time""
""fullscreenenter"",""5"",""16099""
","
","
","""event"",""trial"",""time""
""fullscreenenter"",""5"",""16099""
","
","","","","","","","","","","","","","","","","","","","","","",""
"d3-instructions","50","247607","0.0-50.0","29","750","11","Male","false","false","false","true","""event"",""trial"",""time""
""fullscreenenter"",""5"",""16099""
","
","
","""event"",""trial"",""time""
""fullscreenenter"",""5"",""16099""
","
","","","","","","","","","","","","","","","","","","","","","",""
"d3-instructions","51","249596","0.0-51.0","29","750","11","Male","false","false","false","true","""event"",""trial"",""time""
""fullscreenenter"",""5"",""16099""
","
","
","""event"",""trial"",""time""
""fullscreenenter"",""5"",""16099""
","
","","","","","","","","","","","","","","","","","","","","","",""
"d3-instructions","52","251576","0.0-52.0","29","750","11","Male","false","false","false","true","""event"",""trial"",""time""
""fullscreenenter"",""5"",""16099""
","
","
","""event"",""trial"",""time""
""fullscreenenter"",""5"",""16099""
","
","","","","","","","","","","","","","","","","","","","","","",""
"d3-instructions","53","262615","0.0-53.0","29","750","11","Male","false","false","false","true","""event"",""trial"",""time""
""fullscreenenter"",""5"",""16099""
","
","
","""event"",""trial"",""time""
""fullscreenenter"",""5"",""16099""
","
","","","","","","","","","","","","","","","","","","","","","",""
"d3-instructions","54","272795","0.0-54.0","29","750","11","Male","false","false","false","true","""event"",""trial"",""time""
""fullscreenenter"",""5"",""16099""
","
","
","""event"",""trial"",""time""
""fullscreenenter"",""5"",""16099""
","
","","","","","","","","","","","","","","","","","","","","","",""
"d3-instructions","55","278213","0.0-55.0","29","750","11","Male","false","false","false","true","""event"",""trial"",""time""
""fullscreenenter"",""5"",""16099""
","
","
","""event"",""trial"",""time""
""fullscreenenter"",""5"",""16099""
","
","","","","","","","","","","","","","","","","","","","","","",""
"d3-instructions","56","282615","0.0-56.0","29","750","11","Male","false","false","false","true","""event"",""trial"",""time""
""fullscreenenter"",""5"",""16099""
","
","
","""event"",""trial"",""time""
""fullscreenenter"",""5"",""16099""
","
","","","","","","","","","","","","","","","","","","","","","",""
"d3-instructions","57","288443","0.0-57.0","29","750","11","Male","false","false","false","true","""event"",""trial"",""time""
""fullscreenenter"",""5"",""16099""
","
","
","""event"",""trial"",""time""
""fullscreenenter"",""5"",""16099""
","
","","","","","","","","","","","","","","","","","","","","","",""
"d3-instructions","58","292955","0.0-58.0","29","750","11","Male","false","false","false","true","""event"",""trial"",""time""
""fullscreenenter"",""5"",""16099""
","
","
","""event"",""trial"",""time""
""fullscreenenter"",""5"",""16099""
","
","","","","","","","","","","","","","","","","","","","","","",""
"d3-instructions","59","296323","0.0-59.0","29","750","11","Male","false","false","false","true","""event"",""trial"",""time""
""fullscreenenter"",""5"",""16099""
","
","
","""event"",""trial"",""time""
""fullscreenenter"",""5"",""16099""
","
","","","","","","","","","","","","","","","","","","","","","",""
"d3-instructions","60","300895","0.0-60.0","29","750","11","Male","false","false","false","true","""event"",""trial"",""time""
""fullscreenenter"",""5"",""16099""
","
","
","""event"",""trial"",""time""
""fullscreenenter"",""5"",""16099""
","
","","","","","","","","","","","","","","","","","","","","","",""
"d3-animate-choice","61","303636","0.0-61.0-0.0","29","750","11","Male","false","false","false","true","""event"",""trial"",""time""
""fullscreenenter"",""5"",""16099""
","
","
","""event"",""trial"",""time""
""fullscreenenter"",""5"",""16099""
","
","735.2000000476837","","48","","","3000","1","","","images/earth.jpg","images/tutrocket2","images/tutrocket1","null","images/tutrocket2","","1","practice","null","2","","",""
"d3-animate-choice","62","306650","0.0-61.0-1.0","29","750","11","Male","false","false","false","true","""event"",""trial"",""time""
""fullscreenenter"",""5"",""16099""
","
","
","""event"",""trial"",""time""
""fullscreenenter"",""5"",""16099""
","
","998","","48","","","3000","1","","","images/tutgreenplanet.jpg","images/tutalien2","images/tutalien1","images/tutrocket2","images/tutalien2","images/nothing.png","2","practice","true","2","common","0","2022-02-11 00:09:45.096"
"two-step-fixation","63","307662","0.0-61.0-2.0","29","750","11","Male","false","false","false","true","""event"",""trial"",""time""
""fullscreenenter"",""5"",""16099""
","
","
","""event"",""trial"",""time""
""fullscreenenter"",""5"",""16099""
","
","","images/earth.jpg","","","","","","","","","","","","","","fixation","","","","","",""
"d3-animate-choice","64","310024","0.0-61.0-0.1","29","750","11","Male","false","false","false","true","""event"",""trial"",""time""
""fullscreenenter"",""5"",""16099""
","
","
","""event"",""trial"",""time""
""fullscreenenter"",""5"",""16099""
","
","356.8000000715256","","48","","","3000","1","","","images/earth.jpg","images/tutrocket2","images/tutrocket1","null","images/tutrocket2","","1","practice","null","2","","",""
"d3-animate-choice","65","313216","0.0-61.0-1.1","29","750","11","Male","false","false","false","true","""event"",""trial"",""time""
""fullscreenenter"",""5"",""16099""
","
","
","""event"",""trial"",""time""
""fullscreenenter"",""5"",""16099""
","
","1185.3000000715256","","48","","","3000","1","","","images/tutgreenplanet.jpg","images/tutalien2","images/tutalien1","images/tutrocket2","images/tutalien2","images/nothing.png","2","practice","true","2","common","0","2022-02-11 00:09:51.661"
"two-step-fixation","66","314223","0.0-61.0-2.1","29","750","11","Male","false","false","false","true","""event"",""trial"",""time""
""fullscreenenter"",""5"",""16099""
","
","
","""event"",""trial"",""time""
""fullscreenenter"",""5"",""16099""
","
","","images/earth.jpg","","","","","","","","","","","","","","fixation","","","","","",""
"d3-animate-choice","67","316505","0.0-61.0-0.2","29","750","11","Male","false","false","false","true","""event"",""trial"",""time""
""fullscreenenter"",""5"",""16099""
","
","
","""event"",""trial"",""time""
""fullscreenenter"",""5"",""16099""
","
","275","","48","","","3000","1","","","images/earth.jpg","images/tutrocket2","images/tutrocket1","null","images/tutrocket2","","1","practice","null","2","","",""
"d3-animate-choice","68","319090","0.0-61.0-1.2","29","750","11","Male","false","false","false","true","""event"",""trial"",""time""
""fullscreenenter"",""5"",""16099""
","
","
","""event"",""trial"",""time""
""fullscreenenter"",""5"",""16099""
","
","575.2000000476837","","48","","","3000","1","","","images/tutgreenplanet.jpg","images/tutalien2","images/tutalien1","images/tutrocket2","images/tutalien2","images/nothing.png","2","practice","true","2","common","0","2022-02-11 00:09:57.536"
"two-step-fixation","69","320111","0.0-61.0-2.2","29","750","11","Male","false","false","false","true","""event"",""trial"",""time""
""fullscreenenter"",""5"",""16099""
","
","
","""event"",""trial"",""time""
""fullscreenenter"",""5"",""16099""
","
","","images/earth.jpg","","","","","","","","","","","","","","fixation","","","","","",""
"d3-animate-choice","70","322596","0.0-61.0-0.3","29","750","11","Male","false","false","false","true","""event"",""trial"",""time""
""fullscreenenter"",""5"",""16099""
","
","
","""event"",""trial"",""time""
""fullscreenenter"",""5"",""16099""
","
","477.5","","48","","","3000","1","","","images/earth.jpg","images/tutrocket2","images/tutrocket1","null","images/tutrocket2","","1","practice","null","2","","",""
"d3-animate-choice","71","325071","0.0-61.0-1.3","29","750","11","Male","false","false","false","true","""event"",""trial"",""time""
""fullscreenenter"",""5"",""16099""
","
","
","""event"",""trial"",""time""
""fullscreenenter"",""5"",""16099""
","
","462.39999997615814","","49","","","3000","1","","","images/tutyellowplanet.jpg","images/tutalien4","images/tutalien3","images/tutrocket2","images/tutalien3","images/nothing.png","2","practice","false","1","rare","0","2022-02-11 00:10:03.516"
"two-step-fixation","72","326091","0.0-61.0-2.3","29","750","11","Male","false","false","false","true","""event"",""trial"",""time""
""fullscreenenter"",""5"",""16099""
","
","
","""event"",""trial"",""time""
""fullscreenenter"",""5"",""16099""
","
","","images/earth.jpg","","","","","","","","","","","","","","fixation","","","","","",""
"d3-animate-choice","73","328430","0.0-61.0-0.4","29","750","11","Male","false","false","false","true","""event"",""trial"",""time""
""fullscreenenter"",""5"",""16099""
","
","
","""event"",""trial"",""time""
""fullscreenenter"",""5"",""16099""
","
","326.59999990463257","","48","","","3000","1","","","images/earth.jpg","images/tutrocket2","images/tutrocket1","null","images/tutrocket2","","1","practice","null","2","","",""
"d3-animate-choice","74","330945","0.0-61.0-1.4","29","750","11","Male","false","false","false","true","""event"",""trial"",""time""
""fullscreenenter"",""5"",""16099""
","
","
","""event"",""trial"",""time""
""fullscreenenter"",""5"",""16099""
","
","510.60000002384186","","49","","","3000","1","","","images/tutgreenplanet.jpg","images/tutalien2","images/tutalien1","images/tutrocket2","images/tutalien1","images/nothing.png","2","practice","true","1","common","0","2022-02-11 00:10:09.391"
"two-step-fixation","75","331951","0.0-61.0-2.4","29","750","11","Male","false","false","false","true","""event"",""trial"",""time""
""fullscreenenter"",""5"",""16099""
","
","
","""event"",""trial"",""time""
""fullscreenenter"",""5"",""16099""
","
","","images/earth.jpg","","","","","","","","","","","","","","fixation","","","","","",""
"d3-animate-choice","76","334495","0.0-61.0-0.5","29","750","11","Male","false","false","false","true","""event"",""trial"",""time""
""fullscreenenter"",""5"",""16099""
","
","
","""event"",""trial"",""time""
""fullscreenenter"",""5"",""16099""
","
","537.6999999284744","","48","","","3000","1","","","images/earth.jpg","images/tutrocket2","images/tutrocket1","null","images/tutrocket2","","1","practice","null","2","","",""
"d3-animate-choice","77","337056","0.0-61.0-1.5","29","750","11","Male","false","false","false","true","""event"",""trial"",""time""
""fullscreenenter"",""5"",""16099""
","
","
","""event"",""trial"",""time""
""fullscreenenter"",""5"",""16099""
","
","554.6000000238419","","49","","","3000","1","","","images/tutgreenplanet.jpg","images/tutalien2","images/tutalien1","images/tutrocket2","images/tutalien1","images/nothing.png","2","practice","true","1","common","0","2022-02-11 00:10:15.501"
"two-step-fixation","78","338064","0.0-61.0-2.5","29","750","11","Male","false","false","false","true","""event"",""trial"",""time""
""fullscreenenter"",""5"",""16099""
","
","
","""event"",""trial"",""time""
""fullscreenenter"",""5"",""16099""
","
","","images/earth.jpg","","","","","","","","","","","","","","fixation","","","","","",""
"d3-animate-choice","79","340726","0.0-61.0-0.6","29","750","11","Male","false","false","false","true","""event"",""trial"",""time""
""fullscreenenter"",""5"",""16099""
","
","
","""event"",""trial"",""time""
""fullscreenenter"",""5"",""16099""
","
","654.8999999761581","","49","","","3000","1","","","images/earth.jpg","images/tutrocket2","images/tutrocket1","null","images/tutrocket1","","1","practice","null","1","","",""
"d3-animate-choice","80","343985","0.0-61.0-1.6","29","750","11","Male","false","false","false","true","""event"",""trial"",""time""
""fullscreenenter"",""5"",""16099""
","
","
","""event"",""trial"",""time""
""fullscreenenter"",""5"",""16099""
","
","1252.7999999523163","","48","","","3000","1","","","images/tutyellowplanet.jpg","images/tutalien4","images/tutalien3","images/tutrocket1","images/tutalien4","images/nothing.png","2","practice","true","2","common","0","2022-02-11 00:10:22.430"
"two-step-fixation","81","344990","0.0-61.0-2.6","29","750","11","Male","false","false","false","true","""event"",""trial"",""time""
""fullscreenenter"",""5"",""16099""
","
","
","""event"",""trial"",""time""
""fullscreenenter"",""5"",""16099""
","
","","images/earth.jpg","","","","","","","","","","","","","","fixation","","","","","",""
"d3-animate-choice","82","347746","0.0-61.0-0.7","29","750","11","Male","false","false","false","true","""event"",""trial"",""time""
""fullscreenenter"",""5"",""16099""
","
","
","""event"",""trial"",""time""
""fullscreenenter"",""5"",""16099""
","
","751.3999999761581","","49","","","3000","1","","","images/earth.jpg","images/tutrocket2","images/tutrocket1","null","images/tutrocket1","","1","practice","null","1","","",""
"d3-animate-choice","83","350115","0.0-61.0-1.7","29","750","11","Male","false","false","false","true","""event"",""trial"",""time""
""fullscreenenter"",""5"",""16099""
","
","
","""event"",""trial"",""time""
""fullscreenenter"",""5"",""16099""
","
","362.39999997615814","","49","","","3000","1","","","images/tutyellowplanet.jpg","images/tutalien4","images/tutalien3","images/tutrocket1","images/tutalien3","images/nothing.png","2","practice","true","1","common","0","2022-02-11 00:10:28.560"
"two-step-fixation","84","351121","0.0-61.0-2.7","29","750","11","Male","false","false","false","true","""event"",""trial"",""time""
""fullscreenenter"",""5"",""16099""
","
","
","""event"",""trial"",""time""
""fullscreenenter"",""5"",""16099""
","
","","images/earth.jpg","","","","","","","","","","","","","","fixation","","","","","",""
"d3-animate-choice","85","353635","0.0-61.0-0.8","29","750","11","Male","false","false","false","true","""event"",""trial"",""time""
""fullscreenenter"",""5"",""16099""
","
","
","""event"",""trial"",""time""
""fullscreenenter"",""5"",""16099""
","
","507.2999999523163","","49","","","3000","1","","","images/earth.jpg","images/tutrocket2","images/tutrocket1","null","images/tutrocket1","","1","practice","null","1","","",""
"d3-animate-choice","86","356043","0.0-61.0-1.8","29","750","11","Male","false","false","false","true","""event"",""trial"",""time""
""fullscreenenter"",""5"",""16099""
","
","
","""event"",""trial"",""time""
""fullscreenenter"",""5"",""16099""
","
","402.60000002384186","","48","","","3000","1","","","images/tutyellowplanet.jpg","images/tutalien4","images/tutalien3","images/tutrocket1","images/tutalien4","images/nothing.png","2","practice","true","2","common","0","2022-02-11 00:10:34.488"
"two-step-fixation","87","357049","0.0-61.0-2.8","29","750","11","Male","false","false","false","true","""event"",""trial"",""time""
""fullscreenenter"",""5"",""16099""
","
","
","""event"",""trial"",""time""
""fullscreenenter"",""5"",""16099""
","
","","images/earth.jpg","","","","","","","","","","","","","","fixation","","","","","",""
"d3-animate-choice","88","359596","0.0-61.0-0.9","29","750","11","Male","false","false","false","true","""event"",""trial"",""time""
""fullscreenenter"",""5"",""16099""
","
","
","""event"",""trial"",""time""
""fullscreenenter"",""5"",""16099""
","
","541.1000000238419","","49","","","3000","1","","","images/earth.jpg","images/tutrocket2","images/tutrocket1","null","images/tutrocket1","","1","practice","null","1","","",""
"d3-animate-choice","89","361985","0.0-61.0-1.9","29","750","11","Male","false","false","false","true","""event"",""trial"",""time""
""fullscreenenter"",""5"",""16099""
","
","
","""event"",""trial"",""time""
""fullscreenenter"",""5"",""16099""
","
","382.89999997615814","","48","","","3000","1","","","images/tutyellowplanet.jpg","images/tutalien4","images/tutalien3","images/tutrocket1","images/tutalien4","images/t.png","2","practice","true","2","common","1","2022-02-11 00:10:40.430"
"two-step-fixation","90","362991","0.0-61.0-2.9","29","750","11","Male","false","false","false","true","""event"",""trial"",""time""
""fullscreenenter"",""5"",""16099""
","
","
","""event"",""trial"",""time""
""fullscreenenter"",""5"",""16099""
","
","","images/earth.jpg","","","","","","","","","","","","","","fixation","","","","","",""
"d3-animate-choice","91","365375","0.0-61.0-0.10","29","750","11","Male","false","false","false","true","""event"",""trial"",""time""
""fullscreenenter"",""5"",""16099""
","
","
","""event"",""trial"",""time""
""fullscreenenter"",""5"",""16099""
","
","379.2999999523163","","49","","","3000","1","779.2999999523163","48","images/earth.jpg","images/tutrocket2","images/tutrocket1","null","images/tutrocket1","","1","practice","null","1","","",""
"d3-animate-choice","92","367645","0.0-61.0-1.10","29","750","11","Male","false","false","false","true","""event"",""trial"",""time""
""fullscreenenter"",""5"",""16099""
","
","
","""event"",""trial"",""time""
""fullscreenenter"",""5"",""16099""
","
","262.7000000476837","","48","","","3000","1","","","images/tutgreenplanet.jpg","images/tutalien2","images/tutalien1","images/tutrocket1","images/tutalien2","images/nothing.png","2","practice","false","2","rare","0","2022-02-11 00:10:46.090"
"two-step-fixation","93","368650","0.0-61.0-2.10","29","750","11","Male","false","false","false","true","""event"",""trial"",""time""
""fullscreenenter"",""5"",""16099""
","
","
","""event"",""trial"",""time""
""fullscreenenter"",""5"",""16099""
","
","","images/earth.jpg","","","","","","","","","","","","","","fixation","","","","","",""
"d3-animate-choice","94","370985","0.0-61.0-0.11","29","750","11","Male","false","false","false","true","""event"",""trial"",""time""
""fullscreenenter"",""5"",""16099""
","
","
","""event"",""trial"",""time""
""fullscreenenter"",""5"",""16099""
","
","328.09999990463257","","49","","","3000","1","","","images/earth.jpg","images/tutrocket2","images/tutrocket1","null","images/tutrocket1","","1","practice","null","1","","",""
"d3-animate-choice","95","374265","0.0-61.0-1.11","29","750","11","Male","false","false","false","true","""event"",""trial"",""time""
""fullscreenenter"",""5"",""16099""
","
","
","""event"",""trial"",""time""
""fullscreenenter"",""5"",""16099""
","
","1274.6000000238419","","49","","","3000","1","","","images/tutgreenplanet.jpg","images/tutalien2","images/tutalien1","images/tutrocket1","images/tutalien1","images/nothing.png","2","practice","false","1","rare","0","2022-02-11 00:10:52.711"
"two-step-fixation","96","375271","0.0-61.0-2.11","29","750","11","Male","false","false","false","true","""event"",""trial"",""time""
""fullscreenenter"",""5"",""16099""
","
","
","""event"",""trial"",""time""
""fullscreenenter"",""5"",""16099""
","
","","images/earth.jpg","","","","","","","","","","","","","","fixation","","","","","",""
"d3-animate-choice","97","377555","0.0-61.0-0.12","29","750","11","Male","false","false","false","true","""event"",""trial"",""time""
""fullscreenenter"",""5"",""16099""
","
","
","""event"",""trial"",""time""
""fullscreenenter"",""5"",""16099""
","
","277","","49","","","3000","1","","","images/earth.jpg","images/tutrocket2","images/tutrocket1","null","images/tutrocket1","","1","practice","null","1","","",""
"d3-animate-choice","98","380875","0.0-61.0-1.12","29","750","11","Male","false","false","false","true","""event"",""trial"",""time""
""fullscreenenter"",""5"",""16099""
","
","
","""event"",""trial"",""time""
""fullscreenenter"",""5"",""16099""
","
","1314.3999999761581","","48","","","3000","1","","","images/tutyellowplanet.jpg","images/tutalien4","images/tutalien3","images/tutrocket1","images/tutalien4","images/t.png","2","practice","true","2","common","1","2022-02-11 00:10:59.320"
"two-step-fixation","99","381883","0.0-61.0-2.12","29","750","11","Male","false","false","false","true","""event"",""trial"",""time""
""fullscreenenter"",""5"",""16099""
","
","
","""event"",""trial"",""time""
""fullscreenenter"",""5"",""16099""
","
","","images/earth.jpg","","","","","","","","","","","","","","fixation","","","","","",""
"d3-animate-choice","100","384266","0.0-61.0-0.13","29","750","11","Male","false","false","false","true","""event"",""trial"",""time""
""fullscreenenter"",""5"",""16099""
","
","
","""event"",""trial"",""time""
""fullscreenenter"",""5"",""16099""
","
","376","","49","","","3000","1","","","images/earth.jpg","images/tutrocket2","images/tutrocket1","null","images/tutrocket1","","1","practice","null","1","","",""
"d3-animate-choice","101","386765","0.0-61.0-1.13","29","750","11","Male","false","false","false","true","""event"",""trial"",""time""
""fullscreenenter"",""5"",""16099""
","
","
","""event"",""trial"",""time""
""fullscreenenter"",""5"",""16099""
","
","491.89999997615814","","48","","","3000","1","","","images/tutgreenplanet.jpg","images/tutalien2","images/tutalien1","images/tutrocket1","images/tutalien2","images/nothing.png","2","practice","false","2","rare","0","2022-02-11 00:11:05.210"
"two-step-fixation","102","387770","0.0-61.0-2.13","29","750","11","Male","false","false","false","true","""event"",""trial"",""time""
""fullscreenenter"",""5"",""16099""
","
","
","""event"",""trial"",""time""
""fullscreenenter"",""5"",""16099""
","
","","images/earth.jpg","","","","","","","","","","","","","","fixation","","","","","",""
"d3-animate-choice","103","390086","0.0-61.0-0.14","29","750","11","Male","false","false","false","true","""event"",""trial"",""time""
""fullscreenenter"",""5"",""16099""
","
","
","""event"",""trial"",""time""
""fullscreenenter"",""5"",""16099""
","
","308.60000002384186","","49","","","3000","1","","","images/earth.jpg","images/tutrocket2","images/tutrocket1","null","images/tutrocket1","","1","practice","null","1","","",""
"d3-animate-choice","104","393305","0.0-61.0-1.14","29","750","11","Male","false","false","false","true","""event"",""trial"",""time""
""fullscreenenter"",""5"",""16099""
","
","
","""event"",""trial"",""time""
""fullscreenenter"",""5"",""16099""
","
","1212.8999999761581","","49","","","3000","1","","","images/tutgreenplanet.jpg","images/tutalien2","images/tutalien1","images/tutrocket1","images/tutalien1","images/t.png","2","practice","false","1","rare","1","2022-02-11 00:11:11.750"
"two-step-fixation","105","394312","0.0-61.0-2.14","29","750","11","Male","false","false","false","true","""event"",""trial"",""time""
""fullscreenenter"",""5"",""16099""
","
","
","""event"",""trial"",""time""
""fullscreenenter"",""5"",""16099""
","
","","images/earth.jpg","","","","","","","","","","","","","","fixation","","","","","",""
"d3-animate-choice","106","396886","0.0-61.0-0.15","29","750","11","Male","false","false","false","true","""event"",""trial"",""time""
""fullscreenenter"",""5"",""16099""
","
","
","""event"",""trial"",""time""
""fullscreenenter"",""5"",""16099""
","
","568.3999999761581","","49","","","3000","1","","","images/earth.jpg","images/tutrocket2","images/tutrocket1","null","images/tutrocket1","","1","practice","null","1","","",""
"d3-animate-choice","107","399455","0.0-61.0-1.15","29","750","11","Male","false","false","false","true","""event"",""trial"",""time""
""fullscreenenter"",""5"",""16099""
","
","
","""event"",""trial"",""time""
""fullscreenenter"",""5"",""16099""
","
","565.1999999284744","","48","","","3000","1","","","images/tutyellowplanet.jpg","images/tutalien4","images/tutalien3","images/tutrocket1","images/tutalien4","images/nothing.png","2","practice","true","2","common","0","2022-02-11 00:11:17.900"
"two-step-fixation","108","400463","0.0-61.0-2.15","29","750","11","Male","false","false","false","true","""event"",""trial"",""time""
""fullscreenenter"",""5"",""16099""
","
","
","""event"",""trial"",""time""
""fullscreenenter"",""5"",""16099""
","
","","images/earth.jpg","","","","","","","","","","","","","","fixation","","","","","",""
"d3-animate-choice","109","403506","0.0-61.0-0.16","29","750","11","Male","false","false","false","true","""event"",""trial"",""time""
""fullscreenenter"",""5"",""16099""
","
","
","""event"",""trial"",""time""
""fullscreenenter"",""5"",""16099""
","
","1035.2000000476837","","48","","","3000","1","","","images/earth.jpg","images/tutrocket2","images/tutrocket1","null","images/tutrocket2","","1","practice","null","2","","",""
"d3-animate-choice","110","406685","0.0-61.0-1.16","29","750","11","Male","false","false","false","true","""event"",""trial"",""time""
""fullscreenenter"",""5"",""16099""
","
","
","""event"",""trial"",""time""
""fullscreenenter"",""5"",""16099""
","
","1172.2999999523163","","49","","","3000","1","","","images/tutgreenplanet.jpg","images/tutalien2","images/tutalien1","images/tutrocket2","images/tutalien1","images/t.png","2","practice","true","1","common","1","2022-02-11 00:11:25.131"
"two-step-fixation","111","407690","0.0-61.0-2.16","29","750","11","Male","false","false","false","true","""event"",""trial"",""time""
""fullscreenenter"",""5"",""16099""
","
","
","""event"",""trial"",""time""
""fullscreenenter"",""5"",""16099""
","
","","images/earth.jpg","","","","","","","","","","","","","","fixation","","","","","",""
"d3-animate-choice","112","410054","0.0-61.0-0.17","29","750","11","Male","false","false","false","true","""event"",""trial"",""time""
""fullscreenenter"",""5"",""16099""
","
","
","""event"",""trial"",""time""
""fullscreenenter"",""5"",""16099""
","
","357.5","","48","","","3000","1","","","images/earth.jpg","images/tutrocket2","images/tutrocket1","null","images/tutrocket2","","1","practice","null","2","","",""
"d3-animate-choice","113","412564","0.0-61.0-1.17","29","750","11","Male","false","false","false","true","""event"",""trial"",""time""
""fullscreenenter"",""5"",""16099""
","
","
","""event"",""trial"",""time""
""fullscreenenter"",""5"",""16099""
","
","501.39999997615814","","49","","","3000","1","","","images/tutgreenplanet.jpg","images/tutalien2","images/tutalien1","images/tutrocket2","images/tutalien1","images/nothing.png","2","practice","true","1","common","0","2022-02-11 00:11:31.009"
"two-step-fixation","114","413568","0.0-61.0-2.17","29","750","11","Male","false","false","false","true","""event"",""trial"",""time""
""fullscreenenter"",""5"",""16099""
","
","
","""event"",""trial"",""time""
""fullscreenenter"",""5"",""16099""
","
","","images/earth.jpg","","","","","","","","","","","","","","fixation","","","","","",""
"d3-animate-choice","115","415838","0.0-61.0-0.18","29","750","11","Male","false","false","false","true","""event"",""trial"",""time""
""fullscreenenter"",""5"",""16099""
","
","
","""event"",""trial"",""time""
""fullscreenenter"",""5"",""16099""
","
","259.89999997615814","","48","","","3000","1","","","images/earth.jpg","images/tutrocket2","images/tutrocket1","null","images/tutrocket2","","1","practice","null","2","","",""
"d3-animate-choice","116","418316","0.0-61.0-1.18","29","750","11","Male","false","false","false","true","""event"",""trial"",""time""
""fullscreenenter"",""5"",""16099""
","
","
","""event"",""trial"",""time""
""fullscreenenter"",""5"",""16099""
","
","469.7999999523163","","49","","","3000","1","","","images/tutgreenplanet.jpg","images/tutalien2","images/tutalien1","images/tutrocket2","images/tutalien1","images/nothing.png","2","practice","true","1","common","0","2022-02-11 00:11:36.761"
"two-step-fixation","117","419322","0.0-61.0-2.18","29","750","11","Male","false","false","false","true","""event"",""trial"",""time""
""fullscreenenter"",""5"",""16099""
","
","
","""event"",""trial"",""time""
""fullscreenenter"",""5"",""16099""
","
","","images/earth.jpg","","","","","","","","","","","","","","fixation","","","","","",""
"d3-animate-choice","118","421497","0.0-61.0-0.19","29","750","11","Male","false","false","false","true","""event"",""trial"",""time""
""fullscreenenter"",""5"",""16099""
","
","
","""event"",""trial"",""time""
""fullscreenenter"",""5"",""16099""
","
","167.29999995231628","","49","","","3000","1","","","images/earth.jpg","images/tutrocket2","images/tutrocket1","null","images/tutrocket1","","1","practice","null","1","","",""
"d3-animate-choice","119","424385","0.0-61.0-1.19","29","750","11","Male","false","false","false","true","""event"",""trial"",""time""
""fullscreenenter"",""5"",""16099""
","
","
","""event"",""trial"",""time""
""fullscreenenter"",""5"",""16099""
","
","883.7000000476837","","48","","","3000","1","","","images/tutyellowplanet.jpg","images/tutalien4","images/tutalien3","images/tutrocket1","images/tutalien4","images/nothing.png","2","practice","true","2","common","0","2022-02-11 00:11:42.830"
"two-step-fixation","120","425392","0.0-61.0-2.19","29","750","11","Male","false","false","false","true","""event"",""trial"",""time""
""fullscreenenter"",""5"",""16099""
","
","
","""event"",""trial"",""time""
""fullscreenenter"",""5"",""16099""
","
","","images/earth.jpg","","","","","","","","","","","","","","fixation","","","","","",""
"d3-instructions","121","433044","0.0-62.0","29","750","11","Male","false","false","false","true","""event"",""trial"",""time""
""fullscreenenter"",""5"",""16099""
","
","
","""event"",""trial"",""time""
""fullscreenenter"",""5"",""16099""
","
","","","","","","","","","","","","","","","","","","","","","",""
"audio-keyboard-response","122","436184","0.0-63.0","29","750","11","Male","false","false","false","true","""event"",""trial"",""time""
""fullscreenenter"",""5"",""16099""
","
","
","""event"",""trial"",""time""
""fullscreenenter"",""5"",""16099""
","
","3131","audio/instructions/treasure_feedback.wav","32","","","","","","","","","","","","","","","","","","",""
"d3-instructions","123","446333","0.0-64.0","29","750","11","Male","false","false","false","true","""event"",""trial"",""time""
""fullscreenenter"",""5"",""16099""
","
","
","""event"",""trial"",""time""
""fullscreenenter"",""5"",""16099""
","
","","","","","","","","","","","","","","","","","","","","","",""
"d3-instructions","124","455174","0.0-65.0","29","750","11","Male","false","false","false","true","""event"",""trial"",""time""
""fullscreenenter"",""5"",""16099""
","
","
","""event"",""trial"",""time""
""fullscreenenter"",""5"",""16099""
","
","","","","","","","","","","","","","","","","","","","","","",""
"d3-instructions","125","479515","0.0-66.0","29","750","11","Male","false","false","false","true","""event"",""trial"",""time""
""fullscreenenter"",""5"",""16099""
","
","
","""event"",""trial"",""time""
""fullscreenenter"",""5"",""16099""
","
","","","","","","","","","","","","","","","","","","","","","",""
"d3-instructions","126","495892","0.0-67.0","29","750","11","Male","false","false","false","true","""event"",""trial"",""time""
""fullscreenenter"",""5"",""16099""
","
","
","""event"",""trial"",""time""
""fullscreenenter"",""5"",""16099""
","
","","","","","","","","","","","","","","","","","","","","","",""
"d3-instructions","127","498593","0.0-68.0","29","750","11","Male","false","false","false","true","""event"",""trial"",""time""
""fullscreenenter"",""5"",""16099""
","
","
","""event"",""trial"",""time""
""fullscreenenter"",""5"",""16099""
","
","","","","","","","","","","","","","","","","","","","","","",""
"instructions-quiz","128","502569","0.0-69.0","29","750","11","Male","false","false","false","true","""event"",""trial"",""time""
""fullscreenenter"",""5"",""16099""
","
","
","""event"",""trial"",""time""
""fullscreenenter"",""5"",""16099""
","
","3970.5","audio/quiz/Q1_Prompt.wav","","1","","","","","","","","","","","","","","","","","",""
"audio-keyboard-response","129","510845","0.0-70.0","29","750","11","Male","false","false","false","true","""event"",""trial"",""time""
""fullscreenenter"",""5"",""16099""
","
","
","""event"",""trial"",""time""
""fullscreenenter"",""5"",""16099""
","
","8261","audio/quiz/Q1_Correct.wav","32","","","","","","","","","","","","","","","","","","",""
"instructions-quiz","130","515625","0.0-71.0","29","750","11","Male","false","false","false","true","""event"",""trial"",""time""
""fullscreenenter"",""5"",""16099""
","
","
","""event"",""trial"",""time""
""fullscreenenter"",""5"",""16099""
","
","4774.600000023842","audio/quiz/Q2_Prompt.wav","","0","","","","","","","","","","","","","","","","","",""
"audio-keyboard-response","131","521934","0.0-72.0","29","750","11","Male","false","false","false","true","""event"",""trial"",""time""
""fullscreenenter"",""5"",""16099""
","
","
","""event"",""trial"",""time""
""fullscreenenter"",""5"",""16099""
","
","6299","audio/quiz/Q2_Correct.wav","32","","","","","","","","","","","","","","","","","","",""
"instructions-quiz","132","525589","0.0-73.0","29","750","11","Male","false","false","false","true","""event"",""trial"",""time""
""fullscreenenter"",""5"",""16099""
","
","
","""event"",""trial"",""time""
""fullscreenenter"",""5"",""16099""
","
","3650.8000000715256","audio/quiz/Q3_Prompt.wav","","1","","","","","","","","","","","","","","","","","",""
"audio-keyboard-response","133","528383","0.0-74.0","29","750","11","Male","false","false","false","true","""event"",""trial"",""time""
""fullscreenenter"",""5"",""16099""
","
","
","""event"",""trial"",""time""
""fullscreenenter"",""5"",""16099""
","
","2789","audio/quiz/Q3_Correct.wav","32","","","","","","","","","","","","","","","","","","",""
"d3-instructions","134","532674","0.0-75.0","29","750","11","Male","false","false","false","true","""event"",""trial"",""time""
""fullscreenenter"",""5"",""16099""
","
","
","""event"",""trial"",""time""
""fullscreenenter"",""5"",""16099""
","
","","","","","","","","","","","","","","","","","","","","","",""
"d3-animate-choice","135","535615","0.0-76.0-0.0","29","750","11","Male","false","false","false","true","""event"",""trial"",""time""
""fullscreenenter"",""5"",""16099""
","
","
","""event"",""trial"",""time""
""fullscreenenter"",""5"",""16099""
","
","931.8999999761581","","48","","","3000","1","","","images/earth.jpg","images/rocket1","images/rocket2","null","images/rocket1","","1","real","null","2","","",""
"d3-animate-choice","136","538345","0.0-76.0-1.0","29","750","11","Male","false","false","false","true","""event"",""trial"",""time""
""fullscreenenter"",""5"",""16099""
","
","
","""event"",""trial"",""time""
""fullscreenenter"",""5"",""16099""
","
","721.3000000715256","","48","","","3000","1","","","images/purpleplanet.jpg","images/alien4","images/alien3","images/rocket1","images/alien4","images/t.png","2","real","true","2","common","1","2022-02-11 00:13:36.790"
"two-step-fixation","137","539353","0.0-76.0-2.0","29","750","11","Male","false","false","false","true","""event"",""trial"",""time""
""fullscreenenter"",""5"",""16099""
","
","
","""event"",""trial"",""time""
""fullscreenenter"",""5"",""16099""
","
","","images/earth.jpg","","","","","","","","","","","","","","fixation","","","","","",""
"d3-animate-choice","138","541625","0.0-76.0-0.1","29","750","11","Male","false","false","false","true","""event"",""trial"",""time""
""fullscreenenter"",""5"",""16099""
","
","
","""event"",""trial"",""time""
""fullscreenenter"",""5"",""16099""
","
","265","","48","","","3000","1","","","images/earth.jpg","images/rocket1","images/rocket2","null","images/rocket1","","1","real","null","2","","",""
"d3-animate-choice","139","543955","0.0-76.0-1.1","29","750","11","Male","false","false","false","true","""event"",""trial"",""time""
""fullscreenenter"",""5"",""16099""
","
","
","""event"",""trial"",""time""
""fullscreenenter"",""5"",""16099""
","
","322","","48","","","3000","1","","","images/purpleplanet.jpg","images/alien4","images/alien3","images/rocket1","images/alien4","images/nothing.png","2","real","true","2","common","0","2022-02-11 00:13:42.400"
"two-step-fixation","140","544960","0.0-76.0-2.1","29","750","11","Male","false","false","false","true","""event"",""trial"",""time""
""fullscreenenter"",""5"",""16099""
","
","
","""event"",""trial"",""time""
""fullscreenenter"",""5"",""16099""
","
","","images/earth.jpg","","","","","","","","","","","","","","fixation","","","","","",""
"d3-animate-choice","141","547244","0.0-76.0-0.2","29","750","11","Male","false","false","false","true","""event"",""trial"",""time""
""fullscreenenter"",""5"",""16099""
","
","
","""event"",""trial"",""time""
""fullscreenenter"",""5"",""16099""
","
","267.6999999284744","","48","","","3000","1","","","images/earth.jpg","images/rocket1","images/rocket2","null","images/rocket1","","1","real","null","2","","",""
"d3-animate-choice","142","549595","0.0-76.0-1.2","29","750","11","Male","false","false","false","true","""event"",""trial"",""time""
""fullscreenenter"",""5"",""16099""
","
","
","""event"",""trial"",""time""
""fullscreenenter"",""5"",""16099""
","
","323.10000002384186","","48","","","3000","1","","","images/purpleplanet.jpg","images/alien4","images/alien3","images/rocket1","images/alien4","images/t.png","2","real","true","2","common","1","2022-02-11 00:13:48.040"
"two-step-fixation","143","550602","0.0-76.0-2.2","29","750","11","Male","false","false","false","true","""event"",""trial"",""time""
""fullscreenenter"",""5"",""16099""
","
","
","""event"",""trial"",""time""
""fullscreenenter"",""5"",""16099""
","
","","images/earth.jpg","","","","","","","","","","","","","","fixation","","","","","",""
"d3-animate-choice","144","552996","0.0-76.0-0.3","29","750","11","Male","false","false","false","true","""event"",""trial"",""time""
""fullscreenenter"",""5"",""16099""
","
","
","""event"",""trial"",""time""
""fullscreenenter"",""5"",""16099""
","
","384.39999997615814","","48","","","3000","1","","","images/earth.jpg","images/rocket1","images/rocket2","null","images/rocket1","","1","real","null","2","","",""
"d3-animate-choice","145","555289","0.0-76.0-1.3","29","750","11","Male","false","false","false","true","""event"",""trial"",""time""
""fullscreenenter"",""5"",""16099""
","
","
","""event"",""trial"",""time""
""fullscreenenter"",""5"",""16099""
","
","281.89999997615814","","48","","","3000","1","","","images/purpleplanet.jpg","images/alien4","images/alien3","images/rocket1","images/alien4","images/t.png","2","real","true","2","common","1","2022-02-11 00:13:53.735"
"two-step-fixation","146","556314","0.0-76.0-2.3","29","750","11","Male","false","false","false","true","""event"",""trial"",""time""
""fullscreenenter"",""5"",""16099""
","
","
","""event"",""trial"",""time""
""fullscreenenter"",""5"",""16099""
","
","","images/earth.jpg","","","","","","","","","","","","","","fixation","","","","","",""
"d3-animate-choice","147","558595","0.0-76.0-0.4","29","750","11","Male","false","false","false","true","""event"",""trial"",""time""
""fullscreenenter"",""5"",""16099""
","
","
","""event"",""trial"",""time""
""fullscreenenter"",""5"",""16099""
","
","262.39999997615814","","48","","","3000","1","","","images/earth.jpg","images/rocket1","images/rocket2","null","images/rocket1","","1","real","null","2","","",""
"d3-animate-choice","148","560956","0.0-76.0-1.4","29","750","11","Male","false","false","false","true","""event"",""trial"",""time""
""fullscreenenter"",""5"",""16099""
","
","
","""event"",""trial"",""time""
""fullscreenenter"",""5"",""16099""
","
","352.2000000476837","","48","","","3000","1","","","images/purpleplanet.jpg","images/alien4","images/alien3","images/rocket1","images/alien4","images/nothing.png","2","real","true","2","common","0","2022-02-11 00:13:59.401"
"two-step-fixation","149","561962","0.0-76.0-2.4","29","750","11","Male","false","false","false","true","""event"",""trial"",""time""
""fullscreenenter"",""5"",""16099""
","
","
","""event"",""trial"",""time""
""fullscreenenter"",""5"",""16099""
","
","","images/earth.jpg","","","","","","","","","","","","","","fixation","","","","","",""
"d3-animate-choice","150","564464","0.0-76.0-0.5","29","750","11","Male","false","false","false","true","""event"",""trial"",""time""
""fullscreenenter"",""5"",""16099""
","
","
","""event"",""trial"",""time""
""fullscreenenter"",""5"",""16099""
","
","495.39999997615814","","48","","","3000","1","","","images/earth.jpg","images/rocket1","images/rocket2","null","images/rocket1","","1","real","null","2","","",""
"d3-animate-choice","151","566894","0.0-76.0-1.5","29","750","11","Male","false","false","false","true","""event"",""trial"",""time""
""fullscreenenter"",""5"",""16099""
","
","
","""event"",""trial"",""time""
""fullscreenenter"",""5"",""16099""
","
","424.2000000476837","","49","","","3000","1","","","images/purpleplanet.jpg","images/alien4","images/alien3","images/rocket1","images/alien3","images/nothing.png","2","real","true","1","common","0","2022-02-11 00:14:05.340"
"two-step-fixation","152","567899","0.0-76.0-2.5","29","750","11","Male","false","false","false","true","""event"",""trial"",""time""
""fullscreenenter"",""5"",""16099""
","
","
","""event"",""trial"",""time""
""fullscreenenter"",""5"",""16099""
","
","","images/earth.jpg","","","","","","","","","","","","","","fixation","","","","","",""
"d3-animate-choice","153","570196","0.0-76.0-0.6","29","750","11","Male","false","false","false","true","""event"",""trial"",""time""
""fullscreenenter"",""5"",""16099""
","
","
","""event"",""trial"",""time""
""fullscreenenter"",""5"",""16099""
","
","290","","48","","","3000","1","","","images/earth.jpg","images/rocket1","images/rocket2","null","images/rocket1","","1","real","null","2","","",""
"d3-animate-choice","154","572713","0.0-76.0-1.6","29","750","11","Male","false","false","false","true","""event"",""trial"",""time""
""fullscreenenter"",""5"",""16099""
","
","
","""event"",""trial"",""time""
""fullscreenenter"",""5"",""16099""
","
","512.2999999523163","","49","","","3000","1","","","images/purpleplanet.jpg","images/alien4","images/alien3","images/rocket1","images/alien3","images/t.png","2","real","true","1","common","1","2022-02-11 00:14:11.158"
"two-step-fixation","155","573720","0.0-76.0-2.6","29","750","11","Male","false","false","false","true","""event"",""trial"",""time""
""fullscreenenter"",""5"",""16099""
","
","
","""event"",""trial"",""time""
""fullscreenenter"",""5"",""16099""
","
","","images/earth.jpg","","","","","","","","","","","","","","fixation","","","","","",""
"d3-animate-choice","156","576013","0.0-76.0-0.7","29","750","11","Male","false","false","false","true","""event"",""trial"",""time""
""fullscreenenter"",""5"",""16099""
","
","
","""event"",""trial"",""time""
""fullscreenenter"",""5"",""16099""
","
","286.89999997615814","","48","","","3000","1","","","images/earth.jpg","images/rocket1","images/rocket2","null","images/rocket1","","1","real","null","2","","",""
"d3-animate-choice","157","578874","0.0-76.0-1.7","29","750","11","Male","false","false","false","true","""event"",""trial"",""time""
""fullscreenenter"",""5"",""16099""
","
","
","""event"",""trial"",""time""
""fullscreenenter"",""5"",""16099""
","
","853.8000000715256","","49","","","3000","1","","","images/redplanet1.jpg","images/alien2","images/alien1","images/rocket1","images/alien1","images/t.png","2","real","false","1","rare","1","2022-02-11 00:14:17.319"
"two-step-fixation","158","579881","0.0-76.0-2.7","29","750","11","Male","false","false","false","true","""event"",""trial"",""time""
""fullscreenenter"",""5"",""16099""
","
","
","""event"",""trial"",""time""
""fullscreenenter"",""5"",""16099""
","
","","images/earth.jpg","","","","","","","","","","","","","","fixation","","","","","",""
"d3-animate-choice","159","582184","0.0-76.0-0.8","29","750","11","Male","false","false","false","true","""event"",""trial"",""time""
""fullscreenenter"",""5"",""16099""
","
","
","""event"",""trial"",""time""
""fullscreenenter"",""5"",""16099""
","
","297.60000002384186","","48","","","3000","1","","","images/earth.jpg","images/rocket1","images/rocket2","null","images/rocket1","","1","real","null","2","","",""
"d3-animate-choice","160","584754","0.0-76.0-1.8","29","750","11","Male","false","false","false","true","""event"",""trial"",""time""
""fullscreenenter"",""5"",""16099""
","
","
","""event"",""trial"",""time""
""fullscreenenter"",""5"",""16099""
","
","566.2999999523163","","49","","","3000","1","","","images/purpleplanet.jpg","images/alien4","images/alien3","images/rocket1","images/alien3","images/t.png","2","real","true","1","common","1","2022-02-11 00:14:23.200"
"two-step-fixation","161","585761","0.0-76.0-2.8","29","750","11","Male","false","false","false","true","""event"",""trial"",""time""
""fullscreenenter"",""5"",""16099""
","
","
","""event"",""trial"",""time""
""fullscreenenter"",""5"",""16099""
","
","","images/earth.jpg","","","","","","","","","","","","","","fixation","","","","","",""
"d3-animate-choice","162","588063","0.0-76.0-0.9","29","750","11","Male","false","false","false","true","""event"",""trial"",""time""
""fullscreenenter"",""5"",""16099""
","
","
","""event"",""trial"",""time""
""fullscreenenter"",""5"",""16099""
","
","298.1999999284744","","48","","","3000","1","","","images/earth.jpg","images/rocket1","images/rocket2","null","images/rocket1","","1","real","null","2","","",""
"d3-animate-choice","163","590455","0.0-76.0-1.9","29","750","11","Male","false","false","false","true","""event"",""trial"",""time""
""fullscreenenter"",""5"",""16099""
","
","
","""event"",""trial"",""time""
""fullscreenenter"",""5"",""16099""
","
","385.10000002384186","","49","","","3000","1","","","images/purpleplanet.jpg","images/alien4","images/alien3","images/rocket1","images/alien3","images/nothing.png","2","real","true","1","common","0","2022-02-11 00:14:28.900"
"two-step-fixation","164","591462","0.0-76.0-2.9","29","750","11","Male","false","false","false","true","""event"",""trial"",""time""
""fullscreenenter"",""5"",""16099""
","
","
","""event"",""trial"",""time""
""fullscreenenter"",""5"",""16099""
","
","","images/earth.jpg","","","","","","","","","","","","","","fixation","","","","","",""
"d3-animate-choice","165","593825","0.0-76.0-0.10","29","750","11","Male","false","false","false","true","""event"",""trial"",""time""
""fullscreenenter"",""5"",""16099""
","
","
","""event"",""trial"",""time""
""fullscreenenter"",""5"",""16099""
","
","355.6999999284744","","48","","","3000","1","","","images/earth.jpg","images/rocket1","images/rocket2","null","images/rocket1","","1","real","null","2","","",""
"d3-animate-choice","166","596304","0.0-76.0-1.10","29","750","11","Male","false","false","false","true","""event"",""trial"",""time""
""fullscreenenter"",""5"",""16099""
","
","
","""event"",""trial"",""time""
""fullscreenenter"",""5"",""16099""
","
","473.7999999523163","","49","","","3000","1","","","images/purpleplanet.jpg","images/alien4","images/alien3","images/rocket1","images/alien3","images/nothing.png","2","real","true","1","common","0","2022-02-11 00:14:34.750"
"two-step-fixation","167","597309","0.0-76.0-2.10","29","750","11","Male","false","false","false","true","""event"",""trial"",""time""
""fullscreenenter"",""5"",""16099""
","
","
","""event"",""trial"",""time""
""fullscreenenter"",""5"",""16099""
","
","","images/earth.jpg","","","","","","","","","","","","","","fixation","","","","","",""
"d3-animate-choice","168","599635","0.0-76.0-0.11","29","750","11","Male","false","false","false","true","""event"",""trial"",""time""
""fullscreenenter"",""5"",""16099""
","
","
","""event"",""trial"",""time""
""fullscreenenter"",""5"",""16099""
","
","320.3000000715256","","49","","","3000","1","","","images/earth.jpg","images/rocket1","images/rocket2","null","images/rocket2","","1","real","null","1","","",""
"d3-animate-choice","169","602094","0.0-76.0-1.11","29","750","11","Male","false","false","false","true","""event"",""trial"",""time""
""fullscreenenter"",""5"",""16099""
","
","
","""event"",""trial"",""time""
""fullscreenenter"",""5"",""16099""
","
","452.5","","49","","","3000","1","","","images/redplanet1.jpg","images/alien2","images/alien1","images/rocket2","images/alien1","images/t.png","2","real","true","1","common","1","2022-02-11 00:14:40.540"
"two-step-fixation","170","603101","0.0-76.0-2.11","29","750","11","Male","false","false","false","true","""event"",""trial"",""time""
""fullscreenenter"",""5"",""16099""
","
","
","""event"",""trial"",""time""
""fullscreenenter"",""5"",""16099""
","
","","images/earth.jpg","","","","","","","","","","","","","","fixation","","","","","",""
"d3-animate-choice","171","605404","0.0-76.0-0.12","29","750","11","Male","false","false","false","true","""event"",""trial"",""time""
""fullscreenenter"",""5"",""16099""
","
","
","""event"",""trial"",""time""
""fullscreenenter"",""5"",""16099""
","
","296.7999999523163","","49","","","3000","1","","","images/earth.jpg","images/rocket1","images/rocket2","null","images/rocket2","","1","real","null","1","","",""
"d3-animate-choice","172","608005","0.0-76.0-1.12","29","750","11","Male","false","false","false","true","""event"",""trial"",""time""
""fullscreenenter"",""5"",""16099""
","
","
","""event"",""trial"",""time""
""fullscreenenter"",""5"",""16099""
","
","597.2000000476837","","49","","","3000","1","","","images/redplanet1.jpg","images/alien2","images/alien1","images/rocket2","images/alien1","images/nothing.png","2","real","true","1","common","0","2022-02-11 00:14:46.450"
"two-step-fixation","173","609010","0.0-76.0-2.12","29","750","11","Male","false","false","false","true","""event"",""trial"",""time""
""fullscreenenter"",""5"",""16099""
","
","
","""event"",""trial"",""time""
""fullscreenenter"",""5"",""16099""
","
","","images/earth.jpg","","","","","","","","","","","","","","fixation","","","","","",""
"d3-animate-choice","174","611314","0.0-76.0-0.13","29","750","11","Male","false","false","false","true","""event"",""trial"",""time""
""fullscreenenter"",""5"",""16099""
","
","
","""event"",""trial"",""time""
""fullscreenenter"",""5"",""16099""
","
","297.8000000715256","","49","","","3000","1","","","images/earth.jpg","images/rocket1","images/rocket2","null","images/rocket2","","1","real","null","1","","",""
"d3-animate-choice","175","613914","0.0-76.0-1.13","29","750","11","Male","false","false","false","true","""event"",""trial"",""time""
""fullscreenenter"",""5"",""16099""
","
","
","""event"",""trial"",""time""
""fullscreenenter"",""5"",""16099""
","
","593.8999999761581","","49","","","3000","1","","","images/redplanet1.jpg","images/alien2","images/alien1","images/rocket2","images/alien1","images/nothing.png","2","real","true","1","common","0","2022-02-11 00:14:52.359"
"two-step-fixation","176","614918","0.0-76.0-2.13","29","750","11","Male","false","false","false","true","""event"",""trial"",""time""
""fullscreenenter"",""5"",""16099""
","
","
","""event"",""trial"",""time""
""fullscreenenter"",""5"",""16099""
","
","","images/earth.jpg","","","","","","","","","","","","","","fixation","","","","","",""
"d3-animate-choice","177","617225","0.0-76.0-0.14","29","750","11","Male","false","false","false","true","""event"",""trial"",""time""
""fullscreenenter"",""5"",""16099""
","
","
","""event"",""trial"",""time""
""fullscreenenter"",""5"",""16099""
","
","303.2000000476837","","49","","","3000","1","","","images/earth.jpg","images/rocket1","images/rocket2","null","images/rocket2","","1","real","null","1","","",""
"d3-animate-choice","178","619574","0.0-76.0-1.14","29","750","11","Male","false","false","false","true","""event"",""trial"",""time""
""fullscreenenter"",""5"",""16099""
","
","
","""event"",""trial"",""time""
""fullscreenenter"",""5"",""16099""
","
","341.90000009536743","","49","","","3000","1","","","images/redplanet1.jpg","images/alien2","images/alien1","images/rocket2","images/alien1","images/t.png","2","real","true","1","common","1","2022-02-11 00:14:58.020"
"two-step-fixation","179","620581","0.0-76.0-2.14","29","750","11","Male","false","false","false","true","""event"",""trial"",""time""
""fullscreenenter"",""5"",""16099""
","
","
","""event"",""trial"",""time""
""fullscreenenter"",""5"",""16099""
","
","","images/earth.jpg","","","","","","","","","","","","","","fixation","","","","","",""
"d3-animate-choice","180","622974","0.0-76.0-0.15","29","750","11","Male","false","false","false","true","""event"",""trial"",""time""
""fullscreenenter"",""5"",""16099""
","
","
","""event"",""trial"",""time""
""fullscreenenter"",""5"",""16099""
","
","385.10000002384186","","49","","","3000","1","","","images/earth.jpg","images/rocket1","images/rocket2","null","images/rocket2","","1","real","null","1","","",""
"d3-animate-choice","181","625354","0.0-76.0-1.15","29","750","11","Male","false","false","false","true","""event"",""trial"",""time""
""fullscreenenter"",""5"",""16099""
","
","
","""event"",""trial"",""time""
""fullscreenenter"",""5"",""16099""
","
","373.5","","49","","","3000","1","","","images/redplanet1.jpg","images/alien2","images/alien1","images/rocket2","images/alien1","images/t.png","2","real","true","1","common","1","2022-02-11 00:15:03.799"
"two-step-fixation","182","626359","0.0-76.0-2.15","29","750","11","Male","false","false","false","true","""event"",""trial"",""time""
""fullscreenenter"",""5"",""16099""
","
","
","""event"",""trial"",""time""
""fullscreenenter"",""5"",""16099""
","
","","images/earth.jpg","","","","","","","","","","","","","","fixation","","","","","",""
"d3-animate-choice","183","628664","0.0-76.0-0.16","29","750","11","Male","false","false","false","true","""event"",""trial"",""time""
""fullscreenenter"",""5"",""16099""
","
","
","""event"",""trial"",""time""
""fullscreenenter"",""5"",""16099""
","
","299.5","","49","","","3000","1","","","images/earth.jpg","images/rocket1","images/rocket2","null","images/rocket2","","1","real","null","1","","",""
"d3-animate-choice","184","630964","0.0-76.0-1.16","29","750","11","Male","false","false","false","true","""event"",""trial"",""time""
""fullscreenenter"",""5"",""16099""
","
","
","""event"",""trial"",""time""
""fullscreenenter"",""5"",""16099""
","
","293.7000000476837","","49","","","3000","1","","","images/purpleplanet.jpg","images/alien4","images/alien3","images/rocket2","images/alien3","images/t.png","2","real","false","1","rare","1","2022-02-11 00:15:09.410"
"two-step-fixation","185","631970","0.0-76.0-2.16","29","750","11","Male","false","false","false","true","""event"",""trial"",""time""
""fullscreenenter"",""5"",""16099""
","
","
","""event"",""trial"",""time""
""fullscreenenter"",""5"",""16099""
","
","","images/earth.jpg","","","","","","","","","","","","","","fixation","","","","","",""
"d3-animate-choice","186","634432","0.0-76.0-0.17","29","750","11","Male","false","false","false","true","""event"",""trial"",""time""
""fullscreenenter"",""5"",""16099""
","
","
","""event"",""trial"",""time""
""fullscreenenter"",""5"",""16099""
","
","456","","49","","","3000","1","","","images/earth.jpg","images/rocket1","images/rocket2","null","images/rocket2","","1","real","null","1","","",""
"d3-animate-choice","187","636823","0.0-76.0-1.17","29","750","11","Male","false","false","false","true","""event"",""trial"",""time""
""fullscreenenter"",""5"",""16099""
","
","
","""event"",""trial"",""time""
""fullscreenenter"",""5"",""16099""
","
","384.60000002384186","","49","","","3000","1","","","images/redplanet1.jpg","images/alien2","images/alien1","images/rocket2","images/alien1","images/nothing.png","2","real","true","1","common","0","2022-02-11 00:15:15.269"
"two-step-fixation","188","637830","0.0-76.0-2.17","29","750","11","Male","false","false","false","true","""event"",""trial"",""time""
""fullscreenenter"",""5"",""16099""
","
","
","""event"",""trial"",""time""
""fullscreenenter"",""5"",""16099""
","
","","images/earth.jpg","","","","","","","","","","","","","","fixation","","","","","",""
"d3-animate-choice","189","639964","0.0-76.0-0.18","29","750","11","Male","false","false","false","true","""event"",""trial"",""time""
""fullscreenenter"",""5"",""16099""
","
","
","""event"",""trial"",""time""
""fullscreenenter"",""5"",""16099""
","
","128.09999990463257","","48","","","3000","1","","","images/earth.jpg","images/rocket1","images/rocket2","null","images/rocket1","","1","real","null","2","","",""
"d3-animate-choice","190","642294","0.0-76.0-1.18","29","750","11","Male","false","false","false","true","""event"",""trial"",""time""
""fullscreenenter"",""5"",""16099""
","
","
","""event"",""trial"",""time""
""fullscreenenter"",""5"",""16099""
","
","322.6999999284744","","49","","","3000","1","","","images/redplanet1.jpg","images/alien2","images/alien1","images/rocket1","images/alien1","images/nothing.png","2","real","false","1","rare","0","2022-02-11 00:15:20.740"
"two-step-fixation","191","643301","0.0-76.0-2.18","29","750","11","Male","false","false","false","true","""event"",""trial"",""time""
""fullscreenenter"",""5"",""16099""
","
","
","""event"",""trial"",""time""
""fullscreenenter"",""5"",""16099""
","
","","images/earth.jpg","","","","","","","","","","","","","","fixation","","","","","",""
"d3-animate-choice","192","645715","0.0-76.0-0.19","29","750","11","Male","false","false","false","true","""event"",""trial"",""time""
""fullscreenenter"",""5"",""16099""
","
","
","""event"",""trial"",""time""
""fullscreenenter"",""5"",""16099""
","
","407.60000002384186","","48","","","3000","1","","","images/earth.jpg","images/rocket1","images/rocket2","null","images/rocket1","","1","real","null","2","","",""
"d3-animate-choice","193","648493","0.0-76.0-1.19","29","750","11","Male","false","false","false","true","""event"",""trial"",""time""
""fullscreenenter"",""5"",""16099""
","
","
","""event"",""trial"",""time""
""fullscreenenter"",""5"",""16099""
","
","771.6000000238419","","48","","","3000","1","","","images/redplanet1.jpg","images/alien2","images/alien1","images/rocket1","images/alien2","images/t.png","2","real","false","2","rare","1","2022-02-11 00:15:26.938"
"two-step-fixation","194","649500","0.0-76.0-2.19","29","750","11","Male","false","false","false","true","""event"",""trial"",""time""
""fullscreenenter"",""5"",""16099""
","
","
","""event"",""trial"",""time""
""fullscreenenter"",""5"",""16099""
","
","","images/earth.jpg","","","","","","","","","","","","","","fixation","","","","","",""
"d3-animate-choice","195","651814","0.0-76.0-0.20","29","750","11","Male","false","false","false","true","""event"",""trial"",""time""
""fullscreenenter"",""5"",""16099""
","
","
","""event"",""trial"",""time""
""fullscreenenter"",""5"",""16099""
","
","307.6999999284744","","48","","","3000","1","","","images/earth.jpg","images/rocket1","images/rocket2","null","images/rocket1","","1","real","null","2","","",""
"d3-animate-choice","196","654574","0.0-76.0-1.20","29","750","11","Male","false","false","false","true","""event"",""trial"",""time""
""fullscreenenter"",""5"",""16099""
","
","
","""event"",""trial"",""time""
""fullscreenenter"",""5"",""16099""
","
","751.5","","48","","","3000","1","","","images/redplanet1.jpg","images/alien2","images/alien1","images/rocket1","images/alien2","images/t.png","2","real","false","2","rare","1","2022-02-11 00:15:33.020"
"two-step-fixation","197","655582","0.0-76.0-2.20","29","750","11","Male","false","false","false","true","""event"",""trial"",""time""
""fullscreenenter"",""5"",""16099""
","
","
","""event"",""trial"",""time""
""fullscreenenter"",""5"",""16099""
","
","","images/earth.jpg","","","","","","","","","","","","","","fixation","","","","","",""
"d3-animate-choice","198","657804","0.0-76.0-0.21","29","750","11","Male","false","false","false","true","""event"",""trial"",""time""
""fullscreenenter"",""5"",""16099""
","
","
","""event"",""trial"",""time""
""fullscreenenter"",""5"",""16099""
","
","214.20000004768372","","48","","","3000","1","","","images/earth.jpg","images/rocket1","images/rocket2","null","images/rocket1","","1","real","null","2","","",""
"d3-animate-choice","199","660073","0.0-76.0-1.21","29","750","11","Male","false","false","false","true","""event"",""trial"",""time""
""fullscreenenter"",""5"",""16099""
","
","
","""event"",""trial"",""time""
""fullscreenenter"",""5"",""16099""
","
","263.89999997615814","","48","","","3000","1","","","images/purpleplanet.jpg","images/alien4","images/alien3","images/rocket1","images/alien4","images/t.png","2","real","true","2","common","1","2022-02-11 00:15:38.519"
"two-step-fixation","200","661080","0.0-76.0-2.21","29","750","11","Male","false","false","false","true","""event"",""trial"",""time""
""fullscreenenter"",""5"",""16099""
","
","
","""event"",""trial"",""time""
""fullscreenenter"",""5"",""16099""
","
","","images/earth.jpg","","","","","","","","","","","","","","fixation","","","","","",""
"d3-animate-choice","201","663584","0.0-76.0-0.22","29","750","11","Male","false","false","false","true","""event"",""trial"",""time""
""fullscreenenter"",""5"",""16099""
","
","
","""event"",""trial"",""time""
""fullscreenenter"",""5"",""16099""
","
","497.3000000715256","","48","","","3000","1","","","images/earth.jpg","images/rocket1","images/rocket2","null","images/rocket1","","1","real","null","2","","",""
"d3-animate-choice","202","665883","0.0-76.0-1.22","29","750","11","Male","false","false","false","true","""event"",""trial"",""time""
""fullscreenenter"",""5"",""16099""
","
","
","""event"",""trial"",""time""
""fullscreenenter"",""5"",""16099""
","
","292.3000000715256","","48","","","3000","1","","","images/purpleplanet.jpg","images/alien4","images/alien3","images/rocket1","images/alien4","images/t.png","2","real","true","2","common","1","2022-02-11 00:15:44.328"
"two-step-fixation","203","666888","0.0-76.0-2.22","29","750","11","Male","false","false","false","true","""event"",""trial"",""time""
""fullscreenenter"",""5"",""16099""
","
","
","""event"",""trial"",""time""
""fullscreenenter"",""5"",""16099""
","
","","images/earth.jpg","","","","","","","","","","","","","","fixation","","","","","",""
"d3-animate-choice","204","669132","0.0-76.0-0.23","29","750","11","Male","false","false","false","true","""event"",""trial"",""time""
""fullscreenenter"",""5"",""16099""
","
","
","""event"",""trial"",""time""
""fullscreenenter"",""5"",""16099""
","
","237.39999997615814","","48","","","3000","1","","","images/earth.jpg","images/rocket1","images/rocket2","null","images/rocket1","","1","real","null","2","","",""
"d3-animate-choice","205","671813","0.0-76.0-1.23","29","750","11","Male","false","false","false","true","""event"",""trial"",""time""
""fullscreenenter"",""5"",""16099""
","
","
","""event"",""trial"",""time""
""fullscreenenter"",""5"",""16099""
","
","674.8000000715256","","48","","","3000","1","","","images/purpleplanet.jpg","images/alien4","images/alien3","images/rocket1","images/alien4","images/t.png","2","real","true","2","common","1","2022-02-11 00:15:50.259"
"two-step-fixation","206","672819","0.0-76.0-2.23","29","750","11","Male","false","false","false","true","""event"",""trial"",""time""
""fullscreenenter"",""5"",""16099""
","
","
","""event"",""trial"",""time""
""fullscreenenter"",""5"",""16099""
","
","","images/earth.jpg","","","","","","","","","","","","","","fixation","","","","","",""
"d3-animate-choice","207","675354","0.0-76.0-0.24","29","750","11","Male","false","false","false","true","""event"",""trial"",""time""
""fullscreenenter"",""5"",""16099""
","
","
","""event"",""trial"",""time""
""fullscreenenter"",""5"",""16099""
","
","529","","48","","","3000","1","","","images/earth.jpg","images/rocket1","images/rocket2","null","images/rocket1","","1","real","null","2","","",""
"d3-animate-choice","208","677683","0.0-76.0-1.24","29","750","11","Male","false","false","false","true","""event"",""trial"",""time""
""fullscreenenter"",""5"",""16099""
","
","
","""event"",""trial"",""time""
""fullscreenenter"",""5"",""16099""
","
","323.39999997615814","","48","","","3000","1","","","images/purpleplanet.jpg","images/alien4","images/alien3","images/rocket1","images/alien4","images/t.png","2","real","true","2","common","1","2022-02-11 00:15:56.128"
"two-step-fixation","209","678687","0.0-76.0-2.24","29","750","11","Male","false","false","false","true","""event"",""trial"",""time""
""fullscreenenter"",""5"",""16099""
","
","
","""event"",""trial"",""time""
""fullscreenenter"",""5"",""16099""
","
","","images/earth.jpg","","","","","","","","","","","","","","fixation","","","","","",""
"d3-animate-choice","210","680993","0.0-76.0-0.25","29","750","11","Male","false","false","false","true","""event"",""trial"",""time""
""fullscreenenter"",""5"",""16099""
","
","
","""event"",""trial"",""time""
""fullscreenenter"",""5"",""16099""
","
","302.7999999523163","","48","","","3000","1","","","images/earth.jpg","images/rocket1","images/rocket2","null","images/rocket1","","1","real","null","2","","",""
"d3-animate-choice","211","684013","0.0-76.0-1.25","29","750","11","Male","false","false","false","true","""event"",""trial"",""time""
""fullscreenenter"",""5"",""16099""
","
","
","""event"",""trial"",""time""
""fullscreenenter"",""5"",""16099""
","
","1013.3999999761581","","48","","","3000","1","","","images/redplanet1.jpg","images/alien2","images/alien1","images/rocket1","images/alien2","images/nothing.png","2","real","false","2","rare","0","2022-02-11 00:16:02.458"
"two-step-fixation","212","685019","0.0-76.0-2.25","29","750","11","Male","false","false","false","true","""event"",""trial"",""time""
""fullscreenenter"",""5"",""16099""
","
","
","""event"",""trial"",""time""
""fullscreenenter"",""5"",""16099""
","
","","images/earth.jpg","","","","","","","","","","","","","","fixation","","","","","",""
"d3-animate-choice","213","687314","0.0-76.0-0.26","29","750","11","Male","false","false","false","true","""event"",""trial"",""time""
""fullscreenenter"",""5"",""16099""
","
","
","""event"",""trial"",""time""
""fullscreenenter"",""5"",""16099""
","
","288","","48","","","3000","1","","","images/earth.jpg","images/rocket1","images/rocket2","null","images/rocket1","","1","real","null","2","","",""
"d3-animate-choice","214","689633","0.0-76.0-1.26","29","750","11","Male","false","false","false","true","""event"",""trial"",""time""
""fullscreenenter"",""5"",""16099""
","
","
","""event"",""trial"",""time""
""fullscreenenter"",""5"",""16099""
","
","312.2000000476837","","48","","","3000","1","","","images/purpleplanet.jpg","images/alien4","images/alien3","images/rocket1","images/alien4","images/t.png","2","real","true","2","common","1","2022-02-11 00:16:08.078"
"two-step-fixation","215","690637","0.0-76.0-2.26","29","750","11","Male","false","false","false","true","""event"",""trial"",""time""
""fullscreenenter"",""5"",""16099""
","
","
","""event"",""trial"",""time""
""fullscreenenter"",""5"",""16099""
","
","","images/earth.jpg","","","","","","","","","","","","","","fixation","","","","","",""
"d3-animate-choice","216","692893","0.0-76.0-0.27","29","750","11","Male","false","false","false","true","""event"",""trial"",""time""
""fullscreenenter"",""5"",""16099""
","
","
","""event"",""trial"",""time""
""fullscreenenter"",""5"",""16099""
","
","251.69999992847443","","48","","","3000","1","","","images/earth.jpg","images/rocket1","images/rocket2","null","images/rocket1","","1","real","null","2","","",""
"d3-animate-choice","217","695241","0.0-76.0-1.27","29","750","11","Male","false","false","false","true","""event"",""trial"",""time""
""fullscreenenter"",""5"",""16099""
","
","
","""event"",""trial"",""time""
""fullscreenenter"",""5"",""16099""
","
","342.5","","48","","","3000","1","","","images/redplanet1.jpg","images/alien2","images/alien1","images/rocket1","images/alien2","images/t.png","2","real","false","2","rare","1","2022-02-11 00:16:13.687"
"two-step-fixation","218","696247","0.0-76.0-2.27","29","750","11","Male","false","false","false","true","""event"",""trial"",""time""
""fullscreenenter"",""5"",""16099""
","
","
","""event"",""trial"",""time""
""fullscreenenter"",""5"",""16099""
","
","","images/earth.jpg","","","","","","","","","","","","","","fixation","","","","","",""
"d3-animate-choice","219","698553","0.0-76.0-0.28","29","750","11","Male","false","false","false","true","""event"",""trial"",""time""
""fullscreenenter"",""5"",""16099""
","
","
","""event"",""trial"",""time""
""fullscreenenter"",""5"",""16099""
","
","299.89999997615814","","48","","","3000","1","","","images/earth.jpg","images/rocket1","images/rocket2","null","images/rocket1","","1","real","null","2","","",""
"d3-animate-choice","220","700852","0.0-76.0-1.28","29","750","11","Male","false","false","false","true","""event"",""trial"",""time""
""fullscreenenter"",""5"",""16099""
","
","
","""event"",""trial"",""time""
""fullscreenenter"",""5"",""16099""
","
","293.60000002384186","","48","","","3000","1","","","images/purpleplanet.jpg","images/alien4","images/alien3","images/rocket1","images/alien4","images/t.png","2","real","true","2","common","1","2022-02-11 00:16:19.298"
"two-step-fixation","221","701859","0.0-76.0-2.28","29","750","11","Male","false","false","false","true","""event"",""trial"",""time""
""fullscreenenter"",""5"",""16099""
","
","
","""event"",""trial"",""time""
""fullscreenenter"",""5"",""16099""
","
","","images/earth.jpg","","","","","","","","","","","","","","fixation","","","","","",""
"d3-animate-choice","222","703865","0.0-76.0-0.29","29","750","11","Male","false","false","false","true","""event"",""trial"",""time""
""fullscreenenter"",""5"",""16099""
","
","
","""event"",""trial"",""time""
""fullscreenenter"",""5"",""16099""
","
","0.10000002384185791","","48","","","3000","1","","","images/earth.jpg","images/rocket1","images/rocket2","null","images/rocket1","","1","real","null","2","","",""
"d3-animate-choice","223","706283","0.0-76.0-1.29","29","750","11","Male","false","false","false","true","""event"",""trial"",""time""
""fullscreenenter"",""5"",""16099""
","
","
","""event"",""trial"",""time""
""fullscreenenter"",""5"",""16099""
","
","409.90000009536743","","48","","","3000","1","","","images/purpleplanet.jpg","images/alien4","images/alien3","images/rocket1","images/alien4","images/t.png","2","real","true","2","common","1","2022-02-11 00:16:24.728"
"two-step-fixation","224","707290","0.0-76.0-2.29","29","750","11","Male","false","false","false","true","""event"",""trial"",""time""
""fullscreenenter"",""5"",""16099""
","
","
","""event"",""trial"",""time""
""fullscreenenter"",""5"",""16099""
","
","","images/earth.jpg","","","","","","","","","","","","","","fixation","","","","","",""
"d3-animate-choice","225","709593","0.0-76.0-0.30","29","750","11","Male","false","false","false","true","""event"",""trial"",""time""
""fullscreenenter"",""5"",""16099""
","
","
","""event"",""trial"",""time""
""fullscreenenter"",""5"",""16099""
","
","296.89999997615814","","48","","","3000","1","","","images/earth.jpg","images/rocket1","images/rocket2","null","images/rocket1","","1","real","null","2","","",""
"d3-animate-choice","226","712242","0.0-76.0-1.30","29","750","11","Male","false","false","false","true","""event"",""trial"",""time""
""fullscreenenter"",""5"",""16099""
","
","
","""event"",""trial"",""time""
""fullscreenenter"",""5"",""16099""
","
","642.2999999523163","","48","","","3000","1","","","images/redplanet1.jpg","images/alien2","images/alien1","images/rocket1","images/alien2","images/t.png","2","real","false","2","rare","1","2022-02-11 00:16:30.687"
"two-step-fixation","227","713250","0.0-76.0-2.30","29","750","11","Male","false","false","false","true","""event"",""trial"",""time""
""fullscreenenter"",""5"",""16099""
","
","
","""event"",""trial"",""time""
""fullscreenenter"",""5"",""16099""
","
","","images/earth.jpg","","","","","","","","","","","","","","fixation","","","","","",""
"d3-animate-choice","228","715524","0.0-76.0-0.31","29","750","11","Male","false","false","false","true","""event"",""trial"",""time""
""fullscreenenter"",""5"",""16099""
","
","
","""event"",""trial"",""time""
""fullscreenenter"",""5"",""16099""
","
","266.1999999284744","","48","","","3000","1","","","images/earth.jpg","images/rocket1","images/rocket2","null","images/rocket1","","1","real","null","2","","",""
"d3-animate-choice","229","717873","0.0-76.0-1.31","29","750","11","Male","false","false","false","true","""event"",""trial"",""time""
""fullscreenenter"",""5"",""16099""
","
","
","""event"",""trial"",""time""
""fullscreenenter"",""5"",""16099""
","
","341.7000000476837","","48","","","3000","1","","","images/redplanet1.jpg","images/alien2","images/alien1","images/rocket1","images/alien2","images/t.png","2","real","false","2","rare","1","2022-02-11 00:16:36.318"
"two-step-fixation","230","718879","0.0-76.0-2.31","29","750","11","Male","false","false","false","true","""event"",""trial"",""time""
""fullscreenenter"",""5"",""16099""
","
","
","""event"",""trial"",""time""
""fullscreenenter"",""5"",""16099""
","
","","images/earth.jpg","","","","","","","","","","","","","","fixation","","","","","",""
"d3-animate-choice","231","720933","0.0-76.0-0.32","29","750","11","Male","false","false","false","true","""event"",""trial"",""time""
""fullscreenenter"",""5"",""16099""
","
","
","""event"",""trial"",""time""
""fullscreenenter"",""5"",""16099""
","
","50.200000047683716","","48","","","3000","1","","","images/earth.jpg","images/rocket1","images/rocket2","null","images/rocket1","","1","real","null","2","","",""
"d3-animate-choice","232","723303","0.0-76.0-1.32","29","750","11","Male","false","false","false","true","""event"",""trial"",""time""
""fullscreenenter"",""5"",""16099""
","
","
","""event"",""trial"",""time""
""fullscreenenter"",""5"",""16099""
","
","366.39999997615814","","48","","","3000","1","","","images/purpleplanet.jpg","images/alien4","images/alien3","images/rocket1","images/alien4","images/t.png","2","real","true","2","common","1","2022-02-11 00:16:41.748"
"two-step-fixation","233","724309","0.0-76.0-2.32","29","750","11","Male","false","false","false","true","""event"",""trial"",""time""
""fullscreenenter"",""5"",""16099""
","
","
","""event"",""trial"",""time""
""fullscreenenter"",""5"",""16099""
","
","","images/earth.jpg","","","","","","","","","","","","","","fixation","","","","","",""
"d3-animate-choice","234","726605","0.0-76.0-0.33","29","750","11","Male","false","false","false","true","""event"",""trial"",""time""
""fullscreenenter"",""5"",""16099""
","
","
","""event"",""trial"",""time""
""fullscreenenter"",""5"",""16099""
","
","288.10000002384186","","48","","","3000","1","","","images/earth.jpg","images/rocket1","images/rocket2","null","images/rocket1","","1","real","null","2","","",""
"d3-animate-choice","235","729272","0.0-76.0-1.33","29","750","11","Male","false","false","false","true","""event"",""trial"",""time""
""fullscreenenter"",""5"",""16099""
","
","
","""event"",""trial"",""time""
""fullscreenenter"",""5"",""16099""
","
","658.2000000476837","","48","","","3000","1","","","images/redplanet1.jpg","images/alien2","images/alien1","images/rocket1","images/alien2","images/nothing.png","2","real","false","2","rare","0","2022-02-11 00:16:47.717"
"two-step-fixation","236","730278","0.0-76.0-2.33","29","750","11","Male","false","false","false","true","""event"",""trial"",""time""
""fullscreenenter"",""5"",""16099""
","
","
","""event"",""trial"",""time""
""fullscreenenter"",""5"",""16099""
","
","","images/earth.jpg","","","","","","","","","","","","","","fixation","","","","","",""
"d3-animate-choice","237","732563","0.0-76.0-0.34","29","750","11","Male","false","false","false","true","""event"",""trial"",""time""
""fullscreenenter"",""5"",""16099""
","
","
","""event"",""trial"",""time""
""fullscreenenter"",""5"",""16099""
","
","278","","49","","","3000","1","","","images/earth.jpg","images/rocket1","images/rocket2","null","images/rocket2","","1","real","null","1","","",""
"d3-animate-choice","238","735043","0.0-76.0-1.34","29","750","11","Male","false","false","false","true","""event"",""trial"",""time""
""fullscreenenter"",""5"",""16099""
","
","
","""event"",""trial"",""time""
""fullscreenenter"",""5"",""16099""
","
","475.6999999284744","","48","","","3000","1","","","images/purpleplanet.jpg","images/alien4","images/alien3","images/rocket2","images/alien4","images/t.png","2","real","false","2","rare","1","2022-02-11 00:16:53.489"
"two-step-fixation","239","736049","0.0-76.0-2.34","29","750","11","Male","false","false","false","true","""event"",""trial"",""time""
""fullscreenenter"",""5"",""16099""
","
","
","""event"",""trial"",""time""
""fullscreenenter"",""5"",""16099""
","
","","images/earth.jpg","","","","","","","","","","","","","","fixation","","","","","",""
"d3-animate-choice","240","738363","0.0-76.0-0.35","29","750","11","Male","false","false","false","true","""event"",""trial"",""time""
""fullscreenenter"",""5"",""16099""
","
","
","""event"",""trial"",""time""
""fullscreenenter"",""5"",""16099""
","
","305.5","","49","","","3000","1","","","images/earth.jpg","images/rocket1","images/rocket2","null","images/rocket2","","1","real","null","1","","",""
"d3-animate-choice","241","741342","0.0-76.0-1.35","29","750","11","Male","false","false","false","true","""event"",""trial"",""time""
""fullscreenenter"",""5"",""16099""
","
","
","""event"",""trial"",""time""
""fullscreenenter"",""5"",""16099""
","
","973.2999999523163","","48","","","3000","1","","","images/redplanet1.jpg","images/alien2","images/alien1","images/rocket2","images/alien2","images/t.png","2","real","true","2","common","1","2022-02-11 00:16:59.788"
"two-step-fixation","242","742349","0.0-76.0-2.35","29","750","11","Male","false","false","false","true","""event"",""trial"",""time""
""fullscreenenter"",""5"",""16099""
","
","
","""event"",""trial"",""time""
""fullscreenenter"",""5"",""16099""
","
","","images/earth.jpg","","","","","","","","","","","","","","fixation","","","","","",""
"d3-animate-choice","243","744622","0.0-76.0-0.36","29","750","11","Male","false","false","false","true","""event"",""trial"",""time""
""fullscreenenter"",""5"",""16099""
","
","
","""event"",""trial"",""time""
""fullscreenenter"",""5"",""16099""
","
","268.10000002384186","","48","","","3000","1","","","images/earth.jpg","images/rocket1","images/rocket2","null","images/rocket1","","1","real","null","2","","",""
"d3-animate-choice","244","746933","0.0-76.0-1.36","29","750","11","Male","false","false","false","true","""event"",""trial"",""time""
""fullscreenenter"",""5"",""16099""
","
","
","""event"",""trial"",""time""
""fullscreenenter"",""5"",""16099""
","
","303.7999999523163","","48","","","3000","1","","","images/purpleplanet.jpg","images/alien4","images/alien3","images/rocket1","images/alien4","images/nothing.png","2","real","true","2","common","0","2022-02-11 00:17:05.378"
"two-step-fixation","245","747935","0.0-76.0-2.36","29","750","11","Male","false","false","false","true","""event"",""trial"",""time""
""fullscreenenter"",""5"",""16099""
","
","
","""event"",""trial"",""time""
""fullscreenenter"",""5"",""16099""
","
","","images/earth.jpg","","","","","","","","","","","","","","fixation","","","","","",""
"d3-animate-choice","246","750303","0.0-76.0-0.37","29","750","11","Male","false","false","false","true","""event"",""trial"",""time""
""fullscreenenter"",""5"",""16099""
","
","
","""event"",""trial"",""time""
""fullscreenenter"",""5"",""16099""
","
","362.2999999523163","","48","","","3000","1","","","images/earth.jpg","images/rocket1","images/rocket2","null","images/rocket1","","1","real","null","2","","",""
"d3-animate-choice","247","752633","0.0-76.0-1.37","29","750","11","Male","false","false","false","true","""event"",""trial"",""time""
""fullscreenenter"",""5"",""16099""
","
","
","""event"",""trial"",""time""
""fullscreenenter"",""5"",""16099""
","
