"trial_type","trial_index","time_elapsed","internal_node_id","participant_id","subject_id","age","gender","rocket_sides","red_planet_first_rocket","red_display_order","purple_display_order","interactions","blur_events","focus_events","fullscreenenter_events","fullscreenexit_events","rt","stimulus","key_press","button_pressed","success","duration","valid_pressed","rts","keys","planet_text","right_text","left_text","center_text","chosen_text","reward_text","trial_stage","practice_trial","transition_type","choice","transition","reward","timestamp"
"pavlovia","0","4","0.0-0.0","534","668","23","Female","false","true","true","false","""event"",""trial"",""time""
""blur"",""0"",""0""
""focus"",""1"",""36399""
","""event"",""trial"",""time""
""blur"",""0"",""0""
","""event"",""trial"",""time""
""focus"",""1"",""36399""
","
","
","","","","","","","","","","","","","","","","","","","","","",""
"html-keyboard-response","1","37835","0.0-1.0","534","668","23","Female","false","true","true","false","""event"",""trial"",""time""
""blur"",""0"",""0""
""focus"",""1"",""36399""
","""event"",""trial"",""time""
""blur"",""0"",""0""
","""event"",""trial"",""time""
""focus"",""1"",""36399""
","
","
","37831.700000047684","Welcome! Press the space bar to begin.","32","","","","","","","","","","","","","","","","","","",""
"audio-keyboard-response","2","41474","0.0-2.0","534","668","23","Female","false","true","true","false","""event"",""trial"",""time""
""blur"",""0"",""0""
""focus"",""1"",""36399""
","""event"",""trial"",""time""
""blur"",""0"",""0""
","""event"",""trial"",""time""
""focus"",""1"",""36399""
","
","
","3563","audio/beep_loop.wav","32","","","","","","","","","","","","","","","","","","",""
"audio-button-response","3","44601","0.0-3.0","534","668","23","Female","false","true","true","false","""event"",""trial"",""time""
""blur"",""0"",""0""
""focus"",""1"",""36399""
","""event"",""trial"",""time""
""blur"",""0"",""0""
","""event"",""trial"",""time""
""focus"",""1"",""36399""
","
","
","NaN","audio/fish.mp3","","1","","","","","","","","","","","","","","","","","",""
"audio-button-response","4","47274","0.0-4.0","534","668","23","Female","false","true","true","false","""event"",""trial"",""time""
""blur"",""0"",""0""
""focus"",""1"",""36399""
""fullscreenenter"",""5"",""51782""
","""event"",""trial"",""time""
""blur"",""0"",""0""
","""event"",""trial"",""time""
""focus"",""1"",""36399""
","""event"",""trial"",""time""
""fullscreenenter"",""5"",""51782""
","
","NaN","audio/tiger.mp3","","4","","","","","","","","","","","","","","","","","",""
"fullscreen","5","52738","0.0-5.0","534","668","23","Female","false","true","true","false","""event"",""trial"",""time""
""blur"",""0"",""0""
""focus"",""1"",""36399""
""fullscreenenter"",""5"",""51782""
","""event"",""trial"",""time""
""blur"",""0"",""0""
","""event"",""trial"",""time""
""focus"",""1"",""36399""
","""event"",""trial"",""time""
""fullscreenenter"",""5"",""51782""
","
","","","","","true","","","","","","","","","","","","","","","","",""
"d3-instructions","6","66333","0.0-6.0","534","668","23","Female","false","true","true","false","""event"",""trial"",""time""
""blur"",""0"",""0""
""focus"",""1"",""36399""
""fullscreenenter"",""5"",""51782""
","""event"",""trial"",""time""
""blur"",""0"",""0""
","""event"",""trial"",""time""
""focus"",""1"",""36399""
","""event"",""trial"",""time""
""fullscreenenter"",""5"",""51782""
","
","","","","","","","","","","","","","","","","","","","","","",""
"d3-instructions","7","75731","0.0-7.0","534","668","23","Female","false","true","true","false","""event"",""trial"",""time""
""blur"",""0"",""0""
""focus"",""1"",""36399""
""fullscreenenter"",""5"",""51782""
","""event"",""trial"",""time""
""blur"",""0"",""0""
","""event"",""trial"",""time""
""focus"",""1"",""36399""
","""event"",""trial"",""time""
""fullscreenenter"",""5"",""51782""
","
","","","","","","","","","","","","","","","","","","","","","",""
"d3-instructions","8","83512","0.0-8.0","534","668","23","Female","false","true","true","false","""event"",""trial"",""time""
""blur"",""0"",""0""
""focus"",""1"",""36399""
""fullscreenenter"",""5"",""51782""
","""event"",""trial"",""time""
""blur"",""0"",""0""
","""event"",""trial"",""time""
""focus"",""1"",""36399""
","""event"",""trial"",""time""
""fullscreenenter"",""5"",""51782""
","
","","","","","","","","","","","","","","","","","","","","","",""
"d3-instructions","9","94146","0.0-9.0","534","668","23","Female","false","true","true","false","""event"",""trial"",""time""
""blur"",""0"",""0""
""focus"",""1"",""36399""
""fullscreenenter"",""5"",""51782""
","""event"",""trial"",""time""
""blur"",""0"",""0""
","""event"",""trial"",""time""
""focus"",""1"",""36399""
","""event"",""trial"",""time""
""fullscreenenter"",""5"",""51782""
","
","","","","","","","","","","","","","","","","","","","","","",""
"d3-instructions","10","110055","0.0-10.0","534","668","23","Female","false","true","true","false","""event"",""trial"",""time""
""blur"",""0"",""0""
""focus"",""1"",""36399""
""fullscreenenter"",""5"",""51782""
","""event"",""trial"",""time""
""blur"",""0"",""0""
","""event"",""trial"",""time""
""focus"",""1"",""36399""
","""event"",""trial"",""time""
""fullscreenenter"",""5"",""51782""
","
","","","","","","","","","","","","","","","","","","","","","",""
"d3-animate-choice","11","113029","0.0-11.0","534","668","23","Female","false","true","true","false","""event"",""trial"",""time""
""blur"",""0"",""0""
""focus"",""1"",""36399""
""fullscreenenter"",""5"",""51782""
","""event"",""trial"",""time""
""blur"",""0"",""0""
","""event"",""trial"",""time""
""focus"",""1"",""36399""
","""event"",""trial"",""time""
""fullscreenenter"",""5"",""51782""
","
","963.2999999523163","","49","","","3000","1","2436.899999976158","48","images/tutgreenplanet.jpg","images/tutalien1","images/tutalien2","null","images/tutalien2","","NA","practice","null","","","",""
"d3-animate-choice","12","115418","0.0-12.0","534","668","23","Female","false","true","true","false","""event"",""trial"",""time""
""blur"",""0"",""0""
""focus"",""1"",""36399""
""fullscreenenter"",""5"",""51782""
","""event"",""trial"",""time""
""blur"",""0"",""0""
","""event"",""trial"",""time""
""focus"",""1"",""36399""
","""event"",""trial"",""time""
""fullscreenenter"",""5"",""51782""
","
","377.5","","48","","","3000","1","","","images/tutgreenplanet.jpg","images/tutalien1","images/tutalien2","null","images/tutalien1","","NA","practice","null","","","",""
"d3-animate-choice","13","118543","0.0-13.0","534","668","23","Female","false","true","true","false","""event"",""trial"",""time""
""blur"",""0"",""0""
""focus"",""1"",""36399""
""fullscreenenter"",""5"",""51782""
","""event"",""trial"",""time""
""blur"",""0"",""0""
","""event"",""trial"",""time""
""focus"",""1"",""36399""
","""event"",""trial"",""time""
""fullscreenenter"",""5"",""51782""
","
","1114.6000000238419","","49","","","3000","1","","","images/tutgreenplanet.jpg","images/tutalien1","images/tutalien2","null","images/tutalien2","","NA","practice","null","","","",""
"d3-animate-choice","14","121265","0.0-14.0","534","668","23","Female","false","true","true","false","""event"",""trial"",""time""
""blur"",""0"",""0""
""focus"",""1"",""36399""
""fullscreenenter"",""5"",""51782""
","""event"",""trial"",""time""
""blur"",""0"",""0""
","""event"",""trial"",""time""
""focus"",""1"",""36399""
","""event"",""trial"",""time""
""fullscreenenter"",""5"",""51782""
","
","712.2999999523163","","48","","","3000","1","","","images/tutgreenplanet.jpg","images/tutalien1","images/tutalien2","null","images/tutalien1","","NA","practice","null","","","",""
"d3-instructions","15","130801","0.0-15.0","534","668","23","Female","false","true","true","false","""event"",""trial"",""time""
""blur"",""0"",""0""
""focus"",""1"",""36399""
""fullscreenenter"",""5"",""51782""
","""event"",""trial"",""time""
""blur"",""0"",""0""
","""event"",""trial"",""time""
""focus"",""1"",""36399""
","""event"",""trial"",""time""
""fullscreenenter"",""5"",""51782""
","
","","","","","","","","","","","","","","","","","","","","","",""
"d3-instructions","16","139216","0.0-16.0","534","668","23","Female","false","true","true","false","""event"",""trial"",""time""
""blur"",""0"",""0""
""focus"",""1"",""36399""
""fullscreenenter"",""5"",""51782""
","""event"",""trial"",""time""
""blur"",""0"",""0""
","""event"",""trial"",""time""
""focus"",""1"",""36399""
","""event"",""trial"",""time""
""fullscreenenter"",""5"",""51782""
","
","","","","","","","","","","","","","","","","","","","","","",""
"d3-instructions","17","148167","0.0-17.0","534","668","23","Female","false","true","true","false","""event"",""trial"",""time""
""blur"",""0"",""0""
""focus"",""1"",""36399""
""fullscreenenter"",""5"",""51782""
","""event"",""trial"",""time""
""blur"",""0"",""0""
","""event"",""trial"",""time""
""focus"",""1"",""36399""
","""event"",""trial"",""time""
""fullscreenenter"",""5"",""51782""
","
","","","","","","","","","","","","","","","","","","","","","",""
"d3-instructions","18","160558","0.0-18.0","534","668","23","Female","false","true","true","false","""event"",""trial"",""time""
""blur"",""0"",""0""
""focus"",""1"",""36399""
""fullscreenenter"",""5"",""51782""
","""event"",""trial"",""time""
""blur"",""0"",""0""
","""event"",""trial"",""time""
""focus"",""1"",""36399""
","""event"",""trial"",""time""
""fullscreenenter"",""5"",""51782""
","
","","","","","","","","","","","","","","","","","","","","","",""
"d3-instructions","19","169906","0.0-19.0","534","668","23","Female","false","true","true","false","""event"",""trial"",""time""
""blur"",""0"",""0""
""focus"",""1"",""36399""
""fullscreenenter"",""5"",""51782""
","""event"",""trial"",""time""
""blur"",""0"",""0""
","""event"",""trial"",""time""
""focus"",""1"",""36399""
","""event"",""trial"",""time""
""fullscreenenter"",""5"",""51782""
","
","","","","","","","","","","","","","","","","","","","","","",""
"d3-animate-choice","20","173420","0.0-20.0","534","668","23","Female","false","true","true","false","""event"",""trial"",""time""
""blur"",""0"",""0""
""focus"",""1"",""36399""
""fullscreenenter"",""5"",""51782""
","""event"",""trial"",""time""
""blur"",""0"",""0""
","""event"",""trial"",""time""
""focus"",""1"",""36399""
","""event"",""trial"",""time""
""fullscreenenter"",""5"",""51782""
","
","1505.8999999761581","","49","","","3000","1","","","images/tutyellowplanet.jpg","null","images/tutalien3","null","images/tutalien3","images/t.png","NA","practice","null","","","",""
"d3-animate-choice","21","175750","0.0-21.0","534","668","23","Female","false","true","true","false","""event"",""trial"",""time""
""blur"",""0"",""0""
""focus"",""1"",""36399""
""fullscreenenter"",""5"",""51782""
","""event"",""trial"",""time""
""blur"",""0"",""0""
","""event"",""trial"",""time""
""focus"",""1"",""36399""
","""event"",""trial"",""time""
""fullscreenenter"",""5"",""51782""
","
","320.7000000476837","","49","","","3000","1","","","images/tutyellowplanet.jpg","null","images/tutalien3","null","images/tutalien3","images/t.png","NA","practice","null","","","",""
"d3-animate-choice","22","178694","0.0-22.0","534","668","23","Female","false","true","true","false","""event"",""trial"",""time""
""blur"",""0"",""0""
""focus"",""1"",""36399""
""fullscreenenter"",""5"",""51782""
","""event"",""trial"",""time""
""blur"",""0"",""0""
","""event"",""trial"",""time""
""focus"",""1"",""36399""
","""event"",""trial"",""time""
""fullscreenenter"",""5"",""51782""
","
","934.3999999761581","","49","","","3000","1","","","images/tutyellowplanet.jpg","null","images/tutalien3","null","images/tutalien3","images/t.png","NA","practice","null","","","",""
"d3-animate-choice","23","181903","0.0-23.0","534","668","23","Female","false","true","true","false","""event"",""trial"",""time""
""blur"",""0"",""0""
""focus"",""1"",""36399""
""fullscreenenter"",""5"",""51782""
","""event"",""trial"",""time""
""blur"",""0"",""0""
","""event"",""trial"",""time""
""focus"",""1"",""36399""
","""event"",""trial"",""time""
""fullscreenenter"",""5"",""51782""
","
","1204.5","","49","","","3000","1","","","images/tutyellowplanet.jpg","null","images/tutalien3","null","images/tutalien3","images/nothing.png","NA","practice","null","","","",""
"d3-animate-choice","24","185119","0.0-24.0","534","668","23","Female","false","true","true","false","""event"",""trial"",""time""
""blur"",""0"",""0""
""focus"",""1"",""36399""
""fullscreenenter"",""5"",""51782""
","""event"",""trial"",""time""
""blur"",""0"",""0""
","""event"",""trial"",""time""
""focus"",""1"",""36399""
","""event"",""trial"",""time""
""fullscreenenter"",""5"",""51782""
","
","1207.7000000476837","","49","","","3000","1","2771.7000000476837","49","images/tutyellowplanet.jpg","null","images/tutalien3","null","images/tutalien3","images/t.png","NA","practice","null","","","",""
"d3-animate-choice","25","190660","0.0-25.0","534","668","23","Female","false","true","true","false","""event"",""trial"",""time""
""blur"",""0"",""0""
""focus"",""1"",""36399""
""fullscreenenter"",""5"",""51782""
","""event"",""trial"",""time""
""blur"",""0"",""0""
","""event"",""trial"",""time""
""focus"",""1"",""36399""
","""event"",""trial"",""time""
""fullscreenenter"",""5"",""51782""
","
","3536","","49","","","3000","1","","","images/tutyellowplanet.jpg","null","images/tutalien3","null","images/tutalien3","images/t.png","NA","practice","null","","","",""
"d3-animate-choice","26","193327","0.0-26.0","534","668","23","Female","false","true","true","false","""event"",""trial"",""time""
""blur"",""0"",""0""
""focus"",""1"",""36399""
""fullscreenenter"",""5"",""51782""
","""event"",""trial"",""time""
""blur"",""0"",""0""
","""event"",""trial"",""time""
""focus"",""1"",""36399""
","""event"",""trial"",""time""
""fullscreenenter"",""5"",""51782""
","
","654.1000000238419","","49","","","3000","1","","","images/tutyellowplanet.jpg","null","images/tutalien3","null","images/tutalien3","images/t.png","NA","practice","null","","","",""
"d3-animate-choice","27","195940","0.0-27.0","534","668","23","Female","false","true","true","false","""event"",""trial"",""time""
""blur"",""0"",""0""
""focus"",""1"",""36399""
""fullscreenenter"",""5"",""51782""
","""event"",""trial"",""time""
""blur"",""0"",""0""
","""event"",""trial"",""time""
""focus"",""1"",""36399""
","""event"",""trial"",""time""
""fullscreenenter"",""5"",""51782""
","
","606.6000000238419","","49","","","3000","1","","","images/tutyellowplanet.jpg","null","images/tutalien3","null","images/tutalien3","images/t.png","NA","practice","null","","","",""
"d3-animate-choice","28","199068","0.0-28.0","534","668","23","Female","false","true","true","false","""event"",""trial"",""time""
""blur"",""0"",""0""
""focus"",""1"",""36399""
""fullscreenenter"",""5"",""51782""
","""event"",""trial"",""time""
""blur"",""0"",""0""
","""event"",""trial"",""time""
""focus"",""1"",""36399""
","""event"",""trial"",""time""
""fullscreenenter"",""5"",""51782""
","
","1119.2000000476837","","49","","","3000","1","","","images/tutyellowplanet.jpg","null","images/tutalien3","null","images/tutalien3","images/t.png","NA","practice","null","","","",""
"d3-animate-choice","29","202039","0.0-29.0","534","668","23","Female","false","true","true","false","""event"",""trial"",""time""
""blur"",""0"",""0""
""focus"",""1"",""36399""
""fullscreenenter"",""5"",""51782""
","""event"",""trial"",""time""
""blur"",""0"",""0""
","""event"",""trial"",""time""
""focus"",""1"",""36399""
","""event"",""trial"",""time""
""fullscreenenter"",""5"",""51782""
","
","964.1999999284744","","49","","","3000","1","","","images/tutyellowplanet.jpg","null","images/tutalien3","null","images/tutalien3","images/t.png","NA","practice","null","","","",""
"d3-instructions","30","211810","0.0-30.0","534","668","23","Female","false","true","true","false","""event"",""trial"",""time""
""blur"",""0"",""0""
""focus"",""1"",""36399""
""fullscreenenter"",""5"",""51782""
","""event"",""trial"",""time""
""blur"",""0"",""0""
","""event"",""trial"",""time""
""focus"",""1"",""36399""
","""event"",""trial"",""time""
""fullscreenenter"",""5"",""51782""
","
","","","","","","","","","","","","","","","","","","","","","",""
"d3-instructions","31","226361","0.0-31.0","534","668","23","Female","false","true","true","false","""event"",""trial"",""time""
""blur"",""0"",""0""
""focus"",""1"",""36399""
""fullscreenenter"",""5"",""51782""
","""event"",""trial"",""time""
""blur"",""0"",""0""
","""event"",""trial"",""time""
""focus"",""1"",""36399""
","""event"",""trial"",""time""
""fullscreenenter"",""5"",""51782""
","
","","","","","","","","","","","","","","","","","","","","","",""
"d3-instructions","32","236559","0.0-32.0","534","668","23","Female","false","true","true","false","""event"",""trial"",""time""
""blur"",""0"",""0""
""focus"",""1"",""36399""
""fullscreenenter"",""5"",""51782""
","""event"",""trial"",""time""
""blur"",""0"",""0""
","""event"",""trial"",""time""
""focus"",""1"",""36399""
","""event"",""trial"",""time""
""fullscreenenter"",""5"",""51782""
","
","","","","","","","","","","","","","","","","","","","","","",""
"d3-instructions","33","242068","0.0-33.0","534","668","23","Female","false","true","true","false","""event"",""trial"",""time""
""blur"",""0"",""0""
""focus"",""1"",""36399""
""fullscreenenter"",""5"",""51782""
","""event"",""trial"",""time""
""blur"",""0"",""0""
","""event"",""trial"",""time""
""focus"",""1"",""36399""
","""event"",""trial"",""time""
""fullscreenenter"",""5"",""51782""
","
","","","","","","","","","","","","","","","","","","","","","",""
"d3-animate-choice","34","244795","0.0-34.0","534","668","23","Female","false","true","true","false","""event"",""trial"",""time""
""blur"",""0"",""0""
""focus"",""1"",""36399""
""fullscreenenter"",""5"",""51782""
","""event"",""trial"",""time""
""blur"",""0"",""0""
","""event"",""trial"",""time""
""focus"",""1"",""36399""
","""event"",""trial"",""time""
""fullscreenenter"",""5"",""51782""
","
","722.4000000953674","","49","","","3000","1","","","images/tutgreenplanet.jpg","images/tutalien1","images/tutalien2","null","images/tutalien2","images/t.png","NA","practice","null","","","",""
"d3-animate-choice","35","247150","0.0-35.0","534","668","23","Female","false","true","true","false","""event"",""trial"",""time""
""blur"",""0"",""0""
""focus"",""1"",""36399""
""fullscreenenter"",""5"",""51782""
","""event"",""trial"",""time""
""blur"",""0"",""0""
","""event"",""trial"",""time""
""focus"",""1"",""36399""
","""event"",""trial"",""time""
""fullscreenenter"",""5"",""51782""
","
","349.8000000715256","","49","","","3000","1","","","images/tutgreenplanet.jpg","images/tutalien1","images/tutalien2","null","images/tutalien2","images/t.png","NA","practice","null","","","",""
"d3-animate-choice","36","249285","0.0-36.0","534","668","23","Female","false","true","true","false","""event"",""trial"",""time""
""blur"",""0"",""0""
""focus"",""1"",""36399""
""fullscreenenter"",""5"",""51782""
","""event"",""trial"",""time""
""blur"",""0"",""0""
","""event"",""trial"",""time""
""focus"",""1"",""36399""
","""event"",""trial"",""time""
""fullscreenenter"",""5"",""51782""
","
","130","","49","","","3000","1","","","images/tutgreenplanet.jpg","images/tutalien1","images/tutalien2","null","images/tutalien2","images/t.png","NA","practice","null","","","",""
"d3-animate-choice","37","251528","0.0-37.0","534","668","23","Female","false","true","true","false","""event"",""trial"",""time""
""blur"",""0"",""0""
""focus"",""1"",""36399""
""fullscreenenter"",""5"",""51782""
","""event"",""trial"",""time""
""blur"",""0"",""0""
","""event"",""trial"",""time""
""focus"",""1"",""36399""
","""event"",""trial"",""time""
""fullscreenenter"",""5"",""51782""
","
","233.60000002384186","","49","","","3000","1","","","images/tutgreenplanet.jpg","images/tutalien1","images/tutalien2","null","images/tutalien2","images/t.png","NA","practice","null","","","",""
"d3-animate-choice","38","253736","0.0-38.0","534","668","23","Female","false","true","true","false","""event"",""trial"",""time""
""blur"",""0"",""0""
""focus"",""1"",""36399""
""fullscreenenter"",""5"",""51782""
","""event"",""trial"",""time""
""blur"",""0"",""0""
","""event"",""trial"",""time""
""focus"",""1"",""36399""
","""event"",""trial"",""time""
""fullscreenenter"",""5"",""51782""
","
","200.70000004768372","","49","","","3000","1","","","images/tutgreenplanet.jpg","images/tutalien1","images/tutalien2","null","images/tutalien2","images/t.png","NA","practice","null","","","",""
"d3-animate-choice","39","256026","0.0-39.0","534","668","23","Female","false","true","true","false","""event"",""trial"",""time""
""blur"",""0"",""0""
""focus"",""1"",""36399""
""fullscreenenter"",""5"",""51782""
","""event"",""trial"",""time""
""blur"",""0"",""0""
","""event"",""trial"",""time""
""focus"",""1"",""36399""
","""event"",""trial"",""time""
""fullscreenenter"",""5"",""51782""
","
","284.6999999284744","","49","","","3000","1","","","images/tutgreenplanet.jpg","images/tutalien1","images/tutalien2","null","images/tutalien2","images/t.png","NA","practice","null","","","",""
"d3-animate-choice","40","258323","0.0-40.0","534","668","23","Female","false","true","true","false","""event"",""trial"",""time""
""blur"",""0"",""0""
""focus"",""1"",""36399""
""fullscreenenter"",""5"",""51782""
","""event"",""trial"",""time""
""blur"",""0"",""0""
","""event"",""trial"",""time""
""focus"",""1"",""36399""
","""event"",""trial"",""time""
""fullscreenenter"",""5"",""51782""
","
","290.7999999523163","","49","","","3000","1","","","images/tutgreenplanet.jpg","images/tutalien1","images/tutalien2","null","images/tutalien2","images/t.png","NA","practice","null","","","",""
"d3-animate-choice","41","260724","0.0-41.0","534","668","23","Female","false","true","true","false","""event"",""trial"",""time""
""blur"",""0"",""0""
""focus"",""1"",""36399""
""fullscreenenter"",""5"",""51782""
","""event"",""trial"",""time""
""blur"",""0"",""0""
","""event"",""trial"",""time""
""focus"",""1"",""36399""
","""event"",""trial"",""time""
""fullscreenenter"",""5"",""51782""
","
","391.5","","49","","","3000","1","","","images/tutgreenplanet.jpg","images/tutalien1","images/tutalien2","null","images/tutalien2","images/t.png","NA","practice","null","","","",""
"d3-animate-choice","42","264402","0.0-42.0","534","668","23","Female","false","true","true","false","""event"",""trial"",""time""
""blur"",""0"",""0""
""focus"",""1"",""36399""
""fullscreenenter"",""5"",""51782""
","""event"",""trial"",""time""
""blur"",""0"",""0""
","""event"",""trial"",""time""
""focus"",""1"",""36399""
","""event"",""trial"",""time""
""fullscreenenter"",""5"",""51782""
","
","1670.8999999761581","","49","","","3000","1","","","images/tutgreenplanet.jpg","images/tutalien1","images/tutalien2","null","images/tutalien2","images/t.png","NA","practice","null","","","",""
"d3-animate-choice","43","267267","0.0-43.0","534","668","23","Female","false","true","true","false","""event"",""trial"",""time""
""blur"",""0"",""0""
""focus"",""1"",""36399""
""fullscreenenter"",""5"",""51782""
","""event"",""trial"",""time""
""blur"",""0"",""0""
","""event"",""trial"",""time""
""focus"",""1"",""36399""
","""event"",""trial"",""time""
""fullscreenenter"",""5"",""51782""
","
","860.0999999046326","","49","","","3000","1","","","images/tutgreenplanet.jpg","images/tutalien1","images/tutalien2","null","images/tutalien2","images/t.png","NA","practice","null","","","",""
"d3-instructions","44","283207","0.0-44.0","534","668","23","Female","false","true","true","false","""event"",""trial"",""time""
""blur"",""0"",""0""
""focus"",""1"",""36399""
""fullscreenenter"",""5"",""51782""
","""event"",""trial"",""time""
""blur"",""0"",""0""
","""event"",""trial"",""time""
""focus"",""1"",""36399""
","""event"",""trial"",""time""
""fullscreenenter"",""5"",""51782""
","
","","","","","","","","","","","","","","","","","","","","","",""
"d3-instructions","45","294337","0.0-45.0","534","668","23","Female","false","true","true","false","""event"",""trial"",""time""
""blur"",""0"",""0""
""focus"",""1"",""36399""
""fullscreenenter"",""5"",""51782""
","""event"",""trial"",""time""
""blur"",""0"",""0""
","""event"",""trial"",""time""
""focus"",""1"",""36399""
","""event"",""trial"",""time""
""fullscreenenter"",""5"",""51782""
","
","","","","","","","","","","","","","","","","","","","","","",""
"d3-instructions","46","303938","0.0-46.0","534","668","23","Female","false","true","true","false","""event"",""trial"",""time""
""blur"",""0"",""0""
""focus"",""1"",""36399""
""fullscreenenter"",""5"",""51782""
","""event"",""trial"",""time""
""blur"",""0"",""0""
","""event"",""trial"",""time""
""focus"",""1"",""36399""
","""event"",""trial"",""time""
""fullscreenenter"",""5"",""51782""
","
","","","","","","","","","","","","","","","","","","","","","",""
"d3-instructions","47","320753","0.0-47.0","534","668","23","Female","false","true","true","false","""event"",""trial"",""time""
""blur"",""0"",""0""
""focus"",""1"",""36399""
""fullscreenenter"",""5"",""51782""
","""event"",""trial"",""time""
""blur"",""0"",""0""
","""event"",""trial"",""time""
""focus"",""1"",""36399""
","""event"",""trial"",""time""
""fullscreenenter"",""5"",""51782""
","
","","","","","","","","","","","","","","","","","","","","","",""
"d3-instructions","48","328814","0.0-48.0","534","668","23","Female","false","true","true","false","""event"",""trial"",""time""
""blur"",""0"",""0""
""focus"",""1"",""36399""
""fullscreenenter"",""5"",""51782""
","""event"",""trial"",""time""
""blur"",""0"",""0""
","""event"",""trial"",""time""
""focus"",""1"",""36399""
","""event"",""trial"",""time""
""fullscreenenter"",""5"",""51782""
","
","","","","","","","","","","","","","","","","","","","","","",""
"d3-instructions","49","341035","0.0-49.0","534","668","23","Female","false","true","true","false","""event"",""trial"",""time""
""blur"",""0"",""0""
""focus"",""1"",""36399""
""fullscreenenter"",""5"",""51782""
","""event"",""trial"",""time""
""blur"",""0"",""0""
","""event"",""trial"",""time""
""focus"",""1"",""36399""
","""event"",""trial"",""time""
""fullscreenenter"",""5"",""51782""
","
","","","","","","","","","","","","","","","","","","","","","",""
"d3-instructions","50","354761","0.0-50.0","534","668","23","Female","false","true","true","false","""event"",""trial"",""time""
""blur"",""0"",""0""
""focus"",""1"",""36399""
""fullscreenenter"",""5"",""51782""
","""event"",""trial"",""time""
""blur"",""0"",""0""
","""event"",""trial"",""time""
""focus"",""1"",""36399""
","""event"",""trial"",""time""
""fullscreenenter"",""5"",""51782""
","
","","","","","","","","","","","","","","","","","","","","","",""
"d3-instructions","51","357610","0.0-51.0","534","668","23","Female","false","true","true","false","""event"",""trial"",""time""
""blur"",""0"",""0""
""focus"",""1"",""36399""
""fullscreenenter"",""5"",""51782""
","""event"",""trial"",""time""
""blur"",""0"",""0""
","""event"",""trial"",""time""
""focus"",""1"",""36399""
","""event"",""trial"",""time""
""fullscreenenter"",""5"",""51782""
","
","","","","","","","","","","","","","","","","","","","","","",""
"d3-instructions","52","359668","0.0-52.0","534","668","23","Female","false","true","true","false","""event"",""trial"",""time""
""blur"",""0"",""0""
""focus"",""1"",""36399""
""fullscreenenter"",""5"",""51782""
","""event"",""trial"",""time""
""blur"",""0"",""0""
","""event"",""trial"",""time""
""focus"",""1"",""36399""
","""event"",""trial"",""time""
""fullscreenenter"",""5"",""51782""
","
","","","","","","","","","","","","","","","","","","","","","",""
"d3-instructions","53","370235","0.0-53.0","534","668","23","Female","false","true","true","false","""event"",""trial"",""time""
""blur"",""0"",""0""
""focus"",""1"",""36399""
""fullscreenenter"",""5"",""51782""
","""event"",""trial"",""time""
""blur"",""0"",""0""
","""event"",""trial"",""time""
""focus"",""1"",""36399""
","""event"",""trial"",""time""
""fullscreenenter"",""5"",""51782""
","
","","","","","","","","","","","","","","","","","","","","","",""
"d3-instructions","54","382369","0.0-54.0","534","668","23","Female","false","true","true","false","""event"",""trial"",""time""
""blur"",""0"",""0""
""focus"",""1"",""36399""
""fullscreenenter"",""5"",""51782""
","""event"",""trial"",""time""
""blur"",""0"",""0""
","""event"",""trial"",""time""
""focus"",""1"",""36399""
","""event"",""trial"",""time""
""fullscreenenter"",""5"",""51782""
","
","","","","","","","","","","","","","","","","","","","","","",""
"d3-instructions","55","390722","0.0-55.0","534","668","23","Female","false","true","true","false","""event"",""trial"",""time""
""blur"",""0"",""0""
""focus"",""1"",""36399""
""fullscreenenter"",""5"",""51782""
","""event"",""trial"",""time""
""blur"",""0"",""0""
","""event"",""trial"",""time""
""focus"",""1"",""36399""
","""event"",""trial"",""time""
""fullscreenenter"",""5"",""51782""
","
","","","","","","","","","","","","","","","","","","","","","",""
"d3-instructions","56","399115","0.0-56.0","534","668","23","Female","false","true","true","false","""event"",""trial"",""time""
""blur"",""0"",""0""
""focus"",""1"",""36399""
""fullscreenenter"",""5"",""51782""
","""event"",""trial"",""time""
""blur"",""0"",""0""
","""event"",""trial"",""time""
""focus"",""1"",""36399""
","""event"",""trial"",""time""
""fullscreenenter"",""5"",""51782""
","
","","","","","","","","","","","","","","","","","","","","","",""
"d3-instructions","57","405001","0.0-57.0","534","668","23","Female","false","true","true","false","""event"",""trial"",""time""
""blur"",""0"",""0""
""focus"",""1"",""36399""
""fullscreenenter"",""5"",""51782""
","""event"",""trial"",""time""
""blur"",""0"",""0""
","""event"",""trial"",""time""
""focus"",""1"",""36399""
","""event"",""trial"",""time""
""fullscreenenter"",""5"",""51782""
","
","","","","","","","","","","","","","","","","","","","","","",""
"d3-instructions","58","418530","0.0-58.0","534","668","23","Female","false","true","true","false","""event"",""trial"",""time""
""blur"",""0"",""0""
""focus"",""1"",""36399""
""fullscreenenter"",""5"",""51782""
","""event"",""trial"",""time""
""blur"",""0"",""0""
","""event"",""trial"",""time""
""focus"",""1"",""36399""
","""event"",""trial"",""time""
""fullscreenenter"",""5"",""51782""
","
","","","","","","","","","","","","","","","","","","","","","",""
"d3-instructions","59","424743","0.0-59.0","534","668","23","Female","false","true","true","false","""event"",""trial"",""time""
""blur"",""0"",""0""
""focus"",""1"",""36399""
""fullscreenenter"",""5"",""51782""
","""event"",""trial"",""time""
""blur"",""0"",""0""
","""event"",""trial"",""time""
""focus"",""1"",""36399""
","""event"",""trial"",""time""
""fullscreenenter"",""5"",""51782""
","
","","","","","","","","","","","","","","","","","","","","","",""
"d3-instructions","60","428674","0.0-60.0","534","668","23","Female","false","true","true","false","""event"",""trial"",""time""
""blur"",""0"",""0""
""focus"",""1"",""36399""
""fullscreenenter"",""5"",""51782""
","""event"",""trial"",""time""
""blur"",""0"",""0""
","""event"",""trial"",""time""
""focus"",""1"",""36399""
","""event"",""trial"",""time""
""fullscreenenter"",""5"",""51782""
","
","","","","","","","","","","","","","","","","","","","","","",""
"d3-animate-choice","61","431446","0.0-61.0-0.0","534","668","23","Female","false","true","true","false","""event"",""trial"",""time""
""blur"",""0"",""0""
""focus"",""1"",""36399""
""fullscreenenter"",""5"",""51782""
","""event"",""trial"",""time""
""blur"",""0"",""0""
","""event"",""trial"",""time""
""focus"",""1"",""36399""
","""event"",""trial"",""time""
""fullscreenenter"",""5"",""51782""
","
","763.1000000238419","","49","","","3000","1","","","images/earth.jpg","images/tutrocket1","images/tutrocket2","null","images/tutrocket2","","1","practice","null","1","","",""
"d3-animate-choice","62","434423","0.0-61.0-1.0","534","668","23","Female","false","true","true","false","""event"",""trial"",""time""
""blur"",""0"",""0""
""focus"",""1"",""36399""
""fullscreenenter"",""5"",""51782""
","""event"",""trial"",""time""
""blur"",""0"",""0""
","""event"",""trial"",""time""
""focus"",""1"",""36399""
","""event"",""trial"",""time""
""fullscreenenter"",""5"",""51782""
","
","966.8000000715256","","49","","","3000","1","","","images/tutyellowplanet.jpg","images/tutalien4","images/tutalien3","images/tutrocket2","images/tutalien3","images/nothing.png","2","practice","true","1","common","0","2022-02-08 00:10:13.839"
"two-step-fixation","63","435430","0.0-61.0-2.0","534","668","23","Female","false","true","true","false","""event"",""trial"",""time""
""blur"",""0"",""0""
""focus"",""1"",""36399""
""fullscreenenter"",""5"",""51782""
","""event"",""trial"",""time""
""blur"",""0"",""0""
","""event"",""trial"",""time""
""focus"",""1"",""36399""
","""event"",""trial"",""time""
""fullscreenenter"",""5"",""51782""
","
","","images/earth.jpg","","","","","","","","","","","","","","fixation","","","","","",""
"d3-animate-choice","64","438127","0.0-61.0-0.1","534","668","23","Female","false","true","true","false","""event"",""trial"",""time""
""blur"",""0"",""0""
""focus"",""1"",""36399""
""fullscreenenter"",""5"",""51782""
","""event"",""trial"",""time""
""blur"",""0"",""0""
","""event"",""trial"",""time""
""focus"",""1"",""36399""
","""event"",""trial"",""time""
""fullscreenenter"",""5"",""51782""
","
","688.5","","48","","","3000","1","","","images/earth.jpg","images/tutrocket1","images/tutrocket2","null","images/tutrocket1","","1","practice","null","2","","",""
"d3-animate-choice","65","440746","0.0-61.0-1.1","534","668","23","Female","false","true","true","false","""event"",""trial"",""time""
""blur"",""0"",""0""
""focus"",""1"",""36399""
""fullscreenenter"",""5"",""51782""
","""event"",""trial"",""time""
""blur"",""0"",""0""
","""event"",""trial"",""time""
""focus"",""1"",""36399""
","""event"",""trial"",""time""
""fullscreenenter"",""5"",""51782""
","
","612.8000000715256","","49","","","3000","1","","","images/tutgreenplanet.jpg","images/tutalien2","images/tutalien1","images/tutrocket1","images/tutalien1","images/t.png","2","practice","true","1","common","1","2022-02-08 00:10:20.162"
"two-step-fixation","66","441752","0.0-61.0-2.1","534","668","23","Female","false","true","true","false","""event"",""trial"",""time""
""blur"",""0"",""0""
""focus"",""1"",""36399""
""fullscreenenter"",""5"",""51782""
","""event"",""trial"",""time""
""blur"",""0"",""0""
","""event"",""trial"",""time""
""focus"",""1"",""36399""
","""event"",""trial"",""time""
""fullscreenenter"",""5"",""51782""
","
","","images/earth.jpg","","","","","","","","","","","","","","fixation","","","","","",""
"d3-animate-choice","67","444103","0.0-61.0-0.2","534","668","23","Female","false","true","true","false","""event"",""trial"",""time""
""blur"",""0"",""0""
""focus"",""1"",""36399""
""fullscreenenter"",""5"",""51782""
","""event"",""trial"",""time""
""blur"",""0"",""0""
","""event"",""trial"",""time""
""focus"",""1"",""36399""
","""event"",""trial"",""time""
""fullscreenenter"",""5"",""51782""
","
","344.89999997615814","","48","","","3000","1","","","images/earth.jpg","images/tutrocket1","images/tutrocket2","null","images/tutrocket1","","1","practice","null","2","","",""
"d3-animate-choice","68","446415","0.0-61.0-1.2","534","668","23","Female","false","true","true","false","""event"",""trial"",""time""
""blur"",""0"",""0""
""focus"",""1"",""36399""
""fullscreenenter"",""5"",""51782""
","""event"",""trial"",""time""
""blur"",""0"",""0""
","""event"",""trial"",""time""
""focus"",""1"",""36399""
","""event"",""trial"",""time""
""fullscreenenter"",""5"",""51782""
","
","301.7999999523163","","49","","","3000","1","","","images/tutgreenplanet.jpg","images/tutalien2","images/tutalien1","images/tutrocket1","images/tutalien1","images/t.png","2","practice","true","1","common","1","2022-02-08 00:10:25.831"
"two-step-fixation","69","447421","0.0-61.0-2.2","534","668","23","Female","false","true","true","false","""event"",""trial"",""time""
""blur"",""0"",""0""
""focus"",""1"",""36399""
""fullscreenenter"",""5"",""51782""
","""event"",""trial"",""time""
""blur"",""0"",""0""
","""event"",""trial"",""time""
""focus"",""1"",""36399""
","""event"",""trial"",""time""
""fullscreenenter"",""5"",""51782""
","
","","images/earth.jpg","","","","","","","","","","","","","","fixation","","","","","",""
"d3-animate-choice","70","450105","0.0-61.0-0.3","534","668","23","Female","false","true","true","false","""event"",""trial"",""time""
""blur"",""0"",""0""
""focus"",""1"",""36399""
""fullscreenenter"",""5"",""51782""
","""event"",""trial"",""time""
""blur"",""0"",""0""
","""event"",""trial"",""time""
""focus"",""1"",""36399""
","""event"",""trial"",""time""
""fullscreenenter"",""5"",""51782""
","
","680.2999999523163","","48","","","3000","1","","","images/earth.jpg","images/tutrocket1","images/tutrocket2","null","images/tutrocket1","","1","practice","null","2","","",""
"d3-animate-choice","71","453505","0.0-61.0-1.3","534","668","23","Female","false","true","true","false","""event"",""trial"",""time""
""blur"",""0"",""0""
""focus"",""1"",""36399""
""fullscreenenter"",""5"",""51782""
","""event"",""trial"",""time""
""blur"",""0"",""0""
","""event"",""trial"",""time""
""focus"",""1"",""36399""
","""event"",""trial"",""time""
""fullscreenenter"",""5"",""51782""
","
","1394.1000000238419","","49","","","3000","1","","","images/tutyellowplanet.jpg","images/tutalien4","images/tutalien3","images/tutrocket1","images/tutalien3","images/t.png","2","practice","false","1","rare","1","2022-02-08 00:10:32.922"
"two-step-fixation","72","454513","0.0-61.0-2.3","534","668","23","Female","false","true","true","false","""event"",""trial"",""time""
""blur"",""0"",""0""
""focus"",""1"",""36399""
""fullscreenenter"",""5"",""51782""
","""event"",""trial"",""time""
""blur"",""0"",""0""
","""event"",""trial"",""time""
""focus"",""1"",""36399""
","""event"",""trial"",""time""
""fullscreenenter"",""5"",""51782""
","
","","images/earth.jpg","","","","","","","","","","","","","","fixation","","","","","",""
"d3-animate-choice","73","456855","0.0-61.0-0.4","534","668","23","Female","false","true","true","false","""event"",""trial"",""time""
""blur"",""0"",""0""
""focus"",""1"",""36399""
""fullscreenenter"",""5"",""51782""
","""event"",""trial"",""time""
""blur"",""0"",""0""
","""event"",""trial"",""time""
""focus"",""1"",""36399""
","""event"",""trial"",""time""
""fullscreenenter"",""5"",""51782""
","
","333.8000000715256","","48","","","3000","1","","","images/earth.jpg","images/tutrocket1","images/tutrocket2","null","images/tutrocket1","","1","practice","null","2","","",""
"d3-animate-choice","74","459276","0.0-61.0-1.4","534","668","23","Female","false","true","true","false","""event"",""trial"",""time""
""blur"",""0"",""0""
""focus"",""1"",""36399""
""fullscreenenter"",""5"",""51782""
","""event"",""trial"",""time""
""blur"",""0"",""0""
","""event"",""trial"",""time""
""focus"",""1"",""36399""
","""event"",""trial"",""time""
""fullscreenenter"",""5"",""51782""
","
","412.7999999523163","","49","","","3000","1","","","images/tutgreenplanet.jpg","images/tutalien2","images/tutalien1","images/tutrocket1","images/tutalien1","images/t.png","2","practice","true","1","common","1","2022-02-08 00:10:38.692"
"two-step-fixation","75","460286","0.0-61.0-2.4","534","668","23","Female","false","true","true","false","""event"",""trial"",""time""
""blur"",""0"",""0""
""focus"",""1"",""36399""
""fullscreenenter"",""5"",""51782""
","""event"",""trial"",""time""
""blur"",""0"",""0""
","""event"",""trial"",""time""
""focus"",""1"",""36399""
","""event"",""trial"",""time""
""fullscreenenter"",""5"",""51782""
","
","","images/earth.jpg","","","","","","","","","","","","","","fixation","","","","","",""
"d3-animate-choice","76","462675","0.0-61.0-0.5","534","668","23","Female","false","true","true","false","""event"",""trial"",""time""
""blur"",""0"",""0""
""focus"",""1"",""36399""
""fullscreenenter"",""5"",""51782""
","""event"",""trial"",""time""
""blur"",""0"",""0""
","""event"",""trial"",""time""
""focus"",""1"",""36399""
","""event"",""trial"",""time""
""fullscreenenter"",""5"",""51782""
","
","378.89999997615814","","48","","","3000","1","","","images/earth.jpg","images/tutrocket1","images/tutrocket2","null","images/tutrocket1","","1","practice","null","2","","",""
"d3-animate-choice","77","464913","0.0-61.0-1.5","534","668","23","Female","false","true","true","false","""event"",""trial"",""time""
""blur"",""0"",""0""
""focus"",""1"",""36399""
""fullscreenenter"",""5"",""51782""
","""event"",""trial"",""time""
""blur"",""0"",""0""
","""event"",""trial"",""time""
""focus"",""1"",""36399""
","""event"",""trial"",""time""
""fullscreenenter"",""5"",""51782""
","
","231.79999995231628","","49","","","3000","1","","","images/tutgreenplanet.jpg","images/tutalien2","images/tutalien1","images/tutrocket1","images/tutalien1","images/nothing.png","2","practice","true","1","common","0","2022-02-08 00:10:44.330"
"two-step-fixation","78","465923","0.0-61.0-2.5","534","668","23","Female","false","true","true","false","""event"",""trial"",""time""
""blur"",""0"",""0""
""focus"",""1"",""36399""
""fullscreenenter"",""5"",""51782""
","""event"",""trial"",""time""
""blur"",""0"",""0""
","""event"",""trial"",""time""
""focus"",""1"",""36399""
","""event"",""trial"",""time""
""fullscreenenter"",""5"",""51782""
","
","","images/earth.jpg","","","","","","","","","","","","","","fixation","","","","","",""
"d3-animate-choice","79","468206","0.0-61.0-0.6","534","668","23","Female","false","true","true","false","""event"",""trial"",""time""
""blur"",""0"",""0""
""focus"",""1"",""36399""
""fullscreenenter"",""5"",""51782""
","""event"",""trial"",""time""
""blur"",""0"",""0""
","""event"",""trial"",""time""
""focus"",""1"",""36399""
","""event"",""trial"",""time""
""fullscreenenter"",""5"",""51782""
","
","273.5","","48","","","3000","1","","","images/earth.jpg","images/tutrocket1","images/tutrocket2","null","images/tutrocket1","","1","practice","null","2","","",""
"d3-animate-choice","80","470791","0.0-61.0-1.6","534","668","23","Female","false","true","true","false","""event"",""trial"",""time""
""blur"",""0"",""0""
""focus"",""1"",""36399""
""fullscreenenter"",""5"",""51782""
","""event"",""trial"",""time""
""blur"",""0"",""0""
","""event"",""trial"",""time""
""focus"",""1"",""36399""
","""event"",""trial"",""time""
""fullscreenenter"",""5"",""51782""
","
","578","","49","","","3000","1","","","images/tutgreenplanet.jpg","images/tutalien2","images/tutalien1","images/tutrocket1","images/tutalien1","images/t.png","2","practice","true","1","common","1","2022-02-08 00:10:50.207"
"two-step-fixation","81","471799","0.0-61.0-2.6","534","668","23","Female","false","true","true","false","""event"",""trial"",""time""
""blur"",""0"",""0""
""focus"",""1"",""36399""
""fullscreenenter"",""5"",""51782""
","""event"",""trial"",""time""
""blur"",""0"",""0""
","""event"",""trial"",""time""
""focus"",""1"",""36399""
","""event"",""trial"",""time""
""fullscreenenter"",""5"",""51782""
","
","","images/earth.jpg","","","","","","","","","","","","","","fixation","","","","","",""
"d3-animate-choice","82","474721","0.0-61.0-0.7","534","668","23","Female","false","true","true","false","""event"",""trial"",""time""
""blur"",""0"",""0""
""focus"",""1"",""36399""
""fullscreenenter"",""5"",""51782""
","""event"",""trial"",""time""
""blur"",""0"",""0""
","""event"",""trial"",""time""
""focus"",""1"",""36399""
","""event"",""trial"",""time""
""fullscreenenter"",""5"",""51782""
","
","915.3999999761581","","48","","","3000","1","","","images/earth.jpg","images/tutrocket1","images/tutrocket2","null","images/tutrocket1","","1","practice","null","2","","",""
"d3-animate-choice","83","477548","0.0-61.0-1.7","534","668","23","Female","false","true","true","false","""event"",""trial"",""time""
""blur"",""0"",""0""
""focus"",""1"",""36399""
""fullscreenenter"",""5"",""51782""
","""event"",""trial"",""time""
""blur"",""0"",""0""
","""event"",""trial"",""time""
""focus"",""1"",""36399""
","""event"",""trial"",""time""
""fullscreenenter"",""5"",""51782""
","
","817.7999999523163","","49","","","3000","1","","","images/tutyellowplanet.jpg","images/tutalien4","images/tutalien3","images/tutrocket1","images/tutalien3","images/t.png","2","practice","false","1","rare","1","2022-02-08 00:10:56.964"
"two-step-fixation","84","478556","0.0-61.0-2.7","534","668","23","Female","false","true","true","false","""event"",""trial"",""time""
""blur"",""0"",""0""
""focus"",""1"",""36399""
""fullscreenenter"",""5"",""51782""
","""event"",""trial"",""time""
""blur"",""0"",""0""
","""event"",""trial"",""time""
""focus"",""1"",""36399""
","""event"",""trial"",""time""
""fullscreenenter"",""5"",""51782""
","
","","images/earth.jpg","","","","","","","","","","","","","","fixation","","","","","",""
"d3-animate-choice","85","480940","0.0-61.0-0.8","534","668","23","Female","false","true","true","false","""event"",""trial"",""time""
""blur"",""0"",""0""
""focus"",""1"",""36399""
""fullscreenenter"",""5"",""51782""
","""event"",""trial"",""time""
""blur"",""0"",""0""
","""event"",""trial"",""time""
""focus"",""1"",""36399""
","""event"",""trial"",""time""
""fullscreenenter"",""5"",""51782""
","
","373.7999999523163","","48","","","3000","1","","","images/earth.jpg","images/tutrocket1","images/tutrocket2","null","images/tutrocket1","","1","practice","null","2","","",""
"d3-animate-choice","86","483380","0.0-61.0-1.8","534","668","23","Female","false","true","true","false","""event"",""trial"",""time""
""blur"",""0"",""0""
""focus"",""1"",""36399""
""fullscreenenter"",""5"",""51782""
","""event"",""trial"",""time""
""blur"",""0"",""0""
","""event"",""trial"",""time""
""focus"",""1"",""36399""
","""event"",""trial"",""time""
""fullscreenenter"",""5"",""51782""
","
","434.7000000476837","","49","","","3000","1","","","images/tutgreenplanet.jpg","images/tutalien2","images/tutalien1","images/tutrocket1","images/tutalien1","images/nothing.png","2","practice","true","1","common","0","2022-02-08 00:11:02.796"
"two-step-fixation","87","484387","0.0-61.0-2.8","534","668","23","Female","false","true","true","false","""event"",""trial"",""time""
""blur"",""0"",""0""
""focus"",""1"",""36399""
""fullscreenenter"",""5"",""51782""
","""event"",""trial"",""time""
""blur"",""0"",""0""
","""event"",""trial"",""time""
""focus"",""1"",""36399""
","""event"",""trial"",""time""
""fullscreenenter"",""5"",""51782""
","
","","images/earth.jpg","","","","","","","","","","","","","","fixation","","","","","",""
"d3-animate-choice","88","486746","0.0-61.0-0.9","534","668","23","Female","false","true","true","false","""event"",""trial"",""time""
""blur"",""0"",""0""
""focus"",""1"",""36399""
""fullscreenenter"",""5"",""51782""
","""event"",""trial"",""time""
""blur"",""0"",""0""
","""event"",""trial"",""time""
""focus"",""1"",""36399""
","""event"",""trial"",""time""
""fullscreenenter"",""5"",""51782""
","
","353.2000000476837","","48","","","3000","1","","","images/earth.jpg","images/tutrocket1","images/tutrocket2","null","images/tutrocket1","","1","practice","null","2","","",""
"d3-animate-choice","89","489638","0.0-61.0-1.9","534","668","23","Female","false","true","true","false","""event"",""trial"",""time""
""blur"",""0"",""0""
""focus"",""1"",""36399""
""fullscreenenter"",""5"",""51782""
","""event"",""trial"",""time""
""blur"",""0"",""0""
","""event"",""trial"",""time""
""focus"",""1"",""36399""
","""event"",""trial"",""time""
""fullscreenenter"",""5"",""51782""
","
","882.5","","49","","","3000","1","","","images/tutgreenplanet.jpg","images/tutalien2","images/tutalien1","images/tutrocket1","images/tutalien1","images/t.png","2","practice","true","1","common","1","2022-02-08 00:11:09.054"
"two-step-fixation","90","490646","0.0-61.0-2.9","534","668","23","Female","false","true","true","false","""event"",""trial"",""time""
""blur"",""0"",""0""
""focus"",""1"",""36399""
""fullscreenenter"",""5"",""51782""
","""event"",""trial"",""time""
""blur"",""0"",""0""
","""event"",""trial"",""time""
""focus"",""1"",""36399""
","""event"",""trial"",""time""
""fullscreenenter"",""5"",""51782""
","
","","images/earth.jpg","","","","","","","","","","","","","","fixation","","","","","",""
"d3-animate-choice","91","493435","0.0-61.0-0.10","534","668","23","Female","false","true","true","false","""event"",""trial"",""time""
""blur"",""0"",""0""
""focus"",""1"",""36399""
""fullscreenenter"",""5"",""51782""
","""event"",""trial"",""time""
""blur"",""0"",""0""
","""event"",""trial"",""time""
""focus"",""1"",""36399""
","""event"",""trial"",""time""
""fullscreenenter"",""5"",""51782""
","
","781.6000000238419","","48","","","3000","1","","","images/earth.jpg","images/tutrocket1","images/tutrocket2","null","images/tutrocket1","","1","practice","null","2","","",""
"d3-animate-choice","92","495862","0.0-61.0-1.10","534","668","23","Female","false","true","true","false","""event"",""trial"",""time""
""blur"",""0"",""0""
""focus"",""1"",""36399""
""fullscreenenter"",""5"",""51782""
","""event"",""trial"",""time""
""blur"",""0"",""0""
","""event"",""trial"",""time""
""focus"",""1"",""36399""
","""event"",""trial"",""time""
""fullscreenenter"",""5"",""51782""
","
","420.2999999523163","","49","","","3000","1","","","images/tutyellowplanet.jpg","images/tutalien4","images/tutalien3","images/tutrocket1","images/tutalien3","images/nothing.png","2","practice","false","1","rare","0","2022-02-08 00:11:15.278"
"two-step-fixation","93","496870","0.0-61.0-2.10","534","668","23","Female","false","true","true","false","""event"",""trial"",""time""
""blur"",""0"",""0""
""focus"",""1"",""36399""
""fullscreenenter"",""5"",""51782""
","""event"",""trial"",""time""
""blur"",""0"",""0""
","""event"",""trial"",""time""
""focus"",""1"",""36399""
","""event"",""trial"",""time""
""fullscreenenter"",""5"",""51782""
","
","","images/earth.jpg","","","","","","","","","","","","","","fixation","","","","","",""
"d3-animate-choice","94","499376","0.0-61.0-0.11","534","668","23","Female","false","true","true","false","""event"",""trial"",""time""
""blur"",""0"",""0""
""focus"",""1"",""36399""
""fullscreenenter"",""5"",""51782""
","""event"",""trial"",""time""
""blur"",""0"",""0""
","""event"",""trial"",""time""
""focus"",""1"",""36399""
","""event"",""trial"",""time""
""fullscreenenter"",""5"",""51782""
","
","498.39999997615814","","48","","","3000","1","2186.2000000476837","49","images/earth.jpg","images/tutrocket1","images/tutrocket2","null","images/tutrocket1","","1","practice","null","2","","",""
"d3-animate-choice","95","501889","0.0-61.0-1.11","534","668","23","Female","false","true","true","false","""event"",""trial"",""time""
""blur"",""0"",""0""
""focus"",""1"",""36399""
""fullscreenenter"",""5"",""51782""
","""event"",""trial"",""time""
""blur"",""0"",""0""
","""event"",""trial"",""time""
""focus"",""1"",""36399""
","""event"",""trial"",""time""
""fullscreenenter"",""5"",""51782""
","
","505.60000002384186","","49","","","3000","1","","","images/tutyellowplanet.jpg","images/tutalien4","images/tutalien3","images/tutrocket1","images/tutalien3","images/t.png","2","practice","false","1","rare","1","2022-02-08 00:11:21.305"
"two-step-fixation","96","502896","0.0-61.0-2.11","534","668","23","Female","false","true","true","false","""event"",""trial"",""time""
""blur"",""0"",""0""
""focus"",""1"",""36399""
""fullscreenenter"",""5"",""51782""
","""event"",""trial"",""time""
""blur"",""0"",""0""
","""event"",""trial"",""time""
""focus"",""1"",""36399""
","""event"",""trial"",""time""
""fullscreenenter"",""5"",""51782""
","
","","images/earth.jpg","","","","","","","","","","","","","","fixation","","","","","",""
"d3-animate-choice","97","505365","0.0-61.0-0.12","534","668","23","Female","false","true","true","false","""event"",""trial"",""time""
""blur"",""0"",""0""
""focus"",""1"",""36399""
""fullscreenenter"",""5"",""51782""
","""event"",""trial"",""time""
""blur"",""0"",""0""
","""event"",""trial"",""time""
""focus"",""1"",""36399""
","""event"",""trial"",""time""
""fullscreenenter"",""5"",""51782""
","
","462.89999997615814","","48","","","3000","1","","","images/earth.jpg","images/tutrocket1","images/tutrocket2","null","images/tutrocket1","","1","practice","null","2","","",""
"d3-animate-choice","98","507968","0.0-61.0-1.12","534","668","23","Female","false","true","true","false","""event"",""trial"",""time""
""blur"",""0"",""0""
""focus"",""1"",""36399""
""fullscreenenter"",""5"",""51782""
","""event"",""trial"",""time""
""blur"",""0"",""0""
","""event"",""trial"",""time""
""focus"",""1"",""36399""
","""event"",""trial"",""time""
""fullscreenenter"",""5"",""51782""
","
","594.5","","49","","","3000","1","","","images/tutgreenplanet.jpg","images/tutalien2","images/tutalien1","images/tutrocket1","images/tutalien1","images/t.png","2","practice","true","1","common","1","2022-02-08 00:11:27.384"
"two-step-fixation","99","508976","0.0-61.0-2.12","534","668","23","Female","false","true","true","false","""event"",""trial"",""time""
""blur"",""0"",""0""
""focus"",""1"",""36399""
""fullscreenenter"",""5"",""51782""
","""event"",""trial"",""time""
""blur"",""0"",""0""
","""event"",""trial"",""time""
""focus"",""1"",""36399""
","""event"",""trial"",""time""
""fullscreenenter"",""5"",""51782""
","
","","images/earth.jpg","","","","","","","","","","","","","","fixation","","","","","",""
"d3-animate-choice","100","511779","0.0-61.0-0.13","534","668","23","Female","false","true","true","false","""event"",""trial"",""time""
""blur"",""0"",""0""
""focus"",""1"",""36399""
""fullscreenenter"",""5"",""51782""
","""event"",""trial"",""time""
""blur"",""0"",""0""
","""event"",""trial"",""time""
""focus"",""1"",""36399""
","""event"",""trial"",""time""
""fullscreenenter"",""5"",""51782""
","
","797.3999999761581","","48","","","3000","1","","","images/earth.jpg","images/tutrocket1","images/tutrocket2","null","images/tutrocket1","","1","practice","null","2","","",""
"d3-animate-choice","101","514346","0.0-61.0-1.13","534","668","23","Female","false","true","true","false","""event"",""trial"",""time""
""blur"",""0"",""0""
""focus"",""1"",""36399""
""fullscreenenter"",""5"",""51782""
","""event"",""trial"",""time""
""blur"",""0"",""0""
","""event"",""trial"",""time""
""focus"",""1"",""36399""
","""event"",""trial"",""time""
""fullscreenenter"",""5"",""51782""
","
","559.5","","49","","","3000","1","","","images/tutgreenplanet.jpg","images/tutalien2","images/tutalien1","images/tutrocket1","images/tutalien1","images/nothing.png","2","practice","true","1","common","0","2022-02-08 00:11:33.762"
"two-step-fixation","102","515353","0.0-61.0-2.13","534","668","23","Female","false","true","true","false","""event"",""trial"",""time""
""blur"",""0"",""0""
""focus"",""1"",""36399""
""fullscreenenter"",""5"",""51782""
","""event"",""trial"",""time""
""blur"",""0"",""0""
","""event"",""trial"",""time""
""focus"",""1"",""36399""
","""event"",""trial"",""time""
""fullscreenenter"",""5"",""51782""
","
","","images/earth.jpg","","","","","","","","","","","","","","fixation","","","","","",""
"d3-animate-choice","103","518833","0.0-61.0-0.14","534","668","23","Female","false","true","true","false","""event"",""trial"",""time""
""blur"",""0"",""0""
""focus"",""1"",""36399""
""fullscreenenter"",""5"",""51782""
","""event"",""trial"",""time""
""blur"",""0"",""0""
","""event"",""trial"",""time""
""focus"",""1"",""36399""
","""event"",""trial"",""time""
""fullscreenenter"",""5"",""51782""
","
","1473.1000000238419","","48","","","3000","1","","","images/earth.jpg","images/tutrocket1","images/tutrocket2","null","images/tutrocket1","","1","practice","null","2","","",""
"d3-animate-choice","104","521252","0.0-61.0-1.14","534","668","23","Female","false","true","true","false","""event"",""trial"",""time""
""blur"",""0"",""0""
""focus"",""1"",""36399""
""fullscreenenter"",""5"",""51782""
","""event"",""trial"",""time""
""blur"",""0"",""0""
","""event"",""trial"",""time""
""focus"",""1"",""36399""
","""event"",""trial"",""time""
""fullscreenenter"",""5"",""51782""
","
","411.89999997615814","","49","","","3000","1","","","images/tutgreenplanet.jpg","images/tutalien2","images/tutalien1","images/tutrocket1","images/tutalien1","images/nothing.png","2","practice","true","1","common","0","2022-02-08 00:11:40.668"
"two-step-fixation","105","522260","0.0-61.0-2.14","534","668","23","Female","false","true","true","false","""event"",""trial"",""time""
""blur"",""0"",""0""
""focus"",""1"",""36399""
""fullscreenenter"",""5"",""51782""
","""event"",""trial"",""time""
""blur"",""0"",""0""
","""event"",""trial"",""time""
""focus"",""1"",""36399""
","""event"",""trial"",""time""
""fullscreenenter"",""5"",""51782""
","
","","images/earth.jpg","","","","","","","","","","","","","","fixation","","","","","",""
"d3-animate-choice","106","524604","0.0-61.0-0.15","534","668","23","Female","false","true","true","false","""event"",""trial"",""time""
""blur"",""0"",""0""
""focus"",""1"",""36399""
""fullscreenenter"",""5"",""51782""
","""event"",""trial"",""time""
""blur"",""0"",""0""
","""event"",""trial"",""time""
""focus"",""1"",""36399""
","""event"",""trial"",""time""
""fullscreenenter"",""5"",""51782""
","
","333.90000009536743","","48","","","3000","1","","","images/earth.jpg","images/tutrocket1","images/tutrocket2","null","images/tutrocket1","","1","practice","null","2","","",""
"d3-animate-choice","107","526970","0.0-61.0-1.15","534","668","23","Female","false","true","true","false","""event"",""trial"",""time""
""blur"",""0"",""0""
""focus"",""1"",""36399""
""fullscreenenter"",""5"",""51782""
","""event"",""trial"",""time""
""blur"",""0"",""0""
","""event"",""trial"",""time""
""focus"",""1"",""36399""
","""event"",""trial"",""time""
""fullscreenenter"",""5"",""51782""
","
","358.2000000476837","","48","","","3000","1","","","images/tutgreenplanet.jpg","images/tutalien2","images/tutalien1","images/tutrocket1","images/tutalien2","images/t.png","2","practice","true","2","common","1","2022-02-08 00:11:46.386"
"two-step-fixation","108","527977","0.0-61.0-2.15","534","668","23","Female","false","true","true","false","""event"",""trial"",""time""
""blur"",""0"",""0""
""focus"",""1"",""36399""
""fullscreenenter"",""5"",""51782""
","""event"",""trial"",""time""
""blur"",""0"",""0""
","""event"",""trial"",""time""
""focus"",""1"",""36399""
","""event"",""trial"",""time""
""fullscreenenter"",""5"",""51782""
","
","","images/earth.jpg","","","","","","","","","","","","","","fixation","","","","","",""
"d3-animate-choice","109","530281","0.0-61.0-0.16","534","668","23","Female","false","true","true","false","""event"",""trial"",""time""
""blur"",""0"",""0""
""focus"",""1"",""36399""
""fullscreenenter"",""5"",""51782""
","""event"",""trial"",""time""
""blur"",""0"",""0""
","""event"",""trial"",""time""
""focus"",""1"",""36399""
","""event"",""trial"",""time""
""fullscreenenter"",""5"",""51782""
","
","296.89999997615814","","48","","","3000","1","","","images/earth.jpg","images/tutrocket1","images/tutrocket2","null","images/tutrocket1","","1","practice","null","2","","",""
"d3-animate-choice","110","532790","0.0-61.0-1.16","534","668","23","Female","false","true","true","false","""event"",""trial"",""time""
""blur"",""0"",""0""
""focus"",""1"",""36399""
""fullscreenenter"",""5"",""51782""
","""event"",""trial"",""time""
""blur"",""0"",""0""
","""event"",""trial"",""time""
""focus"",""1"",""36399""
","""event"",""trial"",""time""
""fullscreenenter"",""5"",""51782""
","
","502","","48","","","3000","1","","","images/tutgreenplanet.jpg","images/tutalien2","images/tutalien1","images/tutrocket1","images/tutalien2","images/t.png","2","practice","true","2","common","1","2022-02-08 00:11:52.207"
"two-step-fixation","111","533796","0.0-61.0-2.16","534","668","23","Female","false","true","true","false","""event"",""trial"",""time""
""blur"",""0"",""0""
""focus"",""1"",""36399""
""fullscreenenter"",""5"",""51782""
","""event"",""trial"",""time""
""blur"",""0"",""0""
","""event"",""trial"",""time""
""focus"",""1"",""36399""
","""event"",""trial"",""time""
""fullscreenenter"",""5"",""51782""
","
","","images/earth.jpg","","","","","","","","","","","","","","fixation","","","","","",""
"d3-animate-choice","112","536143","0.0-61.0-0.17","534","668","23","Female","false","true","true","false","""event"",""trial"",""time""
""blur"",""0"",""0""
""focus"",""1"",""36399""
""fullscreenenter"",""5"",""51782""
","""event"",""trial"",""time""
""blur"",""0"",""0""
","""event"",""trial"",""time""
""focus"",""1"",""36399""
","""event"",""trial"",""time""
""fullscreenenter"",""5"",""51782""
","
","337.6999999284744","","48","","","3000","1","","","images/earth.jpg","images/tutrocket1","images/tutrocket2","null","images/tutrocket1","","1","practice","null","2","","",""
"d3-animate-choice","113","538478","0.0-61.0-1.17","534","668","23","Female","false","true","true","false","""event"",""trial"",""time""
""blur"",""0"",""0""
""focus"",""1"",""36399""
""fullscreenenter"",""5"",""51782""
","""event"",""trial"",""time""
""blur"",""0"",""0""
","""event"",""trial"",""time""
""focus"",""1"",""36399""
","""event"",""trial"",""time""
""fullscreenenter"",""5"",""51782""
","
","328.39999997615814","","48","","","3000","1","","","images/tutgreenplanet.jpg","images/tutalien2","images/tutalien1","images/tutrocket1","images/tutalien2","images/nothing.png","2","practice","true","2","common","0","2022-02-08 00:11:57.894"
"two-step-fixation","114","539485","0.0-61.0-2.17","534","668","23","Female","false","true","true","false","""event"",""trial"",""time""
""blur"",""0"",""0""
""focus"",""1"",""36399""
""fullscreenenter"",""5"",""51782""
","""event"",""trial"",""time""
""blur"",""0"",""0""
","""event"",""trial"",""time""
""focus"",""1"",""36399""
","""event"",""trial"",""time""
""fullscreenenter"",""5"",""51782""
","
","","images/earth.jpg","","","","","","","","","","","","","","fixation","","","","","",""
"d3-animate-choice","115","541769","0.0-61.0-0.18","534","668","23","Female","false","true","true","false","""event"",""trial"",""time""
""blur"",""0"",""0""
""focus"",""1"",""36399""
""fullscreenenter"",""5"",""51782""
","""event"",""trial"",""time""
""blur"",""0"",""0""
","""event"",""trial"",""time""
""focus"",""1"",""36399""
","""event"",""trial"",""time""
""fullscreenenter"",""5"",""51782""
","
","276.7000000476837","","48","","","3000","1","","","images/earth.jpg","images/tutrocket1","images/tutrocket2","null","images/tutrocket1","","1","practice","null","2","","",""
"d3-animate-choice","116","544078","0.0-61.0-1.18","534","668","23","Female","false","true","true","false","""event"",""trial"",""time""
""blur"",""0"",""0""
""focus"",""1"",""36399""
""fullscreenenter"",""5"",""51782""
","""event"",""trial"",""time""
""blur"",""0"",""0""
","""event"",""trial"",""time""
""focus"",""1"",""36399""
","""event"",""trial"",""time""
""fullscreenenter"",""5"",""51782""
","
","298.5","","48","","","3000","1","","","images/tutgreenplanet.jpg","images/tutalien2","images/tutalien1","images/tutrocket1","images/tutalien2","images/nothing.png","2","practice","true","2","common","0","2022-02-08 00:12:03.494"
"two-step-fixation","117","545086","0.0-61.0-2.18","534","668","23","Female","false","true","true","false","""event"",""trial"",""time""
""blur"",""0"",""0""
""focus"",""1"",""36399""
""fullscreenenter"",""5"",""51782""
","""event"",""trial"",""time""
""blur"",""0"",""0""
","""event"",""trial"",""time""
""focus"",""1"",""36399""
","""event"",""trial"",""time""
""fullscreenenter"",""5"",""51782""
","
","","images/earth.jpg","","","","","","","","","","","","","","fixation","","","","","",""
"d3-animate-choice","118","547415","0.0-61.0-0.19","534","668","23","Female","false","true","true","false","""event"",""trial"",""time""
""blur"",""0"",""0""
""focus"",""1"",""36399""
""fullscreenenter"",""5"",""51782""
","""event"",""trial"",""time""
""blur"",""0"",""0""
","""event"",""trial"",""time""
""focus"",""1"",""36399""
","""event"",""trial"",""time""
""fullscreenenter"",""5"",""51782""
","
","322","","49","","","3000","1","","","images/earth.jpg","images/tutrocket1","images/tutrocket2","null","images/tutrocket2","","1","practice","null","1","","",""
"d3-animate-choice","119","549701","0.0-61.0-1.19","534","668","23","Female","false","true","true","false","""event"",""trial"",""time""
""blur"",""0"",""0""
""focus"",""1"",""36399""
""fullscreenenter"",""5"",""51782""
","""event"",""trial"",""time""
""blur"",""0"",""0""
","""event"",""trial"",""time""
""focus"",""1"",""36399""
","""event"",""trial"",""time""
""fullscreenenter"",""5"",""51782""
","
","277.89999997615814","","49","","","3000","1","","","images/tutyellowplanet.jpg","images/tutalien4","images/tutalien3","images/tutrocket2","images/tutalien3","images/nothing.png","2","practice","true","1","common","0","2022-02-08 00:12:09.118"
"two-step-fixation","120","550708","0.0-61.0-2.19","534","668","23","Female","false","true","true","false","""event"",""trial"",""time""
""blur"",""0"",""0""
""focus"",""1"",""36399""
""fullscreenenter"",""5"",""51782""
","""event"",""trial"",""time""
""blur"",""0"",""0""
","""event"",""trial"",""time""
""focus"",""1"",""36399""
","""event"",""trial"",""time""
""fullscreenenter"",""5"",""51782""
","
","","images/earth.jpg","","","","","","","","","","","","","","fixation","","","","","",""
"d3-instructions","121","556963","0.0-62.0","534","668","23","Female","false","true","true","false","""event"",""trial"",""time""
""blur"",""0"",""0""
""focus"",""1"",""36399""
""fullscreenenter"",""5"",""51782""
","""event"",""trial"",""time""
""blur"",""0"",""0""
","""event"",""trial"",""time""
""focus"",""1"",""36399""
","""event"",""trial"",""time""
""fullscreenenter"",""5"",""51782""
","
","","","","","","","","","","","","","","","","","","","","","",""
"audio-keyboard-response","122","558885","0.0-63.0","534","668","23","Female","false","true","true","false","""event"",""trial"",""time""
""blur"",""0"",""0""
""focus"",""1"",""36399""
""fullscreenenter"",""5"",""51782""
","""event"",""trial"",""time""
""blur"",""0"",""0""
","""event"",""trial"",""time""
""focus"",""1"",""36399""
","""event"",""trial"",""time""
""fullscreenenter"",""5"",""51782""
","
","1920","audio/instructions/treasure_feedback.wav","32","","","","","","","","","","","","","","","","","","",""
"d3-instructions","123","572696","0.0-64.0","534","668","23","Female","false","true","true","false","""event"",""trial"",""time""
""blur"",""0"",""0""
""focus"",""1"",""36399""
""fullscreenenter"",""5"",""51782""
","""event"",""trial"",""time""
""blur"",""0"",""0""
","""event"",""trial"",""time""
""focus"",""1"",""36399""
","""event"",""trial"",""time""
""fullscreenenter"",""5"",""51782""
","
","","","","","","","","","","","","","","","","","","","","","",""
"d3-instructions","124","580399","0.0-65.0","534","668","23","Female","false","true","true","false","""event"",""trial"",""time""
""blur"",""0"",""0""
""focus"",""1"",""36399""
""fullscreenenter"",""5"",""51782""
","""event"",""trial"",""time""
""blur"",""0"",""0""
","""event"",""trial"",""time""
""focus"",""1"",""36399""
","""event"",""trial"",""time""
""fullscreenenter"",""5"",""51782""
","
","","","","","","","","","","","","","","","","","","","","","",""
"d3-instructions","125","603557","0.0-66.0","534","668","23","Female","false","true","true","false","""event"",""trial"",""time""
""blur"",""0"",""0""
""focus"",""1"",""36399""
""fullscreenenter"",""5"",""51782""
","""event"",""trial"",""time""
""blur"",""0"",""0""
","""event"",""trial"",""time""
""focus"",""1"",""36399""
","""event"",""trial"",""time""
""fullscreenenter"",""5"",""51782""
","
","","","","","","","","","","","","","","","","","","","","","",""
"d3-instructions","126","615173","0.0-67.0","534","668","23","Female","false","true","true","false","""event"",""trial"",""time""
""blur"",""0"",""0""
""focus"",""1"",""36399""
""fullscreenenter"",""5"",""51782""
","""event"",""trial"",""time""
""blur"",""0"",""0""
","""event"",""trial"",""time""
""focus"",""1"",""36399""
","""event"",""trial"",""time""
""fullscreenenter"",""5"",""51782""
","
","","","","","","","","","","","","","","","","","","","","","",""
"d3-instructions","127","623753","0.0-68.0","534","668","23","Female","false","true","true","false","""event"",""trial"",""time""
""blur"",""0"",""0""
""focus"",""1"",""36399""
""fullscreenenter"",""5"",""51782""
","""event"",""trial"",""time""
""blur"",""0"",""0""
","""event"",""trial"",""time""
""focus"",""1"",""36399""
","""event"",""trial"",""time""
""fullscreenenter"",""5"",""51782""
","
","","","","","","","","","","","","","","","","","","","","","",""
"instructions-quiz","128","627964","0.0-69.0","534","668","23","Female","false","true","true","false","""event"",""trial"",""time""
""blur"",""0"",""0""
""focus"",""1"",""36399""
""fullscreenenter"",""5"",""51782""
","""event"",""trial"",""time""
""blur"",""0"",""0""
","""event"",""trial"",""time""
""focus"",""1"",""36399""
","""event"",""trial"",""time""
""fullscreenenter"",""5"",""51782""
","
","4206.400000095367","audio/quiz/Q1_Prompt.wav","","1","","","","","","","","","","","","","","","","","",""
"audio-keyboard-response","129","637135","0.0-70.0","534","668","23","Female","false","true","true","false","""event"",""trial"",""time""
""blur"",""0"",""0""
""focus"",""1"",""36399""
""fullscreenenter"",""5"",""51782""
","""event"",""trial"",""time""
""blur"",""0"",""0""
","""event"",""trial"",""time""
""focus"",""1"",""36399""
","""event"",""trial"",""time""
""fullscreenenter"",""5"",""51782""
","
","null","audio/quiz/Q1_Correct.wav","null","","","","","","","","","","","","","","","","","","",""
"instructions-quiz","130","642254","0.0-71.0","534","668","23","Female","false","true","true","false","""event"",""trial"",""time""
""blur"",""0"",""0""
""focus"",""1"",""36399""
""fullscreenenter"",""5"",""51782""
","""event"",""trial"",""time""
""blur"",""0"",""0""
","""event"",""trial"",""time""
""focus"",""1"",""36399""
","""event"",""trial"",""time""
""fullscreenenter"",""5"",""51782""
","
","5115.399999976158","audio/quiz/Q2_Prompt.wav","","0","","","","","","","","","","","","","","","","","",""
"audio-keyboard-response","131","655122","0.0-72.0","534","668","23","Female","false","true","true","false","""event"",""trial"",""time""
""blur"",""0"",""0""
""focus"",""1"",""36399""
""fullscreenenter"",""5"",""51782""
","""event"",""trial"",""time""
""blur"",""0"",""0""
","""event"",""trial"",""time""
""focus"",""1"",""36399""
","""event"",""trial"",""time""
""fullscreenenter"",""5"",""51782""
","
","null","audio/quiz/Q2_Correct.wav","null","","","","","","","","","","","","","","","","","","",""
"instructions-quiz","132","661069","0.0-73.0","534","668","23","Female","false","true","true","false","""event"",""trial"",""time""
""blur"",""0"",""0""
""focus"",""1"",""36399""
""fullscreenenter"",""5"",""51782""
","""event"",""trial"",""time""
""blur"",""0"",""0""
","""event"",""trial"",""time""
""focus"",""1"",""36399""
","""event"",""trial"",""time""
""fullscreenenter"",""5"",""51782""
","
","5943.600000023842","audio/quiz/Q3_Prompt.wav","","1","","","","","","","","","","","","","","","","","",""
"audio-keyboard-response","133","666874","0.0-74.0","534","668","23","Female","false","true","true","false","""event"",""trial"",""time""
""blur"",""0"",""0""
""focus"",""1"",""36399""
""fullscreenenter"",""5"",""51782""
","""event"",""trial"",""time""
""blur"",""0"",""0""
","""event"",""trial"",""time""
""focus"",""1"",""36399""
","""event"",""trial"",""time""
""fullscreenenter"",""5"",""51782""
","
","null","audio/quiz/Q3_Correct.wav","null","","","","","","","","","","","","","","","","","","",""
"d3-instructions","134","681619","0.0-75.0","534","668","23","Female","false","true","true","false","""event"",""trial"",""time""
""blur"",""0"",""0""
""focus"",""1"",""36399""
""fullscreenenter"",""5"",""51782""
","""event"",""trial"",""time""
""blur"",""0"",""0""
","""event"",""trial"",""time""
""focus"",""1"",""36399""
","""event"",""trial"",""time""
""fullscreenenter"",""5"",""51782""
","
","","","","","","","","","","","","","","","","","","","","","",""
"d3-animate-choice","135","685154","0.0-76.0-0.0","534","668","23","Female","false","true","true","false","""event"",""trial"",""time""
""blur"",""0"",""0""
""focus"",""1"",""36399""
""fullscreenenter"",""5"",""51782""
","""event"",""trial"",""time""
""blur"",""0"",""0""
","""event"",""trial"",""time""
""focus"",""1"",""36399""
","""event"",""trial"",""time""
""fullscreenenter"",""5"",""51782""
","
","1527.3000000715256","","48","","","3000","1","","","images/earth.jpg","images/rocket1","images/rocket2","null","images/rocket1","","1","real","null","2","","",""
"d3-animate-choice","136","687484","0.0-76.0-1.0","534","668","23","Female","false","true","true","false","""event"",""trial"",""time""
""blur"",""0"",""0""
""focus"",""1"",""36399""
""fullscreenenter"",""5"",""51782""
","""event"",""trial"",""time""
""blur"",""0"",""0""
","""event"",""trial"",""time""
""focus"",""1"",""36399""
","""event"",""trial"",""time""
""fullscreenenter"",""5"",""51782""
","
","320.89999997615814","","49","","","3000","1","","","images/purpleplanet.jpg","images/alien4","images/alien3","images/rocket1","images/alien3","images/t.png","2","real","false","1","rare","1","2022-02-08 00:14:26.900"
"two-step-fixation","137","688491","0.0-76.0-2.0","534","668","23","Female","false","true","true","false","""event"",""trial"",""time""
""blur"",""0"",""0""
""focus"",""1"",""36399""
""fullscreenenter"",""5"",""51782""
","""event"",""trial"",""time""
""blur"",""0"",""0""
","""event"",""trial"",""time""
""focus"",""1"",""36399""
","""event"",""trial"",""time""
""fullscreenenter"",""5"",""51782""
","
","","images/earth.jpg","","","","","","","","","","","","","","fixation","","","","","",""
"d3-animate-choice","138","690844","0.0-76.0-0.1","534","668","23","Female","false","true","true","false","""event"",""trial"",""time""
""blur"",""0"",""0""
""focus"",""1"",""36399""
""fullscreenenter"",""5"",""51782""
","""event"",""trial"",""time""
""blur"",""0"",""0""
","""event"",""trial"",""time""
""focus"",""1"",""36399""
","""event"",""trial"",""time""
""fullscreenenter"",""5"",""51782""
","
","345.59999990463257","","48","","","3000","1","","","images/earth.jpg","images/rocket1","images/rocket2","null","images/rocket1","","1","real","null","2","","",""
"d3-animate-choice","139","693168","0.0-76.0-1.1","534","668","23","Female","false","true","true","false","""event"",""trial"",""time""
""blur"",""0"",""0""
""focus"",""1"",""36399""
""fullscreenenter"",""5"",""51782""
","""event"",""trial"",""time""
""blur"",""0"",""0""
","""event"",""trial"",""time""
""focus"",""1"",""36399""
","""event"",""trial"",""time""
""fullscreenenter"",""5"",""51782""
","
","314.60000002384186","","49","","","3000","1","","","images/purpleplanet.jpg","images/alien4","images/alien3","images/rocket1","images/alien3","images/t.png","2","real","false","1","rare","1","2022-02-08 00:14:32.584"
"two-step-fixation","140","694178","0.0-76.0-2.1","534","668","23","Female","false","true","true","false","""event"",""trial"",""time""
""blur"",""0"",""0""
""focus"",""1"",""36399""
""fullscreenenter"",""5"",""51782""
","""event"",""trial"",""time""
""blur"",""0"",""0""
","""event"",""trial"",""time""
""focus"",""1"",""36399""
","""event"",""trial"",""time""
""fullscreenenter"",""5"",""51782""
","
","","images/earth.jpg","","","","","","","","","","","","","","fixation","","","","","",""
"d3-animate-choice","141","696638","0.0-76.0-0.2","534","668","23","Female","false","true","true","false","""event"",""trial"",""time""
""blur"",""0"",""0""
""focus"",""1"",""36399""
""fullscreenenter"",""5"",""51782""
","""event"",""trial"",""time""
""blur"",""0"",""0""
","""event"",""trial"",""time""
""focus"",""1"",""36399""
","""event"",""trial"",""time""
""fullscreenenter"",""5"",""51782""
","
","448.8000000715256","","48","","","3000","1","","","images/earth.jpg","images/rocket1","images/rocket2","null","images/rocket1","","1","real","null","2","","",""
"d3-animate-choice","142","699242","0.0-76.0-1.2","534","668","23","Female","false","true","true","false","""event"",""trial"",""time""
""blur"",""0"",""0""
""focus"",""1"",""36399""
""fullscreenenter"",""5"",""51782""
","""event"",""trial"",""time""
""blur"",""0"",""0""
","""event"",""trial"",""time""
""focus"",""1"",""36399""
","""event"",""trial"",""time""
""fullscreenenter"",""5"",""51782""
","
","594","","49","","","3000","1","","","images/redplanet1.jpg","images/alien2","images/alien1","images/rocket1","images/alien1","images/nothing.png","2","real","true","1","common","0","2022-02-08 00:14:38.658"
"two-step-fixation","143","700248","0.0-76.0-2.2","534","668","23","Female","false","true","true","false","""event"",""trial"",""time""
""blur"",""0"",""0""
""focus"",""1"",""36399""
""fullscreenenter"",""5"",""51782""
","""event"",""trial"",""time""
""blur"",""0"",""0""
","""event"",""trial"",""time""
""focus"",""1"",""36399""
","""event"",""trial"",""time""
""fullscreenenter"",""5"",""51782""
","
","","images/earth.jpg","","","","","","","","","","","","","","fixation","","","","","",""
"d3-animate-choice","144","702524","0.0-76.0-0.3","534","668","23","Female","false","true","true","false","""event"",""trial"",""time""
""blur"",""0"",""0""
""focus"",""1"",""36399""
""fullscreenenter"",""5"",""51782""
","""event"",""trial"",""time""
""blur"",""0"",""0""
","""event"",""trial"",""time""
""focus"",""1"",""36399""
","""event"",""trial"",""time""
""fullscreenenter"",""5"",""51782""
","
","267.89999997615814","","48","","","3000","1","1719.6000000238419","49","images/earth.jpg","images/rocket1","images/rocket2","null","images/rocket1","","1","real","null","2","","",""
"d3-animate-choice","145","704889","0.0-76.0-1.3","534","668","23","Female","false","true","true","false","""event"",""trial"",""time""
""blur"",""0"",""0""
""focus"",""1"",""36399""
""fullscreenenter"",""5"",""51782""
","""event"",""trial"",""time""
""blur"",""0"",""0""
","""event"",""trial"",""time""
""focus"",""1"",""36399""
","""event"",""trial"",""time""
""fullscreenenter"",""5"",""51782""
","
","356.7000000476837","","49","","","3000","1","","","images/redplanet1.jpg","images/alien2","images/alien1","images/rocket1","images/alien1","images/nothing.png","2","real","true","1","common","0","2022-02-08 00:14:44.305"
"two-step-fixation","146","705899","0.0-76.0-2.3","534","668","23","Female","false","true","true","false","""event"",""trial"",""time""
""blur"",""0"",""0""
""focus"",""1"",""36399""
""fullscreenenter"",""5"",""51782""
","""event"",""trial"",""time""
""blur"",""0"",""0""
","""event"",""trial"",""time""
""focus"",""1"",""36399""
","""event"",""trial"",""time""
""fullscreenenter"",""5"",""51782""
","
","","images/earth.jpg","","","","","","","","","","","","","","fixation","","","","","",""
"d3-animate-choice","147","708187","0.0-76.0-0.4","534","668","23","Female","false","true","true","false","""event"",""trial"",""time""
""blur"",""0"",""0""
""focus"",""1"",""36399""
""fullscreenenter"",""5"",""51782""
","""event"",""trial"",""time""
""blur"",""0"",""0""
","""event"",""trial"",""time""
""focus"",""1"",""36399""
","""event"",""trial"",""time""
""fullscreenenter"",""5"",""51782""
","
","277.2999999523163","","48","","","3000","1","","","images/earth.jpg","images/rocket1","images/rocket2","null","images/rocket1","","1","real","null","2","","",""
"d3-animate-choice","148","711301","0.0-76.0-1.4","534","668","23","Female","false","true","true","false","""event"",""trial"",""time""
""blur"",""0"",""0""
""focus"",""1"",""36399""
""fullscreenenter"",""5"",""51782""
","""event"",""trial"",""time""
""blur"",""0"",""0""
","""event"",""trial"",""time""
""focus"",""1"",""36399""
","""event"",""trial"",""time""
""fullscreenenter"",""5"",""51782""
","
","1106.2999999523163","","48","","","3000","1","","","images/redplanet1.jpg","images/alien2","images/alien1","images/rocket1","images/alien2","images/nothing.png","2","real","true","2","common","0","2022-02-08 00:14:50.717"
"two-step-fixation","149","712309","0.0-76.0-2.4","534","668","23","Female","false","true","true","false","""event"",""trial"",""time""
""blur"",""0"",""0""
""focus"",""1"",""36399""
""fullscreenenter"",""5"",""51782""
","""event"",""trial"",""time""
""blur"",""0"",""0""
","""event"",""trial"",""time""
""focus"",""1"",""36399""
","""event"",""trial"",""time""
""fullscreenenter"",""5"",""51782""
","
","","images/earth.jpg","","","","","","","","","","","","","","fixation","","","","","",""
"d3-animate-choice","150","714576","0.0-76.0-0.5","534","668","23","Female","false","true","true","false","""event"",""trial"",""time""
""blur"",""0"",""0""
""focus"",""1"",""36399""
""fullscreenenter"",""5"",""51782""
","""event"",""trial"",""time""
""blur"",""0"",""0""
","""event"",""trial"",""time""
""focus"",""1"",""36399""
","""event"",""trial"",""time""
""fullscreenenter"",""5"",""51782""
","
","257.10000002384186","","49","","","3000","1","","","images/earth.jpg","images/rocket1","images/rocket2","null","images/rocket2","","1","real","null","1","","",""
"d3-animate-choice","151","716976","0.0-76.0-1.5","534","668","23","Female","false","true","true","false","""event"",""trial"",""time""
""blur"",""0"",""0""
""focus"",""1"",""36399""
""fullscreenenter"",""5"",""51782""
","""event"",""trial"",""time""
""blur"",""0"",""0""
","""event"",""trial"",""time""
""focus"",""1"",""36399""
","""event"",""trial"",""time""
""fullscreenenter"",""5"",""51782""
","
","389.5","","49","","","3000","1","","","images/purpleplanet.jpg","images/alien4","images/alien3","images/rocket2","images/alien3","images/nothing.png","2","real","true","1","common","0","2022-02-08 00:14:56.392"
"two-step-fixation","152","717984","0.0-76.0-2.5","534","668","23","Female","false","true","true","false","""event"",""trial"",""time""
""blur"",""0"",""0""
""focus"",""1"",""36399""
""fullscreenenter"",""5"",""51782""
","""event"",""trial"",""time""
""blur"",""0"",""0""
","""event"",""trial"",""time""
""focus"",""1"",""36399""
","""event"",""trial"",""time""
""fullscreenenter"",""5"",""51782""
","
","","images/earth.jpg","","","","","","","","","","","","","","fixation","","","","","",""
"d3-animate-choice","153","720232","0.0-76.0-0.6","534","668","23","Female","false","true","true","false","""event"",""trial"",""time""
""blur"",""0"",""0""
""focus"",""1"",""36399""
""fullscreenenter"",""5"",""51782""
","""event"",""trial"",""time""
""blur"",""0"",""0""
","""event"",""trial"",""time""
""focus"",""1"",""36399""
","""event"",""trial"",""time""
""fullscreenenter"",""5"",""51782""
","
","239.30000007152557","","49","","","3000","1","1703.3000000715256","48","images/earth.jpg","images/rocket1","images/rocket2","null","images/rocket2","","1","real","null","1","","",""
"d3-animate-choice","154","722479","0.0-76.0-1.6","534","668","23","Female","false","true","true","false","""event"",""trial"",""time""
""blur"",""0"",""0""
""focus"",""1"",""36399""
""fullscreenenter"",""5"",""51782""
","""event"",""trial"",""time""
""blur"",""0"",""0""
","""event"",""trial"",""time""
""focus"",""1"",""36399""
","""event"",""trial"",""time""
""fullscreenenter"",""5"",""51782""
","
","238.69999992847443","","48","","","3000","1","","","images/purpleplanet.jpg","images/alien4","images/alien3","images/rocket2","images/alien4","images/nothing.png","2","real","true","2","common","0","2022-02-08 00:15:01.896"
"two-step-fixation","155","723487","0.0-76.0-2.6","534","668","23","Female","false","true","true","false","""event"",""trial"",""time""
""blur"",""0"",""0""
""focus"",""1"",""36399""
""fullscreenenter"",""5"",""51782""
","""event"",""trial"",""time""
""blur"",""0"",""0""
","""event"",""trial"",""time""
""focus"",""1"",""36399""
","""event"",""trial"",""time""
""fullscreenenter"",""5"",""51782""
","
","","images/earth.jpg","","","","","","","","","","","","","","fixation","","","","","",""
"d3-animate-choice","156","725767","0.0-76.0-0.7","534","668","23","Female","false","true","true","false","""event"",""trial"",""time""
""blur"",""0"",""0""
""focus"",""1"",""36399""
""fullscreenenter"",""5"",""51782""
","""event"",""trial"",""time""
""blur"",""0"",""0""
","""event"",""trial"",""time""
""focus"",""1"",""36399""
","""event"",""trial"",""time""
""fullscreenenter"",""5"",""51782""
","
","270.59999990463257","","49","","","3000","1","","","images/earth.jpg","images/rocket1","images/rocket2","null","images/rocket2","","1","real","null","1","","",""
"d3-animate-choice","157","728059","0.0-76.0-1.7","534","668","23","Female","false","true","true","false","""event"",""trial"",""time""
""blur"",""0"",""0""
""focus"",""1"",""36399""
""fullscreenenter"",""5"",""51782""
","""event"",""trial"",""time""
""blur"",""0"",""0""
","""event"",""trial"",""time""
""focus"",""1"",""36399""
","""event"",""trial"",""time""
""fullscreenenter"",""5"",""51782""
","
","284.60000002384186","","49","","","3000","1","","","images/purpleplanet.jpg","images/alien4","images/alien3","images/rocket2","images/alien3","images/nothing.png","2","real","true","1","common","0","2022-02-08 00:15:07.476"
"two-step-fixation","158","729068","0.0-76.0-2.7","534","668","23","Female","false","true","true","false","""event"",""trial"",""time""
""blur"",""0"",""0""
""focus"",""1"",""36399""
""fullscreenenter"",""5"",""51782""
","""event"",""trial"",""time""
""blur"",""0"",""0""
","""event"",""trial"",""time""
""focus"",""1"",""36399""
","""event"",""trial"",""time""
""fullscreenenter"",""5"",""51782""
","
","","images/earth.jpg","","","","","","","","","","","","","","fixation","","","","","",""
"d3-animate-choice","159","731333","0.0-76.0-0.8","534","668","23","Female","false","true","true","false","""event"",""trial"",""time""
""blur"",""0"",""0""
""focus"",""1"",""36399""
""fullscreenenter"",""5"",""51782""
","""event"",""trial"",""time""
""blur"",""0"",""0""
","""event"",""trial"",""time""
""focus"",""1"",""36399""
","""event"",""trial"",""time""
""fullscreenenter"",""5"",""51782""
","
","253.79999995231628","","48","","","3000","1","","","images/earth.jpg","images/rocket1","images/rocket2","null","images/rocket1","","1","real","null","2","","",""
"d3-animate-choice","160","733583","0.0-76.0-1.8","534","668","23","Female","false","true","true","false","""event"",""trial"",""time""
""blur"",""0"",""0""
""focus"",""1"",""36399""
""fullscreenenter"",""5"",""51782""
","""event"",""trial"",""time""
""blur"",""0"",""0""
","""event"",""trial"",""time""
""focus"",""1"",""36399""
","""event"",""trial"",""time""
""fullscreenenter"",""5"",""51782""
","
","240","","49","","","3000","1","","","images/purpleplanet.jpg","images/alien4","images/alien3","images/rocket1","images/alien3","images/t.png","2","real","false","1","rare","1","2022-02-08 00:15:12.999"
"two-step-fixation","161","734593","0.0-76.0-2.8","534","668","23","Female","false","true","true","false","""event"",""trial"",""time""
""blur"",""0"",""0""
""focus"",""1"",""36399""
""fullscreenenter"",""5"",""51782""
","""event"",""trial"",""time""
""blur"",""0"",""0""
","""event"",""trial"",""time""
""focus"",""1"",""36399""
","""event"",""trial"",""time""
""fullscreenenter"",""5"",""51782""
","
","","images/earth.jpg","","","","","","","","","","","","","","fixation","","","","","",""
"d3-animate-choice","162","736868","0.0-76.0-0.9","534","668","23","Female","false","true","true","false","""event"",""trial"",""time""
""blur"",""0"",""0""
""focus"",""1"",""36399""
""fullscreenenter"",""5"",""51782""
","""event"",""trial"",""time""
""blur"",""0"",""0""
","""event"",""trial"",""time""
""focus"",""1"",""36399""
","""event"",""trial"",""time""
""fullscreenenter"",""5"",""51782""
","
","266.3000000715256","","48","","","3000","1","","","images/earth.jpg","images/rocket1","images/rocket2","null","images/rocket1","","1","real","null","2","","",""
"d3-animate-choice","163","739208","0.0-76.0-1.9","534","668","23","Female","false","true","true","false","""event"",""trial"",""time""
""blur"",""0"",""0""
""focus"",""1"",""36399""
""fullscreenenter"",""5"",""51782""
","""event"",""trial"",""time""
""blur"",""0"",""0""
","""event"",""trial"",""time""
""focus"",""1"",""36399""
","""event"",""trial"",""time""
""fullscreenenter"",""5"",""51782""
","
","332.89999997615814","","49","","","3000","1","","","images/redplanet1.jpg","images/alien2","images/alien1","images/rocket1","images/alien1","images/t.png","2","real","true","1","common","1","2022-02-08 00:15:18.625"
"two-step-fixation","164","740217","0.0-76.0-2.9","534","668","23","Female","false","true","true","false","""event"",""trial"",""time""
""blur"",""0"",""0""
""focus"",""1"",""36399""
""fullscreenenter"",""5"",""51782""
","""event"",""trial"",""time""
""blur"",""0"",""0""
","""event"",""trial"",""time""
""focus"",""1"",""36399""
","""event"",""trial"",""time""
""fullscreenenter"",""5"",""51782""
","
","","images/earth.jpg","","","","","","","","","","","","","","fixation","","","","","",""
"d3-animate-choice","165","742518","0.0-76.0-0.10","534","668","23","Female","false","true","true","false","""event"",""trial"",""time""
""blur"",""0"",""0""
""focus"",""1"",""36399""
""fullscreenenter"",""5"",""51782""
","""event"",""trial"",""time""
""blur"",""0"",""0""
","""event"",""trial"",""time""
""focus"",""1"",""36399""
","""event"",""trial"",""time""
""fullscreenenter"",""5"",""51782""
","
","291.39999997615814","","48","","","3000","1","","","images/earth.jpg","images/rocket1","images/rocket2","null","images/rocket1","","1","real","null","2","","",""
"d3-animate-choice","166","744873","0.0-76.0-1.10","534","668","23","Female","false","true","true","false","""event"",""trial"",""time""
""blur"",""0"",""0""
""focus"",""1"",""36399""
""fullscreenenter"",""5"",""51782""
","""event"",""trial"",""time""
""blur"",""0"",""0""
","""event"",""trial"",""time""
""focus"",""1"",""36399""
","""event"",""trial"",""time""
""fullscreenenter"",""5"",""51782""
","
","346.89999997615814","","49","","","3000","1","","","images/redplanet1.jpg","images/alien2","images/alien1","images/rocket1","images/alien1","images/t.png","2","real","true","1","common","1","2022-02-08 00:15:24.289"
"two-step-fixation","167","745881","0.0-76.0-2.10","534","668","23","Female","false","true","true","false","""event"",""trial"",""time""
""blur"",""0"",""0""
""focus"",""1"",""36399""
""fullscreenenter"",""5"",""51782""
","""event"",""trial"",""time""
""blur"",""0"",""0""
","""event"",""trial"",""time""
""focus"",""1"",""36399""
","""event"",""trial"",""time""
""fullscreenenter"",""5"",""51782""
","
","","images/earth.jpg","","","","","","","","","","","","","","fixation","","","","","",""
"d3-animate-choice","168","748211","0.0-76.0-0.11","534","668","23","Female","false","true","true","false","""event"",""trial"",""time""
""blur"",""0"",""0""
""focus"",""1"",""36399""
""fullscreenenter"",""5"",""51782""
","""event"",""trial"",""time""
""blur"",""0"",""0""
","""event"",""trial"",""time""
""focus"",""1"",""36399""
","""event"",""trial"",""time""
""fullscreenenter"",""5"",""51782""
","
","322.90000009536743","","48","","","3000","1","","","images/earth.jpg","images/rocket1","images/rocket2","null","images/rocket1","","1","real","null","2","","",""
"d3-animate-choice","169","750734","0.0-76.0-1.11","534","668","23","Female","false","true","true","false","""event"",""trial"",""time""
""blur"",""0"",""0""
""focus"",""1"",""36399""
""fullscreenenter"",""5"",""51782""
","""event"",""trial"",""time""
""blur"",""0"",""0""
","""event"",""trial"",""time""
""focus"",""1"",""36399""
","""event"",""trial"",""time""
""fullscreenenter"",""5"",""51782""
","
","515","","49","","","3000","1","","","images/redplanet1.jpg","images/alien2","images/alien1","images/rocket1","images/alien1","images/t.png","2","real","true","1","common","1","2022-02-08 00:15:30.150"
"two-step-fixation","170","751738","0.0-76.0-2.11","534","668","23","Female","false","true","true","false","""event"",""trial"",""time""
""blur"",""0"",""0""
""focus"",""1"",""36399""
""fullscreenenter"",""5"",""51782""
","""event"",""trial"",""time""
""blur"",""0"",""0""
","""event"",""trial"",""time""
""focus"",""1"",""36399""
","""event"",""trial"",""time""
""fullscreenenter"",""5"",""51782""
","
","","images/earth.jpg","","","","","","","","","","","","","","fixation","","","","","",""
"d3-animate-choice","171","754150","0.0-76.0-0.12","534","668","23","Female","false","true","true","false","""event"",""trial"",""time""
""blur"",""0"",""0""
""focus"",""1"",""36399""
""fullscreenenter"",""5"",""51782""
","""event"",""trial"",""time""
""blur"",""0"",""0""
","""event"",""trial"",""time""
""focus"",""1"",""36399""
","""event"",""trial"",""time""
""fullscreenenter"",""5"",""51782""
","
","404.7000000476837","","48","","","3000","1","","","images/earth.jpg","images/rocket1","images/rocket2","null","images/rocket1","","1","real","null","2","","",""
"d3-animate-choice","172","756652","0.0-76.0-1.12","534","668","23","Female","false","true","true","false","""event"",""trial"",""time""
""blur"",""0"",""0""
""focus"",""1"",""36399""
""fullscreenenter"",""5"",""51782""
","""event"",""trial"",""time""
""blur"",""0"",""0""
","""event"",""trial"",""time""
""focus"",""1"",""36399""
","""event"",""trial"",""time""
""fullscreenenter"",""5"",""51782""
","
","494","","49","","","3000","1","","","images/purpleplanet.jpg","images/alien4","images/alien3","images/rocket1","images/alien3","images/t.png","2","real","false","1","rare","1","2022-02-08 00:15:36.068"
"two-step-fixation","173","757657","0.0-76.0-2.12","534","668","23","Female","false","true","true","false","""event"",""trial"",""time""
""blur"",""0"",""0""
""focus"",""1"",""36399""
""fullscreenenter"",""5"",""51782""
","""event"",""trial"",""time""
""blur"",""0"",""0""
","""event"",""trial"",""time""
""focus"",""1"",""36399""
","""event"",""trial"",""time""
""fullscreenenter"",""5"",""51782""
","
","","images/earth.jpg","","","","","","","","","","","","","","fixation","","","","","",""
"d3-animate-choice","174","760488","0.0-76.0-0.13","534","668","23","Female","false","true","true","false","""event"",""trial"",""time""
""blur"",""0"",""0""
""focus"",""1"",""36399""
""fullscreenenter"",""5"",""51782""
","""event"",""trial"",""time""
""blur"",""0"",""0""
","""event"",""trial"",""time""
""focus"",""1"",""36399""
","""event"",""trial"",""time""
""fullscreenenter"",""5"",""51782""
","
","825.3999999761581","","48","","","3000","1","","","images/earth.jpg","images/rocket1","images/rocket2","null","images/rocket1","","1","real","null","2","","",""
"d3-animate-choice","175","763004","0.0-76.0-1.13","534","668","23","Female","false","true","true","false","""event"",""trial"",""time""
""blur"",""0"",""0""
""focus"",""1"",""36399""
""fullscreenenter"",""5"",""51782""
","""event"",""trial"",""time""
""blur"",""0"",""0""
","""event"",""trial"",""time""
""focus"",""1"",""36399""
","""event"",""trial"",""time""
""fullscreenenter"",""5"",""51782""
","
","510.2999999523163","","49","","","3000","1","","","images/redplanet1.jpg","images/alien2","images/alien1","images/rocket1","images/alien1","images/t.png","2","real","true","1","common","1","2022-02-08 00:15:42.420"
"two-step-fixation","176","764012","0.0-76.0-2.13","534","668","23","Female","false","true","true","false","""event"",""trial"",""time""
""blur"",""0"",""0""
""focus"",""1"",""36399""
""fullscreenenter"",""5"",""51782""
","""event"",""trial"",""time""
""blur"",""0"",""0""
","""event"",""trial"",""time""
""focus"",""1"",""36399""
","""event"",""trial"",""time""
""fullscreenenter"",""5"",""51782""
","
","","images/earth.jpg","","","","","","","","","","","","","","fixation","","","","","",""
"d3-animate-choice","177","766486","0.0-76.0-0.14","534","668","23","Female","false","true","true","false","""event"",""trial"",""time""
""blur"",""0"",""0""
""focus"",""1"",""36399""
""fullscreenenter"",""5"",""51782""
","""event"",""trial"",""time""
""blur"",""0"",""0""
","""event"",""trial"",""time""
""focus"",""1"",""36399""
","""event"",""trial"",""time""
""fullscreenenter"",""5"",""51782""
","
","467.2999999523163","","48","","","3000","1","","","images/earth.jpg","images/rocket1","images/rocket2","null","images/rocket1","","1","real","null","2","","",""
"d3-animate-choice","178","768839","0.0-76.0-1.14","534","668","23","Female","false","true","true","false","""event"",""trial"",""time""
""blur"",""0"",""0""
""focus"",""1"",""36399""
""fullscreenenter"",""5"",""51782""
","""event"",""trial"",""time""
""blur"",""0"",""0""
","""event"",""trial"",""time""
""focus"",""1"",""36399""
","""event"",""trial"",""time""
""fullscreenenter"",""5"",""51782""
","
","346.60000002384186","","49","","","3000","1","","","images/redplanet1.jpg","images/alien2","images/alien1","images/rocket1","images/alien1","images/t.png","2","real","true","1","common","1","2022-02-08 00:15:48.255"
"two-step-fixation","179","769845","0.0-76.0-2.14","534","668","23","Female","false","true","true","false","""event"",""trial"",""time""
""blur"",""0"",""0""
""focus"",""1"",""36399""
""fullscreenenter"",""5"",""51782""
","""event"",""trial"",""time""
""blur"",""0"",""0""
","""event"",""trial"",""time""
""focus"",""1"",""36399""
","""event"",""trial"",""time""
""fullscreenenter"",""5"",""51782""
","
","","images/earth.jpg","","","","","","","","","","","","","","fixation","","","","","",""
"d3-animate-choice","180","772219","0.0-76.0-0.15","534","668","23","Female","false","true","true","false","""event"",""trial"",""time""
