"trial_type","trial_index","time_elapsed","internal_node_id","participant_id","subject_id","age","gender","rocket_sides","red_planet_first_rocket","red_display_order","purple_display_order","interactions","blur_events","focus_events","fullscreenenter_events","fullscreenexit_events","rt","stimulus","key_press","button_pressed","success","duration","valid_pressed","rts","keys","planet_text","right_text","left_text","center_text","chosen_text","reward_text","trial_stage","practice_trial","transition_type","choice","transition","reward","timestamp"
"pavlovia","0","86","0.0-0.0","928","694","15","Male","true","false","false","true","
","
","
","
","
","","","","","","","","","","","","","","","","","","","","","",""
"html-keyboard-response","1","2235","0.0-1.0","928","694","15","Male","true","false","false","true","
","
","
","
","
","2138.9000000003725","Welcome! Press the space bar to begin.","32","","","","","","","","","","","","","","","","","","",""
"audio-keyboard-response","2","4187","0.0-2.0","928","694","15","Male","true","false","false","true","
","
","
","
","
","1739","audio/beep_loop.wav","32","","","","","","","","","","","","","","","","","","",""
"audio-button-response","3","6558","0.0-3.0","928","694","15","Male","true","false","false","true","
","
","
","
","
","NaN","audio/fish.mp3","","1","","","","","","","","","","","","","","","","","",""
"audio-button-response","4","9866","0.0-4.0","928","694","15","Male","true","false","false","true","""event"",""trial"",""time""
""fullscreenenter"",""5"",""13338""
","
","
","""event"",""trial"",""time""
""fullscreenenter"",""5"",""13338""
","
","NaN","audio/tiger.mp3","","4","","","","","","","","","","","","","","","","","",""
"fullscreen","5","14113","0.0-5.0","928","694","15","Male","true","false","false","true","""event"",""trial"",""time""
""fullscreenenter"",""5"",""13338""
","
","
","""event"",""trial"",""time""
""fullscreenenter"",""5"",""13338""
","
","","","","","true","","","","","","","","","","","","","","","","",""
"d3-instructions","6","22598","0.0-6.0","928","694","15","Male","true","false","false","true","""event"",""trial"",""time""
""fullscreenenter"",""5"",""13338""
","
","
","""event"",""trial"",""time""
""fullscreenenter"",""5"",""13338""
","
","","","","","","","","","","","","","","","","","","","","","",""
"d3-instructions","7","30269","0.0-7.0","928","694","15","Male","true","false","false","true","""event"",""trial"",""time""
""fullscreenenter"",""5"",""13338""
","
","
","""event"",""trial"",""time""
""fullscreenenter"",""5"",""13338""
","
","","","","","","","","","","","","","","","","","","","","","",""
"d3-instructions","8","36787","0.0-8.0","928","694","15","Male","true","false","false","true","""event"",""trial"",""time""
""fullscreenenter"",""5"",""13338""
","
","
","""event"",""trial"",""time""
""fullscreenenter"",""5"",""13338""
","
","","","","","","","","","","","","","","","","","","","","","",""
"d3-instructions","9","46449","0.0-9.0","928","694","15","Male","true","false","false","true","""event"",""trial"",""time""
""fullscreenenter"",""5"",""13338""
","
","
","""event"",""trial"",""time""
""fullscreenenter"",""5"",""13338""
","
","","","","","","","","","","","","","","","","","","","","","",""
"d3-instructions","10","53573","0.0-10.0","928","694","15","Male","true","false","false","true","""event"",""trial"",""time""
""fullscreenenter"",""5"",""13338""
","
","
","""event"",""trial"",""time""
""fullscreenenter"",""5"",""13338""
","
","","","","","","","","","","","","","","","","","","","","","",""
"d3-animate-choice","11","56136","0.0-11.0","928","694","15","Male","true","false","false","true","""event"",""trial"",""time""
""fullscreenenter"",""5"",""13338""
","
","
","""event"",""trial"",""time""
""fullscreenenter"",""5"",""13338""
","
","548.5","","49","","","3000","1","","","images/tutgreenplanet.jpg","images/tutalien1","images/tutalien2","null","images/tutalien2","","NA","practice","null","","","",""
"d3-animate-choice","12","58907","0.0-12.0","928","694","15","Male","true","false","false","true","""event"",""trial"",""time""
""fullscreenenter"",""5"",""13338""
","
","
","""event"",""trial"",""time""
""fullscreenenter"",""5"",""13338""
","
","764.2999999988824","","48","","","3000","1","","","images/tutgreenplanet.jpg","images/tutalien1","images/tutalien2","null","images/tutalien1","","NA","practice","null","","","",""
"d3-animate-choice","13","61353","0.0-13.0","928","694","15","Male","true","false","false","true","""event"",""trial"",""time""
""fullscreenenter"",""5"",""13338""
","
","
","""event"",""trial"",""time""
""fullscreenenter"",""5"",""13338""
","
","438.09999999962747","","48","","","3000","1","","","images/tutgreenplanet.jpg","images/tutalien1","images/tutalien2","null","images/tutalien1","","NA","practice","null","","","",""
"d3-animate-choice","14","63756","0.0-14.0","928","694","15","Male","true","false","false","true","""event"",""trial"",""time""
""fullscreenenter"",""5"",""13338""
","
","
","""event"",""trial"",""time""
""fullscreenenter"",""5"",""13338""
","
","392.19999999925494","","49","","","3000","1","","","images/tutgreenplanet.jpg","images/tutalien1","images/tutalien2","null","images/tutalien2","","NA","practice","null","","","",""
"d3-instructions","15","68465","0.0-15.0","928","694","15","Male","true","false","false","true","""event"",""trial"",""time""
""fullscreenenter"",""5"",""13338""
","
","
","""event"",""trial"",""time""
""fullscreenenter"",""5"",""13338""
","
","","","","","","","","","","","","","","","","","","","","","",""
"d3-instructions","16","70297","0.0-16.0","928","694","15","Male","true","false","false","true","""event"",""trial"",""time""
""fullscreenenter"",""5"",""13338""
","
","
","""event"",""trial"",""time""
""fullscreenenter"",""5"",""13338""
","
","","","","","","","","","","","","","","","","","","","","","",""
"d3-instructions","17","72556","0.0-17.0","928","694","15","Male","true","false","false","true","""event"",""trial"",""time""
""fullscreenenter"",""5"",""13338""
","
","
","""event"",""trial"",""time""
""fullscreenenter"",""5"",""13338""
","
","","","","","","","","","","","","","","","","","","","","","",""
"d3-instructions","18","75649","0.0-18.0","928","694","15","Male","true","false","false","true","""event"",""trial"",""time""
""fullscreenenter"",""5"",""13338""
","
","
","""event"",""trial"",""time""
""fullscreenenter"",""5"",""13338""
","
","","","","","","","","","","","","","","","","","","","","","",""
"d3-instructions","19","82769","0.0-19.0","928","694","15","Male","true","false","false","true","""event"",""trial"",""time""
""fullscreenenter"",""5"",""13338""
","
","
","""event"",""trial"",""time""
""fullscreenenter"",""5"",""13338""
","
","","","","","","","","","","","","","","","","","","","","","",""
"d3-animate-choice","20","85522","0.0-20.0","928","694","15","Male","true","false","false","true","""event"",""trial"",""time""
""fullscreenenter"",""5"",""13338""
","
","
","""event"",""trial"",""time""
""fullscreenenter"",""5"",""13338""
","
","745.7999999988824","","49","","","3000","1","","","images/tutyellowplanet.jpg","null","images/tutalien3","null","images/tutalien3","images/t.png","NA","practice","null","","","",""
"d3-animate-choice","21","87884","0.0-21.0","928","694","15","Male","true","false","false","true","""event"",""trial"",""time""
""fullscreenenter"",""5"",""13338""
","
","
","""event"",""trial"",""time""
""fullscreenenter"",""5"",""13338""
","
","356.30000000074506","","49","","","3000","1","","","images/tutyellowplanet.jpg","null","images/tutalien3","null","images/tutalien3","images/t.png","NA","practice","null","","","",""
"d3-animate-choice","22","90316","0.0-22.0","928","694","15","Male","true","false","false","true","""event"",""trial"",""time""
""fullscreenenter"",""5"",""13338""
","
","
","""event"",""trial"",""time""
""fullscreenenter"",""5"",""13338""
","
","425.59999999962747","","49","","","3000","1","","","images/tutyellowplanet.jpg","null","images/tutalien3","null","images/tutalien3","images/nothing.png","NA","practice","null","","","",""
"d3-animate-choice","23","92957","0.0-23.0","928","694","15","Male","true","false","false","true","""event"",""trial"",""time""
""fullscreenenter"",""5"",""13338""
","
","
","""event"",""trial"",""time""
""fullscreenenter"",""5"",""13338""
","
","635.7000000011176","","49","","","3000","1","","","images/tutyellowplanet.jpg","null","images/tutalien3","null","images/tutalien3","images/t.png","NA","practice","null","","","",""
"d3-animate-choice","24","95389","0.0-24.0","928","694","15","Male","true","false","false","true","""event"",""trial"",""time""
""fullscreenenter"",""5"",""13338""
","
","
","""event"",""trial"",""time""
""fullscreenenter"",""5"",""13338""
","
","424.90000000037253","","49","","","3000","1","","","images/tutyellowplanet.jpg","null","images/tutalien3","null","images/tutalien3","images/t.png","NA","practice","null","","","",""
"d3-animate-choice","25","97869","0.0-25.0","928","694","15","Male","true","false","false","true","""event"",""trial"",""time""
""fullscreenenter"",""5"",""13338""
","
","
","""event"",""trial"",""time""
""fullscreenenter"",""5"",""13338""
","
","473.5","","49","","","3000","1","","","images/tutyellowplanet.jpg","null","images/tutalien3","null","images/tutalien3","images/nothing.png","NA","practice","null","","","",""
"d3-animate-choice","26","100623","0.0-26.0","928","694","15","Male","true","false","false","true","""event"",""trial"",""time""
""fullscreenenter"",""5"",""13338""
","
","
","""event"",""trial"",""time""
""fullscreenenter"",""5"",""13338""
","
","748.0999999996275","","49","","","3000","1","","","images/tutyellowplanet.jpg","null","images/tutalien3","null","images/tutalien3","images/t.png","NA","practice","null","","","",""
"d3-animate-choice","27","103069","0.0-27.0","928","694","15","Male","true","false","false","true","""event"",""trial"",""time""
""fullscreenenter"",""5"",""13338""
","
","
","""event"",""trial"",""time""
""fullscreenenter"",""5"",""13338""
","
","441.19999999925494","","49","","","3000","1","","","images/tutyellowplanet.jpg","null","images/tutalien3","null","images/tutalien3","images/t.png","NA","practice","null","","","",""
"d3-animate-choice","28","105541","0.0-28.0","928","694","15","Male","true","false","false","true","""event"",""trial"",""time""
""fullscreenenter"",""5"",""13338""
","
","
","""event"",""trial"",""time""
""fullscreenenter"",""5"",""13338""
","
","460.09999999962747","","49","","","3000","1","","","images/tutyellowplanet.jpg","null","images/tutalien3","null","images/tutalien3","images/t.png","NA","practice","null","","","",""
"d3-animate-choice","29","108108","0.0-29.0","928","694","15","Male","true","false","false","true","""event"",""trial"",""time""
""fullscreenenter"",""5"",""13338""
","
","
","""event"",""trial"",""time""
""fullscreenenter"",""5"",""13338""
","
","561.2999999988824","","49","","","3000","1","","","images/tutyellowplanet.jpg","null","images/tutalien3","null","images/tutalien3","images/t.png","NA","practice","null","","","",""
"d3-instructions","30","111637","0.0-30.0","928","694","15","Male","true","false","false","true","""event"",""trial"",""time""
""fullscreenenter"",""5"",""13338""
","
","
","""event"",""trial"",""time""
""fullscreenenter"",""5"",""13338""
","
","","","","","","","","","","","","","","","","","","","","","",""
"d3-instructions","31","116672","0.0-31.0","928","694","15","Male","true","false","false","true","""event"",""trial"",""time""
""fullscreenenter"",""5"",""13338""
","
","
","""event"",""trial"",""time""
""fullscreenenter"",""5"",""13338""
","
","","","","","","","","","","","","","","","","","","","","","",""
"d3-instructions","32","119591","0.0-32.0","928","694","15","Male","true","false","false","true","""event"",""trial"",""time""
""fullscreenenter"",""5"",""13338""
","
","
","""event"",""trial"",""time""
""fullscreenenter"",""5"",""13338""
","
","","","","","","","","","","","","","","","","","","","","","",""
"d3-instructions","33","121938","0.0-33.0","928","694","15","Male","true","false","false","true","""event"",""trial"",""time""
""fullscreenenter"",""5"",""13338""
","
","
","""event"",""trial"",""time""
""fullscreenenter"",""5"",""13338""
","
","","","","","","","","","","","","","","","","","","","","","",""
"d3-animate-choice","34","125144","0.0-34.0","928","694","15","Male","true","false","false","true","""event"",""trial"",""time""
""fullscreenenter"",""5"",""13338""
","
","
","""event"",""trial"",""time""
""fullscreenenter"",""5"",""13338""
","
","1200","","49","","","3000","1","","","images/tutgreenplanet.jpg","images/tutalien1","images/tutalien2","null","images/tutalien2","images/t.png","NA","practice","null","","","",""
"d3-animate-choice","35","127634","0.0-35.0","928","694","15","Male","true","false","false","true","""event"",""trial"",""time""
""fullscreenenter"",""5"",""13338""
","
","
","""event"",""trial"",""time""
""fullscreenenter"",""5"",""13338""
","
","484.5","","49","","","3000","1","","","images/tutgreenplanet.jpg","images/tutalien1","images/tutalien2","null","images/tutalien2","images/t.png","NA","practice","null","","","",""
"d3-animate-choice","36","130123","0.0-36.0","928","694","15","Male","true","false","false","true","""event"",""trial"",""time""
""fullscreenenter"",""5"",""13338""
","
","
","""event"",""trial"",""time""
""fullscreenenter"",""5"",""13338""
","
","479.5","","49","","","3000","1","","","images/tutgreenplanet.jpg","images/tutalien1","images/tutalien2","null","images/tutalien2","images/t.png","NA","practice","null","","","",""
"d3-animate-choice","37","132465","0.0-37.0","928","694","15","Male","true","false","false","true","""event"",""trial"",""time""
""fullscreenenter"",""5"",""13338""
","
","
","""event"",""trial"",""time""
""fullscreenenter"",""5"",""13338""
","
","335.09999999962747","","49","","","3000","1","","","images/tutgreenplanet.jpg","images/tutalien1","images/tutalien2","null","images/tutalien2","images/t.png","NA","practice","null","","","",""
"d3-animate-choice","38","134754","0.0-38.0","928","694","15","Male","true","false","false","true","""event"",""trial"",""time""
""fullscreenenter"",""5"",""13338""
","
","
","""event"",""trial"",""time""
""fullscreenenter"",""5"",""13338""
","
","282.30000000074506","","49","","","3000","1","","","images/tutgreenplanet.jpg","images/tutalien1","images/tutalien2","null","images/tutalien2","images/t.png","NA","practice","null","","","",""
"d3-animate-choice","39","137106","0.0-39.0","928","694","15","Male","true","false","false","true","""event"",""trial"",""time""
""fullscreenenter"",""5"",""13338""
","
","
","""event"",""trial"",""time""
""fullscreenenter"",""5"",""13338""
","
","345.30000000074506","","49","","","3000","1","1798.2000000011176","49","images/tutgreenplanet.jpg","images/tutalien1","images/tutalien2","null","images/tutalien2","images/t.png","NA","practice","null","","","",""
"d3-animate-choice","40","139367","0.0-40.0","928","694","15","Male","true","false","false","true","""event"",""trial"",""time""
""fullscreenenter"",""5"",""13338""
","
","
","""event"",""trial"",""time""
""fullscreenenter"",""5"",""13338""
","
","250.2000000011176","","49","","","3000","1","","","images/tutgreenplanet.jpg","images/tutalien1","images/tutalien2","null","images/tutalien2","images/t.png","NA","practice","null","","","",""
"d3-animate-choice","41","142132","0.0-41.0","928","694","15","Male","true","false","false","true","""event"",""trial"",""time""
""fullscreenenter"",""5"",""13338""
","
","
","""event"",""trial"",""time""
""fullscreenenter"",""5"",""13338""
","
","747.5","","49","","","3000","1","","","images/tutgreenplanet.jpg","images/tutalien1","images/tutalien2","null","images/tutalien2","images/t.png","NA","practice","null","","","",""
"d3-animate-choice","42","144717","0.0-42.0","928","694","15","Male","true","false","false","true","""event"",""trial"",""time""
""fullscreenenter"",""5"",""13338""
","
","
","""event"",""trial"",""time""
""fullscreenenter"",""5"",""13338""
","
","578.2000000011176","","49","","","3000","1","","","images/tutgreenplanet.jpg","images/tutalien1","images/tutalien2","null","images/tutalien2","images/t.png","NA","practice","null","","","",""
"d3-animate-choice","43","147018","0.0-43.0","928","694","15","Male","true","false","false","true","""event"",""trial"",""time""
""fullscreenenter"",""5"",""13338""
","
","
","""event"",""trial"",""time""
""fullscreenenter"",""5"",""13338""
","
","295.1000000014901","","49","","","3000","1","","","images/tutgreenplanet.jpg","images/tutalien1","images/tutalien2","null","images/tutalien2","images/t.png","NA","practice","null","","","",""
"d3-instructions","44","151491","0.0-44.0","928","694","15","Male","true","false","false","true","""event"",""trial"",""time""
""fullscreenenter"",""5"",""13338""
","
","
","""event"",""trial"",""time""
""fullscreenenter"",""5"",""13338""
","
","","","","","","","","","","","","","","","","","","","","","",""
"d3-instructions","45","155645","0.0-45.0","928","694","15","Male","true","false","false","true","""event"",""trial"",""time""
""fullscreenenter"",""5"",""13338""
","
","
","""event"",""trial"",""time""
""fullscreenenter"",""5"",""13338""
","
","","","","","","","","","","","","","","","","","","","","","",""
"d3-instructions","46","160917","0.0-46.0","928","694","15","Male","true","false","false","true","""event"",""trial"",""time""
""fullscreenenter"",""5"",""13338""
","
","
","""event"",""trial"",""time""
""fullscreenenter"",""5"",""13338""
","
","","","","","","","","","","","","","","","","","","","","","",""
"d3-instructions","47","167000","0.0-47.0","928","694","15","Male","true","false","false","true","""event"",""trial"",""time""
""fullscreenenter"",""5"",""13338""
","
","
","""event"",""trial"",""time""
""fullscreenenter"",""5"",""13338""
","
","","","","","","","","","","","","","","","","","","","","","",""
"d3-instructions","48","173511","0.0-48.0","928","694","15","Male","true","false","false","true","""event"",""trial"",""time""
""fullscreenenter"",""5"",""13338""
","
","
","""event"",""trial"",""time""
""fullscreenenter"",""5"",""13338""
","
","","","","","","","","","","","","","","","","","","","","","",""
"d3-instructions","49","184421","0.0-49.0","928","694","15","Male","true","false","false","true","""event"",""trial"",""time""
""fullscreenenter"",""5"",""13338""
","
","
","""event"",""trial"",""time""
""fullscreenenter"",""5"",""13338""
","
","","","","","","","","","","","","","","","","","","","","","",""
"d3-instructions","50","192828","0.0-50.0","928","694","15","Male","true","false","false","true","""event"",""trial"",""time""
""fullscreenenter"",""5"",""13338""
","
","
","""event"",""trial"",""time""
""fullscreenenter"",""5"",""13338""
","
","","","","","","","","","","","","","","","","","","","","","",""
"d3-instructions","51","194606","0.0-51.0","928","694","15","Male","true","false","false","true","""event"",""trial"",""time""
""fullscreenenter"",""5"",""13338""
","
","
","""event"",""trial"",""time""
""fullscreenenter"",""5"",""13338""
","
","","","","","","","","","","","","","","","","","","","","","",""
"d3-instructions","52","195672","0.0-52.0","928","694","15","Male","true","false","false","true","""event"",""trial"",""time""
""fullscreenenter"",""5"",""13338""
","
","
","""event"",""trial"",""time""
""fullscreenenter"",""5"",""13338""
","
","","","","","","","","","","","","","","","","","","","","","",""
"d3-instructions","53","198801","0.0-53.0","928","694","15","Male","true","false","false","true","""event"",""trial"",""time""
""fullscreenenter"",""5"",""13338""
","
","
","""event"",""trial"",""time""
""fullscreenenter"",""5"",""13338""
","
","","","","","","","","","","","","","","","","","","","","","",""
"d3-instructions","54","205526","0.0-54.0","928","694","15","Male","true","false","false","true","""event"",""trial"",""time""
""fullscreenenter"",""5"",""13338""
","
","
","""event"",""trial"",""time""
""fullscreenenter"",""5"",""13338""
","
","","","","","","","","","","","","","","","","","","","","","",""
"d3-instructions","55","208380","0.0-55.0","928","694","15","Male","true","false","false","true","""event"",""trial"",""time""
""fullscreenenter"",""5"",""13338""
","
","
","""event"",""trial"",""time""
""fullscreenenter"",""5"",""13338""
","
","","","","","","","","","","","","","","","","","","","","","",""
"d3-instructions","56","215984","0.0-56.0","928","694","15","Male","true","false","false","true","""event"",""trial"",""time""
""fullscreenenter"",""5"",""13338""
","
","
","""event"",""trial"",""time""
""fullscreenenter"",""5"",""13338""
","
","","","","","","","","","","","","","","","","","","","","","",""
"d3-instructions","57","218869","0.0-57.0","928","694","15","Male","true","false","false","true","""event"",""trial"",""time""
""fullscreenenter"",""5"",""13338""
","
","
","""event"",""trial"",""time""
""fullscreenenter"",""5"",""13338""
","
","","","","","","","","","","","","","","","","","","","","","",""
"d3-instructions","58","221212","0.0-58.0","928","694","15","Male","true","false","false","true","""event"",""trial"",""time""
""fullscreenenter"",""5"",""13338""
","
","
","""event"",""trial"",""time""
""fullscreenenter"",""5"",""13338""
","
","","","","","","","","","","","","","","","","","","","","","",""
"d3-instructions","59","222658","0.0-59.0","928","694","15","Male","true","false","false","true","""event"",""trial"",""time""
""fullscreenenter"",""5"",""13338""
","
","
","""event"",""trial"",""time""
""fullscreenenter"",""5"",""13338""
","
","","","","","","","","","","","","","","","","","","","","","",""
"d3-instructions","60","224126","0.0-60.0","928","694","15","Male","true","false","false","true","""event"",""trial"",""time""
""fullscreenenter"",""5"",""13338""
","
","
","""event"",""trial"",""time""
""fullscreenenter"",""5"",""13338""
","
","","","","","","","","","","","","","","","","","","","","","",""
"d3-animate-choice","61","227072","0.0-61.0-0.0","928","694","15","Male","true","false","false","true","""event"",""trial"",""time""
""fullscreenenter"",""5"",""13338""
","
","
","""event"",""trial"",""time""
""fullscreenenter"",""5"",""13338""
","
","937.1999999992549","","49","","","3000","1","","","images/earth.jpg","images/tutrocket1","images/tutrocket2","null","images/tutrocket2","","1","practice","null","1","","",""
"d3-animate-choice","62","229881","0.0-61.0-1.0","928","694","15","Male","true","false","false","true","""event"",""trial"",""time""
""fullscreenenter"",""5"",""13338""
","
","
","""event"",""trial"",""time""
""fullscreenenter"",""5"",""13338""
","
","798","","49","","","3000","1","","","images/tutgreenplanet.jpg","images/tutalien2","images/tutalien1","images/tutrocket2","images/tutalien1","images/nothing.png","2","practice","true","1","common","0","2022-02-09 00:38:51.899"
"two-step-fixation","63","230895","0.0-61.0-2.0","928","694","15","Male","true","false","false","true","""event"",""trial"",""time""
""fullscreenenter"",""5"",""13338""
","
","
","""event"",""trial"",""time""
""fullscreenenter"",""5"",""13338""
","
","","images/earth.jpg","","","","","","","","","","","","","","fixation","","","","","",""
"d3-animate-choice","64","233212","0.0-61.0-0.1","928","694","15","Male","true","false","false","true","""event"",""trial"",""time""
""fullscreenenter"",""5"",""13338""
","
","
","""event"",""trial"",""time""
""fullscreenenter"",""5"",""13338""
","
","305.2000000011176","","49","","","3000","1","","","images/earth.jpg","images/tutrocket1","images/tutrocket2","null","images/tutrocket2","","1","practice","null","1","","",""
"d3-animate-choice","65","235524","0.0-61.0-1.1","928","694","15","Male","true","false","false","true","""event"",""trial"",""time""
""fullscreenenter"",""5"",""13338""
","
","
","""event"",""trial"",""time""
""fullscreenenter"",""5"",""13338""
","
","303.2000000011176","","49","","","3000","1","","","images/tutgreenplanet.jpg","images/tutalien2","images/tutalien1","images/tutrocket2","images/tutalien1","images/t.png","2","practice","true","1","common","1","2022-02-09 00:38:57.541"
"two-step-fixation","66","236530","0.0-61.0-2.1","928","694","15","Male","true","false","false","true","""event"",""trial"",""time""
""fullscreenenter"",""5"",""13338""
","
","
","""event"",""trial"",""time""
""fullscreenenter"",""5"",""13338""
","
","","images/earth.jpg","","","","","","","","","","","","","","fixation","","","","","",""
"d3-animate-choice","67","238823","0.0-61.0-0.2","928","694","15","Male","true","false","false","true","""event"",""trial"",""time""
""fullscreenenter"",""5"",""13338""
","
","
","""event"",""trial"",""time""
""fullscreenenter"",""5"",""13338""
","
","285.09999999962747","","49","","","3000","1","","","images/earth.jpg","images/tutrocket1","images/tutrocket2","null","images/tutrocket2","","1","practice","null","1","","",""
"d3-animate-choice","68","241319","0.0-61.0-1.2","928","694","15","Male","true","false","false","true","""event"",""trial"",""time""
""fullscreenenter"",""5"",""13338""
","
","
","""event"",""trial"",""time""
""fullscreenenter"",""5"",""13338""
","
","487","","49","","","3000","1","","","images/tutgreenplanet.jpg","images/tutalien2","images/tutalien1","images/tutrocket2","images/tutalien1","images/nothing.png","2","practice","true","1","common","0","2022-02-09 00:39:03.337"
"two-step-fixation","69","242325","0.0-61.0-2.2","928","694","15","Male","true","false","false","true","""event"",""trial"",""time""
""fullscreenenter"",""5"",""13338""
","
","
","""event"",""trial"",""time""
""fullscreenenter"",""5"",""13338""
","
","","images/earth.jpg","","","","","","","","","","","","","","fixation","","","","","",""
"d3-animate-choice","70","244577","0.0-61.0-0.3","928","694","15","Male","true","false","false","true","""event"",""trial"",""time""
""fullscreenenter"",""5"",""13338""
","
","
","""event"",""trial"",""time""
""fullscreenenter"",""5"",""13338""
","
","243.90000000037253","","48","","","3000","1","","","images/earth.jpg","images/tutrocket1","images/tutrocket2","null","images/tutrocket1","","1","practice","null","2","","",""
"d3-animate-choice","71","246977","0.0-61.0-1.3","928","694","15","Male","true","false","false","true","""event"",""trial"",""time""
""fullscreenenter"",""5"",""13338""
","
","
","""event"",""trial"",""time""
""fullscreenenter"",""5"",""13338""
","
","392.7999999988824","","48","","","3000","1","","","images/tutyellowplanet.jpg","images/tutalien4","images/tutalien3","images/tutrocket1","images/tutalien4","images/t.png","2","practice","true","2","common","1","2022-02-09 00:39:08.994"
"two-step-fixation","72","247982","0.0-61.0-2.3","928","694","15","Male","true","false","false","true","""event"",""trial"",""time""
""fullscreenenter"",""5"",""13338""
","
","
","""event"",""trial"",""time""
""fullscreenenter"",""5"",""13338""
","
","","images/earth.jpg","","","","","","","","","","","","","","fixation","","","","","",""
"d3-animate-choice","73","250240","0.0-61.0-0.4","928","694","15","Male","true","false","false","true","""event"",""trial"",""time""
""fullscreenenter"",""5"",""13338""
","
","
","""event"",""trial"",""time""
""fullscreenenter"",""5"",""13338""
","
","249.19999999925494","","48","","","3000","1","","","images/earth.jpg","images/tutrocket1","images/tutrocket2","null","images/tutrocket1","","1","practice","null","2","","",""
"d3-animate-choice","74","252654","0.0-61.0-1.4","928","694","15","Male","true","false","false","true","""event"",""trial"",""time""
""fullscreenenter"",""5"",""13338""
","
","
","""event"",""trial"",""time""
""fullscreenenter"",""5"",""13338""
","
","404.7000000011176","","48","","","3000","1","","","images/tutyellowplanet.jpg","images/tutalien4","images/tutalien3","images/tutrocket1","images/tutalien4","images/t.png","2","practice","true","2","common","1","2022-02-09 00:39:14.671"
"two-step-fixation","75","253659","0.0-61.0-2.4","928","694","15","Male","true","false","false","true","""event"",""trial"",""time""
""fullscreenenter"",""5"",""13338""
","
","
","""event"",""trial"",""time""
""fullscreenenter"",""5"",""13338""
","
","","images/earth.jpg","","","","","","","","","","","","","","fixation","","","","","",""
"d3-animate-choice","76","255903","0.0-61.0-0.5","928","694","15","Male","true","false","false","true","""event"",""trial"",""time""
""fullscreenenter"",""5"",""13338""
","
","
","""event"",""trial"",""time""
""fullscreenenter"",""5"",""13338""
","
","237.59999999962747","","48","","","3000","1","","","images/earth.jpg","images/tutrocket1","images/tutrocket2","null","images/tutrocket1","","1","practice","null","2","","",""
"d3-animate-choice","77","258662","0.0-61.0-1.5","928","694","15","Male","true","false","false","true","""event"",""trial"",""time""
""fullscreenenter"",""5"",""13338""
","
","
","""event"",""trial"",""time""
""fullscreenenter"",""5"",""13338""
","
","750.9000000003725","","49","","","3000","1","1540.199999999255","49","images/tutgreenplanet.jpg","images/tutalien2","images/tutalien1","images/tutrocket1","images/tutalien1","images/nothing.png","2","practice","false","1","rare","0","2022-02-09 00:39:20.679"
"two-step-fixation","78","259666","0.0-61.0-2.5","928","694","15","Male","true","false","false","true","""event"",""trial"",""time""
""fullscreenenter"",""5"",""13338""
","
","
","""event"",""trial"",""time""
""fullscreenenter"",""5"",""13338""
","
","","images/earth.jpg","","","","","","","","","","","","","","fixation","","","","","",""
"d3-animate-choice","79","262087","0.0-61.0-0.6","928","694","15","Male","true","false","false","true","""event"",""trial"",""time""
""fullscreenenter"",""5"",""13338""
","
","
","""event"",""trial"",""time""
""fullscreenenter"",""5"",""13338""
","
","411.7000000011176","","48","","","3000","1","2187.2000000011176","192","images/earth.jpg","images/tutrocket1","images/tutrocket2","null","images/tutrocket1","","1","practice","null","2","","",""
"d3-animate-choice","80","265292","0.0-61.0-1.6","928","694","15","Male","true","false","false","true","""event"",""trial"",""time""
""fullscreenenter"",""5"",""13338""
","
","
","""event"",""trial"",""time""
""fullscreenenter"",""5"",""13338""
","
","1197.2999999988824","","48","","","3000","1","","","images/tutgreenplanet.jpg","images/tutalien2","images/tutalien1","images/tutrocket1","images/tutalien2","images/nothing.png","2","practice","false","2","rare","0","2022-02-09 00:39:27.309"
"two-step-fixation","81","266298","0.0-61.0-2.6","928","694","15","Male","true","false","false","true","""event"",""trial"",""time""
""fullscreenenter"",""5"",""13338""
","
","
","""event"",""trial"",""time""
""fullscreenenter"",""5"",""13338""
","
","","images/earth.jpg","","","","","","","","","","","","","","fixation","","","","","",""
"d3-animate-choice","82","268806","0.0-61.0-0.7","928","694","15","Male","true","false","false","true","""event"",""trial"",""time""
""fullscreenenter"",""5"",""13338""
","
","
","""event"",""trial"",""time""
""fullscreenenter"",""5"",""13338""
","
","499.5","","48","","","3000","1","","","images/earth.jpg","images/tutrocket1","images/tutrocket2","null","images/tutrocket1","","1","practice","null","2","","",""
"d3-animate-choice","83","271618","0.0-61.0-1.7","928","694","15","Male","true","false","false","true","""event"",""trial"",""time""
""fullscreenenter"",""5"",""13338""
","
","
","""event"",""trial"",""time""
""fullscreenenter"",""5"",""13338""
","
","803.3000000007451","","49","","","3000","1","","","images/tutyellowplanet.jpg","images/tutalien4","images/tutalien3","images/tutrocket1","images/tutalien3","images/nothing.png","2","practice","true","1","common","0","2022-02-09 00:39:33.635"
"two-step-fixation","84","272623","0.0-61.0-2.7","928","694","15","Male","true","false","false","true","""event"",""trial"",""time""
""fullscreenenter"",""5"",""13338""
","
","
","""event"",""trial"",""time""
""fullscreenenter"",""5"",""13338""
","
","","images/earth.jpg","","","","","","","","","","","","","","fixation","","","","","",""
"d3-animate-choice","85","275124","0.0-61.0-0.8","928","694","15","Male","true","false","false","true","""event"",""trial"",""time""
""fullscreenenter"",""5"",""13338""
","
","
","""event"",""trial"",""time""
""fullscreenenter"",""5"",""13338""
","
","494.7999999988824","","48","","","3000","1","","","images/earth.jpg","images/tutrocket1","images/tutrocket2","null","images/tutrocket1","","1","practice","null","2","","",""
"d3-animate-choice","86","277496","0.0-61.0-1.8","928","694","15","Male","true","false","false","true","""event"",""trial"",""time""
""fullscreenenter"",""5"",""13338""
","
","
","""event"",""trial"",""time""
""fullscreenenter"",""5"",""13338""
","
","359.09999999962747","","48","","","3000","1","","","images/tutgreenplanet.jpg","images/tutalien2","images/tutalien1","images/tutrocket1","images/tutalien2","images/nothing.png","2","practice","false","2","rare","0","2022-02-09 00:39:39.513"
"two-step-fixation","87","278503","0.0-61.0-2.8","928","694","15","Male","true","false","false","true","""event"",""trial"",""time""
""fullscreenenter"",""5"",""13338""
","
","
","""event"",""trial"",""time""
""fullscreenenter"",""5"",""13338""
","
","","images/earth.jpg","","","","","","","","","","","","","","fixation","","","","","",""
"d3-animate-choice","88","280785","0.0-61.0-0.9","928","694","15","Male","true","false","false","true","""event"",""trial"",""time""
""fullscreenenter"",""5"",""13338""
","
","
","""event"",""trial"",""time""
""fullscreenenter"",""5"",""13338""
","
","270.7000000011176","","48","","","3000","1","","","images/earth.jpg","images/tutrocket1","images/tutrocket2","null","images/tutrocket1","","1","practice","null","2","","",""
"d3-animate-choice","89","283306","0.0-61.0-1.9","928","694","15","Male","true","false","false","true","""event"",""trial"",""time""
""fullscreenenter"",""5"",""13338""
","
","
","""event"",""trial"",""time""
""fullscreenenter"",""5"",""13338""
","
","510.19999999925494","","49","","","3000","1","","","images/tutyellowplanet.jpg","images/tutalien4","images/tutalien3","images/tutrocket1","images/tutalien3","images/nothing.png","2","practice","true","1","common","0","2022-02-09 00:39:45.323"
"two-step-fixation","90","284311","0.0-61.0-2.9","928","694","15","Male","true","false","false","true","""event"",""trial"",""time""
""fullscreenenter"",""5"",""13338""
","
","
","""event"",""trial"",""time""
""fullscreenenter"",""5"",""13338""
","
","","images/earth.jpg","","","","","","","","","","","","","","fixation","","","","","",""
"d3-animate-choice","91","286561","0.0-61.0-0.10","928","694","15","Male","true","false","false","true","""event"",""trial"",""time""
""fullscreenenter"",""5"",""13338""
","
","
","""event"",""trial"",""time""
""fullscreenenter"",""5"",""13338""
","
","242.40000000037253","","48","","","3000","1","","","images/earth.jpg","images/tutrocket1","images/tutrocket2","null","images/tutrocket1","","1","practice","null","2","","",""
"d3-animate-choice","92","288952","0.0-61.0-1.10","928","694","15","Male","true","false","false","true","""event"",""trial"",""time""
""fullscreenenter"",""5"",""13338""
","
","
","""event"",""trial"",""time""
""fullscreenenter"",""5"",""13338""
","
","380.90000000037253","","49","","","3000","1","","","images/tutyellowplanet.jpg","images/tutalien4","images/tutalien3","images/tutrocket1","images/tutalien3","images/nothing.png","2","practice","true","1","common","0","2022-02-09 00:39:50.969"
"two-step-fixation","93","289964","0.0-61.0-2.10","928","694","15","Male","true","false","false","true","""event"",""trial"",""time""
""fullscreenenter"",""5"",""13338""
","
","
","""event"",""trial"",""time""
""fullscreenenter"",""5"",""13338""
","
","","images/earth.jpg","","","","","","","","","","","","","","fixation","","","","","",""
"d3-animate-choice","94","292265","0.0-61.0-0.11","928","694","15","Male","true","false","false","true","""event"",""trial"",""time""
""fullscreenenter"",""5"",""13338""
","
","
","""event"",""trial"",""time""
""fullscreenenter"",""5"",""13338""
","
","290.09999999962747","","48","","","3000","1","","","images/earth.jpg","images/tutrocket1","images/tutrocket2","null","images/tutrocket1","","1","practice","null","2","","",""
"d3-animate-choice","95","294600","0.0-61.0-1.11","928","694","15","Male","true","false","false","true","""event"",""trial"",""time""
""fullscreenenter"",""5"",""13338""
","
","
","""event"",""trial"",""time""
""fullscreenenter"",""5"",""13338""
","
","326.30000000074506","","48","","","3000","1","","","images/tutgreenplanet.jpg","images/tutalien2","images/tutalien1","images/tutrocket1","images/tutalien2","images/t.png","2","practice","false","2","rare","1","2022-02-09 00:39:56.617"
"two-step-fixation","96","295605","0.0-61.0-2.11","928","694","15","Male","true","false","false","true","""event"",""trial"",""time""
""fullscreenenter"",""5"",""13338""
","
","
","""event"",""trial"",""time""
""fullscreenenter"",""5"",""13338""
","
","","images/earth.jpg","","","","","","","","","","","","","","fixation","","","","","",""
"d3-animate-choice","97","298044","0.0-61.0-0.12","928","694","15","Male","true","false","false","true","""event"",""trial"",""time""
""fullscreenenter"",""5"",""13338""
","
","
","""event"",""trial"",""time""
""fullscreenenter"",""5"",""13338""
","
","429.30000000074506","","48","","","3000","1","","","images/earth.jpg","images/tutrocket1","images/tutrocket2","null","images/tutrocket1","","1","practice","null","2","","",""
"d3-animate-choice","98","300916","0.0-61.0-1.12","928","694","15","Male","true","false","false","true","""event"",""trial"",""time""
""fullscreenenter"",""5"",""13338""
","
","
","""event"",""trial"",""time""
""fullscreenenter"",""5"",""13338""
","
","864.5","","48","","","3000","1","","","images/tutgreenplanet.jpg","images/tutalien2","images/tutalien1","images/tutrocket1","images/tutalien2","images/nothing.png","2","practice","false","2","rare","0","2022-02-09 00:40:02.933"
"two-step-fixation","99","301921","0.0-61.0-2.12","928","694","15","Male","true","false","false","true","""event"",""trial"",""time""
""fullscreenenter"",""5"",""13338""
","
","
","""event"",""trial"",""time""
""fullscreenenter"",""5"",""13338""
","
","","images/earth.jpg","","","","","","","","","","","","","","fixation","","","","","",""
"d3-animate-choice","100","304319","0.0-61.0-0.13","928","694","15","Male","true","false","false","true","""event"",""trial"",""time""
""fullscreenenter"",""5"",""13338""
","
","
","""event"",""trial"",""time""
""fullscreenenter"",""5"",""13338""
","
","390.09999999962747","","49","","","3000","1","","","images/earth.jpg","images/tutrocket1","images/tutrocket2","null","images/tutrocket2","","1","practice","null","1","","",""
"d3-animate-choice","101","306739","0.0-61.0-1.13","928","694","15","Male","true","false","false","true","""event"",""trial"",""time""
""fullscreenenter"",""5"",""13338""
","
","
","""event"",""trial"",""time""
""fullscreenenter"",""5"",""13338""
","
","412.2999999988824","","49","","","3000","1","","","images/tutyellowplanet.jpg","images/tutalien4","images/tutalien3","images/tutrocket2","images/tutalien3","images/t.png","2","practice","false","1","rare","1","2022-02-09 00:40:08.757"
"two-step-fixation","102","307744","0.0-61.0-2.13","928","694","15","Male","true","false","false","true","""event"",""trial"",""time""
""fullscreenenter"",""5"",""13338""
","
","
","""event"",""trial"",""time""
""fullscreenenter"",""5"",""13338""
","
","","images/earth.jpg","","","","","","","","","","","","","","fixation","","","","","",""
"d3-animate-choice","103","309934","0.0-61.0-0.14","928","694","15","Male","true","false","false","true","""event"",""trial"",""time""
""fullscreenenter"",""5"",""13338""
","
","
","""event"",""trial"",""time""
""fullscreenenter"",""5"",""13338""
","
","181.89999999850988","","49","","","3000","1","","","images/earth.jpg","images/tutrocket1","images/tutrocket2","null","images/tutrocket2","","1","practice","null","1","","",""
"d3-animate-choice","104","312405","0.0-61.0-1.14","928","694","15","Male","true","false","false","true","""event"",""trial"",""time""
""fullscreenenter"",""5"",""13338""
","
","
","""event"",""trial"",""time""
""fullscreenenter"",""5"",""13338""
","
","464.2999999988824","","49","","","3000","1","","","images/tutgreenplanet.jpg","images/tutalien2","images/tutalien1","images/tutrocket2","images/tutalien1","images/nothing.png","2","practice","true","1","common","0","2022-02-09 00:40:14.422"
"two-step-fixation","105","313410","0.0-61.0-2.14","928","694","15","Male","true","false","false","true","""event"",""trial"",""time""
""fullscreenenter"",""5"",""13338""
","
","
","""event"",""trial"",""time""
""fullscreenenter"",""5"",""13338""
","
","","images/earth.jpg","","","","","","","","","","","","","","fixation","","","","","",""
"d3-animate-choice","106","315452","0.0-61.0-0.15","928","694","15","Male","true","false","false","true","""event"",""trial"",""time""
""fullscreenenter"",""5"",""13338""
","
","
","""event"",""trial"",""time""
""fullscreenenter"",""5"",""13338""
","
","33.40000000037253","","49","","","3000","1","","","images/earth.jpg","images/tutrocket1","images/tutrocket2","null","images/tutrocket2","","1","practice","null","1","","",""
"d3-animate-choice","107","317751","0.0-61.0-1.15","928","694","15","Male","true","false","false","true","""event"",""trial"",""time""
""fullscreenenter"",""5"",""13338""
","
","
","""event"",""trial"",""time""
""fullscreenenter"",""5"",""13338""
","
","286.90000000037253","","48","","","3000","1","768.3000000007451","48","images/tutyellowplanet.jpg","images/tutalien4","images/tutalien3","images/tutrocket2","images/tutalien4","images/t.png","2","practice","false","2","rare","1","2022-02-09 00:40:19.768"
"two-step-fixation","108","318755","0.0-61.0-2.15","928","694","15","Male","true","false","false","true","""event"",""trial"",""time""
""fullscreenenter"",""5"",""13338""
","
","
","""event"",""trial"",""time""
""fullscreenenter"",""5"",""13338""
","
","","images/earth.jpg","","","","","","","","","","","","","","fixation","","","","","",""
"d3-animate-choice","109","321213","0.0-61.0-0.16","928","694","15","Male","true","false","false","true","""event"",""trial"",""time""
""fullscreenenter"",""5"",""13338""
","
","
","""event"",""trial"",""time""
""fullscreenenter"",""5"",""13338""
","
","450.90000000037253","","49","","","3000","1","","","images/earth.jpg","images/tutrocket1","images/tutrocket2","null","images/tutrocket2","","1","practice","null","1","","",""
"d3-animate-choice","110","323855","0.0-61.0-1.16","928","694","15","Male","true","false","false","true","""event"",""trial"",""time""
""fullscreenenter"",""5"",""13338""
","
","
","""event"",""trial"",""time""
""fullscreenenter"",""5"",""13338""
","
","633.5","","48","","","3000","1","","","images/tutgreenplanet.jpg","images/tutalien2","images/tutalien1","images/tutrocket2","images/tutalien2","images/t.png","2","practice","true","2","common","1","2022-02-09 00:40:25.872"
"two-step-fixation","111","324860","0.0-61.0-2.16","928","694","15","Male","true","false","false","true","""event"",""trial"",""time""
""fullscreenenter"",""5"",""13338""
","
","
","""event"",""trial"",""time""
""fullscreenenter"",""5"",""13338""
","
","","images/earth.jpg","","","","","","","","","","","","","","fixation","","","","","",""
"d3-animate-choice","112","327304","0.0-61.0-0.17","928","694","15","Male","true","false","false","true","""event"",""trial"",""time""
""fullscreenenter"",""5"",""13338""
","
","
","""event"",""trial"",""time""
""fullscreenenter"",""5"",""13338""
","
","435.5","","48","","","3000","1","","","images/earth.jpg","images/tutrocket1","images/tutrocket2","null","images/tutrocket1","","1","practice","null","2","","",""
"d3-animate-choice","113","330071","0.0-61.0-1.17","928","694","15","Male","true","false","false","true","""event"",""trial"",""time""
""fullscreenenter"",""5"",""13338""
","
","
","""event"",""trial"",""time""
""fullscreenenter"",""5"",""13338""
","
","758.6999999992549","","48","","","3000","1","","","images/tutyellowplanet.jpg","images/tutalien4","images/tutalien3","images/tutrocket1","images/tutalien4","images/nothing.png","2","practice","true","2","common","0","2022-02-09 00:40:32.088"
"two-step-fixation","114","331076","0.0-61.0-2.17","928","694","15","Male","true","false","false","true","""event"",""trial"",""time""
""fullscreenenter"",""5"",""13338""
","
","
","""event"",""trial"",""time""
""fullscreenenter"",""5"",""13338""
","
","","images/earth.jpg","","","","","","","","","","","","","","fixation","","","","","",""
"d3-animate-choice","115","333553","0.0-61.0-0.18","928","694","15","Male","true","false","false","true","""event"",""trial"",""time""
""fullscreenenter"",""5"",""13338""
","
","
","""event"",""trial"",""time""
""fullscreenenter"",""5"",""13338""
","
","468.09999999962747","","48","","","3000","1","","","images/earth.jpg","images/tutrocket1","images/tutrocket2","null","images/tutrocket1","","1","practice","null","2","","",""
"d3-animate-choice","116","336053","0.0-61.0-1.18","928","694","15","Male","true","false","false","true","""event"",""trial"",""time""
""fullscreenenter"",""5"",""13338""
","
","
","""event"",""trial"",""time""
""fullscreenenter"",""5"",""13338""
","
","490.69999999925494","","48","","","3000","1","","","images/tutyellowplanet.jpg","images/tutalien4","images/tutalien3","images/tutrocket1","images/tutalien4","images/t.png","2","practice","true","2","common","1","2022-02-09 00:40:38.070"
"two-step-fixation","117","337058","0.0-61.0-2.18","928","694","15","Male","true","false","false","true","""event"",""trial"",""time""
""fullscreenenter"",""5"",""13338""
","
","
","""event"",""trial"",""time""
""fullscreenenter"",""5"",""13338""
","
","","images/earth.jpg","","","","","","","","","","","","","","fixation","","","","","",""
"d3-animate-choice","118","339453","0.0-61.0-0.19","928","694","15","Male","true","false","false","true","""event"",""trial"",""time""
""fullscreenenter"",""5"",""13338""
","
","
","""event"",""trial"",""time""
""fullscreenenter"",""5"",""13338""
","
","387.80000000074506","","48","","","3000","1","","","images/earth.jpg","images/tutrocket1","images/tutrocket2","null","images/tutrocket1","","1","practice","null","2","","",""
"d3-animate-choice","119","341882","0.0-61.0-1.19","928","694","15","Male","true","false","false","true","""event"",""trial"",""time""
""fullscreenenter"",""5"",""13338""
","
","
","""event"",""trial"",""time""
""fullscreenenter"",""5"",""13338""
","
","420.09999999962747","","48","","","3000","1","","","images/tutyellowplanet.jpg","images/tutalien4","images/tutalien3","images/tutrocket1","images/tutalien4","images/t.png","2","practice","true","2","common","1","2022-02-09 00:40:43.899"
"two-step-fixation","120","342888","0.0-61.0-2.19","928","694","15","Male","true","false","false","true","""event"",""trial"",""time""
""fullscreenenter"",""5"",""13338""
","
","
","""event"",""trial"",""time""
""fullscreenenter"",""5"",""13338""
","
","","images/earth.jpg","","","","","","","","","","","","","","fixation","","","","","",""
"d3-instructions","121","345313","0.0-62.0","928","694","15","Male","true","false","false","true","""event"",""trial"",""time""
""fullscreenenter"",""5"",""13338""
","
","
","""event"",""trial"",""time""
""fullscreenenter"",""5"",""13338""
","
","","","","","","","","","","","","","","","","","","","","","",""
"audio-keyboard-response","122","348557","0.0-63.0","928","694","15","Male","true","false","false","true","""event"",""trial"",""time""
""fullscreenenter"",""5"",""13338""
","
","
","""event"",""trial"",""time""
""fullscreenenter"",""5"",""13338""
","
","3243","audio/instructions/treasure_feedback.wav","32","","","","","","","","","","","","","","","","","","",""
"d3-instructions","123","354968","0.0-64.0","928","694","15","Male","true","false","false","true","""event"",""trial"",""time""
""fullscreenenter"",""5"",""13338""
","
","
","""event"",""trial"",""time""
""fullscreenenter"",""5"",""13338""
","
","","","","","","","","","","","","","","","","","","","","","",""
"d3-instructions","124","357430","0.0-65.0","928","694","15","Male","true","false","false","true","""event"",""trial"",""time""
""fullscreenenter"",""5"",""13338""
","
","
","""event"",""trial"",""time""
""fullscreenenter"",""5"",""13338""
","
","","","","","","","","","","","","","","","","","","","","","",""
"d3-instructions","125","364988","0.0-66.0","928","694","15","Male","true","false","false","true","""event"",""trial"",""time""
""fullscreenenter"",""5"",""13338""
","
","
","""event"",""trial"",""time""
""fullscreenenter"",""5"",""13338""
","
","","","","","","","","","","","","","","","","","","","","","",""
"d3-instructions","126","368159","0.0-67.0","928","694","15","Male","true","false","false","true","""event"",""trial"",""time""
""fullscreenenter"",""5"",""13338""
","
","
","""event"",""trial"",""time""
""fullscreenenter"",""5"",""13338""
","
","","","","","","","","","","","","","","","","","","","","","",""
"d3-instructions","127","370058","0.0-68.0","928","694","15","Male","true","false","false","true","""event"",""trial"",""time""
""fullscreenenter"",""5"",""13338""
","
","
","""event"",""trial"",""time""
""fullscreenenter"",""5"",""13338""
","
","","","","","","","","","","","","","","","","","","","","","",""
"instructions-quiz","128","372073","0.0-69.0","928","694","15","Male","true","false","false","true","""event"",""trial"",""time""
""fullscreenenter"",""5"",""13338""
","
","
","""event"",""trial"",""time""
""fullscreenenter"",""5"",""13338""
","
","2005.300000000745","audio/quiz/Q1_Prompt.wav","","1","","","","","","","","","","","","","","","","","",""
"audio-keyboard-response","129","372758","0.0-70.0","928","694","15","Male","true","false","false","true","""event"",""trial"",""time""
""fullscreenenter"",""5"",""13338""
","
","
","""event"",""trial"",""time""
""fullscreenenter"",""5"",""13338""
","
","672","audio/quiz/Q1_Correct.wav","32","","","","","","","","","","","","","","","","","","",""
"instructions-quiz","130","382956","0.0-71.0","928","694","15","Male","true","false","false","true","""event"",""trial"",""time""
""fullscreenenter"",""5"",""13338""
","
","
","""event"",""trial"",""time""
""fullscreenenter"",""5"",""13338""
","
","10195","audio/quiz/Q2_Prompt.wav","","0","","","","","","","","","","","","","","","","","",""
"audio-keyboard-response","131","383718","0.0-72.0","928","694","15","Male","true","false","false","true","""event"",""trial"",""time""
""fullscreenenter"",""5"",""13338""
","
","
","""event"",""trial"",""time""
""fullscreenenter"",""5"",""13338""
","
","757","audio/quiz/Q2_Correct.wav","32","","","","","","","","","","","","","","","","","","",""
"instructions-quiz","132","386075","0.0-73.0","928","694","15","Male","true","false","false","true","""event"",""trial"",""time""
""fullscreenenter"",""5"",""13338""
","
","
","""event"",""trial"",""time""
""fullscreenenter"",""5"",""13338""
","
","2353.9000000003725","audio/quiz/Q3_Prompt.wav","","1","","","","","","","","","","","","","","","","","",""
"audio-keyboard-response","133","386703","0.0-74.0","928","694","15","Male","true","false","false","true","""event"",""trial"",""time""
""fullscreenenter"",""5"",""13338""
","
","
","""event"",""trial"",""time""
""fullscreenenter"",""5"",""13338""
","
","619","audio/quiz/Q3_Correct.wav","32","","","","","","","","","","","","","","","","","","",""
"d3-instructions","134","395690","0.0-75.0","928","694","15","Male","true","false","false","true","""event"",""trial"",""time""
""fullscreenenter"",""5"",""13338""
","
","
","""event"",""trial"",""time""
""fullscreenenter"",""5"",""13338""
","
","","","","","","","","","","","","","","","","","","","","","",""
"d3-animate-choice","135","398974","0.0-76.0-0.0","928","694","15","Male","true","false","false","true","""event"",""trial"",""time""
""fullscreenenter"",""5"",""13338""
","
","
","""event"",""trial"",""time""
""fullscreenenter"",""5"",""13338""
","
","968.3000000007451","","50","","","3000","1","1276.300000000745","49","images/earth.jpg","images/rocket2","images/rocket1","null","images/rocket1","","1","real","null","","","",""
"d3-animate-choice","136","401434","0.0-76.0-1.0","928","694","15","Male","true","false","false","true","""event"",""trial"",""time""
""fullscreenenter"",""5"",""13338""
","
","
","""event"",""trial"",""time""
""fullscreenenter"",""5"",""13338""
","
","450.5","","49","","","3000","1","","","images/purpleplanet.jpg","images/alien4","images/alien3","images/rocket1","images/alien3","images/t.png","2","real","true","1","common","1","2022-02-09 00:41:43.451"
"two-step-fixation","137","402439","0.0-76.0-2.0","928","694","15","Male","true","false","false","true","""event"",""trial"",""time""
""fullscreenenter"",""5"",""13338""
","
","
","""event"",""trial"",""time""
""fullscreenenter"",""5"",""13338""
","
","","images/earth.jpg","","","","","","","","","","","","","","fixation","","","","","",""
"d3-animate-choice","138","404490","0.0-76.0-0.1","928","694","15","Male","true","false","false","true","""event"",""trial"",""time""
""fullscreenenter"",""5"",""13338""
","
","
","""event"",""trial"",""time""
""fullscreenenter"",""5"",""13338""
","
","44","","49","","","3000","1","","","images/earth.jpg","images/rocket2","images/rocket1","null","images/rocket1","","1","real","null","1","","",""
"d3-animate-choice","139","406877","0.0-76.0-1.1","928","694","15","Male","true","false","false","true","""event"",""trial"",""time""
""fullscreenenter"",""5"",""13338""
","
","
","""event"",""trial"",""time""
""fullscreenenter"",""5"",""13338""
","
","378.90000000037253","","49","","","3000","1","","","images/purpleplanet.jpg","images/alien4","images/alien3","images/rocket1","images/alien3","images/nothing.png","2","real","true","1","common","0","2022-02-09 00:41:48.894"
"two-step-fixation","140","407881","0.0-76.0-2.1","928","694","15","Male","true","false","false","true","""event"",""trial"",""time""
""fullscreenenter"",""5"",""13338""
","
","
","""event"",""trial"",""time""
""fullscreenenter"",""5"",""13338""
","
","","images/earth.jpg","","","","","","","","","","","","","","fixation","","","","","",""
"d3-animate-choice","141","410138","0.0-76.0-0.2","928","694","15","Male","true","false","false","true","""event"",""trial"",""time""
""fullscreenenter"",""5"",""13338""
","
","
","""event"",""trial"",""time""
""fullscreenenter"",""5"",""13338""
","
","250.69999999925494","","49","","","3000","1","","","images/earth.jpg","images/rocket2","images/rocket1","null","images/rocket1","","1","real","null","1","","",""
"d3-animate-choice","142","414146","0.0-76.0-1.2","928","694","15","Male","true","false","false","true","""event"",""trial"",""time""
""fullscreenenter"",""5"",""13338""
","
","
","""event"",""trial"",""time""
""fullscreenenter"",""5"",""13338""
","
","643.8999999985099","","50","","","3000","1","1102.0999999996275,1457.2999999988824,1708.3999999985099,1900.8999999985099,2090.89999999851,2668.39999999851,3110.0999999996275","50,50,50,50,50,48,48","images/purpleplanet.jpg","images/alien4","images/alien3","images/rocket1","images/alien4","","2","real","true","","common","0","2022-02-09 00:41:56.163"
"two-step-fixation","143","415150","0.0-76.0-2.2","928","694","15","Male","true","false","false","true","""event"",""trial"",""time""
""fullscreenenter"",""5"",""13338""
","
","
","""event"",""trial"",""time""
""fullscreenenter"",""5"",""13338""
","
","","images/earth.jpg","","","","","","","","","","","","","","fixation","","","","","",""
"d3-animate-choice","144","417487","0.0-76.0-0.3","928","694","15","Male","true","false","false","true","""event"",""trial"",""time""
""fullscreenenter"",""5"",""13338""
","
","
","""event"",""trial"",""time""
""fullscreenenter"",""5"",""13338""
","
","329.09999999962747","","49","","","3000","1","","","images/earth.jpg","images/rocket2","images/rocket1","null","images/rocket1","","1","real","null","1","","",""
"d3-animate-choice","145","419850","0.0-76.0-1.3","928","694","15","Male","true","false","false","true","""event"",""trial"",""time""
""fullscreenenter"",""5"",""13338""
","
","
","""event"",""trial"",""time""
""fullscreenenter"",""5"",""13338""
","
","357.30000000074506","","48","","","3000","1","","","images/purpleplanet.jpg","images/alien4","images/alien3","images/rocket1","images/alien4","images/t.png","2","real","true","2","common","1","2022-02-09 00:42:01.868"
"two-step-fixation","146","420855","0.0-76.0-2.3","928","694","15","Male","true","false","false","true","""event"",""trial"",""time""
""fullscreenenter"",""5"",""13338""
","
","
","""event"",""trial"",""time""
""fullscreenenter"",""5"",""13338""
","
","","images/earth.jpg","","","","","","","","","","","","","","fixation","","","","","",""
"d3-animate-choice","147","423158","0.0-76.0-0.4","928","694","15","Male","true","false","false","true","""event"",""trial"",""time""
""fullscreenenter"",""5"",""13338""
","
","
","""event"",""trial"",""time""
""fullscreenenter"",""5"",""13338""
","
","294.7000000011176","","49","","","3000","1","","","images/earth.jpg","images/rocket2","images/rocket1","null","images/rocket1","","1","real","null","1","","",""
"d3-animate-choice","148","425539","0.0-76.0-1.4","928","694","15","Male","true","false","false","true","""event"",""trial"",""time""
""fullscreenenter"",""5"",""13338""
","
","
","""event"",""trial"",""time""
""fullscreenenter"",""5"",""13338""
","
","372.09999999962747","","48","","","3000","1","","","images/purpleplanet.jpg","images/alien4","images/alien3","images/rocket1","images/alien4","images/t.png","2","real","true","2","common","1","2022-02-09 00:42:07.556"
"two-step-fixation","149","426544","0.0-76.0-2.4","928","694","15","Male","true","false","false","true","""event"",""trial"",""time""
""fullscreenenter"",""5"",""13338""
","
","
","""event"",""trial"",""time""
""fullscreenenter"",""5"",""13338""
","
","","images/earth.jpg","","","","","","","","","","","","","","fixation","","","","","",""
"d3-animate-choice","150","428768","0.0-76.0-0.5","928","694","15","Male","true","false","false","true","""event"",""trial"",""time""
""fullscreenenter"",""5"",""13338""
","
","
","""event"",""trial"",""time""
""fullscreenenter"",""5"",""13338""
","
","216.89999999850988","","49","","","3000","1","","","images/earth.jpg","images/rocket2","images/rocket1","null","images/rocket1","","1","real","null","1","","",""
"d3-animate-choice","151","431885","0.0-76.0-1.5","928","694","15","Male","true","false","false","true","""event"",""trial"",""time""
""fullscreenenter"",""5"",""13338""
","
","
","""event"",""trial"",""time""
""fullscreenenter"",""5"",""13338""
","
","1110.5","","49","","","3000","1","","","images/redplanet1.jpg","images/alien2","images/alien1","images/rocket1","images/alien1","images/nothing.png","2","real","false","1","rare","0","2022-02-09 00:42:13.903"
"two-step-fixation","152","432891","0.0-76.0-2.5","928","694","15","Male","true","false","false","true","""event"",""trial"",""time""
""fullscreenenter"",""5"",""13338""
","
","
","""event"",""trial"",""time""
""fullscreenenter"",""5"",""13338""
","
","","images/earth.jpg","","","","","","","","","","","","","","fixation","","","","","",""
"d3-animate-choice","153","435161","0.0-76.0-0.6","928","694","15","Male","true","false","false","true","""event"",""trial"",""time""
""fullscreenenter"",""5"",""13338""
","
","
","""event"",""trial"",""time""
""fullscreenenter"",""5"",""13338""
","
","261.2999999988824","","49","","","3000","1","","","images/earth.jpg","images/rocket2","images/rocket1","null","images/rocket1","","1","real","null","1","","",""
"d3-animate-choice","154","437599","0.0-76.0-1.6","928","694","15","Male","true","false","false","true","""event"",""trial"",""time""
""fullscreenenter"",""5"",""13338""
","
","
","""event"",""trial"",""time""
""fullscreenenter"",""5"",""13338""
","
","431.90000000037253","","48","","","3000","1","","","images/purpleplanet.jpg","images/alien4","images/alien3","images/rocket1","images/alien4","images/nothing.png","2","real","true","2","common","0","2022-02-09 00:42:19.617"
"two-step-fixation","155","438606","0.0-76.0-2.6","928","694","15","Male","true","false","false","true","""event"",""trial"",""time""
""fullscreenenter"",""5"",""13338""
","
","
","""event"",""trial"",""time""
""fullscreenenter"",""5"",""13338""
","
","","images/earth.jpg","","","","","","","","","","","","","","fixation","","","","","",""
"d3-animate-choice","156","441125","0.0-76.0-0.7","928","694","15","Male","true","false","false","true","""event"",""trial"",""time""
""fullscreenenter"",""5"",""13338""
","
","
","""event"",""trial"",""time""
""fullscreenenter"",""5"",""13338""
","
","512.1999999992549","","49","","","3000","1","","","images/earth.jpg","images/rocket2","images/rocket1","null","images/rocket1","","1","real","null","1","","",""
"d3-animate-choice","157","443589","0.0-76.0-1.7","928","694","15","Male","true","false","false","true","""event"",""trial"",""time""
""fullscreenenter"",""5"",""13338""
","
","
","""event"",""trial"",""time""
""fullscreenenter"",""5"",""13338""
","
","453.19999999925494","","49","","","3000","1","","","images/purpleplanet.jpg","images/alien4","images/alien3","images/rocket1","images/alien3","images/nothing.png","2","real","true","1","common","0","2022-02-09 00:42:25.606"
"two-step-fixation","158","444601","0.0-76.0-2.7","928","694","15","Male","true","false","false","true","""event"",""trial"",""time""
""fullscreenenter"",""5"",""13338""
","
","
","""event"",""trial"",""time""
""fullscreenenter"",""5"",""13338""
","
","","images/earth.jpg","","","","","","","","","","","","","","fixation","","","","","",""
"d3-animate-choice","159","446907","0.0-76.0-0.8","928","694","15","Male","true","false","false","true","""event"",""trial"",""time""
""fullscreenenter"",""5"",""13338""
","
","
","""event"",""trial"",""time""
""fullscreenenter"",""5"",""13338""
","
","297.2000000011176","","48","","","3000","1","","","images/earth.jpg","images/rocket2","images/rocket1","null","images/rocket2","","1","real","null","2","","",""
"d3-animate-choice","160","449252","0.0-76.0-1.8","928","694","15","Male","true","false","false","true","""event"",""trial"",""time""
""fullscreenenter"",""5"",""13338""
","
","
","""event"",""trial"",""time""
""fullscreenenter"",""5"",""13338""
","
","337.40000000037253","","48","","","3000","1","","","images/redplanet1.jpg","images/alien2","images/alien1","images/rocket2","images/alien2","images/t.png","2","real","true","2","common","1","2022-02-09 00:42:31.269"
"two-step-fixation","161","450258","0.0-76.0-2.8","928","694","15","Male","true","false","false","true","""event"",""trial"",""time""
""fullscreenenter"",""5"",""13338""
","
","
","""event"",""trial"",""time""
""fullscreenenter"",""5"",""13338""
","
","","images/earth.jpg","","","","","","","","","","","","","","fixation","","","","","",""
"d3-animate-choice","162","452339","0.0-76.0-0.9","928","694","15","Male","true","false","false","true","""event"",""trial"",""time""
""fullscreenenter"",""5"",""13338""
","
","
","""event"",""trial"",""time""
""fullscreenenter"",""5"",""13338""
","
","73.70000000111759","","48","","","3000","1","","","images/earth.jpg","images/rocket2","images/rocket1","null","images/rocket2","","1","real","null","2","","",""
"d3-animate-choice","163","454786","0.0-76.0-1.9","928","694","15","Male","true","false","false","true","""event"",""trial"",""time""
""fullscreenenter"",""5"",""13338""
","
","
","""event"",""trial"",""time""
""fullscreenenter"",""5"",""13338""
","
","437.5","","49","","","3000","1","","","images/redplanet1.jpg","images/alien2","images/alien1","images/rocket2","images/alien1","images/nothing.png","2","real","true","1","common","0","2022-02-09 00:42:36.804"
"two-step-fixation","164","455791","0.0-76.0-2.9","928","694","15","Male","true","false","false","true","""event"",""trial"",""time""
""fullscreenenter"",""5"",""13338""
","
","
","""event"",""trial"",""time""
""fullscreenenter"",""5"",""13338""
","
","","images/earth.jpg","","","","","","","","","","","","","","fixation","","","","","",""
"d3-animate-choice","165","458079","0.0-76.0-0.10","928","694","15","Male","true","false","false","true","""event"",""trial"",""time""
""fullscreenenter"",""5"",""13338""
","
","
","""event"",""trial"",""time""
""fullscreenenter"",""5"",""13338""
","
","279.1000000014901","","48","","","3000","1","","","images/earth.jpg","images/rocket2","images/rocket1","null","images/rocket2","","1","real","null","2","","",""
"d3-animate-choice","166","460472","0.0-76.0-1.10","928","694","15","Male","true","false","false","true","""event"",""trial"",""time""
""fullscreenenter"",""5"",""13338""
","
","
","""event"",""trial"",""time""
""fullscreenenter"",""5"",""13338""
","
","384.5","","48","","","3000","1","","","images/redplanet1.jpg","images/alien2","images/alien1","images/rocket2","images/alien2","images/nothing.png","2","real","true","2","common","0","2022-02-09 00:42:42.489"
"two-step-fixation","167","461477","0.0-76.0-2.10","928","694","15","Male","true","false","false","true","""event"",""trial"",""time""
""fullscreenenter"",""5"",""13338""
","
","
","""event"",""trial"",""time""
""fullscreenenter"",""5"",""13338""
","
","","images/earth.jpg","","","","","","","","","","","","","","fixation","","","","","",""
"d3-animate-choice","168","464285","0.0-76.0-0.11","928","694","15","Male","true","false","false","true","""event"",""trial"",""time""
""fullscreenenter"",""5"",""13338""
","
","
","""event"",""trial"",""time""
""fullscreenenter"",""5"",""13338""
","
","800.4000000003725","","49","","","3000","1","","","images/earth.jpg","images/rocket2","images/rocket1","null","images/rocket1","","1","real","null","1","","",""
"d3-animate-choice","169","466824","0.0-76.0-1.11","928","694","15","Male","true","false","false","true","""event"",""trial"",""time""
""fullscreenenter"",""5"",""13338""
","
","
","""event"",""trial"",""time""
""fullscreenenter"",""5"",""13338""
","
","531.5","","49","","","3000","1","","","images/redplanet1.jpg","images/alien2","images/alien1","images/rocket1","images/alien1","images/t.png","2","real","false","1","rare","1","2022-02-09 00:42:48.841"
"two-step-fixation","170","467828","0.0-76.0-2.11","928","694","15","Male","true","false","false","true","""event"",""trial"",""time""
""fullscreenenter"",""5"",""13338""
","
","
","""event"",""trial"",""time""
""fullscreenenter"",""5"",""13338""
","
","","images/earth.jpg","","","","","","","","","","","","","","fixation","","","","","",""
"d3-animate-choice","171","470109","0.0-76.0-0.12","928","694","15","Male","true","false","false","true","""event"",""trial"",""time""
""fullscreenenter"",""5"",""13338""
","
","
","""event"",""trial"",""time""
""fullscreenenter"",""5"",""13338""
","
","272.90000000037253","","49","","","3000","1","","","images/earth.jpg","images/rocket2","images/rocket1","null","images/rocket1","","1","real","null","1","","",""
"d3-animate-choice","172","472392","0.0-76.0-1.12","928","694","15","Male","true","false","false","true","""event"",""trial"",""time""
""fullscreenenter"",""5"",""13338""
","
","
","""event"",""trial"",""time""
""fullscreenenter"",""5"",""13338""
","
","273.90000000037253","","49","","","3000","1","","","images/redplanet1.jpg","images/alien2","images/alien1","images/rocket1","images/alien1","images/nothing.png","2","real","false","1","rare","0","2022-02-09 00:42:54.409"
"two-step-fixation","173","473397","0.0-76.0-2.12","928","694","15","Male","true","false","false","true","""event"",""trial"",""time""
""fullscreenenter"",""5"",""13338""
","
","
","""event"",""trial"",""time""
""fullscreenenter"",""5"",""13338""
","
","","images/earth.jpg","","","","","","","","","","","","","","fixation","","","","","",""
"d3-animate-choice","174","475757","0.0-76.0-0.13","928","694","15","Male","true","false","false","true","""event"",""trial"",""time""
""fullscreenenter"",""5"",""13338""
","
","
","""event"",""trial"",""time""
""fullscreenenter"",""5"",""13338""
","
","351.69999999925494","","49","","","3000","1","","","images/earth.jpg","images/rocket2","images/rocket1","null","images/rocket1","","1","real","null","1","","",""
"d3-animate-choice","175","478159","0.0-76.0-1.13","928","694","15","Male","true","false","false","true","""event"",""trial"",""time""
""fullscreenenter"",""5"",""13338""
","
","
","""event"",""trial"",""time""
""fullscreenenter"",""5"",""13338""
","
","392.80000000074506","","48","","","3000","1","","","images/purpleplanet.jpg","images/alien4","images/alien3","images/rocket1","images/alien4","images/t.png","2","real","true","2","common","1","2022-02-09 00:43:00.176"
"two-step-fixation","176","479164","0.0-76.0-2.13","928","694","15","Male","true","false","false","true","""event"",""trial"",""time""
""fullscreenenter"",""5"",""13338""
","
","
","""event"",""trial"",""time""
""fullscreenenter"",""5"",""13338""
","
","","images/earth.jpg","","","","","","","","","","","","","","fixation","","","","","",""
"d3-animate-choice","177","481399","0.0-76.0-0.14","928","694","15","Male","true","false","false","true","""event"",""trial"",""time""
""fullscreenenter"",""5"",""13338""
","
","
","""event"",""trial"",""time""
""fullscreenenter"",""5"",""13338""
","
","226.7999999988824","","48","","","3000","1","","","images/earth.jpg","images/rocket2","images/rocket1","null","images/rocket2","","1","real","null","2","","",""
"d3-animate-choice","178","483823","0.0-76.0-1.14","928","694","15","Male","true","false","false","true","""event"",""trial"",""time""
""fullscreenenter"",""5"",""13338""
","
","
","""event"",""trial"",""time""
""fullscreenenter"",""5"",""13338""
","
","412.40000000037253","","48","","","3000","1","","","images/redplanet1.jpg","images/alien2","images/alien1","images/rocket2","images/alien2","images/nothing.png","2","real","true","2","common","0","2022-02-09 00:43:05.840"
"two-step-fixation","179","484828","0.0-76.0-2.14","928","694","15","Male","true","false","false","true","""event"",""trial"",""time""
""fullscreenenter"",""5"",""13338""
","
","
","""event"",""trial"",""time""
""fullscreenenter"",""5"",""13338""
","
","","images/earth.jpg","","","","","","","","","","","","","","fixation","","","","","",""
"d3-animate-choice","180","486858","0.0-76.0-0.15","928","694","15","Male","true","false","false","true","""event"",""trial"",""time""
""fullscreenenter"",""5"",""13338""
","
","
","""event"",""trial"",""time""
""fullscreenenter"",""5"",""13338""
","
","23.09999999962747","","49","","","3000","1","","","images/earth.jpg","images/rocket2","images/rocket1","null","images/rocket1","","1","real","null","1","","",""
"d3-animate-choice","181","489259","0.0-76.0-1.15","928","694","15","Male","true","false","false","true","""event"",""trial"",""time""
""fullscreenenter"",""5"",""13338""
","
","
","""event"",""trial"",""time""
""fullscreenenter"",""5"",""13338""
","
","393.40000000037253","","48","","","3000","1","","","images/purpleplanet.jpg","images/alien4","images/alien3","images/rocket1","images/alien4","images/t.png","2","real","true","2","common","1","2022-02-09 00:43:11.276"
"two-step-fixation","182","490264","0.0-76.0-2.15","928","694","15","Male","true","false","false","true","""event"",""trial"",""time""
""fullscreenenter"",""5"",""13338""
","
","
","""event"",""trial"",""time""
""fullscreenenter"",""5"",""13338""
","
","","images/earth.jpg","","","","","","","","","","","","","","fixation","","","","","",""
"d3-animate-choice","183","492556","0.0-76.0-0.16","928","694","15","Male","true","false","false","true","""event"",""trial"",""time""
""fullscreenenter"",""5"",""13338""
","
","
","""event"",""trial"",""time""
""fullscreenenter"",""5"",""13338""
","
","283.2000000011176","","48","","","3000","1","","","images/earth.jpg","images/rocket2","images/rocket1","null","images/rocket2","","1","real","null","2","","",""
"d3-animate-choice","184","495336","0.0-76.0-1.16","928","694","15","Male","true","false","false","true","""event"",""trial"",""time""
""fullscreenenter"",""5"",""13338""
","
","
","""event"",""trial"",""time""
""fullscreenenter"",""5"",""13338""
","
","772.9000000003725","","48","","","3000","1","","","images/purpleplanet.jpg","images/alien4","images/alien3","images/rocket2","images/alien4","images/t.png","2","real","false","2","rare","1","2022-02-09 00:43:17.353"
"two-step-fixation","185","496341","0.0-76.0-2.16","928","694","15","Male","true","false","false","true","""event"",""trial"",""time""
""fullscreenenter"",""5"",""13338""
","
","
","""event"",""trial"",""time""
""fullscreenenter"",""5"",""13338""
","
","","images/earth.jpg","","","","","","","","","","","","","","fixation","","","","","",""
"d3-animate-choice","186","498558","0.0-76.0-0.17","928","694","15","Male","true","false","false","true","""event"",""trial"",""time""
""fullscreenenter"",""5"",""13338""
","
","
","""event"",""trial"",""time""
""fullscreenenter"",""5"",""13338""
","
","209.60000000149012","","48","","","3000","1","","","images/earth.jpg","images/rocket2","images/rocket1","null","images/rocket2","","1","real","null","2","","",""
"d3-animate-choice","187","501553","0.0-76.0-1.17","928","694","15","Male","true","false","false","true","""event"",""trial"",""time""
""fullscreenenter"",""5"",""13338""
","
","
","""event"",""trial"",""time""
""fullscreenenter"",""5"",""13338""
","
","988.1999999992549","","49","","","3000","1","","","images/redplanet1.jpg","images/alien2","images/alien1","images/rocket2","images/alien1","images/t.png","2","real","true","1","common","1","2022-02-09 00:43:23.571"
"two-step-fixation","188","502561","0.0-76.0-2.17","928","694","15","Male","true","false","false","true","""event"",""trial"",""time""
""fullscreenenter"",""5"",""13338""
","
","
","""event"",""trial"",""time""
""fullscreenenter"",""5"",""13338""
","
","","images/earth.jpg","","","","","","","","","","","","","","fixation","","","","","",""
"d3-animate-choice","189","504833","0.0-76.0-0.18","928","694","15","Male","true","false","false","true","""event"",""trial"",""time""
""fullscreenenter"",""5"",""13338""
","
","
","""event"",""trial"",""time""
""fullscreenenter"",""5"",""13338""
","
","264.7000000011176","","48","","","3000","1","","","images/earth.jpg","images/rocket2","images/rocket1","null","images/rocket2","","1","real","null","2","","",""
"d3-animate-choice","190","507657","0.0-76.0-1.18","928","694","15","Male","true","false","false","true","""event"",""trial"",""time""
""fullscreenenter"",""5"",""13338""
","
","
","""event"",""trial"",""time""
""fullscreenenter"",""5"",""13338""
","
","814.6999999992549","","48","","","3000","1","","","images/redplanet1.jpg","images/alien2","images/alien1","images/rocket2","images/alien2","images/t.png","2","real","true","2","common","1","2022-02-09 00:43:29.674"
"two-step-fixation","191","508662","0.0-76.0-2.18","928","694","15","Male","true","false","false","true","""event"",""trial"",""time""
""fullscreenenter"",""5"",""13338""
","
","
","""event"",""trial"",""time""
""fullscreenenter"",""5"",""13338""
","
","","images/earth.jpg","","","","","","","","","","","","","","fixation","","","","","",""
"d3-animate-choice","192","510920","0.0-76.0-0.19","928","694","15","Male","true","false","false","true","""event"",""trial"",""time""
""fullscreenenter"",""5"",""13338""
","
","
","""event"",""trial"",""time""
""fullscreenenter"",""5"",""13338""
","
","249.80000000074506","","48","","","3000","1","","","images/earth.jpg","images/rocket2","images/rocket1","null","images/rocket2","","1","real","null","2","","",""
"d3-animate-choice","193","513627","0.0-76.0-1.19","928","694","15","Male","true","false","false","true","""event"",""trial"",""time""
""fullscreenenter"",""5"",""13338""
","
","
","""event"",""trial"",""time""
""fullscreenenter"",""5"",""13338""
","
","701.0999999996275","","48","","","3000","1","","","images/purpleplanet.jpg","images/alien4","images/alien3","images/rocket2","images/alien4","images/t.png","2","real","false","2","rare","1","2022-02-09 00:43:35.644"
"two-step-fixation","194","514632","0.0-76.0-2.19","928","694","15","Male","true","false","false","true","""event"",""trial"",""time""
""fullscreenenter"",""5"",""13338""
","
","
","""event"",""trial"",""time""
""fullscreenenter"",""5"",""13338""
","
","","images/earth.jpg","","","","","","","","","","","","","","fixation","","","","","",""
"d3-animate-choice","195","516994","0.0-76.0-0.20","928","694","15","Male","true","false","false","true","""event"",""trial"",""time""
""fullscreenenter"",""5"",""13338""
","
","
","""event"",""trial"",""time""
""fullscreenenter"",""5"",""13338""
","
","355","","48","","","3000","1","","","images/earth.jpg","images/rocket2","images/rocket1","null","images/rocket2","","1","real","null","2","","",""
"d3-animate-choice","196","519456","0.0-76.0-1.20","928","694","15","Male","true","false","false","true","""event"",""trial"",""time""
""fullscreenenter"",""5"",""13338""
","
","
","""event"",""trial"",""time""
""fullscreenenter"",""5"",""13338""
","
","454.7000000011176","","48","","","3000","1","","","images/redplanet1.jpg","images/alien2","images/alien1","images/rocket2","images/alien2","images/t.png","2","real","true","2","common","1","2022-02-09 00:43:41.473"
"two-step-fixation","197","520461","0.0-76.0-2.20","928","694","15","Male","true","false","false","true","""event"",""trial"",""time""
""fullscreenenter"",""5"",""13338""
","
","
","""event"",""trial"",""time""
""fullscreenenter"",""5"",""13338""
","
","","images/earth.jpg","","","","","","","","","","","","","","fixation","","","","","",""
"d3-animate-choice","198","523573","0.0-76.0-0.21","928","694","15","Male","true","false","false","true","""event"",""trial"",""time""
""fullscreenenter"",""5"",""13338""
","
","
","""event"",""trial"",""time""
""fullscreenenter"",""5"",""13338""
","
","1103.699999999255","","49","","","3000","1","","","images/earth.jpg","images/rocket2","images/rocket1","null","images/rocket1","","1","real","null","1","","",""
"d3-animate-choice","199","525989","0.0-76.0-1.21","928","694","15","Male","true","false","false","true","""event"",""trial"",""time""
""fullscreenenter"",""5"",""13338""
","
","
","""event"",""trial"",""time""
""fullscreenenter"",""5"",""13338""
","
","407.30000000074506","","48","","","3000","1","","","images/purpleplanet.jpg","images/alien4","images/alien3","images/rocket1","images/alien4","images/t.png","2","real","true","2","common","1","2022-02-09 00:43:48.006"
"two-step-fixation","200","526995","0.0-76.0-2.21","928","694","15","Male","true","false","false","true","""event"",""trial"",""time""
""fullscreenenter"",""5"",""13338""
","
","
","""event"",""trial"",""time""
""fullscreenenter"",""5"",""13338""
","
","","images/earth.jpg","","","","","","","","","","","","","","fixation","","","","","",""
"d3-animate-choice","201","529529","0.0-76.0-0.22","928","694","15","Male","true","false","false","true","""event"",""trial"",""time""
""fullscreenenter"",""5"",""13338""
","
","
","""event"",""trial"",""time""
""fullscreenenter"",""5"",""13338""
","
","526.5","","49","","","3000","1","","","images/earth.jpg","images/rocket2","images/rocket1","null","images/rocket1","","1","real","null","1","","",""
"d3-animate-choice","202","531939","0.0-76.0-1.22","928","694","15","Male","true","false","false","true","""event"",""trial"",""time""
""fullscreenenter"",""5"",""13338""
","
","
","""event"",""trial"",""time""
""fullscreenenter"",""5"",""13338""
","
","402.09999999962747","","48","","","3000","1","","","images/redplanet1.jpg","images/alien2","images/alien1","images/rocket1","images/alien2","images/nothing.png","2","real","false","2","rare","0","2022-02-09 00:43:53.957"
"two-step-fixation","203","532945","0.0-76.0-2.22","928","694","15","Male","true","false","false","true","""event"",""trial"",""time""
""fullscreenenter"",""5"",""13338""
","
","
","""event"",""trial"",""time""
""fullscreenenter"",""5"",""13338""
","
","","images/earth.jpg","","","","","","","","","","","","","","fixation","","","","","",""
"d3-animate-choice","204","535450","0.0-76.0-0.23","928","694","15","Male","true","false","false","true","""event"",""trial"",""time""
""fullscreenenter"",""5"",""13338""
","
","
","""event"",""trial"",""time""
""fullscreenenter"",""5"",""13338""
","
","497.09999999962747","","49","","","3000","1","","","images/earth.jpg","images/rocket2","images/rocket1","null","images/rocket1","","1","real","null","1","","",""
"d3-animate-choice","205","537981","0.0-76.0-1.23","928","694","15","Male","true","false","false","true","""event"",""trial"",""time""
""fullscreenenter"",""5"",""13338""
","
","
","""event"",""trial"",""time""
""fullscreenenter"",""5"",""13338""
","
","522.5","","48","","","3000","1","","","images/redplanet1.jpg","images/alien2","images/alien1","images/rocket1","images/alien2","images/nothing.png","2","real","false","2","rare","0","2022-02-09 00:43:59.998"
"two-step-fixation","206","538986","0.0-76.0-2.23","928","694","15","Male","true","false","false","true","""event"",""trial"",""time""
""fullscreenenter"",""5"",""13338""
","
","
","""event"",""trial"",""time""
""fullscreenenter"",""5"",""13338""
","
","","images/earth.jpg","","","","","","","","","","","","","","fixation","","","","","",""
"d3-animate-choice","207","541145","0.0-76.0-0.24","928","694","15","Male","true","false","false","true","""event"",""trial"",""time""
""fullscreenenter"",""5"",""13338""
","
","
","""event"",""trial"",""time""
""fullscreenenter"",""5"",""13338""
","
","151.5","","49","","","3000","1","","","images/earth.jpg","images/rocket2","images/rocket1","null","images/rocket1","","1","real","null","1","","",""
"d3-animate-choice","208","543590","0.0-76.0-1.24","928","694","15","Male","true","false","false","true","""event"",""trial"",""time""
""fullscreenenter"",""5"",""13338""
","
","
","""event"",""trial"",""time""
""fullscreenenter"",""5"",""13338""
","
","436.7999999988824","","49","","","3000","1","","","images/purpleplanet.jpg","images/alien4","images/alien3","images/rocket1","images/alien3","images/t.png","2","real","true","1","common","1","2022-02-09 00:44:05.607"
"two-step-fixation","209","544598","0.0-76.0-2.24","928","694","15","Male","true","false","false","true","""event"",""trial"",""time""
""fullscreenenter"",""5"",""13338""
","
","
","""event"",""trial"",""time""
""fullscreenenter"",""5"",""13338""
","
","","images/earth.jpg","","","","","","","","","","","","","","fixation","","","","","",""
"d3-animate-choice","210","546725","0.0-76.0-0.25","928","694","15","Male","true","false","false","true","""event"",""trial"",""time""
""fullscreenenter"",""5"",""13338""
","
","
","""event"",""trial"",""time""
""fullscreenenter"",""5"",""13338""
","
","118.20000000111759","","49","","","3000","1","","","images/earth.jpg","images/rocket2","images/rocket1","null","images/rocket1","","1","real","null","1","","",""
"d3-animate-choice","211","549117","0.0-76.0-1.25","928","694","15","Male","true","false","false","true","""event"",""trial"",""time""
""fullscreenenter"",""5"",""13338""
","
","
","""event"",""trial"",""time""
""fullscreenenter"",""5"",""13338""
","
","382.30000000074506","","49","","","3000","1","","","images/purpleplanet.jpg","images/alien4","images/alien3","images/rocket1","images/alien3","images/nothing.png","2","real","true","1","common","0","2022-02-09 00:44:11.135"
"two-step-fixation","212","550123","0.0-76.0-2.25","928","694","15","Male","true","false","false","true","""event"",""trial"",""time""
""fullscreenenter"",""5"",""13338""
","
","
","""event"",""trial"",""time""
""fullscreenenter"",""5"",""13338""
","
","","images/earth.jpg","","","","","","","","","","","","","","fixation","","","","","",""
"d3-animate-choice","213","552438","0.0-76.0-0.26","928","694","15","Male","true","false","false","true","""event"",""trial"",""time""
""fullscreenenter"",""5"",""13338""
","
","
","""event"",""trial"",""time""
""fullscreenenter"",""5"",""13338""
","
","308.2999999988824","","49","","","3000","1","","","images/earth.jpg","images/rocket2","images/rocket1","null","images/rocket1","","1","real","null","1","","",""
"d3-animate-choice","214","554763","0.0-76.0-1.26","928","694","15","Male","true","false","false","true","""event"",""trial"",""time""
""fullscreenenter"",""5"",""13338""
","
","
","""event"",""trial"",""time""
""fullscreenenter"",""5"",""13338""
","
","314.2000000011176","","48","","","3000","1","","","images/purpleplanet.jpg","images/alien4","images/alien3","images/rocket1","images/alien4","images/t.png","2","real","true","2","common","1","2022-02-09 00:44:16.780"
"two-step-fixation","215","555769","0.0-76.0-2.26","928","694","15","Male","true","false","false","true","""event"",""trial"",""time""
""fullscreenenter"",""5"",""13338""
","
","
","""event"",""trial"",""time""
""fullscreenenter"",""5"",""13338""
","
","","images/earth.jpg","","","","","","","","","","","","","","fixation","","","","","",""
"d3-animate-choice","216","558034","0.0-76.0-0.27","928","694","15","Male","true","false","false","true","""event"",""trial"",""time""
""fullscreenenter"",""5"",""13338""
","
","
","""event"",""trial"",""time""
""fullscreenenter"",""5"",""13338""
","
","257.30000000074506","","49","","","3000","1","","","images/earth.jpg","images/rocket2","images/rocket1","null","images/rocket1","","1","real","null","1","","",""
"d3-animate-choice","217","560439","0.0-76.0-1.27","928","694","15","Male","true","false","false","true","""event"",""trial"",""time""
""fullscreenenter"",""5"",""13338""
","
","
","""event"",""trial"",""time""
""fullscreenenter"",""5"",""13338""
","
","396.6000000014901","","48","","","3000","1","","","images/purpleplanet.jpg","images/alien4","images/alien3","images/rocket1","images/alien4","images/nothing.png","2","real","true","2","common","0","2022-02-09 00:44:22.456"
"two-step-fixation","218","561444","0.0-76.0-2.27","928","694","15","Male","true","false","false","true","""event"",""trial"",""time""
""fullscreenenter"",""5"",""13338""
","
","
","""event"",""trial"",""time""
""fullscreenenter"",""5"",""13338""
","
","","images/earth.jpg","","","","","","","","","","","","","","fixation","","","","","",""
"d3-animate-choice","219","563490","0.0-76.0-0.28","928","694","15","Male","true","false","false","true","""event"",""trial"",""time""
""fullscreenenter"",""5"",""13338""
","
","
","""event"",""trial"",""time""
""fullscreenenter"",""5"",""13338""
","
","37","","49","","","3000","1","","","images/earth.jpg","images/rocket2","images/rocket1","null","images/rocket1","","1","real","null","1","","",""
"d3-animate-choice","220","565838","0.0-76.0-1.28","928","694","15","Male","true","false","false","true","""event"",""trial"",""time""
""fullscreenenter"",""5"",""13338""
","
","
","""event"",""trial"",""time""
""fullscreenenter"",""5"",""13338""
","
","339.6000000014901","","48","","","3000","1","907.1000000014901","48","images/redplanet1.jpg","images/alien2","images/alien1","images/rocket1","images/alien2","images/t.png","2","real","false","2","rare","1","2022-02-09 00:44:27.855"
"two-step-fixation","221","566844","0.0-76.0-2.28","928","694","15","Male","true","false","false","true","""event"",""trial"",""time""
""fullscreenenter"",""5"",""13338""
","
","
","""event"",""trial"",""time""
""fullscreenenter"",""5"",""13338""
","
","","images/earth.jpg","","","","","","","","","","","","","","fixation","","","","","",""
"d3-animate-choice","222","568904","0.0-76.0-0.29","928","694","15","Male","true","false","false","true","""event"",""trial"",""time""
""fullscreenenter"",""5"",""13338""
","
","
","""event"",""trial"",""time""
""fullscreenenter"",""5"",""13338""
","
","52.09999999962747","","49","","","3000","1","","","images/earth.jpg","images/rocket2","images/rocket1","null","images/rocket1","","1","real","null","1","","",""
"d3-animate-choice","223","571513","0.0-76.0-1.29","928","694","15","Male","true","false","false","true","""event"",""trial"",""time""
""fullscreenenter"",""5"",""13338""
","
","
","""event"",""trial"",""time""
""fullscreenenter"",""5"",""13338""
","
","600.7000000011176","","48","","","3000","1","","","images/redplanet1.jpg","images/alien2","images/alien1","images/rocket1","images/alien2","images/t.png","2","real","false","2","rare","1","2022-02-09 00:44:33.530"
"two-step-fixation","224","572519","0.0-76.0-2.29","928","694","15","Male","true","false","false","true","""event"",""trial"",""time""
""fullscreenenter"",""5"",""13338""
","
","
","""event"",""trial"",""time""
""fullscreenenter"",""5"",""13338""
","
","","images/earth.jpg","","","","","","","","","","","","","","fixation","","","","","",""
"d3-animate-choice","225","575670","0.0-76.0-0.30","928","694","15","Male","true","false","false","true","""event"",""trial"",""time""
""fullscreenenter"",""5"",""13338""
","
","
","""event"",""trial"",""time""
""fullscreenenter"",""5"",""13338""
","
","1142.8999999985099","","49","","","3000","1","","","images/earth.jpg","images/rocket2","images/rocket1","null","images/rocket1","","1","real","null","1","","",""
"d3-animate-choice","226","578350","0.0-76.0-1.30","928","694","15","Male","true","false","false","true","""event"",""trial"",""time""
""fullscreenenter"",""5"",""13338""
","
","
","""event"",""trial"",""time""
""fullscreenenter"",""5"",""13338""
","
","672.3000000007451","","49","","","3000","1","","","images/redplanet1.jpg","images/alien2","images/alien1","images/rocket1","images/alien1","images/nothing.png","2","real","false","1","rare","0","2022-02-09 00:44:40.368"
"two-step-fixation","227","579356","0.0-76.0-2.30","928","694","15","Male","true","false","false","true","""event"",""trial"",""time""
""fullscreenenter"",""5"",""13338""
","
","
","""event"",""trial"",""time""
""fullscreenenter"",""5"",""13338""
","
","","images/earth.jpg","","","","","","","","","","","","","","fixation","","","","","",""
"d3-animate-choice","228","581714","0.0-76.0-0.31","928","694","15","Male","true","false","false","true","""event"",""trial"",""time""
""fullscreenenter"",""5"",""13338""
","
","
","""event"",""trial"",""time""
""fullscreenenter"",""5"",""13338""
","
","349.30000000074506","","49","","","3000","1","1271.5999999996275","49","images/earth.jpg","images/rocket2","images/rocket1","null","images/rocket1","","1","real","null","1","","",""
"d3-animate-choice","229","584248","0.0-76.0-1.31","928","694","15","Male","true","false","false","true","""event"",""trial"",""time""
""fullscreenenter"",""5"",""13338""
","
","
","""event"",""trial"",""time""
""fullscreenenter"",""5"",""13338""
","
","525.4000000003725","","48","","","3000","1","","","images/purpleplanet.jpg","images/alien4","images/alien3","images/rocket1","images/alien4","images/nothing.png","2","real","true","2","common","0","2022-02-09 00:44:46.265"
"two-step-fixation","230","585253","0.0-76.0-2.31","928","694","15","Male","true","false","false","true","""event"",""trial"",""time""
""fullscreenenter"",""5"",""13338""
","
","
","""event"",""trial"",""time""
""fullscreenenter"",""5"",""13338""
","
","","images/earth.jpg","","","","","","","","","","","","","","fixation","","","","","",""
"d3-animate-choice","231","588221","0.0-76.0-0.32","928","694","15","Male","true","false","false","true","""event"",""trial"",""time""
""fullscreenenter"",""5"",""13338""
","
","
","""event"",""trial"",""time""
""fullscreenenter"",""5"",""13338""
","
","960.0999999996275","","49","","","3000","1","","","images/earth.jpg","images/rocket2","images/rocket1","null","images/rocket1","","1","real","null","1","","",""
"d3-animate-choice","232","590569","0.0-76.0-1.32","928","694","15","Male","true","false","false","true","""event"",""trial"",""time""
""fullscreenenter"",""5"",""13338""
","
","
","""event"",""trial"",""time""
""fullscreenenter"",""5"",""13338""
","
","339.40000000037253","","48","","","3000","1","855.1999999992549","48","images/purpleplanet.jpg","images/alien4","images/alien3","images/rocket1","images/alien4","images/t.png","2","real","true","2","common","1","2022-02-09 00:44:52.586"
"two-step-fixation","233","591573","0.0-76.0-2.32","928","694","15","Male","true","false","false","true","""event"",""trial"",""time""
""fullscreenenter"",""5"",""13338""
","
","
","""event"",""trial"",""time""
""fullscreenenter"",""5"",""13338""
","
","","images/earth.jpg","","","","","","","","","","","","","","fixation","","","","","",""
"d3-animate-choice","234","593812","0.0-76.0-0.33","928","694","15","Male","true","false","false","true","""event"",""trial"",""time""
""fullscreenenter"",""5"",""13338""
","
","
","""event"",""trial"",""time""
""fullscreenenter"",""5"",""13338""
","
","232.80000000074506","","49","","","3000","1","","","images/earth.jpg","images/rocket2","images/rocket1","null","images/rocket1","","1","real","null","1","","",""
"d3-animate-choice","235","596263","0.0-76.0-1.33","928","694","15","Male","true","false","false","true","""event"",""trial"",""time""
""fullscreenenter"",""5"",""13338""
","
","
","""event"",""trial"",""time""
""fullscreenenter"",""5"",""13338""
","
","442.09999999962747","","48","","","3000","1","","","images/purpleplanet.jpg","images/alien4","images/alien3","images/rocket1","images/alien4","images/nothing.png","2","real","true","2","common","0","2022-02-09 00:44:58.280"
"two-step-fixation","236","597268","0.0-76.0-2.33","928","694","15","Male","true","false","false","true","""event"",""trial"",""time""
""fullscreenenter"",""5"",""13338""
","
","
","""event"",""trial"",""time""
""fullscreenenter"",""5"",""13338""
","
","","images/earth.jpg","","","","","","","","","","","","","","fixation","","","","","",""
"d3-animate-choice","237","599548","0.0-76.0-0.34","928","694","15","Male","true","false","false","true","""event"",""trial"",""time""
""fullscreenenter"",""5"",""13338""
","
","
","""event"",""trial"",""time""
""fullscreenenter"",""5"",""13338""
","
","270.90000000037253","","49","","","3000","1","","","images/earth.jpg","images/rocket2","images/rocket1","null","images/rocket1","","1","real","null","1","","",""
"d3-animate-choice","238","601896","0.0-76.0-1.34","928","694","15","Male","true","false","false","true","""event"",""trial"",""time""
""fullscreenenter"",""5"",""13338""
","
","
","""event"",""trial"",""time""
""fullscreenenter"",""5"",""13338""
","
","339.09999999962747","","48","","","3000","1","","","images/purpleplanet.jpg","images/alien4","images/alien3","images/rocket1","images/alien4","images/t.png","2","real","true","2","common","1","2022-02-09 00:45:03.913"
"two-step-fixation","239","602906","0.0-76.0-2.34","928","694","15","Male","true","false","false","true","""event"",""trial"",""time""
""fullscreenenter"",""5"",""13338""
","
","
","""event"",""trial"",""time""
""fullscreenenter"",""5"",""13338""
","
","","images/earth.jpg","","","","","","","","","","","","","","fixation","","","","","",""
"d3-animate-choice","240","604978","0.0-76.0-0.35","928","694","15","Male","true","false","false","true","""event"",""trial"",""time""
""fullscreenenter"",""5"",""13338""
","
","
","""event"",""trial"",""time""
""fullscreenenter"",""5"",""13338""
","
","66","","49","","","3000","1","","","images/earth.jpg","images/rocket2","images/rocket1","null","images/rocket1","","1","real","null","1","","",""
"d3-animate-choice","241","607338","0.0-76.0-1.35","928","694","15","Male","true","false","false","true","""event"",""trial"",""time""
""fullscreenenter"",""5"",""13338""
","
","
","""event"",""trial"",""time""
""fullscreenenter"",""5"",""13338""
","
","351.59999999962747","","48","","","3000","1","","","images/purpleplanet.jpg","images/alien4","images/alien3","images/rocket1","images/alien4","images/t.png","2","real","true","2","common","1","2022-02-09 00:45:09.355"
"two-step-fixation","242","608360","0.0-76.0-2.35","928","694","15","Male","true","false","false","true","""event"",""trial"",""time""
""fullscreenenter"",""5"",""13338""
","
","
","""event"",""trial"",""time""
""fullscreenenter"",""5"",""13338""
","
","","images/earth.jpg","","","","","","","","","","","","","","fixation","","","","","",""
"d3-animate-choice","243","610683","0.0-76.0-0.36","928","694","15","Male","true","false","false","true","""event"",""trial"",""time""
""fullscreenenter"",""5"",""13338""
","
","
","""event"",""trial"",""time""
""fullscreenenter"",""5"",""13338""
","
","316.90000000037253","","49","","","3000","1","","","images/earth.jpg","images/rocket2","images/rocket1","null","images/rocket1","","1","real","null","1","","",""
"d3-animate-choice","244","613020","0.0-76.0-1.36","928","694","15","Male","true","false","false","true","""event"",""trial"",""time""
""fullscreenenter"",""5"",""13338""
","
","
","""event"",""trial"",""time""
""fullscreenenter"",""5"",""13338""
","
","329","","48","","","3000","1","","","images/purpleplanet.jpg","images/alien4","images/alien3","images/rocket1","images/alien4","images/nothing.png","2","real","true","2","common","0","2022-02-09 00:45:15.037"
"two-step-fixation","245","614024","0.0-76.0-2.36","928","694","15","Male","true","false","false","true","""event"",""trial"",""time""
""fullscreenenter"",""5"",""13338""
","
","
","""event"",""trial"",""time""
""fullscreenenter"",""5"",""13338""
","
","","images/earth.jpg","","","","","","","","","","","","","","fixation","","","","","",""
"d3-animate-choice","246","616317","0.0-76.0-0.37","928","694","15","Male","true","false","false","true","""event"",""trial"",""time""
""fullscreenenter"",""5"",""13338""
","
","
","""event"",""trial"",""time""
""fullscreenenter"",""5"",""13338""
","
","285.90000000037253","","49","","","3000","1","","","images/earth.jpg","images/rocket2","images/rocket1","null","images/rocket1","","1","real","null","1","","",""
"d3-animate-choice","247","618615","0.0-76.0-1.37","928","694","15","Male","true","false","false","true","""event"",""trial"",""time""
""fullscreenenter"",""5"",""13338""
","
