"trial_type","trial_index","time_elapsed","internal_node_id","participant_id","subject_id","age","gender","rocket_sides","red_planet_first_rocket","red_display_order","purple_display_order","interactions","blur_events","focus_events","fullscreenenter_events","fullscreenexit_events","rt","stimulus","key_press","button_pressed","success","duration","valid_pressed","rts","keys","planet_text","right_text","left_text","center_text","chosen_text","reward_text","trial_stage","practice_trial","transition_type","choice","transition","reward","timestamp"
"pavlovia","0","6","0.0-0.0","758","680","13","Male","true","false","false","true","
","
","
","
","
","","","","","","","","","","","","","","","","","","","","","",""
"html-keyboard-response","1","8920","0.0-1.0","758","680","13","Male","true","false","false","true","
","
","
","
","
","8914","Welcome! Press the space bar to begin.","32","","","","","","","","","","","","","","","","","","",""
"audio-keyboard-response","2","17664","0.0-2.0","758","680","13","Male","true","false","false","true","
","
","
","
","
","8742","audio/beep_loop.wav","32","","","","","","","","","","","","","","","","","","",""
"audio-button-response","3","22854","0.0-3.0","758","680","13","Male","true","false","false","true","
","
","
","
","
","NaN","audio/fish.mp3","","1","","","","","","","","","","","","","","","","","",""
"audio-button-response","4","25351","0.0-4.0","758","680","13","Male","true","false","false","true","""event"",""trial"",""time""
""fullscreenenter"",""5"",""30671""
","
","
","""event"",""trial"",""time""
""fullscreenenter"",""5"",""30671""
","
","NaN","audio/tiger.mp3","","4","","","","","","","","","","","","","","","","","",""
"fullscreen","5","31459","0.0-5.0","758","680","13","Male","true","false","false","true","""event"",""trial"",""time""
""fullscreenenter"",""5"",""30671""
","
","
","""event"",""trial"",""time""
""fullscreenenter"",""5"",""30671""
","
","","","","","true","","","","","","","","","","","","","","","","",""
"d3-instructions","6","45888","0.0-6.0","758","680","13","Male","true","false","false","true","""event"",""trial"",""time""
""fullscreenenter"",""5"",""30671""
","
","
","""event"",""trial"",""time""
""fullscreenenter"",""5"",""30671""
","
","","","","","","","","","","","","","","","","","","","","","",""
"d3-instructions","7","53544","0.0-7.0","758","680","13","Male","true","false","false","true","""event"",""trial"",""time""
""fullscreenenter"",""5"",""30671""
","
","
","""event"",""trial"",""time""
""fullscreenenter"",""5"",""30671""
","
","","","","","","","","","","","","","","","","","","","","","",""
"d3-instructions","8","60328","0.0-8.0","758","680","13","Male","true","false","false","true","""event"",""trial"",""time""
""fullscreenenter"",""5"",""30671""
","
","
","""event"",""trial"",""time""
""fullscreenenter"",""5"",""30671""
","
","","","","","","","","","","","","","","","","","","","","","",""
"d3-instructions","9","71175","0.0-9.0","758","680","13","Male","true","false","false","true","""event"",""trial"",""time""
""fullscreenenter"",""5"",""30671""
","
","
","""event"",""trial"",""time""
""fullscreenenter"",""5"",""30671""
","
","","","","","","","","","","","","","","","","","","","","","",""
"d3-instructions","10","91952","0.0-10.0","758","680","13","Male","true","false","false","true","""event"",""trial"",""time""
""fullscreenenter"",""5"",""30671""
","
","
","""event"",""trial"",""time""
""fullscreenenter"",""5"",""30671""
","
","","","","","","","","","","","","","","","","","","","","","",""
"d3-animate-choice","11","95393","0.0-11.0","758","680","13","Male","true","false","false","true","""event"",""trial"",""time""
""fullscreenenter"",""5"",""30671""
","
","
","""event"",""trial"",""time""
""fullscreenenter"",""5"",""30671""
","
","1438","","49","","","3000","1","1547,1654,1785,2430,3247","48,49,48,48,48","images/tutgreenplanet.jpg","images/tutalien1","images/tutalien2","null","images/tutalien2","","NA","practice","null","","","",""
"d3-animate-choice","12","97970","0.0-12.0","758","680","13","Male","true","false","false","true","""event"",""trial"",""time""
""fullscreenenter"",""5"",""30671""
","
","
","""event"",""trial"",""time""
""fullscreenenter"",""5"",""30671""
","
","572","","48","","","3000","1","","","images/tutgreenplanet.jpg","images/tutalien1","images/tutalien2","null","images/tutalien1","","NA","practice","null","","","",""
"d3-animate-choice","13","100586","0.0-13.0","758","680","13","Male","true","false","false","true","""event"",""trial"",""time""
""fullscreenenter"",""5"",""30671""
","
","
","""event"",""trial"",""time""
""fullscreenenter"",""5"",""30671""
","
","611","","49","","","3000","1","","","images/tutgreenplanet.jpg","images/tutalien1","images/tutalien2","null","images/tutalien2","","NA","practice","null","","","",""
"d3-animate-choice","14","102881","0.0-14.0","758","680","13","Male","true","false","false","true","""event"",""trial"",""time""
""fullscreenenter"",""5"",""30671""
","
","
","""event"",""trial"",""time""
""fullscreenenter"",""5"",""30671""
","
","293","","48","","","3000","1","","","images/tutgreenplanet.jpg","images/tutalien1","images/tutalien2","null","images/tutalien1","","NA","practice","null","","","",""
"d3-instructions","15","109648","0.0-15.0","758","680","13","Male","true","false","false","true","""event"",""trial"",""time""
""fullscreenenter"",""5"",""30671""
","
","
","""event"",""trial"",""time""
""fullscreenenter"",""5"",""30671""
","
","","","","","","","","","","","","","","","","","","","","","",""
"d3-instructions","16","117304","0.0-16.0","758","680","13","Male","true","false","false","true","""event"",""trial"",""time""
""fullscreenenter"",""5"",""30671""
","
","
","""event"",""trial"",""time""
""fullscreenenter"",""5"",""30671""
","
","","","","","","","","","","","","","","","","","","","","","",""
"d3-instructions","17","125543","0.0-17.0","758","680","13","Male","true","false","false","true","""event"",""trial"",""time""
""fullscreenenter"",""5"",""30671""
","
","
","""event"",""trial"",""time""
""fullscreenenter"",""5"",""30671""
","
","","","","","","","","","","","","","","","","","","","","","",""
"d3-instructions","18","139527","0.0-18.0","758","680","13","Male","true","false","false","true","""event"",""trial"",""time""
""fullscreenenter"",""5"",""30671""
","
","
","""event"",""trial"",""time""
""fullscreenenter"",""5"",""30671""
","
","","","","","","","","","","","","","","","","","","","","","",""
"d3-instructions","19","153408","0.0-19.0","758","680","13","Male","true","false","false","true","""event"",""trial"",""time""
""fullscreenenter"",""5"",""30671""
","
","
","""event"",""trial"",""time""
""fullscreenenter"",""5"",""30671""
","
","","","","","","","","","","","","","","","","","","","","","",""
"d3-animate-choice","20","156201","0.0-20.0","758","680","13","Male","true","false","false","true","""event"",""trial"",""time""
""fullscreenenter"",""5"",""30671""
","
","
","""event"",""trial"",""time""
""fullscreenenter"",""5"",""30671""
","
","791","","49","","","3000","1","","","images/tutyellowplanet.jpg","null","images/tutalien3","null","images/tutalien3","images/t.png","NA","practice","null","","","",""
"d3-animate-choice","21","158560","0.0-21.0","758","680","13","Male","true","false","false","true","""event"",""trial"",""time""
""fullscreenenter"",""5"",""30671""
","
","
","""event"",""trial"",""time""
""fullscreenenter"",""5"",""30671""
","
","357","","49","","","3000","1","","","images/tutyellowplanet.jpg","null","images/tutalien3","null","images/tutalien3","images/t.png","NA","practice","null","","","",""
"d3-animate-choice","22","160713","0.0-22.0","758","680","13","Male","true","false","false","true","""event"",""trial"",""time""
""fullscreenenter"",""5"",""30671""
","
","
","""event"",""trial"",""time""
""fullscreenenter"",""5"",""30671""
","
","151","","49","","","3000","1","","","images/tutyellowplanet.jpg","null","images/tutalien3","null","images/tutalien3","images/t.png","NA","practice","null","","","",""
"d3-animate-choice","23","162914","0.0-23.0","758","680","13","Male","true","false","false","true","""event"",""trial"",""time""
""fullscreenenter"",""5"",""30671""
","
","
","""event"",""trial"",""time""
""fullscreenenter"",""5"",""30671""
","
","197","","49","","","3000","1","","","images/tutyellowplanet.jpg","null","images/tutalien3","null","images/tutalien3","images/t.png","NA","practice","null","","","",""
"d3-animate-choice","24","165032","0.0-24.0","758","680","13","Male","true","false","false","true","""event"",""trial"",""time""
""fullscreenenter"",""5"",""30671""
","
","
","""event"",""trial"",""time""
""fullscreenenter"",""5"",""30671""
","
","116","","49","","","3000","1","","","images/tutyellowplanet.jpg","null","images/tutalien3","null","images/tutalien3","images/t.png","NA","practice","null","","","",""
"d3-animate-choice","25","167155","0.0-25.0","758","680","13","Male","true","false","false","true","""event"",""trial"",""time""
""fullscreenenter"",""5"",""30671""
","
","
","""event"",""trial"",""time""
""fullscreenenter"",""5"",""30671""
","
","117","","49","","","3000","1","2062","49","images/tutyellowplanet.jpg","null","images/tutalien3","null","images/tutalien3","images/t.png","NA","practice","null","","","",""
"d3-animate-choice","26","169496","0.0-26.0","758","680","13","Male","true","false","false","true","""event"",""trial"",""time""
""fullscreenenter"",""5"",""30671""
","
","
","""event"",""trial"",""time""
""fullscreenenter"",""5"",""30671""
","
","339","","49","","","3000","1","","","images/tutyellowplanet.jpg","null","images/tutalien3","null","images/tutalien3","images/t.png","NA","practice","null","","","",""
"d3-animate-choice","27","171792","0.0-27.0","758","680","13","Male","true","false","false","true","""event"",""trial"",""time""
""fullscreenenter"",""5"",""30671""
","
","
","""event"",""trial"",""time""
""fullscreenenter"",""5"",""30671""
","
","292","","49","","","3000","1","","","images/tutyellowplanet.jpg","null","images/tutalien3","null","images/tutalien3","images/nothing.png","NA","practice","null","","","",""
"d3-animate-choice","28","174073","0.0-28.0","758","680","13","Male","true","false","false","true","""event"",""trial"",""time""
""fullscreenenter"",""5"",""30671""
","
","
","""event"",""trial"",""time""
""fullscreenenter"",""5"",""30671""
","
","278","","49","","","3000","1","","","images/tutyellowplanet.jpg","null","images/tutalien3","null","images/tutalien3","images/t.png","NA","practice","null","","","",""
"d3-animate-choice","29","176296","0.0-29.0","758","680","13","Male","true","false","false","true","""event"",""trial"",""time""
""fullscreenenter"",""5"",""30671""
","
","
","""event"",""trial"",""time""
""fullscreenenter"",""5"",""30671""
","
","220","","49","","","3000","1","","","images/tutyellowplanet.jpg","null","images/tutalien3","null","images/tutalien3","images/t.png","NA","practice","null","","","",""
"d3-instructions","30","182488","0.0-30.0","758","680","13","Male","true","false","false","true","""event"",""trial"",""time""
""fullscreenenter"",""5"",""30671""
","
","
","""event"",""trial"",""time""
""fullscreenenter"",""5"",""30671""
","
","","","","","","","","","","","","","","","","","","","","","",""
"d3-instructions","31","192544","0.0-31.0","758","680","13","Male","true","false","false","true","""event"",""trial"",""time""
""fullscreenenter"",""5"",""30671""
","
","
","""event"",""trial"",""time""
""fullscreenenter"",""5"",""30671""
","
","","","","","","","","","","","","","","","","","","","","","",""
"d3-instructions","32","199888","0.0-32.0","758","680","13","Male","true","false","false","true","""event"",""trial"",""time""
""fullscreenenter"",""5"",""30671""
","
","
","""event"",""trial"",""time""
""fullscreenenter"",""5"",""30671""
","
","","","","","","","","","","","","","","","","","","","","","",""
"d3-instructions","33","210727","0.0-33.0","758","680","13","Male","true","false","false","true","""event"",""trial"",""time""
""fullscreenenter"",""5"",""30671""
","
","
","""event"",""trial"",""time""
""fullscreenenter"",""5"",""30671""
","
","","","","","","","","","","","","","","","","","","","","","",""
"d3-animate-choice","34","213807","0.0-34.0","758","680","13","Male","true","false","false","true","""event"",""trial"",""time""
""fullscreenenter"",""5"",""30671""
","
","
","""event"",""trial"",""time""
""fullscreenenter"",""5"",""30671""
","
","1078","","49","","","3000","1","","","images/tutgreenplanet.jpg","images/tutalien1","images/tutalien2","null","images/tutalien2","images/t.png","NA","practice","null","","","",""
"d3-animate-choice","35","216226","0.0-35.0","758","680","13","Male","true","false","false","true","""event"",""trial"",""time""
""fullscreenenter"",""5"",""30671""
","
","
","""event"",""trial"",""time""
""fullscreenenter"",""5"",""30671""
","
","414","","49","","","3000","1","","","images/tutgreenplanet.jpg","images/tutalien1","images/tutalien2","null","images/tutalien2","images/nothing.png","NA","practice","null","","","",""
"d3-animate-choice","36","218514","0.0-36.0","758","680","13","Male","true","false","false","true","""event"",""trial"",""time""
""fullscreenenter"",""5"",""30671""
","
","
","""event"",""trial"",""time""
""fullscreenenter"",""5"",""30671""
","
","283","","48","","","3000","1","","","images/tutgreenplanet.jpg","images/tutalien1","images/tutalien2","null","images/tutalien1","images/nothing.png","NA","practice","null","","","",""
"d3-animate-choice","37","220658","0.0-37.0","758","680","13","Male","true","false","false","true","""event"",""trial"",""time""
""fullscreenenter"",""5"",""30671""
","
","
","""event"",""trial"",""time""
""fullscreenenter"",""5"",""30671""
","
","140","","49","","","3000","1","","","images/tutgreenplanet.jpg","images/tutalien1","images/tutalien2","null","images/tutalien2","images/t.png","NA","practice","null","","","",""
"d3-animate-choice","38","222859","0.0-38.0","758","680","13","Male","true","false","false","true","""event"",""trial"",""time""
""fullscreenenter"",""5"",""30671""
","
","
","""event"",""trial"",""time""
""fullscreenenter"",""5"",""30671""
","
","196","","49","","","3000","1","","","images/tutgreenplanet.jpg","images/tutalien1","images/tutalien2","null","images/tutalien2","images/t.png","NA","practice","null","","","",""
"d3-animate-choice","39","224897","0.0-39.0","758","680","13","Male","true","false","false","true","""event"",""trial"",""time""
""fullscreenenter"",""5"",""30671""
","
","
","""event"",""trial"",""time""
""fullscreenenter"",""5"",""30671""
","
","34","","49","","","3000","1","","","images/tutgreenplanet.jpg","images/tutalien1","images/tutalien2","null","images/tutalien2","images/t.png","NA","practice","null","","","",""
"d3-animate-choice","40","227105","0.0-40.0","758","680","13","Male","true","false","false","true","""event"",""trial"",""time""
""fullscreenenter"",""5"",""30671""
","
","
","""event"",""trial"",""time""
""fullscreenenter"",""5"",""30671""
","
","205","","49","","","3000","1","2205","49","images/tutgreenplanet.jpg","images/tutalien1","images/tutalien2","null","images/tutalien2","images/t.png","NA","practice","null","","","",""
"d3-animate-choice","41","229528","0.0-41.0","758","680","13","Male","true","false","false","true","""event"",""trial"",""time""
""fullscreenenter"",""5"",""30671""
","
","
","""event"",""trial"",""time""
""fullscreenenter"",""5"",""30671""
","
","421","","49","","","3000","1","","","images/tutgreenplanet.jpg","images/tutalien1","images/tutalien2","null","images/tutalien2","images/t.png","NA","practice","null","","","",""
"d3-animate-choice","42","231847","0.0-42.0","758","680","13","Male","true","false","false","true","""event"",""trial"",""time""
""fullscreenenter"",""5"",""30671""
","
","
","""event"",""trial"",""time""
""fullscreenenter"",""5"",""30671""
","
","316","","49","","","3000","1","","","images/tutgreenplanet.jpg","images/tutalien1","images/tutalien2","null","images/tutalien2","images/t.png","NA","practice","null","","","",""
"d3-animate-choice","43","234074","0.0-43.0","758","680","13","Male","true","false","false","true","""event"",""trial"",""time""
""fullscreenenter"",""5"",""30671""
","
","
","""event"",""trial"",""time""
""fullscreenenter"",""5"",""30671""
","
","223","","49","","","3000","1","","","images/tutgreenplanet.jpg","images/tutalien1","images/tutalien2","null","images/tutalien2","images/t.png","NA","practice","null","","","",""
"d3-instructions","44","246903","0.0-44.0","758","680","13","Male","true","false","false","true","""event"",""trial"",""time""
""fullscreenenter"",""5"",""30671""
","
","
","""event"",""trial"",""time""
""fullscreenenter"",""5"",""30671""
","
","","","","","","","","","","","","","","","","","","","","","",""
"d3-instructions","45","253159","0.0-45.0","758","680","13","Male","true","false","false","true","""event"",""trial"",""time""
""fullscreenenter"",""5"",""30671""
","
","
","""event"",""trial"",""time""
""fullscreenenter"",""5"",""30671""
","
","","","","","","","","","","","","","","","","","","","","","",""
"d3-instructions","46","257335","0.0-46.0","758","680","13","Male","true","false","false","true","""event"",""trial"",""time""
""fullscreenenter"",""5"",""30671""
","
","
","""event"",""trial"",""time""
""fullscreenenter"",""5"",""30671""
","
","","","","","","","","","","","","","","","","","","","","","",""
"d3-instructions","47","263903","0.0-47.0","758","680","13","Male","true","false","false","true","""event"",""trial"",""time""
""fullscreenenter"",""5"",""30671""
","
","
","""event"",""trial"",""time""
""fullscreenenter"",""5"",""30671""
","
","","","","","","","","","","","","","","","","","","","","","",""
"d3-instructions","48","268463","0.0-48.0","758","680","13","Male","true","false","false","true","""event"",""trial"",""time""
""fullscreenenter"",""5"",""30671""
","
","
","""event"",""trial"",""time""
""fullscreenenter"",""5"",""30671""
","
","","","","","","","","","","","","","","","","","","","","","",""
"d3-instructions","49","272584","0.0-49.0","758","680","13","Male","true","false","false","true","""event"",""trial"",""time""
""fullscreenenter"",""5"",""30671""
","
","
","""event"",""trial"",""time""
""fullscreenenter"",""5"",""30671""
","
","","","","","","","","","","","","","","","","","","","","","",""
"d3-instructions","50","274208","0.0-50.0","758","680","13","Male","true","false","false","true","""event"",""trial"",""time""
""fullscreenenter"",""5"",""30671""
","
","
","""event"",""trial"",""time""
""fullscreenenter"",""5"",""30671""
","
","","","","","","","","","","","","","","","","","","","","","",""
"d3-instructions","51","277096","0.0-51.0","758","680","13","Male","true","false","false","true","""event"",""trial"",""time""
""fullscreenenter"",""5"",""30671""
","
","
","""event"",""trial"",""time""
""fullscreenenter"",""5"",""30671""
","
","","","","","","","","","","","","","","","","","","","","","",""
"d3-instructions","52","279056","0.0-52.0","758","680","13","Male","true","false","false","true","""event"",""trial"",""time""
""fullscreenenter"",""5"",""30671""
","
","
","""event"",""trial"",""time""
""fullscreenenter"",""5"",""30671""
","
","","","","","","","","","","","","","","","","","","","","","",""
"d3-instructions","53","285760","0.0-53.0","758","680","13","Male","true","false","false","true","""event"",""trial"",""time""
""fullscreenenter"",""5"",""30671""
","
","
","""event"",""trial"",""time""
""fullscreenenter"",""5"",""30671""
","
","","","","","","","","","","","","","","","","","","","","","",""
"d3-instructions","54","293895","0.0-54.0","758","680","13","Male","true","false","false","true","""event"",""trial"",""time""
""fullscreenenter"",""5"",""30671""
","
","
","""event"",""trial"",""time""
""fullscreenenter"",""5"",""30671""
","
","","","","","","","","","","","","","","","","","","","","","",""
"d3-instructions","55","297135","0.0-55.0","758","680","13","Male","true","false","false","true","""event"",""trial"",""time""
""fullscreenenter"",""5"",""30671""
","
","
","""event"",""trial"",""time""
""fullscreenenter"",""5"",""30671""
","
","","","","","","","","","","","","","","","","","","","","","",""
"d3-instructions","56","300287","0.0-56.0","758","680","13","Male","true","false","false","true","""event"",""trial"",""time""
""fullscreenenter"",""5"",""30671""
","
","
","""event"",""trial"",""time""
""fullscreenenter"",""5"",""30671""
","
","","","","","","","","","","","","","","","","","","","","","",""
"d3-instructions","57","304552","0.0-57.0","758","680","13","Male","true","false","false","true","""event"",""trial"",""time""
""fullscreenenter"",""5"",""30671""
","
","
","""event"",""trial"",""time""
""fullscreenenter"",""5"",""30671""
","
","","","","","","","","","","","","","","","","","","","","","",""
"d3-instructions","58","308359","0.0-58.0","758","680","13","Male","true","false","false","true","""event"",""trial"",""time""
""fullscreenenter"",""5"",""30671""
","
","
","""event"",""trial"",""time""
""fullscreenenter"",""5"",""30671""
","
","","","","","","","","","","","","","","","","","","","","","",""
"d3-instructions","59","310199","0.0-59.0","758","680","13","Male","true","false","false","true","""event"",""trial"",""time""
""fullscreenenter"",""5"",""30671""
","
","
","""event"",""trial"",""time""
""fullscreenenter"",""5"",""30671""
","
","","","","","","","","","","","","","","","","","","","","","",""
"d3-instructions","60","311728","0.0-60.0","758","680","13","Male","true","false","false","true","""event"",""trial"",""time""
""fullscreenenter"",""5"",""30671""
","
","
","""event"",""trial"",""time""
""fullscreenenter"",""5"",""30671""
","
","","","","","","","","","","","","","","","","","","","","","",""
"d3-animate-choice","61","314545","0.0-61.0-0.0","758","680","13","Male","true","false","false","true","""event"",""trial"",""time""
""fullscreenenter"",""5"",""30671""
","
","
","""event"",""trial"",""time""
""fullscreenenter"",""5"",""30671""
","
","814","","49","","","3000","1","","","images/earth.jpg","images/tutrocket1","images/tutrocket2","null","images/tutrocket2","","1","practice","null","1","","",""
"d3-animate-choice","62","318081","0.0-61.0-1.0","758","680","13","Male","true","false","false","true","""event"",""trial"",""time""
""fullscreenenter"",""5"",""30671""
","
","
","""event"",""trial"",""time""
""fullscreenenter"",""5"",""30671""
","
","1532","","49","","","3000","1","","","images/tutyellowplanet.jpg","images/tutalien4","images/tutalien3","images/tutrocket2","images/tutalien3","images/nothing.png","2","practice","false","1","rare","0","2022-02-09 23:15:19.538"
"two-step-fixation","63","319083","0.0-61.0-2.0","758","680","13","Male","true","false","false","true","""event"",""trial"",""time""
""fullscreenenter"",""5"",""30671""
","
","
","""event"",""trial"",""time""
""fullscreenenter"",""5"",""30671""
","
","","images/earth.jpg","","","","","","","","","","","","","","fixation","","","","","",""
"d3-animate-choice","64","323087","0.0-61.0-0.1","758","680","13","Male","true","false","false","true","""event"",""trial"",""time""
""fullscreenenter"",""5"",""30671""
","
","
","""event"",""trial"",""time""
""fullscreenenter"",""5"",""30671""
","
","1620","","50","","","3000","1","3020,3900","50,48","images/earth.jpg","images/tutrocket1","images/tutrocket2","null","images/tutrocket1","","1","practice","null","","","",""
"d3-animate-choice","65","326324","0.0-61.0-1.1","758","680","13","Male","true","false","false","true","""event"",""trial"",""time""
""fullscreenenter"",""5"",""30671""
","
","
","""event"",""trial"",""time""
""fullscreenenter"",""5"",""30671""
","
","1231","","49","","","3000","1","","","images/tutyellowplanet.jpg","images/tutalien4","images/tutalien3","images/tutrocket1","images/tutalien3","images/t.png","2","practice","true","1","common","1","2022-02-09 23:15:27.781"
"two-step-fixation","66","327325","0.0-61.0-2.1","758","680","13","Male","true","false","false","true","""event"",""trial"",""time""
""fullscreenenter"",""5"",""30671""
","
","
","""event"",""trial"",""time""
""fullscreenenter"",""5"",""30671""
","
","","images/earth.jpg","","","","","","","","","","","","","","fixation","","","","","",""
"d3-animate-choice","67","329824","0.0-61.0-0.2","758","680","13","Male","true","false","false","true","""event"",""trial"",""time""
""fullscreenenter"",""5"",""30671""
","
","
","""event"",""trial"",""time""
""fullscreenenter"",""5"",""30671""
","
","497","","48","","","3000","1","","","images/earth.jpg","images/tutrocket1","images/tutrocket2","null","images/tutrocket1","","1","practice","null","2","","",""
"d3-animate-choice","68","333017","0.0-61.0-1.2","758","680","13","Male","true","false","false","true","""event"",""trial"",""time""
""fullscreenenter"",""5"",""30671""
","
","
","""event"",""trial"",""time""
""fullscreenenter"",""5"",""30671""
","
","1190","","49","","","3000","1","","","images/tutyellowplanet.jpg","images/tutalien4","images/tutalien3","images/tutrocket1","images/tutalien3","images/nothing.png","2","practice","true","1","common","0","2022-02-09 23:15:34.474"
"two-step-fixation","69","334019","0.0-61.0-2.2","758","680","13","Male","true","false","false","true","""event"",""trial"",""time""
""fullscreenenter"",""5"",""30671""
","
","
","""event"",""trial"",""time""
""fullscreenenter"",""5"",""30671""
","
","","images/earth.jpg","","","","","","","","","","","","","","fixation","","","","","",""
"d3-animate-choice","70","337185","0.0-61.0-0.3","758","680","13","Male","true","false","false","true","""event"",""trial"",""time""
""fullscreenenter"",""5"",""30671""
","
","
","""event"",""trial"",""time""
""fullscreenenter"",""5"",""30671""
","
","1164","","49","","","3000","1","","","images/earth.jpg","images/tutrocket1","images/tutrocket2","null","images/tutrocket2","","1","practice","null","1","","",""
"d3-animate-choice","71","339984","0.0-61.0-1.3","758","680","13","Male","true","false","false","true","""event"",""trial"",""time""
""fullscreenenter"",""5"",""30671""
","
","
","""event"",""trial"",""time""
""fullscreenenter"",""5"",""30671""
","
","796","","49","","","3000","1","","","images/tutgreenplanet.jpg","images/tutalien2","images/tutalien1","images/tutrocket2","images/tutalien1","images/nothing.png","2","practice","true","1","common","0","2022-02-09 23:15:41.441"
"two-step-fixation","72","340985","0.0-61.0-2.3","758","680","13","Male","true","false","false","true","""event"",""trial"",""time""
""fullscreenenter"",""5"",""30671""
","
","
","""event"",""trial"",""time""
""fullscreenenter"",""5"",""30671""
","
","","images/earth.jpg","","","","","","","","","","","","","","fixation","","","","","",""
"d3-animate-choice","73","343353","0.0-61.0-0.4","758","680","13","Male","true","false","false","true","""event"",""trial"",""time""
""fullscreenenter"",""5"",""30671""
","
","
","""event"",""trial"",""time""
""fullscreenenter"",""5"",""30671""
","
","364","","49","","","3000","1","","","images/earth.jpg","images/tutrocket1","images/tutrocket2","null","images/tutrocket2","","1","practice","null","1","","",""
"d3-animate-choice","74","345932","0.0-61.0-1.4","758","680","13","Male","true","false","false","true","""event"",""trial"",""time""
""fullscreenenter"",""5"",""30671""
","
","
","""event"",""trial"",""time""
""fullscreenenter"",""5"",""30671""
","
","573","","48","","","3000","1","","","images/tutgreenplanet.jpg","images/tutalien2","images/tutalien1","images/tutrocket2","images/tutalien2","images/t.png","2","practice","true","2","common","1","2022-02-09 23:15:47.389"
"two-step-fixation","75","346937","0.0-61.0-2.4","758","680","13","Male","true","false","false","true","""event"",""trial"",""time""
""fullscreenenter"",""5"",""30671""
","
","
","""event"",""trial"",""time""
""fullscreenenter"",""5"",""30671""
","
","","images/earth.jpg","","","","","","","","","","","","","","fixation","","","","","",""
"d3-animate-choice","76","349266","0.0-61.0-0.5","758","680","13","Male","true","false","false","true","""event"",""trial"",""time""
""fullscreenenter"",""5"",""30671""
","
","
","""event"",""trial"",""time""
""fullscreenenter"",""5"",""30671""
","
","324","","49","","","3000","1","","","images/earth.jpg","images/tutrocket1","images/tutrocket2","null","images/tutrocket2","","1","practice","null","1","","",""
"d3-animate-choice","77","352202","0.0-61.0-1.5","758","680","13","Male","true","false","false","true","""event"",""trial"",""time""
""fullscreenenter"",""5"",""30671""
","
","
","""event"",""trial"",""time""
""fullscreenenter"",""5"",""30671""
","
","933","","48","","","3000","1","","","images/tutyellowplanet.jpg","images/tutalien4","images/tutalien3","images/tutrocket2","images/tutalien4","images/t.png","2","practice","false","2","rare","1","2022-02-09 23:15:53.659"
"two-step-fixation","78","353205","0.0-61.0-2.5","758","680","13","Male","true","false","false","true","""event"",""trial"",""time""
""fullscreenenter"",""5"",""30671""
","
","
","""event"",""trial"",""time""
""fullscreenenter"",""5"",""30671""
","
","","images/earth.jpg","","","","","","","","","","","","","","fixation","","","","","",""
"d3-animate-choice","79","355610","0.0-61.0-0.6","758","680","13","Male","true","false","false","true","""event"",""trial"",""time""
""fullscreenenter"",""5"",""30671""
","
","
","""event"",""trial"",""time""
""fullscreenenter"",""5"",""30671""
","
","402","","49","","","3000","1","","","images/earth.jpg","images/tutrocket1","images/tutrocket2","null","images/tutrocket2","","1","practice","null","1","","",""
"d3-animate-choice","80","358042","0.0-61.0-1.6","758","680","13","Male","true","false","false","true","""event"",""trial"",""time""
""fullscreenenter"",""5"",""30671""
","
","
","""event"",""trial"",""time""
""fullscreenenter"",""5"",""30671""
","
","428","","48","","","3000","1","","","images/tutgreenplanet.jpg","images/tutalien2","images/tutalien1","images/tutrocket2","images/tutalien2","images/nothing.png","2","practice","true","2","common","0","2022-02-09 23:15:59.499"
"two-step-fixation","81","359043","0.0-61.0-2.6","758","680","13","Male","true","false","false","true","""event"",""trial"",""time""
""fullscreenenter"",""5"",""30671""
","
","
","""event"",""trial"",""time""
""fullscreenenter"",""5"",""30671""
","
","","images/earth.jpg","","","","","","","","","","","","","","fixation","","","","","",""
"d3-animate-choice","82","363053","0.0-61.0-0.7","758","680","13","Male","true","false","false","true","""event"",""trial"",""time""
""fullscreenenter"",""5"",""30671""
","
","
","""event"",""trial"",""time""
""fullscreenenter"",""5"",""30671""
","
","98","","50","","","3000","1","1578,2434","50,48","images/earth.jpg","images/tutrocket1","images/tutrocket2","null","images/tutrocket1","","1","practice","null","","","",""
"d3-animate-choice","83","365395","0.0-61.0-1.7","758","680","13","Male","true","false","false","true","""event"",""trial"",""time""
""fullscreenenter"",""5"",""30671""
","
","
","""event"",""trial"",""time""
""fullscreenenter"",""5"",""30671""
","
","338","","48","","","3000","1","","","images/tutyellowplanet.jpg","images/tutalien4","images/tutalien3","images/tutrocket1","images/tutalien4","images/t.png","2","practice","true","2","common","1","2022-02-09 23:16:06.852"
"two-step-fixation","84","366396","0.0-61.0-2.7","758","680","13","Male","true","false","false","true","""event"",""trial"",""time""
""fullscreenenter"",""5"",""30671""
","
","
","""event"",""trial"",""time""
""fullscreenenter"",""5"",""30671""
","
","","images/earth.jpg","","","","","","","","","","","","","","fixation","","","","","",""
"d3-animate-choice","85","368700","0.0-61.0-0.8","758","680","13","Male","true","false","false","true","""event"",""trial"",""time""
""fullscreenenter"",""5"",""30671""
","
","
","""event"",""trial"",""time""
""fullscreenenter"",""5"",""30671""
","
","299","","48","","","3000","1","","","images/earth.jpg","images/tutrocket1","images/tutrocket2","null","images/tutrocket1","","1","practice","null","2","","",""
"d3-animate-choice","86","370993","0.0-61.0-1.8","758","680","13","Male","true","false","false","true","""event"",""trial"",""time""
""fullscreenenter"",""5"",""30671""
","
","
","""event"",""trial"",""time""
""fullscreenenter"",""5"",""30671""
","
","290","","48","","","3000","1","","","images/tutyellowplanet.jpg","images/tutalien4","images/tutalien3","images/tutrocket1","images/tutalien4","images/nothing.png","2","practice","true","2","common","0","2022-02-09 23:16:12.451"
"two-step-fixation","87","371995","0.0-61.0-2.8","758","680","13","Male","true","false","false","true","""event"",""trial"",""time""
""fullscreenenter"",""5"",""30671""
","
","
","""event"",""trial"",""time""
""fullscreenenter"",""5"",""30671""
","
","","images/earth.jpg","","","","","","","","","","","","","","fixation","","","","","",""
"d3-animate-choice","88","374332","0.0-61.0-0.9","758","680","13","Male","true","false","false","true","""event"",""trial"",""time""
""fullscreenenter"",""5"",""30671""
","
","
","""event"",""trial"",""time""
""fullscreenenter"",""5"",""30671""
","
","331","","48","","","3000","1","","","images/earth.jpg","images/tutrocket1","images/tutrocket2","null","images/tutrocket1","","1","practice","null","2","","",""
"d3-animate-choice","89","376722","0.0-61.0-1.9","758","680","13","Male","true","false","false","true","""event"",""trial"",""time""
""fullscreenenter"",""5"",""30671""
","
","
","""event"",""trial"",""time""
""fullscreenenter"",""5"",""30671""
","
","387","","48","","","3000","1","","","images/tutyellowplanet.jpg","images/tutalien4","images/tutalien3","images/tutrocket1","images/tutalien4","images/nothing.png","2","practice","true","2","common","0","2022-02-09 23:16:18.180"
"two-step-fixation","90","377724","0.0-61.0-2.9","758","680","13","Male","true","false","false","true","""event"",""trial"",""time""
""fullscreenenter"",""5"",""30671""
","
","
","""event"",""trial"",""time""
""fullscreenenter"",""5"",""30671""
","
","","images/earth.jpg","","","","","","","","","","","","","","fixation","","","","","",""
"d3-animate-choice","91","380227","0.0-61.0-0.10","758","680","13","Male","true","false","false","true","""event"",""trial"",""time""
""fullscreenenter"",""5"",""30671""
","
","
","""event"",""trial"",""time""
""fullscreenenter"",""5"",""30671""
","
","498","","49","","","3000","1","","","images/earth.jpg","images/tutrocket1","images/tutrocket2","null","images/tutrocket2","","1","practice","null","1","","",""
"d3-animate-choice","92","383169","0.0-61.0-1.10","758","680","13","Male","true","false","false","true","""event"",""trial"",""time""
""fullscreenenter"",""5"",""30671""
","
","
","""event"",""trial"",""time""
""fullscreenenter"",""5"",""30671""
","
","939","","49","","","3000","1","","","images/tutyellowplanet.jpg","images/tutalien4","images/tutalien3","images/tutrocket2","images/tutalien3","images/t.png","2","practice","false","1","rare","1","2022-02-09 23:16:24.627"
"two-step-fixation","93","384171","0.0-61.0-2.10","758","680","13","Male","true","false","false","true","""event"",""trial"",""time""
""fullscreenenter"",""5"",""30671""
","
","
","""event"",""trial"",""time""
""fullscreenenter"",""5"",""30671""
","
","","images/earth.jpg","","","","","","","","","","","","","","fixation","","","","","",""
"d3-animate-choice","94","387355","0.0-61.0-0.11","758","680","13","Male","true","false","false","true","""event"",""trial"",""time""
""fullscreenenter"",""5"",""30671""
","
","
","""event"",""trial"",""time""
""fullscreenenter"",""5"",""30671""
","
","411","","50","","","3000","1","1179","48","images/earth.jpg","images/tutrocket1","images/tutrocket2","null","images/tutrocket1","","1","practice","null","","","",""
"d3-animate-choice","95","389635","0.0-61.0-1.11","758","680","13","Male","true","false","false","true","""event"",""trial"",""time""
""fullscreenenter"",""5"",""30671""
","
","
","""event"",""trial"",""time""
""fullscreenenter"",""5"",""30671""
","
","276","","49","","","3000","1","","","images/tutyellowplanet.jpg","images/tutalien4","images/tutalien3","images/tutrocket1","images/tutalien3","images/t.png","2","practice","true","1","common","1","2022-02-09 23:16:31.092"
"two-step-fixation","96","390640","0.0-61.0-2.11","758","680","13","Male","true","false","false","true","""event"",""trial"",""time""
""fullscreenenter"",""5"",""30671""
","
","
","""event"",""trial"",""time""
""fullscreenenter"",""5"",""30671""
","
","","images/earth.jpg","","","","","","","","","","","","","","fixation","","","","","",""
"d3-animate-choice","97","392881","0.0-61.0-0.12","758","680","13","Male","true","false","false","true","""event"",""trial"",""time""
""fullscreenenter"",""5"",""30671""
","
","
","""event"",""trial"",""time""
""fullscreenenter"",""5"",""30671""
","
","238","","48","","","3000","1","","","images/earth.jpg","images/tutrocket1","images/tutrocket2","null","images/tutrocket1","","1","practice","null","2","","",""
"d3-animate-choice","98","395208","0.0-61.0-1.12","758","680","13","Male","true","false","false","true","""event"",""trial"",""time""
""fullscreenenter"",""5"",""30671""
","
","
","""event"",""trial"",""time""
""fullscreenenter"",""5"",""30671""
","
","325","","49","","","3000","1","","","images/tutyellowplanet.jpg","images/tutalien4","images/tutalien3","images/tutrocket1","images/tutalien3","images/nothing.png","2","practice","true","1","common","0","2022-02-09 23:16:36.665"
"two-step-fixation","99","396210","0.0-61.0-2.12","758","680","13","Male","true","false","false","true","""event"",""trial"",""time""
""fullscreenenter"",""5"",""30671""
","
","
","""event"",""trial"",""time""
""fullscreenenter"",""5"",""30671""
","
","","images/earth.jpg","","","","","","","","","","","","","","fixation","","","","","",""
"d3-animate-choice","100","398553","0.0-61.0-0.13","758","680","13","Male","true","false","false","true","""event"",""trial"",""time""
""fullscreenenter"",""5"",""30671""
","
","
","""event"",""trial"",""time""
""fullscreenenter"",""5"",""30671""
","
","340","","49","","","3000","1","","","images/earth.jpg","images/tutrocket1","images/tutrocket2","null","images/tutrocket2","","1","practice","null","1","","",""
"d3-animate-choice","101","400825","0.0-61.0-1.13","758","680","13","Male","true","false","false","true","""event"",""trial"",""time""
""fullscreenenter"",""5"",""30671""
","
","
","""event"",""trial"",""time""
""fullscreenenter"",""5"",""30671""
","
","269","","49","","","3000","1","","","images/tutgreenplanet.jpg","images/tutalien2","images/tutalien1","images/tutrocket2","images/tutalien1","images/nothing.png","2","practice","true","1","common","0","2022-02-09 23:16:42.282"
"two-step-fixation","102","401826","0.0-61.0-2.13","758","680","13","Male","true","false","false","true","""event"",""trial"",""time""
""fullscreenenter"",""5"",""30671""
","
","
","""event"",""trial"",""time""
""fullscreenenter"",""5"",""30671""
","
","","images/earth.jpg","","","","","","","","","","","","","","fixation","","","","","",""
"d3-animate-choice","103","404154","0.0-61.0-0.14","758","680","13","Male","true","false","false","true","""event"",""trial"",""time""
""fullscreenenter"",""5"",""30671""
","
","
","""event"",""trial"",""time""
""fullscreenenter"",""5"",""30671""
","
","324","","49","","","3000","1","","","images/earth.jpg","images/tutrocket1","images/tutrocket2","null","images/tutrocket2","","1","practice","null","1","","",""
"d3-animate-choice","104","407516","0.0-61.0-1.14","758","680","13","Male","true","false","false","true","""event"",""trial"",""time""
""fullscreenenter"",""5"",""30671""
","
","
","""event"",""trial"",""time""
""fullscreenenter"",""5"",""30671""
","
","1355","","49","","","3000","1","","","images/tutyellowplanet.jpg","images/tutalien4","images/tutalien3","images/tutrocket2","images/tutalien3","images/t.png","2","practice","false","1","rare","1","2022-02-09 23:16:48.973"
"two-step-fixation","105","408520","0.0-61.0-2.14","758","680","13","Male","true","false","false","true","""event"",""trial"",""time""
""fullscreenenter"",""5"",""30671""
","
","
","""event"",""trial"",""time""
""fullscreenenter"",""5"",""30671""
","
","","images/earth.jpg","","","","","","","","","","","","","","fixation","","","","","",""
"d3-animate-choice","106","410847","0.0-61.0-0.15","758","680","13","Male","true","false","false","true","""event"",""trial"",""time""
""fullscreenenter"",""5"",""30671""
","
","
","""event"",""trial"",""time""
""fullscreenenter"",""5"",""30671""
","
","325","","48","","","3000","1","","","images/earth.jpg","images/tutrocket1","images/tutrocket2","null","images/tutrocket1","","1","practice","null","2","","",""
"d3-animate-choice","107","413370","0.0-61.0-1.15","758","680","13","Male","true","false","false","true","""event"",""trial"",""time""
""fullscreenenter"",""5"",""30671""
","
","
","""event"",""trial"",""time""
""fullscreenenter"",""5"",""30671""
","
","518","","49","","","3000","1","","","images/tutyellowplanet.jpg","images/tutalien4","images/tutalien3","images/tutrocket1","images/tutalien3","images/nothing.png","2","practice","true","1","common","0","2022-02-09 23:16:54.827"
"two-step-fixation","108","414371","0.0-61.0-2.15","758","680","13","Male","true","false","false","true","""event"",""trial"",""time""
""fullscreenenter"",""5"",""30671""
","
","
","""event"",""trial"",""time""
""fullscreenenter"",""5"",""30671""
","
","","images/earth.jpg","","","","","","","","","","","","","","fixation","","","","","",""
"d3-animate-choice","109","416995","0.0-61.0-0.16","758","680","13","Male","true","false","false","true","""event"",""trial"",""time""
""fullscreenenter"",""5"",""30671""
","
","
","""event"",""trial"",""time""
""fullscreenenter"",""5"",""30671""
","
","618","","49","","","3000","1","","","images/earth.jpg","images/tutrocket1","images/tutrocket2","null","images/tutrocket2","","1","practice","null","1","","",""
"d3-animate-choice","110","419729","0.0-61.0-1.16","758","680","13","Male","true","false","false","true","""event"",""trial"",""time""
""fullscreenenter"",""5"",""30671""
","
","
","""event"",""trial"",""time""
""fullscreenenter"",""5"",""30671""
","
","730","","48","","","3000","1","","","images/tutgreenplanet.jpg","images/tutalien2","images/tutalien1","images/tutrocket2","images/tutalien2","images/t.png","2","practice","true","2","common","1","2022-02-09 23:17:01.186"
"two-step-fixation","111","420732","0.0-61.0-2.16","758","680","13","Male","true","false","false","true","""event"",""trial"",""time""
""fullscreenenter"",""5"",""30671""
","
","
","""event"",""trial"",""time""
""fullscreenenter"",""5"",""30671""
","
","","images/earth.jpg","","","","","","","","","","","","","","fixation","","","","","",""
"d3-animate-choice","112","423059","0.0-61.0-0.17","758","680","13","Male","true","false","false","true","""event"",""trial"",""time""
""fullscreenenter"",""5"",""30671""
","
","
","""event"",""trial"",""time""
""fullscreenenter"",""5"",""30671""
","
","323","","49","","","3000","1","","","images/earth.jpg","images/tutrocket1","images/tutrocket2","null","images/tutrocket2","","1","practice","null","1","","",""
"d3-animate-choice","113","425418","0.0-61.0-1.17","758","680","13","Male","true","false","false","true","""event"",""trial"",""time""
""fullscreenenter"",""5"",""30671""
","
","
","""event"",""trial"",""time""
""fullscreenenter"",""5"",""30671""
","
","355","","48","","","3000","1","","","images/tutgreenplanet.jpg","images/tutalien2","images/tutalien1","images/tutrocket2","images/tutalien2","images/nothing.png","2","practice","true","2","common","0","2022-02-09 23:17:06.875"
"two-step-fixation","114","426420","0.0-61.0-2.17","758","680","13","Male","true","false","false","true","""event"",""trial"",""time""
""fullscreenenter"",""5"",""30671""
","
","
","""event"",""trial"",""time""
""fullscreenenter"",""5"",""30671""
","
","","images/earth.jpg","","","","","","","","","","","","","","fixation","","","","","",""
"d3-animate-choice","115","429256","0.0-61.0-0.18","758","680","13","Male","true","false","false","true","""event"",""trial"",""time""
""fullscreenenter"",""5"",""30671""
","
","
","""event"",""trial"",""time""
""fullscreenenter"",""5"",""30671""
","
","835","","48","","","3000","1","","","images/earth.jpg","images/tutrocket1","images/tutrocket2","null","images/tutrocket1","","1","practice","null","2","","",""
"d3-animate-choice","116","431627","0.0-61.0-1.18","758","680","13","Male","true","false","false","true","""event"",""trial"",""time""
""fullscreenenter"",""5"",""30671""
","
","
","""event"",""trial"",""time""
""fullscreenenter"",""5"",""30671""
","
","365","","49","","","3000","1","","","images/tutgreenplanet.jpg","images/tutalien2","images/tutalien1","images/tutrocket1","images/tutalien1","images/nothing.png","2","practice","false","1","rare","0","2022-02-09 23:17:13.084"
"two-step-fixation","117","432632","0.0-61.0-2.18","758","680","13","Male","true","false","false","true","""event"",""trial"",""time""
""fullscreenenter"",""5"",""30671""
","
","
","""event"",""trial"",""time""
""fullscreenenter"",""5"",""30671""
","
","","images/earth.jpg","","","","","","","","","","","","","","fixation","","","","","",""
"d3-animate-choice","118","436074","0.0-61.0-0.19","758","680","13","Male","true","false","false","true","""event"",""trial"",""time""
""fullscreenenter"",""5"",""30671""
","
","
","""event"",""trial"",""time""
""fullscreenenter"",""5"",""30671""
","
","1438","","48","","","3000","1","","","images/earth.jpg","images/tutrocket1","images/tutrocket2","null","images/tutrocket1","","1","practice","null","2","","",""
"d3-animate-choice","119","438824","0.0-61.0-1.19","758","680","13","Male","true","false","false","true","""event"",""trial"",""time""
""fullscreenenter"",""5"",""30671""
","
","
","""event"",""trial"",""time""
""fullscreenenter"",""5"",""30671""
","
","749","","49","","","3000","1","","","images/tutyellowplanet.jpg","images/tutalien4","images/tutalien3","images/tutrocket1","images/tutalien3","images/nothing.png","2","practice","true","1","common","0","2022-02-09 23:17:20.281"
"two-step-fixation","120","439826","0.0-61.0-2.19","758","680","13","Male","true","false","false","true","""event"",""trial"",""time""
""fullscreenenter"",""5"",""30671""
","
","
","""event"",""trial"",""time""
""fullscreenenter"",""5"",""30671""
","
","","images/earth.jpg","","","","","","","","","","","","","","fixation","","","","","",""
"d3-instructions","121","446455","0.0-62.0","758","680","13","Male","true","false","false","true","""event"",""trial"",""time""
""fullscreenenter"",""5"",""30671""
","
","
","""event"",""trial"",""time""
""fullscreenenter"",""5"",""30671""
","
","","","","","","","","","","","","","","","","","","","","","",""
"audio-keyboard-response","122","467167","0.0-63.0","758","680","13","Male","true","false","false","true","""event"",""trial"",""time""
""fullscreenenter"",""5"",""30671""
","
","
","""event"",""trial"",""time""
""fullscreenenter"",""5"",""30671""
","
","20709","audio/instructions/treasure_feedback.wav","32","","","","","","","","","","","","","","","","","","",""
"d3-instructions","123","474967","0.0-64.0","758","680","13","Male","true","false","false","true","""event"",""trial"",""time""
""fullscreenenter"",""5"",""30671""
","
","
","""event"",""trial"",""time""
""fullscreenenter"",""5"",""30671""
","
","","","","","","","","","","","","","","","","","","","","","",""
"d3-instructions","124","480040","0.0-65.0","758","680","13","Male","true","false","false","true","""event"",""trial"",""time""
""fullscreenenter"",""5"",""30671""
","
","
","""event"",""trial"",""time""
""fullscreenenter"",""5"",""30671""
","
","","","","","","","","","","","","","","","","","","","","","",""
"d3-instructions","125","490279","0.0-66.0","758","680","13","Male","true","false","false","true","""event"",""trial"",""time""
""fullscreenenter"",""5"",""30671""
","
","
","""event"",""trial"",""time""
""fullscreenenter"",""5"",""30671""
","
","","","","","","","","","","","","","","","","","","","","","",""
"d3-instructions","126","494120","0.0-67.0","758","680","13","Male","true","false","false","true","""event"",""trial"",""time""
""fullscreenenter"",""5"",""30671""
","
","
","""event"",""trial"",""time""
""fullscreenenter"",""5"",""30671""
","
","","","","","","","","","","","","","","","","","","","","","",""
"d3-instructions","127","495712","0.0-68.0","758","680","13","Male","true","false","false","true","""event"",""trial"",""time""
""fullscreenenter"",""5"",""30671""
","
","
","""event"",""trial"",""time""
""fullscreenenter"",""5"",""30671""
","
","","","","","","","","","","","","","","","","","","","","","",""
"instructions-quiz","128","498503","0.0-69.0","758","680","13","Male","true","false","false","true","""event"",""trial"",""time""
""fullscreenenter"",""5"",""30671""
","
","
","""event"",""trial"",""time""
""fullscreenenter"",""5"",""30671""
","
","2791","audio/quiz/Q1_Prompt.wav","","1","","","","","","","","","","","","","","","","","",""
"audio-keyboard-response","129","499175","0.0-70.0","758","680","13","Male","true","false","false","true","""event"",""trial"",""time""
""fullscreenenter"",""5"",""30671""
","
","
","""event"",""trial"",""time""
""fullscreenenter"",""5"",""30671""
","
","673","audio/quiz/Q1_Correct.wav","32","","","","","","","","","","","","","","","","","","",""
"instructions-quiz","130","500943","0.0-71.0","758","680","13","Male","true","false","false","true","""event"",""trial"",""time""
""fullscreenenter"",""5"",""30671""
","
","
","""event"",""trial"",""time""
""fullscreenenter"",""5"",""30671""
","
","1768","audio/quiz/Q2_Prompt.wav","","0","","","","","","","","","","","","","","","","","",""
"audio-keyboard-response","131","501239","0.0-72.0","758","680","13","Male","true","false","false","true","""event"",""trial"",""time""
""fullscreenenter"",""5"",""30671""
","
","
","""event"",""trial"",""time""
""fullscreenenter"",""5"",""30671""
","
","296","audio/quiz/Q2_Correct.wav","32","","","","","","","","","","","","","","","","","","",""
"instructions-quiz","132","502846","0.0-73.0","758","680","13","Male","true","false","false","true","""event"",""trial"",""time""
""fullscreenenter"",""5"",""30671""
","
","
","""event"",""trial"",""time""
""fullscreenenter"",""5"",""30671""
","
","1605","audio/quiz/Q3_Prompt.wav","","1","","","","","","","","","","","","","","","","","",""
"audio-keyboard-response","133","503223","0.0-74.0","758","680","13","Male","true","false","false","true","""event"",""trial"",""time""
""fullscreenenter"",""5"",""30671""
","
","
","""event"",""trial"",""time""
""fullscreenenter"",""5"",""30671""
","
","377","audio/quiz/Q3_Correct.wav","32","","","","","","","","","","","","","","","","","","",""
"d3-instructions","134","506184","0.0-75.0","758","680","13","Male","true","false","false","true","""event"",""trial"",""time""
""fullscreenenter"",""5"",""30671""
","
","
","""event"",""trial"",""time""
""fullscreenenter"",""5"",""30671""
","
","","","","","","","","","","","","","","","","","","","","","",""
"d3-animate-choice","135","509643","0.0-76.0-0.0","758","680","13","Male","true","false","false","true","""event"",""trial"",""time""
""fullscreenenter"",""5"",""30671""
","
","
","""event"",""trial"",""time""
""fullscreenenter"",""5"",""30671""
","
","1455","","48","","","3000","1","","","images/earth.jpg","images/rocket2","images/rocket1","null","images/rocket2","","1","real","null","2","","",""
"d3-animate-choice","136","512217","0.0-76.0-1.0","758","680","13","Male","true","false","false","true","""event"",""trial"",""time""
""fullscreenenter"",""5"",""30671""
","
","
","""event"",""trial"",""time""
""fullscreenenter"",""5"",""30671""
","
","572","","49","","","3000","1","","","images/redplanet1.jpg","images/alien2","images/alien1","images/rocket2","images/alien1","images/t.png","2","real","true","1","common","1","2022-02-09 23:18:33.675"
"two-step-fixation","137","513222","0.0-76.0-2.0","758","680","13","Male","true","false","false","true","""event"",""trial"",""time""
""fullscreenenter"",""5"",""30671""
","
","
","""event"",""trial"",""time""
""fullscreenenter"",""5"",""30671""
","
","","images/earth.jpg","","","","","","","","","","","","","","fixation","","","","","",""
"d3-animate-choice","138","515529","0.0-76.0-0.1","758","680","13","Male","true","false","false","true","""event"",""trial"",""time""
""fullscreenenter"",""5"",""30671""
","
","
","""event"",""trial"",""time""
""fullscreenenter"",""5"",""30671""
","
","304","","48","","","3000","1","","","images/earth.jpg","images/rocket2","images/rocket1","null","images/rocket2","","1","real","null","2","","",""
"d3-animate-choice","139","518026","0.0-76.0-1.1","758","680","13","Male","true","false","false","true","""event"",""trial"",""time""
""fullscreenenter"",""5"",""30671""
","
","
","""event"",""trial"",""time""
""fullscreenenter"",""5"",""30671""
","
","492","","49","","","3000","1","","","images/redplanet1.jpg","images/alien2","images/alien1","images/rocket2","images/alien1","images/t.png","2","real","true","1","common","1","2022-02-09 23:18:39.483"
"two-step-fixation","140","519029","0.0-76.0-2.1","758","680","13","Male","true","false","false","true","""event"",""trial"",""time""
""fullscreenenter"",""5"",""30671""
","
","
","""event"",""trial"",""time""
""fullscreenenter"",""5"",""30671""
","
","","images/earth.jpg","","","","","","","","","","","","","","fixation","","","","","",""
"d3-animate-choice","141","521322","0.0-76.0-0.2","758","680","13","Male","true","false","false","true","""event"",""trial"",""time""
""fullscreenenter"",""5"",""30671""
","
","
","""event"",""trial"",""time""
""fullscreenenter"",""5"",""30671""
","
","289","","48","","","3000","1","","","images/earth.jpg","images/rocket2","images/rocket1","null","images/rocket2","","1","real","null","2","","",""
"d3-animate-choice","142","523787","0.0-76.0-1.2","758","680","13","Male","true","false","false","true","""event"",""trial"",""time""
""fullscreenenter"",""5"",""30671""
","
","
","""event"",""trial"",""time""
""fullscreenenter"",""5"",""30671""
","
","459","","49","","","3000","1","","","images/redplanet1.jpg","images/alien2","images/alien1","images/rocket2","images/alien1","images/nothing.png","2","real","true","1","common","0","2022-02-09 23:18:45.244"
"two-step-fixation","143","524790","0.0-76.0-2.2","758","680","13","Male","true","false","false","true","""event"",""trial"",""time""
""fullscreenenter"",""5"",""30671""
","
","
","""event"",""trial"",""time""
""fullscreenenter"",""5"",""30671""
","
","","images/earth.jpg","","","","","","","","","","","","","","fixation","","","","","",""
"d3-animate-choice","144","527049","0.0-76.0-0.3","758","680","13","Male","true","false","false","true","""event"",""trial"",""time""
""fullscreenenter"",""5"",""30671""
","
","
","""event"",""trial"",""time""
""fullscreenenter"",""5"",""30671""
","
","256","","48","","","3000","1","","","images/earth.jpg","images/rocket2","images/rocket1","null","images/rocket2","","1","real","null","2","","",""
"d3-animate-choice","145","530114","0.0-76.0-1.3","758","680","13","Male","true","false","false","true","""event"",""trial"",""time""
""fullscreenenter"",""5"",""30671""
","
","
","""event"",""trial"",""time""
""fullscreenenter"",""5"",""30671""
","
","1061","","48","","","3000","1","","","images/purpleplanet.jpg","images/alien4","images/alien3","images/rocket2","images/alien4","images/t.png","2","real","false","2","rare","1","2022-02-09 23:18:51.571"
"two-step-fixation","146","531118","0.0-76.0-2.3","758","680","13","Male","true","false","false","true","""event"",""trial"",""time""
""fullscreenenter"",""5"",""30671""
","
","
","""event"",""trial"",""time""
""fullscreenenter"",""5"",""30671""
","
","","images/earth.jpg","","","","","","","","","","","","","","fixation","","","","","",""
"d3-animate-choice","147","533434","0.0-76.0-0.4","758","680","13","Male","true","false","false","true","""event"",""trial"",""time""
""fullscreenenter"",""5"",""30671""
","
","
","""event"",""trial"",""time""
""fullscreenenter"",""5"",""30671""
","
","312","","49","","","3000","1","","","images/earth.jpg","images/rocket2","images/rocket1","null","images/rocket1","","1","real","null","1","","",""
"d3-animate-choice","148","535849","0.0-76.0-1.4","758","680","13","Male","true","false","false","true","""event"",""trial"",""time""
""fullscreenenter"",""5"",""30671""
","
","
","""event"",""trial"",""time""
""fullscreenenter"",""5"",""30671""
","
","412","","48","","","3000","1","","","images/purpleplanet.jpg","images/alien4","images/alien3","images/rocket1","images/alien4","images/t.png","2","real","true","2","common","1","2022-02-09 23:18:57.306"
"two-step-fixation","149","536851","0.0-76.0-2.4","758","680","13","Male","true","false","false","true","""event"",""trial"",""time""
""fullscreenenter"",""5"",""30671""
","
","
","""event"",""trial"",""time""
""fullscreenenter"",""5"",""30671""
","
","","images/earth.jpg","","","","","","","","","","","","","","fixation","","","","","",""
"d3-animate-choice","150","539138","0.0-76.0-0.5","758","680","13","Male","true","false","false","true","""event"",""trial"",""time""
""fullscreenenter"",""5"",""30671""
","
","
","""event"",""trial"",""time""
""fullscreenenter"",""5"",""30671""
","
","283","","49","","","3000","1","","","images/earth.jpg","images/rocket2","images/rocket1","null","images/rocket1","","1","real","null","1","","",""
"d3-animate-choice","151","541466","0.0-76.0-1.5","758","680","13","Male","true","false","false","true","""event"",""trial"",""time""
""fullscreenenter"",""5"",""30671""
","
","
","""event"",""trial"",""time""
""fullscreenenter"",""5"",""30671""
","
","324","","48","","","3000","1","","","images/purpleplanet.jpg","images/alien4","images/alien3","images/rocket1","images/alien4","images/t.png","2","real","true","2","common","1","2022-02-09 23:19:02.923"
"two-step-fixation","152","542469","0.0-76.0-2.5","758","680","13","Male","true","false","false","true","""event"",""trial"",""time""
""fullscreenenter"",""5"",""30671""
","
","
","""event"",""trial"",""time""
""fullscreenenter"",""5"",""30671""
","
","","images/earth.jpg","","","","","","","","","","","","","","fixation","","","","","",""
"d3-animate-choice","153","544756","0.0-76.0-0.6","758","680","13","Male","true","false","false","true","""event"",""trial"",""time""
""fullscreenenter"",""5"",""30671""
","
","
","""event"",""trial"",""time""
""fullscreenenter"",""5"",""30671""
","
","280","","49","","","3000","1","","","images/earth.jpg","images/rocket2","images/rocket1","null","images/rocket1","","1","real","null","1","","",""
"d3-animate-choice","154","547050","0.0-76.0-1.6","758","680","13","Male","true","false","false","true","""event"",""trial"",""time""
""fullscreenenter"",""5"",""30671""
","
","
","""event"",""trial"",""time""
""fullscreenenter"",""5"",""30671""
","
","289","","48","","","3000","1","","","images/purpleplanet.jpg","images/alien4","images/alien3","images/rocket1","images/alien4","images/nothing.png","2","real","true","2","common","0","2022-02-09 23:19:08.507"
"two-step-fixation","155","548051","0.0-76.0-2.6","758","680","13","Male","true","false","false","true","""event"",""trial"",""time""
""fullscreenenter"",""5"",""30671""
","
","
","""event"",""trial"",""time""
""fullscreenenter"",""5"",""30671""
","
","","images/earth.jpg","","","","","","","","","","","","","","fixation","","","","","",""
"d3-animate-choice","156","550307","0.0-76.0-0.7","758","680","13","Male","true","false","false","true","""event"",""trial"",""time""
""fullscreenenter"",""5"",""30671""
","
","
","""event"",""trial"",""time""
""fullscreenenter"",""5"",""30671""
","
","250","","49","","","3000","1","","","images/earth.jpg","images/rocket2","images/rocket1","null","images/rocket1","","1","real","null","1","","",""
"d3-animate-choice","157","553116","0.0-76.0-1.7","758","680","13","Male","true","false","false","true","""event"",""trial"",""time""
""fullscreenenter"",""5"",""30671""
","
","
","""event"",""trial"",""time""
""fullscreenenter"",""5"",""30671""
","
","802","","48","","","3000","1","","","images/redplanet1.jpg","images/alien2","images/alien1","images/rocket1","images/alien2","images/nothing.png","2","real","false","2","rare","0","2022-02-09 23:19:14.573"
"two-step-fixation","158","554121","0.0-76.0-2.7","758","680","13","Male","true","false","false","true","""event"",""trial"",""time""
""fullscreenenter"",""5"",""30671""
","
","
","""event"",""trial"",""time""
""fullscreenenter"",""5"",""30671""
","
","","images/earth.jpg","","","","","","","","","","","","","","fixation","","","","","",""
"d3-animate-choice","159","556138","0.0-76.0-0.8","758","680","13","Male","true","false","false","true","""event"",""trial"",""time""
""fullscreenenter"",""5"",""30671""
","
","
","""event"",""trial"",""time""
""fullscreenenter"",""5"",""30671""
","
","14","","48","","","3000","1","","","images/earth.jpg","images/rocket2","images/rocket1","null","images/rocket2","","1","real","null","2","","",""
"d3-animate-choice","160","558721","0.0-76.0-1.8","758","680","13","Male","true","false","false","true","""event"",""trial"",""time""
""fullscreenenter"",""5"",""30671""
","
","
","""event"",""trial"",""time""
""fullscreenenter"",""5"",""30671""
","
","579","","49","","","3000","1","","","images/redplanet1.jpg","images/alien2","images/alien1","images/rocket2","images/alien1","images/t.png","2","real","true","1","common","1","2022-02-09 23:19:20.178"
"two-step-fixation","161","559723","0.0-76.0-2.8","758","680","13","Male","true","false","false","true","""event"",""trial"",""time""
""fullscreenenter"",""5"",""30671""
","
","
","""event"",""trial"",""time""
""fullscreenenter"",""5"",""30671""
","
","","images/earth.jpg","","","","","","","","","","","","","","fixation","","","","","",""
"d3-animate-choice","162","562097","0.0-76.0-0.9","758","680","13","Male","true","false","false","true","""event"",""trial"",""time""
""fullscreenenter"",""5"",""30671""
","
","
","""event"",""trial"",""time""
""fullscreenenter"",""5"",""30671""
","
","371","","48","","","3000","1","","","images/earth.jpg","images/rocket2","images/rocket1","null","images/rocket2","","1","real","null","2","","",""
"d3-animate-choice","163","565111","0.0-76.0-1.9","758","680","13","Male","true","false","false","true","""event"",""trial"",""time""
""fullscreenenter"",""5"",""30671""
","
","
","""event"",""trial"",""time""
""fullscreenenter"",""5"",""30671""
","
","1013","","49","","","3000","1","","","images/redplanet1.jpg","images/alien2","images/alien1","images/rocket2","images/alien1","images/nothing.png","2","real","true","1","common","0","2022-02-09 23:19:26.569"
"two-step-fixation","164","566116","0.0-76.0-2.9","758","680","13","Male","true","false","false","true","""event"",""trial"",""time""
""fullscreenenter"",""5"",""30671""
","
","
","""event"",""trial"",""time""
""fullscreenenter"",""5"",""30671""
","
","","images/earth.jpg","","","","","","","","","","","","","","fixation","","","","","",""
"d3-animate-choice","165","568178","0.0-76.0-0.10","758","680","13","Male","true","false","false","true","""event"",""trial"",""time""
""fullscreenenter"",""5"",""30671""
","
","
","""event"",""trial"",""time""
""fullscreenenter"",""5"",""30671""
","
","58","","49","","","3000","1","","","images/earth.jpg","images/rocket2","images/rocket1","null","images/rocket1","","1","real","null","1","","",""
"d3-animate-choice","166","570435","0.0-76.0-1.10","758","680","13","Male","true","false","false","true","""event"",""trial"",""time""
""fullscreenenter"",""5"",""30671""
","
","
","""event"",""trial"",""time""
""fullscreenenter"",""5"",""30671""
","
","253","","48","","","3000","1","","","images/redplanet1.jpg","images/alien2","images/alien1","images/rocket1","images/alien2","images/nothing.png","2","real","false","2","rare","0","2022-02-09 23:19:31.892"
"two-step-fixation","167","571437","0.0-76.0-2.10","758","680","13","Male","true","false","false","true","""event"",""trial"",""time""
""fullscreenenter"",""5"",""30671""
","
","
","""event"",""trial"",""time""
""fullscreenenter"",""5"",""30671""
","
","","images/earth.jpg","","","","","","","","","","","","","","fixation","","","","","",""
"d3-animate-choice","168","573440","0.0-76.0-0.11","758","680","13","Male","true","false","false","true","""event"",""trial"",""time""
""fullscreenenter"",""5"",""30671""
","
","
","""event"",""trial"",""time""
""fullscreenenter"",""5"",""30671""
","
","1","","48","","","3000","1","","","images/earth.jpg","images/rocket2","images/rocket1","null","images/rocket2","","1","real","null","2","","",""
"d3-animate-choice","169","576386","0.0-76.0-1.11","758","680","13","Male","true","false","false","true","""event"",""trial"",""time""
""fullscreenenter"",""5"",""30671""
","
","
","""event"",""trial"",""time""
""fullscreenenter"",""5"",""30671""
","
","941","","49","","","3000","1","","","images/purpleplanet.jpg","images/alien4","images/alien3","images/rocket2","images/alien3","images/nothing.png","2","real","false","1","rare","0","2022-02-09 23:19:37.843"
"two-step-fixation","170","577387","0.0-76.0-2.11","758","680","13","Male","true","false","false","true","""event"",""trial"",""time""
""fullscreenenter"",""5"",""30671""
","
","
","""event"",""trial"",""time""
""fullscreenenter"",""5"",""30671""
","
","","images/earth.jpg","","","","","","","","","","","","","","fixation","","","","","",""
"d3-animate-choice","171","579656","0.0-76.0-0.12","758","680","13","Male","true","false","false","true","""event"",""trial"",""time""
""fullscreenenter"",""5"",""30671""
","
","
","""event"",""trial"",""time""
""fullscreenenter"",""5"",""30671""
","
","267","","49","","","3000","1","","","images/earth.jpg","images/rocket2","images/rocket1","null","images/rocket1","","1","real","null","1","","",""
"d3-animate-choice","172","582809","0.0-76.0-1.12","758","680","13","Male","true","false","false","true","""event"",""trial"",""time""
""fullscreenenter"",""5"",""30671""
","
","
","""event"",""trial"",""time""
""fullscreenenter"",""5"",""30671""
","
","1149","","49","","","3000","1","","","images/redplanet1.jpg","images/alien2","images/alien1","images/rocket1","images/alien1","images/t.png","2","real","false","1","rare","1","2022-02-09 23:19:44.266"
"two-step-fixation","173","583813","0.0-76.0-2.12","758","680","13","Male","true","false","false","true","""event"",""trial"",""time""
""fullscreenenter"",""5"",""30671""
","
","
","""event"",""trial"",""time""
""fullscreenenter"",""5"",""30671""
","
","","images/earth.jpg","","","","","","","","","","","","","","fixation","","","","","",""
"d3-animate-choice","174","586153","0.0-76.0-0.13","758","680","13","Male","true","false","false","true","""event"",""trial"",""time""
""fullscreenenter"",""5"",""30671""
","
","
","""event"",""trial"",""time""
""fullscreenenter"",""5"",""30671""
","
","337","","48","","","3000","1","","","images/earth.jpg","images/rocket2","images/rocket1","null","images/rocket2","","1","real","null","2","","",""
"d3-animate-choice","175","589188","0.0-76.0-1.13","758","680","13","Male","true","false","false","true","""event"",""trial"",""time""
""fullscreenenter"",""5"",""30671""
","
","
","""event"",""trial"",""time""
""fullscreenenter"",""5"",""30671""
","
","1029","","48","","","3000","1","","","images/purpleplanet.jpg","images/alien4","images/alien3","images/rocket2","images/alien4","images/nothing.png","2","real","false","2","rare","0","2022-02-09 23:19:50.645"
"two-step-fixation","176","590192","0.0-76.0-2.13","758","680","13","Male","true","false","false","true","""event"",""trial"",""time""
""fullscreenenter"",""5"",""30671""
","
","
","""event"",""trial"",""time""
""fullscreenenter"",""5"",""30671""
","
","","images/earth.jpg","","","","","","","","","","","","","","fixation","","","","","",""
"d3-animate-choice","177","592479","0.0-76.0-0.14","758","680","13","Male","true","false","false","true","""event"",""trial"",""time""
""fullscreenenter"",""5"",""30671""
","
","
","""event"",""trial"",""time""
""fullscreenenter"",""5"",""30671""
","
","286","","48","","","3000","1","","","images/earth.jpg","images/rocket2","images/rocket1","null","images/rocket2","","1","real","null","2","","",""
"d3-animate-choice","178","595116","0.0-76.0-1.14","758","680","13","Male","true","false","false","true","""event"",""trial"",""time""
""fullscreenenter"",""5"",""30671""
","
","
","""event"",""trial"",""time""
""fullscreenenter"",""5"",""30671""
","
","631","","49","","","3000","1","1534","48","images/purpleplanet.jpg","images/alien4","images/alien3","images/rocket2","images/alien3","images/nothing.png","2","real","false","1","rare","0","2022-02-09 23:19:56.573"
"two-step-fixation","179","596117","0.0-76.0-2.14","758","680","13","Male","true","false","false","true","""event"",""trial"",""time""
""fullscreenenter"",""5"",""30671""
","
","
","""event"",""trial"",""time""
""fullscreenenter"",""5"",""30671""
","
","","images/earth.jpg","","","","","","","","","","","","","","fixation","","","","","",""
"d3-animate-choice","180","598331","0.0-76.0-0.15","758","680","13","Male","true","false","false","true","""event"",""trial"",""time""
""fullscreenenter"",""5"",""30671""
","
","
","""event"",""trial"",""time""
""fullscreenenter"",""5"",""30671""
","
","209","","49","","","3000","1","","","images/earth.jpg","images/rocket2","images/rocket1","null","images/rocket1","","1","real","null","1","","",""
"d3-animate-choice","181","600984","0.0-76.0-1.15","758","680","13","Male","true","false","false","true","""event"",""trial"",""time""
""fullscreenenter"",""5"",""30671""
","
","
","""event"",""trial"",""time""
""fullscreenenter"",""5"",""30671""
","
","650","","48","","","3000","1","","","images/redplanet1.jpg","images/alien2","images/alien1","images/rocket1","images/alien2","images/nothing.png","2","real","false","2","rare","0","2022-02-09 23:20:02.441"
"two-step-fixation","182","601986","0.0-76.0-2.15","758","680","13","Male","true","false","false","true","""event"",""trial"",""time""
""fullscreenenter"",""5"",""30671""
","
","
","""event"",""trial"",""time""
""fullscreenenter"",""5"",""30671""
","
","","images/earth.jpg","","","","","","","","","","","","","","fixation","","","","","",""
"d3-animate-choice","183","604026","0.0-76.0-0.16","758","680","13","Male","true","false","false","true","""event"",""trial"",""time""
""fullscreenenter"",""5"",""30671""
","
","
","""event"",""trial"",""time""
""fullscreenenter"",""5"",""30671""
","
","36","","49","","","3000","1","","","images/earth.jpg","images/rocket2","images/rocket1","null","images/rocket1","","1","real","null","1","","",""
"d3-animate-choice","184","607491","0.0-76.0-1.16","758","680","13","Male","true","false","false","true","""event"",""trial"",""time""
""fullscreenenter"",""5"",""30671""
","
","
","""event"",""trial"",""time""
""fullscreenenter"",""5"",""30671""
","
","1460","","48","","","3000","1","","","images/purpleplanet.jpg","images/alien4","images/alien3","images/rocket1","images/alien4","images/t.png","2","real","true","2","common","1","2022-02-09 23:20:08.948"
"two-step-fixation","185","608496","0.0-76.0-2.16","758","680","13","Male","true","false","false","true","""event"",""trial"",""time""
""fullscreenenter"",""5"",""30671""
","
","
","""event"",""trial"",""time""
""fullscreenenter"",""5"",""30671""
","
","","images/earth.jpg","","","","","","","","","","","","","","fixation","","","","","",""
"d3-animate-choice","186","610771","0.0-76.0-0.17","758","680","13","Male","true","false","false","true","""event"",""trial"",""time""
""fullscreenenter"",""5"",""30671""
","
","
","""event"",""trial"",""time""
""fullscreenenter"",""5"",""30671""
","
","271","","48","","","3000","1","","","images/earth.jpg","images/rocket2","images/rocket1","null","images/rocket2","","1","real","null","2","","",""
"d3-animate-choice","187","613219","0.0-76.0-1.17","758","680","13","Male","true","false","false","true","""event"",""trial"",""time""
""fullscreenenter"",""5"",""30671""
","
","
","""event"",""trial"",""time""
""fullscreenenter"",""5"",""30671""
","
","442","","49","","","3000","1","","","images/purpleplanet.jpg","images/alien4","images/alien3","images/rocket2","images/alien3","images/nothing.png","2","real","false","1","rare","0","2022-02-09 23:20:14.676"
"two-step-fixation","188","614220","0.0-76.0-2.17","758","680","13","Male","true","false","false","true","""event"",""trial"",""time""
""fullscreenenter"",""5"",""30671""
","
","
","""event"",""trial"",""time""
""fullscreenenter"",""5"",""30671""
","
","","images/earth.jpg","","","","","","","","","","","","","","fixation","","","","","",""
"d3-animate-choice","189","616544","0.0-76.0-0.18","758","680","13","Male","true","false","false","true","""event"",""trial"",""time""
""fullscreenenter"",""5"",""30671""
","
","
","""event"",""trial"",""time""
""fullscreenenter"",""5"",""30671""
","
","322","","48","","","3000","1","","","images/earth.jpg","images/rocket2","images/rocket1","null","images/rocket2","","1","real","null","2","","",""
"d3-animate-choice","190","619403","0.0-76.0-1.18","758","680","13","Male","true","false","false","true","""event"",""trial"",""time""
""fullscreenenter"",""5"",""30671""
","
","
","""event"",""trial"",""time""
""fullscreenenter"",""5"",""30671""
","
","854","","49","","","3000","1","","","images/redplanet1.jpg","images/alien2","images/alien1","images/rocket2","images/alien1","images/t.png","2","real","true","1","common","1","2022-02-09 23:20:20.860"
"two-step-fixation","191","620404","0.0-76.0-2.18","758","680","13","Male","true","false","false","true","""event"",""trial"",""time""
""fullscreenenter"",""5"",""30671""
","
","
","""event"",""trial"",""time""
""fullscreenenter"",""5"",""30671""
","
","","images/earth.jpg","","","","","","","","","","","","","","fixation","","","","","",""
"d3-animate-choice","192","622664","0.0-76.0-0.19","758","680","13","Male","true","false","false","true","""event"",""trial"",""time""
""fullscreenenter"",""5"",""30671""
","
","
","""event"",""trial"",""time""
""fullscreenenter"",""5"",""30671""
","
","257","","48","","","3000","1","","","images/earth.jpg","images/rocket2","images/rocket1","null","images/rocket2","","1","real","null","2","","",""
"d3-animate-choice","193","625272","0.0-76.0-1.19","758","680","13","Male","true","false","false","true","""event"",""trial"",""time""
""fullscreenenter"",""5"",""30671""
","
","
","""event"",""trial"",""time""
""fullscreenenter"",""5"",""30671""
","
","607","","49","","","3000","1","","","images/redplanet1.jpg","images/alien2","images/alien1","images/rocket2","images/alien1","images/t.png","2","real","true","1","common","1","2022-02-09 23:20:26.729"
"two-step-fixation","194","626274","0.0-76.0-2.19","758","680","13","Male","true","false","false","true","""event"",""trial"",""time""
""fullscreenenter"",""5"",""30671""
","
","
","""event"",""trial"",""time""
""fullscreenenter"",""5"",""30671""
","
","","images/earth.jpg","","","","","","","","","","","","","","fixation","","","","","",""
"d3-animate-choice","195","628323","0.0-76.0-0.20","758","680","13","Male","true","false","false","true","""event"",""trial"",""time""
""fullscreenenter"",""5"",""30671""
","
","
","""event"",""trial"",""time""
""fullscreenenter"",""5"",""30671""
","
","44","","49","","","3000","1","","","images/earth.jpg","images/rocket2","images/rocket1","null","images/rocket1","","1","real","null","1","","",""
"d3-animate-choice","196","631256","0.0-76.0-1.20","758","680","13","Male","true","false","false","true","""event"",""trial"",""time""
""fullscreenenter"",""5"",""30671""
","
","
","""event"",""trial"",""time""
""fullscreenenter"",""5"",""30671""
","
","931","","48","","","3000","1","","","images/purpleplanet.jpg","images/alien4","images/alien3","images/rocket1","images/alien4","images/nothing.png","2","real","true","2","common","0","2022-02-09 23:20:32.713"
"two-step-fixation","197","632258","0.0-76.0-2.20","758","680","13","Male","true","false","false","true","""event"",""trial"",""time""
""fullscreenenter"",""5"",""30671""
","
","
","""event"",""trial"",""time""
""fullscreenenter"",""5"",""30671""
","
","","images/earth.jpg","","","","","","","","","","","","","","fixation","","","","","",""
"d3-animate-choice","198","634322","0.0-76.0-0.21","758","680","13","Male","true","false","false","true","""event"",""trial"",""time""
""fullscreenenter"",""5"",""30671""
","
","
","""event"",""trial"",""time""
""fullscreenenter"",""5"",""30671""
","
","60","","48","","","3000","1","","","images/earth.jpg","images/rocket2","images/rocket1","null","images/rocket2","","1","real","null","2","","",""
"d3-animate-choice","199","636708","0.0-76.0-1.21","758","680","13","Male","true","false","false","true","""event"",""trial"",""time""
""fullscreenenter"",""5"",""30671""
","
","
","""event"",""trial"",""time""
""fullscreenenter"",""5"",""30671""
","
","379","","49","","","3000","1","","","images/redplanet1.jpg","images/alien2","images/alien1","images/rocket2","images/alien1","images/t.png","2","real","true","1","common","1","2022-02-09 23:20:38.165"
"two-step-fixation","200","637709","0.0-76.0-2.21","758","680","13","Male","true","false","false","true","""event"",""trial"",""time""
""fullscreenenter"",""5"",""30671""
","
","
","""event"",""trial"",""time""
""fullscreenenter"",""5"",""30671""
","
","","images/earth.jpg","","","","","","","","","","","","","","fixation","","","","","",""
"d3-animate-choice","201","640002","0.0-76.0-0.22","758","680","13","Male","true","false","false","true","""event"",""trial"",""time""
""fullscreenenter"",""5"",""30671""
","
","
","""event"",""trial"",""time""
""fullscreenenter"",""5"",""30671""
","
","288","","48","","","3000","1","","","images/earth.jpg","images/rocket2","images/rocket1","null","images/rocket2","","1","real","null","2","","",""
"d3-animate-choice","202","642449","0.0-76.0-1.22","758","680","13","Male","true","false","false","true","""event"",""trial"",""time""
""fullscreenenter"",""5"",""30671""
","
","
","""event"",""trial"",""time""
""fullscreenenter"",""5"",""30671""
","
","443","","49","","","3000","1","","","images/redplanet1.jpg","images/alien2","images/alien1","images/rocket2","images/alien1","images/t.png","2","real","true","1","common","1","2022-02-09 23:20:43.906"
"two-step-fixation","203","643450","0.0-76.0-2.22","758","680","13","Male","true","false","false","true","""event"",""trial"",""time""
""fullscreenenter"",""5"",""30671""
","
","
","""event"",""trial"",""time""
""fullscreenenter"",""5"",""30671""
","
","","images/earth.jpg","","","","","","","","","","","","","","fixation","","","","","",""
"d3-animate-choice","204","646123","0.0-76.0-0.23","758","680","13","Male","true","false","false","true","""event"",""trial"",""time""
""fullscreenenter"",""5"",""30671""
","
","
","""event"",""trial"",""time""
""fullscreenenter"",""5"",""30671""
","
","667","","48","","","3000","1","","","images/earth.jpg","images/rocket2","images/rocket1","null","images/rocket2","","1","real","null","2","","",""
"d3-animate-choice","205","648489","0.0-76.0-1.23","758","680","13","Male","true","false","false","true","""event"",""trial"",""time""
""fullscreenenter"",""5"",""30671""
","
","
","""event"",""trial"",""time""
""fullscreenenter"",""5"",""30671""
","
","361","","49","","","3000","1","","","images/redplanet1.jpg","images/alien2","images/alien1","images/rocket2","images/alien1","images/t.png","2","real","true","1","common","1","2022-02-09 23:20:49.946"
"two-step-fixation","206","649491","0.0-76.0-2.23","758","680","13","Male","true","false","false","true","""event"",""trial"",""time""
""fullscreenenter"",""5"",""30671""
","
","
","""event"",""trial"",""time""
""fullscreenenter"",""5"",""30671""
","
","","images/earth.jpg","","","","","","","","","","","","","","fixation","","","","","",""
"d3-animate-choice","207","651784","0.0-76.0-0.24","758","680","13","Male","true","false","false","true","""event"",""trial"",""time""
""fullscreenenter"",""5"",""30671""
","
","
","""event"",""trial"",""time""
""fullscreenenter"",""5"",""30671""
","
","291","","48","","","3000","1","","","images/earth.jpg","images/rocket2","images/rocket1","null","images/rocket2","","1","real","null","2","","",""
"d3-animate-choice","208","654096","0.0-76.0-1.24","758","680","13","Male","true","false","false","true","""event"",""trial"",""time""
""fullscreenenter"",""5"",""30671""
","
","
","""event"",""trial"",""time""
""fullscreenenter"",""5"",""30671""
","
","309","","49","","","3000","1","","","images/redplanet1.jpg","images/alien2","images/alien1","images/rocket2","images/alien1","images/nothing.png","2","real","true","1","common","0","2022-02-09 23:20:55.553"
"two-step-fixation","209","655099","0.0-76.0-2.24","758","680","13","Male","true","false","false","true","""event"",""trial"",""time""
""fullscreenenter"",""5"",""30671""
","
","
","""event"",""trial"",""time""
""fullscreenenter"",""5"",""30671""
","
","","images/earth.jpg","","","","","","","","","","","","","","fixation","","","","","",""
"d3-animate-choice","210","657364","0.0-76.0-0.25","758","680","13","Male","true","false","false","true","""event"",""trial"",""time""
""fullscreenenter"",""5"",""30671""
","
","
","""event"",""trial"",""time""
""fullscreenenter"",""5"",""30671""
","
","260","","49","","","3000","1","","","images/earth.jpg","images/rocket2","images/rocket1","null","images/rocket1","","1","real","null","1","","",""
"d3-animate-choice","211","659745","0.0-76.0-1.25","758","680","13","Male","true","false","false","true","""event"",""trial"",""time""
""fullscreenenter"",""5"",""30671""
","
","
","""event"",""trial"",""time""
""fullscreenenter"",""5"",""30671""
","
","379","","49","","","3000","1","","","images/redplanet1.jpg","images/alien2","images/alien1","images/rocket1","images/alien1","images/t.png","2","real","false","1","rare","1","2022-02-09 23:21:01.202"
"two-step-fixation","212","660750","0.0-76.0-2.25","758","680","13","Male","true","false","false","true","""event"",""trial"",""time""
""fullscreenenter"",""5"",""30671""
","
","
","""event"",""trial"",""time""
""fullscreenenter"",""5"",""30671""
","
","","images/earth.jpg","","","","","","","","","","","","","","fixation","","","","","",""
"d3-animate-choice","213","663057","0.0-76.0-0.26","758","680","13","Male","true","false","false","true","""event"",""trial"",""time""
""fullscreenenter"",""5"",""30671""
","
","
","""event"",""trial"",""time""
""fullscreenenter"",""5"",""30671""
","
","304","","49","","","3000","1","","","images/earth.jpg","images/rocket2","images/rocket1","null","images/rocket1","","1","real","null","1","","",""
"d3-animate-choice","214","665640","0.0-76.0-1.26","758","680","13","Male","true","false","false","true","""event"",""trial"",""time""
""fullscreenenter"",""5"",""30671""
","
","
","""event"",""trial"",""time""
""fullscreenenter"",""5"",""30671""
","
","580","","49","","","3000","1","","","images/purpleplanet.jpg","images/alien4","images/alien3","images/rocket1","images/alien3","images/nothing.png","2","real","true","1","common","0","2022-02-09 23:21:07.097"
"two-step-fixation","215","666645","0.0-76.0-2.26","758","680","13","Male","true","false","false","true","""event"",""trial"",""time""
""fullscreenenter"",""5"",""30671""
","
","
","""event"",""trial"",""time""
""fullscreenenter"",""5"",""30671""
","
","","images/earth.jpg","","","","","","","","","","","","","","fixation","","","","","",""
"d3-animate-choice","216","668856","0.0-76.0-0.27","758","680","13","Male","true","false","false","true","""event"",""trial"",""time""
""fullscreenenter"",""5"",""30671""
","
","
","""event"",""trial"",""time""
""fullscreenenter"",""5"",""30671""
","
","209","","48","","","3000","1","","","images/earth.jpg","images/rocket2","images/rocket1","null","images/rocket2","","1","real","null","2","","",""
"d3-animate-choice","217","671265","0.0-76.0-1.27","758","680","13","Male","true","false","false","true","""event"",""trial"",""time""
""fullscreenenter"",""5"",""30671""
","
","
","""event"",""trial"",""time""
""fullscreenenter"",""5"",""30671""
","
","405","","49","","","3000","1","","","images/redplanet1.jpg","images/alien2","images/alien1","images/rocket2","images/alien1","images/t.png","2","real","true","1","common","1","2022-02-09 23:21:12.722"
"two-step-fixation","218","672267","0.0-76.0-2.27","758","680","13","Male","true","false","false","true","""event"",""trial"",""time""
""fullscreenenter"",""5"",""30671""
","
","
","""event"",""trial"",""time""
""fullscreenenter"",""5"",""30671""
","
","","images/earth.jpg","","","","","","","","","","","","","","fixation","","","","","",""
"d3-animate-choice","219","674722","0.0-76.0-0.28","758","680","13","Male","true","false","false","true","""event"",""trial"",""time""
""fullscreenenter"",""5"",""30671""
","
","
","""event"",""trial"",""time""
""fullscreenenter"",""5"",""30671""
","
","451","","48","","","3000","1","","","images/earth.jpg","images/rocket2","images/rocket1","null","images/rocket2","","1","real","null","2","","",""
"d3-animate-choice","220","677096","0.0-76.0-1.28","758","680","13","Male","true","false","false","true","""event"",""trial"",""time""
""fullscreenenter"",""5"",""30671""
","
","
","""event"",""trial"",""time""
""fullscreenenter"",""5"",""30671""
","
","372","","49","","","3000","1","","","images/redplanet1.jpg","images/alien2","images/alien1","images/rocket2","images/alien1","images/nothing.png","2","real","true","1","common","0","2022-02-09 23:21:18.553"
"two-step-fixation","221","678097","0.0-76.0-2.28","758","680","13","Male","true","false","false","true","""event"",""trial"",""time""
""fullscreenenter"",""5"",""30671""
","
","
","""event"",""trial"",""time""
""fullscreenenter"",""5"",""30671""
","
","","images/earth.jpg","","","","","","","","","","","","","","fixation","","","","","",""
"d3-animate-choice","222","680481","0.0-76.0-0.29","758","680","13","Male","true","false","false","true","""event"",""trial"",""time""
""fullscreenenter"",""5"",""30671""
","
","
","""event"",""trial"",""time""
""fullscreenenter"",""5"",""30671""
","
","379","","48","","","3000","1","","","images/earth.jpg","images/rocket2","images/rocket1","null","images/rocket2","","1","real","null","2","","",""
"d3-animate-choice","223","682825","0.0-76.0-1.29","758","680","13","Male","true","false","false","true","""event"",""trial"",""time""
""fullscreenenter"",""5"",""30671""
","
","
","""event"",""trial"",""time""
""fullscreenenter"",""5"",""30671""
","
","342","","48","","","3000","1","","","images/redplanet1.jpg","images/alien2","images/alien1","images/rocket2","images/alien2","images/nothing.png","2","real","true","2","common","0","2022-02-09 23:21:24.282"
"two-step-fixation","224","683830","0.0-76.0-2.29","758","680","13","Male","true","false","false","true","""event"",""trial"",""time""
""fullscreenenter"",""5"",""30671""
","
","
","""event"",""trial"",""time""
""fullscreenenter"",""5"",""30671""
","
","","images/earth.jpg","","","","","","","","","","","","","","fixation","","","","","",""
"d3-animate-choice","225","685952","0.0-76.0-0.30","758","680","13","Male","true","false","false","true","""event"",""trial"",""time""
""fullscreenenter"",""5"",""30671""
","
","
","""event"",""trial"",""time""
""fullscreenenter"",""5"",""30671""
","
","120","","49","","","3000","1","","","images/earth.jpg","images/rocket2","images/rocket1","null","images/rocket1","","1","real","null","1","","",""
"d3-animate-choice","226","688210","0.0-76.0-1.30","758","680","13","Male","true","false","false","true","""event"",""trial"",""time""
""fullscreenenter"",""5"",""30671""
","
","
","""event"",""trial"",""time""
""fullscreenenter"",""5"",""30671""
","
","253","","48","","","3000","1","","","images/purpleplanet.jpg","images/alien4","images/alien3","images/rocket1","images/alien4","images/t.png","2","real","true","2","common","1","2022-02-09 23:21:29.667"
"two-step-fixation","227","689214","0.0-76.0-2.30","758","680","13","Male","true","false","false","true","""event"",""trial"",""time""
""fullscreenenter"",""5"",""30671""
","
","
","""event"",""trial"",""time""
""fullscreenenter"",""5"",""30671""
","
","","images/earth.jpg","","","","","","","","","","","","","","fixation","","","","","",""
"d3-animate-choice","228","691467","0.0-76.0-0.31","758","680","13","Male","true","false","false","true","""event"",""trial"",""time""
""fullscreenenter"",""5"",""30671""
","
","
","""event"",""trial"",""time""
""fullscreenenter"",""5"",""30671""
","
","248","","49","","","3000","1","","","images/earth.jpg","images/rocket2","images/rocket1","null","images/rocket1","","1","real","null","1","","",""
"d3-animate-choice","229","693896","0.0-76.0-1.31","758","680","13","Male","true","false","false","true","""event"",""trial"",""time""
""fullscreenenter"",""5"",""30671""
","
","
","""event"",""trial"",""time""
""fullscreenenter"",""5"",""30671""
","
","428","","48","","","3000","1","","","images/purpleplanet.jpg","images/alien4","images/alien3","images/rocket1","images/alien4","images/t.png","2","real","true","2","common","1","2022-02-09 23:21:35.353"
"two-step-fixation","230","694897","0.0-76.0-2.31","758","680","13","Male","true","false","false","true","""event"",""trial"",""time""
""fullscreenenter"",""5"",""30671""
","
","
","""event"",""trial"",""time""
""fullscreenenter"",""5"",""30671""
","
","","images/earth.jpg","","","","","","","","","","","","","","fixation","","","","","",""
"d3-animate-choice","231","697170","0.0-76.0-0.32","758","680","13","Male","true","false","false","true","""event"",""trial"",""time""
""fullscreenenter"",""5"",""30671""
","
","
","""event"",""trial"",""time""
""fullscreenenter"",""5"",""30671""
","
","269","","49","","","3000","1","788","49","images/earth.jpg","images/rocket2","images/rocket1","null","images/rocket1","","1","real","null","1","","",""
"d3-animate-choice","232","699602","0.0-76.0-1.32","758","680","13","Male","true","false","false","true","""event"",""trial"",""time""
""fullscreenenter"",""5"",""30671""
","
","
","""event"",""trial"",""time""
""fullscreenenter"",""5"",""30671""
","
","429","","48","","","3000","1","","","images/purpleplanet.jpg","images/alien4","images/alien3","images/rocket1","images/alien4","images/t.png","2","real","true","2","common","1","2022-02-09 23:21:41.059"
"two-step-fixation","233","700606","0.0-76.0-2.32","758","680","13","Male","true","false","false","true","""event"",""trial"",""time""
""fullscreenenter"",""5"",""30671""
","
","
","""event"",""trial"",""time""
""fullscreenenter"",""5"",""30671""
","
","","images/earth.jpg","","","","","","","","","","","","","","fixation","","","","","",""
"d3-animate-choice","234","702786","0.0-76.0-0.33","758","680","13","Male","true","false","false","true","""event"",""trial"",""time""
""fullscreenenter"",""5"",""30671""
","
","
","""event"",""trial"",""time""
""fullscreenenter"",""5"",""30671""
","
","176","","49","","","3000","1","","","images/earth.jpg","images/rocket2","images/rocket1","null","images/rocket1","","1","real","null","1","","",""
"d3-animate-choice","235","705178","0.0-76.0-1.33","758","680","13","Male","true","false","false","true","""event"",""trial"",""time""
""fullscreenenter"",""5"",""30671""
","
","
","""event"",""trial"",""time""
""fullscreenenter"",""5"",""30671""
","
","387","","48","","","3000","1","","","images/purpleplanet.jpg","images/alien4","images/alien3","images/rocket1","images/alien4","images/nothing.png","2","real","true","2","common","0","2022-02-09 23:21:46.635"
"two-step-fixation","236","706179","0.0-76.0-2.33","758","680","13","Male","true","false","false","true","""event"",""trial"",""time""
""fullscreenenter"",""5"",""30671""
","
","
","""event"",""trial"",""time""
""fullscreenenter"",""5"",""30671""
","
","","images/earth.jpg","","","","","","","","","","","","","","fixation","","","","","",""
"d3-animate-choice","237","708411","0.0-76.0-0.34","758","680","13","Male","true","false","false","true","""event"",""trial"",""time""
""fullscreenenter"",""5"",""30671""
","
","
","""event"",""trial"",""time""
""fullscreenenter"",""5"",""30671""
","
","226","","49","","","3000","1","","","images/earth.jpg","images/rocket2","images/rocket1","null","images/rocket1","","1","real","null","1","","",""
"d3-animate-choice","238","710721","0.0-76.0-1.34","758","680","13","Male","true","false","false","true","""event"",""trial"",""time""
""fullscreenenter"",""5"",""30671""
","
","
","""event"",""trial"",""time""
""fullscreenenter"",""5"",""30671""
","
","307","","48","","","3000","1","","","images/purpleplanet.jpg","images/alien4","images/alien3","images/rocket1","images/alien4","images/nothing.png","2","real","true","2","common","0","2022-02-09 23:21:52.178"
"two-step-fixation","239","711723","0.0-76.0-2.34","758","680","13","Male","true","false","false","true","""event"",""trial"",""time""
""fullscreenenter"",""5"",""30671""
","
","
","""event"",""trial"",""time""
""fullscreenenter"",""5"",""30671""
","
","","images/earth.jpg","","","","","","","","","","","","","","fixation","","","","","",""
"d3-animate-choice","240","713804","0.0-76.0-0.35","758","680","13","Male","true","false","false","true","""event"",""trial"",""time""
""fullscreenenter"",""5"",""30671""
","
","
","""event"",""trial"",""time""
""fullscreenenter"",""5"",""30671""
","
","75","","48","","","3000","1","","","images/earth.jpg","images/rocket2","images/rocket1","null","images/rocket2","","1","real","null","2","","",""
"d3-animate-choice","241","716243","0.0-76.0-1.35","758","680","13","Male","true","false","false","true","""event"",""trial"",""time""
""fullscreenenter"",""5"",""30671""
","
","
","""event"",""trial"",""time""
""fullscreenenter"",""5"",""30671""
","
","433","","48","","","3000","1","","","images/redplanet1.jpg","images/alien2","images/alien1","images/rocket2","images/alien2","images/t.png","2","real","true","2","common","1","2022-02-09 23:21:57.700"
"two-step-fixation","242","717243","0.0-76.0-2.35","758","680","13","Male","true","false","false","true","""event"",""trial"",""time""
""fullscreenenter"",""5"",""30671""
","
","
","""event"",""trial"",""time""
""fullscreenenter"",""5"",""30671""
","
","","images/earth.jpg","","","","","","","","","","","","","","fixation","","","","","",""
"d3-animate-choice","243","719448","0.0-76.0-0.36","758","680","13","Male","true","false","false","true","""event"",""trial"",""time""
""fullscreenenter"",""5"",""30671""
","
","
","""event"",""trial"",""time""
""fullscreenenter"",""5"",""30671""
","
","201","","48","","","3000","1","","","images/earth.jpg","images/rocket2","images/rocket1","null","images/rocket2","","1","real","null","2","","",""
"d3-animate-choice","244","721920","0.0-76.0-1.36","758","680","13","Male","true","false","false","true","""event"",""trial"",""time""
""fullscreenenter"",""5"",""30671""
","
","
","""event"",""trial"",""time""
""fullscreenenter"",""5"",""30671""
","
","469","","48","","","3000","1","","","images/redplanet1.jpg","images/alien2","images/alien1","images/rocket2","images/alien2","images/t.png","2","real","true","2","common","1","2022-02-09 23:22:03.377"
"two-step-fixation","245","722921","0.0-76.0-2.36","758","680","13","Male","true","false","false","true","""event"",""trial"",""time""
""fullscreenenter"",""5"",""30671""
","
","
","""event"",""trial"",""time""
""fullscreenenter"",""5"",""30671""
","
","","images/earth.jpg","","","","","","","","","","","","","","fixation","","","","","",""
"d3-animate-choice","246","725265","0.0-76.0-0.37","758","680","13","Male","true","false","false","true","""event"",""trial"",""time""
""fullscreenenter"",""5"",""30671""
","
","
","""event"",""trial"",""time""
""fullscreenenter"",""5"",""30671""
","
","341","","49","","","3000","1","","","images/earth.jpg","images/rocket2","images/rocket1","null","images/rocket1","","1","real","null","1","","",""
"d3-animate-choice","247","727833","0.0-76.0-1.37","758","680","13","Male","true","false","false","true","""event"",""trial"",""time""
""fullscreenenter"",""5"",""30671""
","
","
","""event"",""trial"",""time""
""fullscreenenter"",""5"",""30671""
","
","564","","49","","","3000","1","","","images/purpleplanet.jpg","images/alien4","images/alien3","images/rocket1","images/alien3","images/t.png","2","real","true","1","common","1","2022-02-09 23:22:09.290"
"two-step-fixation","248","728836","0.0-76.0-2.37","758","680","13","Male","true","false","false","true","""event"",""trial"",""time""
""fullscreenenter"",""5"",""30671""
","
","
","""event"",""trial"",""time""
""fullscreenenter"",""5"",""30671""
","
","","images/earth.jpg","","","","","","","","","","","","","","fixation","","","","","",""
"d3-animate-choice","249","731465","0.0-76.0-0.38","758","680","13","Male","true","false","false","true","""event"",""trial"",""time""
""fullscreenenter"",""5"",""30671""
","
","
","""event"",""trial"",""time""
""fullscreenenter"",""5"",""30671""
","
","626","","48","","","3000","1","","","images/earth.jpg","images/rocket2","images/rocket1","null","images/rocket2","","1","real","null","2","","",""
"d3-animate-choice","250","733762","0.0-76.0-1.38","758","680","13","Male","true","false","false","true","""event"",""trial"",""time""
""fullscreenenter"",""5"",""30671""
","
","
","""event"",""trial"",""time""
""fullscreenenter"",""5"",""30671""
","
","292","","48","","","3000","1","","","images/redplanet1.jpg","images/alien2","images/alien1","images/rocket2","images/alien2","images/nothing.png","2","real","true","2","common","0","2022-02-09 23:22:15.219"
"two-step-fixation","251","734766","0.0-76.0-2.38","758","680","13","Male","true","false","false","true","""event"",""trial"",""time""
""fullscreenenter"",""5"",""30671""
","
","
","""event"",""trial"",""time""
""fullscreenenter"",""5"",""30671""
","
","","images/earth.jpg","","","","","","","","","","","","","","fixation","","","","","",""
