"trial_type","trial_index","time_elapsed","internal_node_id","participant_id","subject_id","age","gender","rocket_sides","red_planet_first_rocket","red_display_order","purple_display_order","interactions","blur_events","focus_events","fullscreenenter_events","fullscreenexit_events","rt","stimulus","key_press","button_pressed","success","duration","valid_pressed","rts","keys","planet_text","right_text","left_text","center_text","chosen_text","reward_text","trial_stage","practice_trial","transition_type","choice","transition","reward","timestamp"
"pavlovia","0","8","0.0-0.0","1801","2930","23","Male","false","true","true","true","""event"",""trial"",""time""
""focus"",""0"",""0""
""blur"",""0"",""0""
""focus"",""1"",""2035""
","""event"",""trial"",""time""
""blur"",""0"",""0""
","""event"",""trial"",""time""
""focus"",""0"",""0""
""focus"",""1"",""2035""
","
","
","","","","","","","","","","","","","","","","","","","","","",""
"html-keyboard-response","1","2162","0.0-1.0","1801","2930","23","Male","false","true","true","true","""event"",""trial"",""time""
""focus"",""0"",""0""
""blur"",""0"",""0""
""focus"",""1"",""2035""
","""event"",""trial"",""time""
""blur"",""0"",""0""
","""event"",""trial"",""time""
""focus"",""0"",""0""
""focus"",""1"",""2035""
","
","
","2151","Welcome! Press the space bar to begin.","32","","","","","","","","","","","","","","","","","","",""
"audio-keyboard-response","2","4603","0.0-2.0","1801","2930","23","Male","false","true","true","true","""event"",""trial"",""time""
""focus"",""0"",""0""
""blur"",""0"",""0""
""focus"",""1"",""2035""
","""event"",""trial"",""time""
""blur"",""0"",""0""
","""event"",""trial"",""time""
""focus"",""0"",""0""
""focus"",""1"",""2035""
","
","
","2152","audio/beep_loop.wav","32","","","","","","","","","","","","","","","","","","",""
"audio-button-response","3","6554","0.0-3.0","1801","2930","23","Male","false","true","true","true","""event"",""trial"",""time""
""focus"",""0"",""0""
""blur"",""0"",""0""
""focus"",""1"",""2035""
""blur"",""4"",""8695""
""focus"",""4"",""9881""
","""event"",""trial"",""time""
""blur"",""0"",""0""
""blur"",""4"",""8695""
","""event"",""trial"",""time""
""focus"",""0"",""0""
""focus"",""1"",""2035""
""focus"",""4"",""9881""
","
","
","NaN","audio/fish.mp3","","1","","","","","","","","","","","","","","","","","",""
"audio-button-response","4","9925","0.0-4.0","1801","2930","23","Male","false","true","true","true","""event"",""trial"",""time""
""focus"",""0"",""0""
""blur"",""0"",""0""
""focus"",""1"",""2035""
""blur"",""4"",""8695""
""focus"",""4"",""9881""
""fullscreenenter"",""5"",""13328""
","""event"",""trial"",""time""
""blur"",""0"",""0""
""blur"",""4"",""8695""
","""event"",""trial"",""time""
""focus"",""0"",""0""
""focus"",""1"",""2035""
""focus"",""4"",""9881""
","""event"",""trial"",""time""
""fullscreenenter"",""5"",""13328""
","
","NaN","audio/tiger.mp3","","4","","","","","","","","","","","","","","","","","",""
"fullscreen","5","14051","0.0-5.0","1801","2930","23","Male","false","true","true","true","""event"",""trial"",""time""
""focus"",""0"",""0""
""blur"",""0"",""0""
""focus"",""1"",""2035""
""blur"",""4"",""8695""
""focus"",""4"",""9881""
""fullscreenenter"",""5"",""13328""
","""event"",""trial"",""time""
""blur"",""0"",""0""
""blur"",""4"",""8695""
","""event"",""trial"",""time""
""focus"",""0"",""0""
""focus"",""1"",""2035""
""focus"",""4"",""9881""
","""event"",""trial"",""time""
""fullscreenenter"",""5"",""13328""
","
","","","","","true","","","","","","","","","","","","","","","","",""
"d3-instructions","6","28649","0.0-6.0","1801","2930","23","Male","false","true","true","true","""event"",""trial"",""time""
""focus"",""0"",""0""
""blur"",""0"",""0""
""focus"",""1"",""2035""
""blur"",""4"",""8695""
""focus"",""4"",""9881""
""fullscreenenter"",""5"",""13328""
","""event"",""trial"",""time""
""blur"",""0"",""0""
""blur"",""4"",""8695""
","""event"",""trial"",""time""
""focus"",""0"",""0""
""focus"",""1"",""2035""
""focus"",""4"",""9881""
","""event"",""trial"",""time""
""fullscreenenter"",""5"",""13328""
","
","","","","","","","","","","","","","","","","","","","","","",""
"d3-instructions","7","36921","0.0-7.0","1801","2930","23","Male","false","true","true","true","""event"",""trial"",""time""
""focus"",""0"",""0""
""blur"",""0"",""0""
""focus"",""1"",""2035""
""blur"",""4"",""8695""
""focus"",""4"",""9881""
""fullscreenenter"",""5"",""13328""
","""event"",""trial"",""time""
""blur"",""0"",""0""
""blur"",""4"",""8695""
","""event"",""trial"",""time""
""focus"",""0"",""0""
""focus"",""1"",""2035""
""focus"",""4"",""9881""
","""event"",""trial"",""time""
""fullscreenenter"",""5"",""13328""
","
","","","","","","","","","","","","","","","","","","","","","",""
"d3-instructions","8","44455","0.0-8.0","1801","2930","23","Male","false","true","true","true","""event"",""trial"",""time""
""focus"",""0"",""0""
""blur"",""0"",""0""
""focus"",""1"",""2035""
""blur"",""4"",""8695""
""focus"",""4"",""9881""
""fullscreenenter"",""5"",""13328""
","""event"",""trial"",""time""
""blur"",""0"",""0""
""blur"",""4"",""8695""
","""event"",""trial"",""time""
""focus"",""0"",""0""
""focus"",""1"",""2035""
""focus"",""4"",""9881""
","""event"",""trial"",""time""
""fullscreenenter"",""5"",""13328""
","
","","","","","","","","","","","","","","","","","","","","","",""
"d3-instructions","9","54856","0.0-9.0","1801","2930","23","Male","false","true","true","true","""event"",""trial"",""time""
""focus"",""0"",""0""
""blur"",""0"",""0""
""focus"",""1"",""2035""
""blur"",""4"",""8695""
""focus"",""4"",""9881""
""fullscreenenter"",""5"",""13328""
","""event"",""trial"",""time""
""blur"",""0"",""0""
""blur"",""4"",""8695""
","""event"",""trial"",""time""
""focus"",""0"",""0""
""focus"",""1"",""2035""
""focus"",""4"",""9881""
","""event"",""trial"",""time""
""fullscreenenter"",""5"",""13328""
","
","","","","","","","","","","","","","","","","","","","","","",""
"d3-instructions","10","65320","0.0-10.0","1801","2930","23","Male","false","true","true","true","""event"",""trial"",""time""
""focus"",""0"",""0""
""blur"",""0"",""0""
""focus"",""1"",""2035""
""blur"",""4"",""8695""
""focus"",""4"",""9881""
""fullscreenenter"",""5"",""13328""
","""event"",""trial"",""time""
""blur"",""0"",""0""
""blur"",""4"",""8695""
","""event"",""trial"",""time""
""focus"",""0"",""0""
""focus"",""1"",""2035""
""focus"",""4"",""9881""
","""event"",""trial"",""time""
""fullscreenenter"",""5"",""13328""
","
","","","","","","","","","","","","","","","","","","","","","",""
"d3-animate-choice","11","70206","0.0-11.0","1801","2930","23","Male","false","true","true","true","""event"",""trial"",""time""
""focus"",""0"",""0""
""blur"",""0"",""0""
""focus"",""1"",""2035""
""blur"",""4"",""8695""
""focus"",""4"",""9881""
""fullscreenenter"",""5"",""13328""
","""event"",""trial"",""time""
""blur"",""0"",""0""
""blur"",""4"",""8695""
","""event"",""trial"",""time""
""focus"",""0"",""0""
""focus"",""1"",""2035""
""focus"",""4"",""9881""
","""event"",""trial"",""time""
""fullscreenenter"",""5"",""13328""
","
","1821","","97","","","3000","1","2866","49","images/tutgreenplanet.jpg","images/tutalien1","images/tutalien2","null","images/tutalien2","","NA","practice","null","","","",""
"d3-animate-choice","12","76347","0.0-12.0","1801","2930","23","Male","false","true","true","true","""event"",""trial"",""time""
""focus"",""0"",""0""
""blur"",""0"",""0""
""focus"",""1"",""2035""
""blur"",""4"",""8695""
""focus"",""4"",""9881""
""fullscreenenter"",""5"",""13328""
","""event"",""trial"",""time""
""blur"",""0"",""0""
""blur"",""4"",""8695""
","""event"",""trial"",""time""
""focus"",""0"",""0""
""focus"",""1"",""2035""
""focus"",""4"",""9881""
","""event"",""trial"",""time""
""fullscreenenter"",""5"",""13328""
","
","647","","50","","","3000","1","1255,1606,2055,2455,2966,3913,4119","50,50,50,32,50,50,49","images/tutgreenplanet.jpg","images/tutalien1","images/tutalien2","null","images/tutalien2","","NA","practice","null","","","",""
"d3-animate-choice","13","79746","0.0-13.0","1801","2930","23","Male","false","true","true","true","""event"",""trial"",""time""
""focus"",""0"",""0""
""blur"",""0"",""0""
""focus"",""1"",""2035""
""blur"",""4"",""8695""
""focus"",""4"",""9881""
""fullscreenenter"",""5"",""13328""
","""event"",""trial"",""time""
""blur"",""0"",""0""
""blur"",""4"",""8695""
","""event"",""trial"",""time""
""focus"",""0"",""0""
""focus"",""1"",""2035""
""focus"",""4"",""9881""
","""event"",""trial"",""time""
""fullscreenenter"",""5"",""13328""
","
","1384","","48","","","3000","1","","","images/tutgreenplanet.jpg","images/tutalien1","images/tutalien2","null","images/tutalien1","","NA","practice","null","","","",""
"d3-animate-choice","14","82549","0.0-14.0","1801","2930","23","Male","false","true","true","true","""event"",""trial"",""time""
""focus"",""0"",""0""
""blur"",""0"",""0""
""focus"",""1"",""2035""
""blur"",""4"",""8695""
""focus"",""4"",""9881""
""fullscreenenter"",""5"",""13328""
","""event"",""trial"",""time""
""blur"",""0"",""0""
""blur"",""4"",""8695""
","""event"",""trial"",""time""
""focus"",""0"",""0""
""focus"",""1"",""2035""
""focus"",""4"",""9881""
","""event"",""trial"",""time""
""fullscreenenter"",""5"",""13328""
","
","787","","49","","","3000","1","","","images/tutgreenplanet.jpg","images/tutalien1","images/tutalien2","null","images/tutalien2","","NA","practice","null","","","",""
"d3-instructions","15","87256","0.0-15.0","1801","2930","23","Male","false","true","true","true","""event"",""trial"",""time""
""focus"",""0"",""0""
""blur"",""0"",""0""
""focus"",""1"",""2035""
""blur"",""4"",""8695""
""focus"",""4"",""9881""
""fullscreenenter"",""5"",""13328""
","""event"",""trial"",""time""
""blur"",""0"",""0""
""blur"",""4"",""8695""
","""event"",""trial"",""time""
""focus"",""0"",""0""
""focus"",""1"",""2035""
""focus"",""4"",""9881""
","""event"",""trial"",""time""
""fullscreenenter"",""5"",""13328""
","
","","","","","","","","","","","","","","","","","","","","","",""
"d3-instructions","16","89062","0.0-16.0","1801","2930","23","Male","false","true","true","true","""event"",""trial"",""time""
""focus"",""0"",""0""
""blur"",""0"",""0""
""focus"",""1"",""2035""
""blur"",""4"",""8695""
""focus"",""4"",""9881""
""fullscreenenter"",""5"",""13328""
","""event"",""trial"",""time""
""blur"",""0"",""0""
""blur"",""4"",""8695""
","""event"",""trial"",""time""
""focus"",""0"",""0""
""focus"",""1"",""2035""
""focus"",""4"",""9881""
","""event"",""trial"",""time""
""fullscreenenter"",""5"",""13328""
","
","","","","","","","","","","","","","","","","","","","","","",""
"d3-instructions","17","92727","0.0-17.0","1801","2930","23","Male","false","true","true","true","""event"",""trial"",""time""
""focus"",""0"",""0""
""blur"",""0"",""0""
""focus"",""1"",""2035""
""blur"",""4"",""8695""
""focus"",""4"",""9881""
""fullscreenenter"",""5"",""13328""
","""event"",""trial"",""time""
""blur"",""0"",""0""
""blur"",""4"",""8695""
","""event"",""trial"",""time""
""focus"",""0"",""0""
""focus"",""1"",""2035""
""focus"",""4"",""9881""
","""event"",""trial"",""time""
""fullscreenenter"",""5"",""13328""
","
","","","","","","","","","","","","","","","","","","","","","",""
"d3-instructions","18","95495","0.0-18.0","1801","2930","23","Male","false","true","true","true","""event"",""trial"",""time""
""focus"",""0"",""0""
""blur"",""0"",""0""
""focus"",""1"",""2035""
""blur"",""4"",""8695""
""focus"",""4"",""9881""
""fullscreenenter"",""5"",""13328""
","""event"",""trial"",""time""
""blur"",""0"",""0""
""blur"",""4"",""8695""
","""event"",""trial"",""time""
""focus"",""0"",""0""
""focus"",""1"",""2035""
""focus"",""4"",""9881""
","""event"",""trial"",""time""
""fullscreenenter"",""5"",""13328""
","
","","","","","","","","","","","","","","","","","","","","","",""
"d3-instructions","19","101464","0.0-19.0","1801","2930","23","Male","false","true","true","true","""event"",""trial"",""time""
""focus"",""0"",""0""
""blur"",""0"",""0""
""focus"",""1"",""2035""
""blur"",""4"",""8695""
""focus"",""4"",""9881""
""fullscreenenter"",""5"",""13328""
","""event"",""trial"",""time""
""blur"",""0"",""0""
""blur"",""4"",""8695""
","""event"",""trial"",""time""
""focus"",""0"",""0""
""focus"",""1"",""2035""
""focus"",""4"",""9881""
","""event"",""trial"",""time""
""fullscreenenter"",""5"",""13328""
","
","","","","","","","","","","","","","","","","","","","","","",""
"d3-animate-choice","20","104571","0.0-20.0","1801","2930","23","Male","false","true","true","true","""event"",""trial"",""time""
""focus"",""0"",""0""
""blur"",""0"",""0""
""focus"",""1"",""2035""
""blur"",""4"",""8695""
""focus"",""4"",""9881""
""fullscreenenter"",""5"",""13328""
","""event"",""trial"",""time""
""blur"",""0"",""0""
""blur"",""4"",""8695""
","""event"",""trial"",""time""
""focus"",""0"",""0""
""focus"",""1"",""2035""
""focus"",""4"",""9881""
","""event"",""trial"",""time""
""fullscreenenter"",""5"",""13328""
","
","1102","","49","","","3000","1","","","images/tutyellowplanet.jpg","null","images/tutalien3","null","images/tutalien3","images/nothing.png","NA","practice","null","","","",""
"d3-animate-choice","21","108069","0.0-21.0","1801","2930","23","Male","false","true","true","true","""event"",""trial"",""time""
""focus"",""0"",""0""
""blur"",""0"",""0""
""focus"",""1"",""2035""
""blur"",""4"",""8695""
""focus"",""4"",""9881""
""fullscreenenter"",""5"",""13328""
","""event"",""trial"",""time""
""blur"",""0"",""0""
""blur"",""4"",""8695""
","""event"",""trial"",""time""
""focus"",""0"",""0""
""focus"",""1"",""2035""
""focus"",""4"",""9881""
","""event"",""trial"",""time""
""fullscreenenter"",""5"",""13328""
","
","938","","97","","","3000","1","1242,1482","96,49","images/tutyellowplanet.jpg","null","images/tutalien3","null","images/tutalien3","images/t.png","NA","practice","null","","","",""
"d3-animate-choice","22","110333","0.0-22.0","1801","2930","23","Male","false","true","true","true","""event"",""trial"",""time""
""focus"",""0"",""0""
""blur"",""0"",""0""
""focus"",""1"",""2035""
""blur"",""4"",""8695""
""focus"",""4"",""9881""
""fullscreenenter"",""5"",""13328""
","""event"",""trial"",""time""
""blur"",""0"",""0""
""blur"",""4"",""8695""
","""event"",""trial"",""time""
""focus"",""0"",""0""
""focus"",""1"",""2035""
""focus"",""4"",""9881""
","""event"",""trial"",""time""
""fullscreenenter"",""5"",""13328""
","
","256","","49","","","3000","1","","","images/tutyellowplanet.jpg","null","images/tutalien3","null","images/tutalien3","images/t.png","NA","practice","null","","","",""
"d3-animate-choice","23","112574","0.0-23.0","1801","2930","23","Male","false","true","true","true","""event"",""trial"",""time""
""focus"",""0"",""0""
""blur"",""0"",""0""
""focus"",""1"",""2035""
""blur"",""4"",""8695""
""focus"",""4"",""9881""
""fullscreenenter"",""5"",""13328""
","""event"",""trial"",""time""
""blur"",""0"",""0""
""blur"",""4"",""8695""
","""event"",""trial"",""time""
""focus"",""0"",""0""
""focus"",""1"",""2035""
""focus"",""4"",""9881""
","""event"",""trial"",""time""
""fullscreenenter"",""5"",""13328""
","
","231","","49","","","3000","1","","","images/tutyellowplanet.jpg","null","images/tutalien3","null","images/tutalien3","images/t.png","NA","practice","null","","","",""
"d3-animate-choice","24","114946","0.0-24.0","1801","2930","23","Male","false","true","true","true","""event"",""trial"",""time""
""focus"",""0"",""0""
""blur"",""0"",""0""
""focus"",""1"",""2035""
""blur"",""4"",""8695""
""focus"",""4"",""9881""
""fullscreenenter"",""5"",""13328""
","""event"",""trial"",""time""
""blur"",""0"",""0""
""blur"",""4"",""8695""
","""event"",""trial"",""time""
""focus"",""0"",""0""
""focus"",""1"",""2035""
""focus"",""4"",""9881""
","""event"",""trial"",""time""
""fullscreenenter"",""5"",""13328""
","
","360","","49","","","3000","1","","","images/tutyellowplanet.jpg","null","images/tutalien3","null","images/tutalien3","images/t.png","NA","practice","null","","","",""
"d3-animate-choice","25","117294","0.0-25.0","1801","2930","23","Male","false","true","true","true","""event"",""trial"",""time""
""focus"",""0"",""0""
""blur"",""0"",""0""
""focus"",""1"",""2035""
""blur"",""4"",""8695""
""focus"",""4"",""9881""
""fullscreenenter"",""5"",""13328""
","""event"",""trial"",""time""
""blur"",""0"",""0""
""blur"",""4"",""8695""
","""event"",""trial"",""time""
""focus"",""0"",""0""
""focus"",""1"",""2035""
""focus"",""4"",""9881""
","""event"",""trial"",""time""
""fullscreenenter"",""5"",""13328""
","
","339","","49","","","3000","1","","","images/tutyellowplanet.jpg","null","images/tutalien3","null","images/tutalien3","images/t.png","NA","practice","null","","","",""
"d3-animate-choice","26","119593","0.0-26.0","1801","2930","23","Male","false","true","true","true","""event"",""trial"",""time""
""focus"",""0"",""0""
""blur"",""0"",""0""
""focus"",""1"",""2035""
""blur"",""4"",""8695""
""focus"",""4"",""9881""
""fullscreenenter"",""5"",""13328""
","""event"",""trial"",""time""
""blur"",""0"",""0""
""blur"",""4"",""8695""
","""event"",""trial"",""time""
""focus"",""0"",""0""
""focus"",""1"",""2035""
""focus"",""4"",""9881""
","""event"",""trial"",""time""
""fullscreenenter"",""5"",""13328""
","
","280","","49","","","3000","1","","","images/tutyellowplanet.jpg","null","images/tutalien3","null","images/tutalien3","images/t.png","NA","practice","null","","","",""
"d3-animate-choice","27","121823","0.0-27.0","1801","2930","23","Male","false","true","true","true","""event"",""trial"",""time""
""focus"",""0"",""0""
""blur"",""0"",""0""
""focus"",""1"",""2035""
""blur"",""4"",""8695""
""focus"",""4"",""9881""
""fullscreenenter"",""5"",""13328""
","""event"",""trial"",""time""
""blur"",""0"",""0""
""blur"",""4"",""8695""
","""event"",""trial"",""time""
""focus"",""0"",""0""
""focus"",""1"",""2035""
""focus"",""4"",""9881""
","""event"",""trial"",""time""
""fullscreenenter"",""5"",""13328""
","
","221","","49","","","3000","1","","","images/tutyellowplanet.jpg","null","images/tutalien3","null","images/tutalien3","images/nothing.png","NA","practice","null","","","",""
"d3-animate-choice","28","124037","0.0-28.0","1801","2930","23","Male","false","true","true","true","""event"",""trial"",""time""
""focus"",""0"",""0""
""blur"",""0"",""0""
""focus"",""1"",""2035""
""blur"",""4"",""8695""
""focus"",""4"",""9881""
""fullscreenenter"",""5"",""13328""
","""event"",""trial"",""time""
""blur"",""0"",""0""
""blur"",""4"",""8695""
","""event"",""trial"",""time""
""focus"",""0"",""0""
""focus"",""1"",""2035""
""focus"",""4"",""9881""
","""event"",""trial"",""time""
""fullscreenenter"",""5"",""13328""
","
","199","","49","","","3000","1","","","images/tutyellowplanet.jpg","null","images/tutalien3","null","images/tutalien3","images/t.png","NA","practice","null","","","",""
"d3-animate-choice","29","127351","0.0-29.0","1801","2930","23","Male","false","true","true","true","""event"",""trial"",""time""
""focus"",""0"",""0""
""blur"",""0"",""0""
""focus"",""1"",""2035""
""blur"",""4"",""8695""
""focus"",""4"",""9881""
""fullscreenenter"",""5"",""13328""
","""event"",""trial"",""time""
""blur"",""0"",""0""
""blur"",""4"",""8695""
","""event"",""trial"",""time""
""focus"",""0"",""0""
""focus"",""1"",""2035""
""focus"",""4"",""9881""
","""event"",""trial"",""time""
""fullscreenenter"",""5"",""13328""
","
","1087","","48","","","3000","1","1296","49","images/tutyellowplanet.jpg","null","images/tutalien3","null","images/tutalien3","images/t.png","NA","practice","null","","","",""
"d3-instructions","30","131672","0.0-30.0","1801","2930","23","Male","false","true","true","true","""event"",""trial"",""time""
""focus"",""0"",""0""
""blur"",""0"",""0""
""focus"",""1"",""2035""
""blur"",""4"",""8695""
""focus"",""4"",""9881""
""fullscreenenter"",""5"",""13328""
","""event"",""trial"",""time""
""blur"",""0"",""0""
""blur"",""4"",""8695""
","""event"",""trial"",""time""
""focus"",""0"",""0""
""focus"",""1"",""2035""
""focus"",""4"",""9881""
","""event"",""trial"",""time""
""fullscreenenter"",""5"",""13328""
","
","","","","","","","","","","","","","","","","","","","","","",""
"d3-instructions","31","135575","0.0-31.0","1801","2930","23","Male","false","true","true","true","""event"",""trial"",""time""
""focus"",""0"",""0""
""blur"",""0"",""0""
""focus"",""1"",""2035""
""blur"",""4"",""8695""
""focus"",""4"",""9881""
""fullscreenenter"",""5"",""13328""
","""event"",""trial"",""time""
""blur"",""0"",""0""
""blur"",""4"",""8695""
","""event"",""trial"",""time""
""focus"",""0"",""0""
""focus"",""1"",""2035""
""focus"",""4"",""9881""
","""event"",""trial"",""time""
""fullscreenenter"",""5"",""13328""
","
","","","","","","","","","","","","","","","","","","","","","",""
"d3-instructions","32","138006","0.0-32.0","1801","2930","23","Male","false","true","true","true","""event"",""trial"",""time""
""focus"",""0"",""0""
""blur"",""0"",""0""
""focus"",""1"",""2035""
""blur"",""4"",""8695""
""focus"",""4"",""9881""
""fullscreenenter"",""5"",""13328""
","""event"",""trial"",""time""
""blur"",""0"",""0""
""blur"",""4"",""8695""
","""event"",""trial"",""time""
""focus"",""0"",""0""
""focus"",""1"",""2035""
""focus"",""4"",""9881""
","""event"",""trial"",""time""
""fullscreenenter"",""5"",""13328""
","
","","","","","","","","","","","","","","","","","","","","","",""
"d3-instructions","33","140679","0.0-33.0","1801","2930","23","Male","false","true","true","true","""event"",""trial"",""time""
""focus"",""0"",""0""
""blur"",""0"",""0""
""focus"",""1"",""2035""
""blur"",""4"",""8695""
""focus"",""4"",""9881""
""fullscreenenter"",""5"",""13328""
","""event"",""trial"",""time""
""blur"",""0"",""0""
""blur"",""4"",""8695""
","""event"",""trial"",""time""
""focus"",""0"",""0""
""focus"",""1"",""2035""
""focus"",""4"",""9881""
","""event"",""trial"",""time""
""fullscreenenter"",""5"",""13328""
","
","","","","","","","","","","","","","","","","","","","","","",""
"d3-animate-choice","34","143903","0.0-34.0","1801","2930","23","Male","false","true","true","true","""event"",""trial"",""time""
""focus"",""0"",""0""
""blur"",""0"",""0""
""focus"",""1"",""2035""
""blur"",""4"",""8695""
""focus"",""4"",""9881""
""fullscreenenter"",""5"",""13328""
","""event"",""trial"",""time""
""blur"",""0"",""0""
""blur"",""4"",""8695""
","""event"",""trial"",""time""
""focus"",""0"",""0""
""focus"",""1"",""2035""
""focus"",""4"",""9881""
","""event"",""trial"",""time""
""fullscreenenter"",""5"",""13328""
","
","1214","","48","","","3000","1","","","images/tutgreenplanet.jpg","images/tutalien1","images/tutalien2","null","images/tutalien1","images/nothing.png","NA","practice","null","","","",""
"d3-animate-choice","35","146234","0.0-35.0","1801","2930","23","Male","false","true","true","true","""event"",""trial"",""time""
""focus"",""0"",""0""
""blur"",""0"",""0""
""focus"",""1"",""2035""
""blur"",""4"",""8695""
""focus"",""4"",""9881""
""fullscreenenter"",""5"",""13328""
","""event"",""trial"",""time""
""blur"",""0"",""0""
""blur"",""4"",""8695""
","""event"",""trial"",""time""
""focus"",""0"",""0""
""focus"",""1"",""2035""
""focus"",""4"",""9881""
","""event"",""trial"",""time""
""fullscreenenter"",""5"",""13328""
","
","326","","49","","","3000","1","","","images/tutgreenplanet.jpg","images/tutalien1","images/tutalien2","null","images/tutalien2","images/t.png","NA","practice","null","","","",""
"d3-animate-choice","36","148447","0.0-36.0","1801","2930","23","Male","false","true","true","true","""event"",""trial"",""time""
""focus"",""0"",""0""
""blur"",""0"",""0""
""focus"",""1"",""2035""
""blur"",""4"",""8695""
""focus"",""4"",""9881""
""fullscreenenter"",""5"",""13328""
","""event"",""trial"",""time""
""blur"",""0"",""0""
""blur"",""4"",""8695""
","""event"",""trial"",""time""
""focus"",""0"",""0""
""focus"",""1"",""2035""
""focus"",""4"",""9881""
","""event"",""trial"",""time""
""fullscreenenter"",""5"",""13328""
","
","204","","49","","","3000","1","","","images/tutgreenplanet.jpg","images/tutalien1","images/tutalien2","null","images/tutalien2","images/t.png","NA","practice","null","","","",""
"d3-animate-choice","37","150528","0.0-37.0","1801","2930","23","Male","false","true","true","true","""event"",""trial"",""time""
""focus"",""0"",""0""
""blur"",""0"",""0""
""focus"",""1"",""2035""
""blur"",""4"",""8695""
""focus"",""4"",""9881""
""fullscreenenter"",""5"",""13328""
","""event"",""trial"",""time""
""blur"",""0"",""0""
""blur"",""4"",""8695""
","""event"",""trial"",""time""
""focus"",""0"",""0""
""focus"",""1"",""2035""
""focus"",""4"",""9881""
","""event"",""trial"",""time""
""fullscreenenter"",""5"",""13328""
","
","69","","49","","","3000","1","1508","49","images/tutgreenplanet.jpg","images/tutalien1","images/tutalien2","null","images/tutalien2","images/t.png","NA","practice","null","","","",""
"d3-animate-choice","38","152606","0.0-38.0","1801","2930","23","Male","false","true","true","true","""event"",""trial"",""time""
""focus"",""0"",""0""
""blur"",""0"",""0""
""focus"",""1"",""2035""
""blur"",""4"",""8695""
""focus"",""4"",""9881""
""fullscreenenter"",""5"",""13328""
","""event"",""trial"",""time""
""blur"",""0"",""0""
""blur"",""4"",""8695""
","""event"",""trial"",""time""
""focus"",""0"",""0""
""focus"",""1"",""2035""
""focus"",""4"",""9881""
","""event"",""trial"",""time""
""fullscreenenter"",""5"",""13328""
","
","69","","49","","","3000","1","2037","49","images/tutgreenplanet.jpg","images/tutalien1","images/tutalien2","null","images/tutalien2","images/t.png","NA","practice","null","","","",""
"d3-animate-choice","39","155007","0.0-39.0","1801","2930","23","Male","false","true","true","true","""event"",""trial"",""time""
""focus"",""0"",""0""
""blur"",""0"",""0""
""focus"",""1"",""2035""
""blur"",""4"",""8695""
""focus"",""4"",""9881""
""fullscreenenter"",""5"",""13328""
","""event"",""trial"",""time""
""blur"",""0"",""0""
""blur"",""4"",""8695""
","""event"",""trial"",""time""
""focus"",""0"",""0""
""focus"",""1"",""2035""
""focus"",""4"",""9881""
","""event"",""trial"",""time""
""fullscreenenter"",""5"",""13328""
","
","391","","49","","","3000","1","","","images/tutgreenplanet.jpg","images/tutalien1","images/tutalien2","null","images/tutalien2","images/nothing.png","NA","practice","null","","","",""
"d3-animate-choice","40","157290","0.0-40.0","1801","2930","23","Male","false","true","true","true","""event"",""trial"",""time""
""focus"",""0"",""0""
""blur"",""0"",""0""
""focus"",""1"",""2035""
""blur"",""4"",""8695""
""focus"",""4"",""9881""
""fullscreenenter"",""5"",""13328""
","""event"",""trial"",""time""
""blur"",""0"",""0""
""blur"",""4"",""8695""
","""event"",""trial"",""time""
""focus"",""0"",""0""
""focus"",""1"",""2035""
""focus"",""4"",""9881""
","""event"",""trial"",""time""
""fullscreenenter"",""5"",""13328""
","
","278","","49","","","3000","1","","","images/tutgreenplanet.jpg","images/tutalien1","images/tutalien2","null","images/tutalien2","images/t.png","NA","practice","null","","","",""
"d3-animate-choice","41","159388","0.0-41.0","1801","2930","23","Male","false","true","true","true","""event"",""trial"",""time""
""focus"",""0"",""0""
""blur"",""0"",""0""
""focus"",""1"",""2035""
""blur"",""4"",""8695""
""focus"",""4"",""9881""
""fullscreenenter"",""5"",""13328""
","""event"",""trial"",""time""
""blur"",""0"",""0""
""blur"",""4"",""8695""
","""event"",""trial"",""time""
""focus"",""0"",""0""
""focus"",""1"",""2035""
""focus"",""4"",""9881""
","""event"",""trial"",""time""
""fullscreenenter"",""5"",""13328""
","
","91","","49","","","3000","1","","","images/tutgreenplanet.jpg","images/tutalien1","images/tutalien2","null","images/tutalien2","images/t.png","NA","practice","null","","","",""
"d3-animate-choice","42","161602","0.0-42.0","1801","2930","23","Male","false","true","true","true","""event"",""trial"",""time""
""focus"",""0"",""0""
""blur"",""0"",""0""
""focus"",""1"",""2035""
""blur"",""4"",""8695""
""focus"",""4"",""9881""
""fullscreenenter"",""5"",""13328""
","""event"",""trial"",""time""
""blur"",""0"",""0""
""blur"",""4"",""8695""
","""event"",""trial"",""time""
""focus"",""0"",""0""
""focus"",""1"",""2035""
""focus"",""4"",""9881""
","""event"",""trial"",""time""
""fullscreenenter"",""5"",""13328""
","
","200","","49","","","3000","1","","","images/tutgreenplanet.jpg","images/tutalien1","images/tutalien2","null","images/tutalien2","images/t.png","NA","practice","null","","","",""
"d3-animate-choice","43","164000","0.0-43.0","1801","2930","23","Male","false","true","true","true","""event"",""trial"",""time""
""focus"",""0"",""0""
""blur"",""0"",""0""
""focus"",""1"",""2035""
""blur"",""4"",""8695""
""focus"",""4"",""9881""
""fullscreenenter"",""5"",""13328""
","""event"",""trial"",""time""
""blur"",""0"",""0""
""blur"",""4"",""8695""
","""event"",""trial"",""time""
""focus"",""0"",""0""
""focus"",""1"",""2035""
""focus"",""4"",""9881""
","""event"",""trial"",""time""
""fullscreenenter"",""5"",""13328""
","
","386","","49","","","3000","1","","","images/tutgreenplanet.jpg","images/tutalien1","images/tutalien2","null","images/tutalien2","images/nothing.png","NA","practice","null","","","",""
"d3-instructions","44","178279","0.0-44.0","1801","2930","23","Male","false","true","true","true","""event"",""trial"",""time""
""focus"",""0"",""0""
""blur"",""0"",""0""
""focus"",""1"",""2035""
""blur"",""4"",""8695""
""focus"",""4"",""9881""
""fullscreenenter"",""5"",""13328""
","""event"",""trial"",""time""
""blur"",""0"",""0""
""blur"",""4"",""8695""
","""event"",""trial"",""time""
""focus"",""0"",""0""
""focus"",""1"",""2035""
""focus"",""4"",""9881""
","""event"",""trial"",""time""
""fullscreenenter"",""5"",""13328""
","
","","","","","","","","","","","","","","","","","","","","","",""
"d3-instructions","45","180631","0.0-45.0","1801","2930","23","Male","false","true","true","true","""event"",""trial"",""time""
""focus"",""0"",""0""
""blur"",""0"",""0""
""focus"",""1"",""2035""
""blur"",""4"",""8695""
""focus"",""4"",""9881""
""fullscreenenter"",""5"",""13328""
","""event"",""trial"",""time""
""blur"",""0"",""0""
""blur"",""4"",""8695""
","""event"",""trial"",""time""
""focus"",""0"",""0""
""focus"",""1"",""2035""
""focus"",""4"",""9881""
","""event"",""trial"",""time""
""fullscreenenter"",""5"",""13328""
","
","","","","","","","","","","","","","","","","","","","","","",""
"d3-instructions","46","182135","0.0-46.0","1801","2930","23","Male","false","true","true","true","""event"",""trial"",""time""
""focus"",""0"",""0""
""blur"",""0"",""0""
""focus"",""1"",""2035""
""blur"",""4"",""8695""
""focus"",""4"",""9881""
""fullscreenenter"",""5"",""13328""
","""event"",""trial"",""time""
""blur"",""0"",""0""
""blur"",""4"",""8695""
","""event"",""trial"",""time""
""focus"",""0"",""0""
""focus"",""1"",""2035""
""focus"",""4"",""9881""
","""event"",""trial"",""time""
""fullscreenenter"",""5"",""13328""
","
","","","","","","","","","","","","","","","","","","","","","",""
"d3-instructions","47","191430","0.0-47.0","1801","2930","23","Male","false","true","true","true","""event"",""trial"",""time""
""focus"",""0"",""0""
""blur"",""0"",""0""
""focus"",""1"",""2035""
""blur"",""4"",""8695""
""focus"",""4"",""9881""
""fullscreenenter"",""5"",""13328""
","""event"",""trial"",""time""
""blur"",""0"",""0""
""blur"",""4"",""8695""
","""event"",""trial"",""time""
""focus"",""0"",""0""
""focus"",""1"",""2035""
""focus"",""4"",""9881""
","""event"",""trial"",""time""
""fullscreenenter"",""5"",""13328""
","
","","","","","","","","","","","","","","","","","","","","","",""
"d3-instructions","48","193479","0.0-48.0","1801","2930","23","Male","false","true","true","true","""event"",""trial"",""time""
""focus"",""0"",""0""
""blur"",""0"",""0""
""focus"",""1"",""2035""
""blur"",""4"",""8695""
""focus"",""4"",""9881""
""fullscreenenter"",""5"",""13328""
","""event"",""trial"",""time""
""blur"",""0"",""0""
""blur"",""4"",""8695""
","""event"",""trial"",""time""
""focus"",""0"",""0""
""focus"",""1"",""2035""
""focus"",""4"",""9881""
","""event"",""trial"",""time""
""fullscreenenter"",""5"",""13328""
","
","","","","","","","","","","","","","","","","","","","","","",""
"d3-instructions","49","196711","0.0-49.0","1801","2930","23","Male","false","true","true","true","""event"",""trial"",""time""
""focus"",""0"",""0""
""blur"",""0"",""0""
""focus"",""1"",""2035""
""blur"",""4"",""8695""
""focus"",""4"",""9881""
""fullscreenenter"",""5"",""13328""
","""event"",""trial"",""time""
""blur"",""0"",""0""
""blur"",""4"",""8695""
","""event"",""trial"",""time""
""focus"",""0"",""0""
""focus"",""1"",""2035""
""focus"",""4"",""9881""
","""event"",""trial"",""time""
""fullscreenenter"",""5"",""13328""
","
","","","","","","","","","","","","","","","","","","","","","",""
"d3-instructions","50","200630","0.0-50.0","1801","2930","23","Male","false","true","true","true","""event"",""trial"",""time""
""focus"",""0"",""0""
""blur"",""0"",""0""
""focus"",""1"",""2035""
""blur"",""4"",""8695""
""focus"",""4"",""9881""
""fullscreenenter"",""5"",""13328""
","""event"",""trial"",""time""
""blur"",""0"",""0""
""blur"",""4"",""8695""
","""event"",""trial"",""time""
""focus"",""0"",""0""
""focus"",""1"",""2035""
""focus"",""4"",""9881""
","""event"",""trial"",""time""
""fullscreenenter"",""5"",""13328""
","
","","","","","","","","","","","","","","","","","","","","","",""
"d3-instructions","51","201654","0.0-51.0","1801","2930","23","Male","false","true","true","true","""event"",""trial"",""time""
""focus"",""0"",""0""
""blur"",""0"",""0""
""focus"",""1"",""2035""
""blur"",""4"",""8695""
""focus"",""4"",""9881""
""fullscreenenter"",""5"",""13328""
","""event"",""trial"",""time""
""blur"",""0"",""0""
""blur"",""4"",""8695""
","""event"",""trial"",""time""
""focus"",""0"",""0""
""focus"",""1"",""2035""
""focus"",""4"",""9881""
","""event"",""trial"",""time""
""fullscreenenter"",""5"",""13328""
","
","","","","","","","","","","","","","","","","","","","","","",""
"d3-instructions","52","202311","0.0-52.0","1801","2930","23","Male","false","true","true","true","""event"",""trial"",""time""
""focus"",""0"",""0""
""blur"",""0"",""0""
""focus"",""1"",""2035""
""blur"",""4"",""8695""
""focus"",""4"",""9881""
""fullscreenenter"",""5"",""13328""
","""event"",""trial"",""time""
""blur"",""0"",""0""
""blur"",""4"",""8695""
","""event"",""trial"",""time""
""focus"",""0"",""0""
""focus"",""1"",""2035""
""focus"",""4"",""9881""
","""event"",""trial"",""time""
""fullscreenenter"",""5"",""13328""
","
","","","","","","","","","","","","","","","","","","","","","",""
"d3-instructions","53","206967","0.0-53.0","1801","2930","23","Male","false","true","true","true","""event"",""trial"",""time""
""focus"",""0"",""0""
""blur"",""0"",""0""
""focus"",""1"",""2035""
""blur"",""4"",""8695""
""focus"",""4"",""9881""
""fullscreenenter"",""5"",""13328""
","""event"",""trial"",""time""
""blur"",""0"",""0""
""blur"",""4"",""8695""
","""event"",""trial"",""time""
""focus"",""0"",""0""
""focus"",""1"",""2035""
""focus"",""4"",""9881""
","""event"",""trial"",""time""
""fullscreenenter"",""5"",""13328""
","
","","","","","","","","","","","","","","","","","","","","","",""
"d3-instructions","54","210424","0.0-54.0","1801","2930","23","Male","false","true","true","true","""event"",""trial"",""time""
""focus"",""0"",""0""
""blur"",""0"",""0""
""focus"",""1"",""2035""
""blur"",""4"",""8695""
""focus"",""4"",""9881""
""fullscreenenter"",""5"",""13328""
","""event"",""trial"",""time""
""blur"",""0"",""0""
""blur"",""4"",""8695""
","""event"",""trial"",""time""
""focus"",""0"",""0""
""focus"",""1"",""2035""
""focus"",""4"",""9881""
","""event"",""trial"",""time""
""fullscreenenter"",""5"",""13328""
","
","","","","","","","","","","","","","","","","","","","","","",""
"d3-instructions","55","212456","0.0-55.0","1801","2930","23","Male","false","true","true","true","""event"",""trial"",""time""
""focus"",""0"",""0""
""blur"",""0"",""0""
""focus"",""1"",""2035""
""blur"",""4"",""8695""
""focus"",""4"",""9881""
""fullscreenenter"",""5"",""13328""
","""event"",""trial"",""time""
""blur"",""0"",""0""
""blur"",""4"",""8695""
","""event"",""trial"",""time""
""focus"",""0"",""0""
""focus"",""1"",""2035""
""focus"",""4"",""9881""
","""event"",""trial"",""time""
""fullscreenenter"",""5"",""13328""
","
","","","","","","","","","","","","","","","","","","","","","",""
"d3-instructions","56","215879","0.0-56.0","1801","2930","23","Male","false","true","true","true","""event"",""trial"",""time""
""focus"",""0"",""0""
""blur"",""0"",""0""
""focus"",""1"",""2035""
""blur"",""4"",""8695""
""focus"",""4"",""9881""
""fullscreenenter"",""5"",""13328""
","""event"",""trial"",""time""
""blur"",""0"",""0""
""blur"",""4"",""8695""
","""event"",""trial"",""time""
""focus"",""0"",""0""
""focus"",""1"",""2035""
""focus"",""4"",""9881""
","""event"",""trial"",""time""
""fullscreenenter"",""5"",""13328""
","
","","","","","","","","","","","","","","","","","","","","","",""
"d3-instructions","57","218967","0.0-57.0","1801","2930","23","Male","false","true","true","true","""event"",""trial"",""time""
""focus"",""0"",""0""
""blur"",""0"",""0""
""focus"",""1"",""2035""
""blur"",""4"",""8695""
""focus"",""4"",""9881""
""fullscreenenter"",""5"",""13328""
","""event"",""trial"",""time""
""blur"",""0"",""0""
""blur"",""4"",""8695""
","""event"",""trial"",""time""
""focus"",""0"",""0""
""focus"",""1"",""2035""
""focus"",""4"",""9881""
","""event"",""trial"",""time""
""fullscreenenter"",""5"",""13328""
","
","","","","","","","","","","","","","","","","","","","","","",""
"d3-instructions","58","221015","0.0-58.0","1801","2930","23","Male","false","true","true","true","""event"",""trial"",""time""
""focus"",""0"",""0""
""blur"",""0"",""0""
""focus"",""1"",""2035""
""blur"",""4"",""8695""
""focus"",""4"",""9881""
""fullscreenenter"",""5"",""13328""
","""event"",""trial"",""time""
""blur"",""0"",""0""
""blur"",""4"",""8695""
","""event"",""trial"",""time""
""focus"",""0"",""0""
""focus"",""1"",""2035""
""focus"",""4"",""9881""
","""event"",""trial"",""time""
""fullscreenenter"",""5"",""13328""
","
","","","","","","","","","","","","","","","","","","","","","",""
"d3-instructions","59","221783","0.0-59.0","1801","2930","23","Male","false","true","true","true","""event"",""trial"",""time""
""focus"",""0"",""0""
""blur"",""0"",""0""
""focus"",""1"",""2035""
""blur"",""4"",""8695""
""focus"",""4"",""9881""
""fullscreenenter"",""5"",""13328""
","""event"",""trial"",""time""
""blur"",""0"",""0""
""blur"",""4"",""8695""
","""event"",""trial"",""time""
""focus"",""0"",""0""
""focus"",""1"",""2035""
""focus"",""4"",""9881""
","""event"",""trial"",""time""
""fullscreenenter"",""5"",""13328""
","
","","","","","","","","","","","","","","","","","","","","","",""
"d3-instructions","60","222614","0.0-60.0","1801","2930","23","Male","false","true","true","true","""event"",""trial"",""time""
""focus"",""0"",""0""
""blur"",""0"",""0""
""focus"",""1"",""2035""
""blur"",""4"",""8695""
""focus"",""4"",""9881""
""fullscreenenter"",""5"",""13328""
","""event"",""trial"",""time""
""blur"",""0"",""0""
""blur"",""4"",""8695""
","""event"",""trial"",""time""
""focus"",""0"",""0""
""focus"",""1"",""2035""
""focus"",""4"",""9881""
","""event"",""trial"",""time""
""fullscreenenter"",""5"",""13328""
","
","","","","","","","","","","","","","","","","","","","","","",""
"d3-animate-choice","61","225260","0.0-61.0-0.0","1801","2930","23","Male","false","true","true","true","""event"",""trial"",""time""
""focus"",""0"",""0""
""blur"",""0"",""0""
""focus"",""1"",""2035""
""blur"",""4"",""8695""
""focus"",""4"",""9881""
""fullscreenenter"",""5"",""13328""
","""event"",""trial"",""time""
""blur"",""0"",""0""
""blur"",""4"",""8695""
","""event"",""trial"",""time""
""focus"",""0"",""0""
""focus"",""1"",""2035""
""focus"",""4"",""9881""
","""event"",""trial"",""time""
""fullscreenenter"",""5"",""13328""
","
","639","","49","","","3000","1","","","images/earth.jpg","images/tutrocket1","images/tutrocket2","null","images/tutrocket2","","1","practice","null","1","","",""
"d3-animate-choice","62","228473","0.0-61.0-1.0","1801","2930","23","Male","false","true","true","true","""event"",""trial"",""time""
""focus"",""0"",""0""
""blur"",""0"",""0""
""focus"",""1"",""2035""
""blur"",""4"",""8695""
""focus"",""4"",""9881""
""fullscreenenter"",""5"",""13328""
","""event"",""trial"",""time""
""blur"",""0"",""0""
""blur"",""4"",""8695""
","""event"",""trial"",""time""
""focus"",""0"",""0""
""focus"",""1"",""2035""
""focus"",""4"",""9881""
","""event"",""trial"",""time""
""fullscreenenter"",""5"",""13328""
","
","1209","","49","","","3000","1","","","images/tutyellowplanet.jpg","images/tutalien4","images/tutalien3","images/tutrocket2","images/tutalien3","images/nothing.png","2","practice","true","1","common","0","2022-09-16 21:00:49.629"
"two-step-fixation","63","229487","0.0-61.0-2.0","1801","2930","23","Male","false","true","true","true","""event"",""trial"",""time""
""focus"",""0"",""0""
""blur"",""0"",""0""
""focus"",""1"",""2035""
""blur"",""4"",""8695""
""focus"",""4"",""9881""
""fullscreenenter"",""5"",""13328""
","""event"",""trial"",""time""
""blur"",""0"",""0""
""blur"",""4"",""8695""
","""event"",""trial"",""time""
""focus"",""0"",""0""
""focus"",""1"",""2035""
""focus"",""4"",""9881""
","""event"",""trial"",""time""
""fullscreenenter"",""5"",""13328""
","
","","images/earth.jpg","","","","","","","","","","","","","","fixation","","","","","",""
"d3-animate-choice","64","232536","0.0-61.0-0.1","1801","2930","23","Male","false","true","true","true","""event"",""trial"",""time""
""focus"",""0"",""0""
""blur"",""0"",""0""
""focus"",""1"",""2035""
""blur"",""4"",""8695""
""focus"",""4"",""9881""
""fullscreenenter"",""5"",""13328""
","""event"",""trial"",""time""
""blur"",""0"",""0""
""blur"",""4"",""8695""
","""event"",""trial"",""time""
""focus"",""0"",""0""
""focus"",""1"",""2035""
""focus"",""4"",""9881""
","""event"",""trial"",""time""
""fullscreenenter"",""5"",""13328""
","
","1029","","48","","","3000","1","","","images/earth.jpg","images/tutrocket1","images/tutrocket2","null","images/tutrocket1","","1","practice","null","2","","",""
"d3-animate-choice","65","236249","0.0-61.0-1.1","1801","2930","23","Male","false","true","true","true","""event"",""trial"",""time""
""focus"",""0"",""0""
""blur"",""0"",""0""
""focus"",""1"",""2035""
""blur"",""4"",""8695""
""focus"",""4"",""9881""
""fullscreenenter"",""5"",""13328""
","""event"",""trial"",""time""
""blur"",""0"",""0""
""blur"",""4"",""8695""
","""event"",""trial"",""time""
""focus"",""0"",""0""
""focus"",""1"",""2035""
""focus"",""4"",""9881""
","""event"",""trial"",""time""
""fullscreenenter"",""5"",""13328""
","
","1373","","50","","","3000","1","1709","48","images/tutyellowplanet.jpg","images/tutalien4","images/tutalien3","images/tutrocket1","images/tutalien4","images/nothing.png","2","practice","false","","rare","0","2022-09-16 21:00:57.405"
"two-step-fixation","66","237265","0.0-61.0-2.1","1801","2930","23","Male","false","true","true","true","""event"",""trial"",""time""
""focus"",""0"",""0""
""blur"",""0"",""0""
""focus"",""1"",""2035""
""blur"",""4"",""8695""
""focus"",""4"",""9881""
""fullscreenenter"",""5"",""13328""
","""event"",""trial"",""time""
""blur"",""0"",""0""
""blur"",""4"",""8695""
","""event"",""trial"",""time""
""focus"",""0"",""0""
""focus"",""1"",""2035""
""focus"",""4"",""9881""
","""event"",""trial"",""time""
""fullscreenenter"",""5"",""13328""
","
","","images/earth.jpg","","","","","","","","","","","","","","fixation","","","","","",""
"d3-animate-choice","67","239596","0.0-61.0-0.2","1801","2930","23","Male","false","true","true","true","""event"",""trial"",""time""
""focus"",""0"",""0""
""blur"",""0"",""0""
""focus"",""1"",""2035""
""blur"",""4"",""8695""
""focus"",""4"",""9881""
""fullscreenenter"",""5"",""13328""
","""event"",""trial"",""time""
""blur"",""0"",""0""
""blur"",""4"",""8695""
","""event"",""trial"",""time""
""focus"",""0"",""0""
""focus"",""1"",""2035""
""focus"",""4"",""9881""
","""event"",""trial"",""time""
""fullscreenenter"",""5"",""13328""
","
","325","","49","","","3000","1","","","images/earth.jpg","images/tutrocket1","images/tutrocket2","null","images/tutrocket2","","1","practice","null","1","","",""
"d3-animate-choice","68","242376","0.0-61.0-1.2","1801","2930","23","Male","false","true","true","true","""event"",""trial"",""time""
""focus"",""0"",""0""
""blur"",""0"",""0""
""focus"",""1"",""2035""
""blur"",""4"",""8695""
""focus"",""4"",""9881""
""fullscreenenter"",""5"",""13328""
","""event"",""trial"",""time""
""blur"",""0"",""0""
""blur"",""4"",""8695""
","""event"",""trial"",""time""
""focus"",""0"",""0""
""focus"",""1"",""2035""
""focus"",""4"",""9881""
","""event"",""trial"",""time""
""fullscreenenter"",""5"",""13328""
","
","777","","49","","","3000","1","","","images/tutyellowplanet.jpg","images/tutalien4","images/tutalien3","images/tutrocket2","images/tutalien3","images/nothing.png","2","practice","true","1","common","0","2022-09-16 21:01:03.532"
"two-step-fixation","69","243378","0.0-61.0-2.2","1801","2930","23","Male","false","true","true","true","""event"",""trial"",""time""
""focus"",""0"",""0""
""blur"",""0"",""0""
""focus"",""1"",""2035""
""blur"",""4"",""8695""
""focus"",""4"",""9881""
""fullscreenenter"",""5"",""13328""
","""event"",""trial"",""time""
""blur"",""0"",""0""
""blur"",""4"",""8695""
","""event"",""trial"",""time""
""focus"",""0"",""0""
""focus"",""1"",""2035""
""focus"",""4"",""9881""
","""event"",""trial"",""time""
""fullscreenenter"",""5"",""13328""
","
","","images/earth.jpg","","","","","","","","","","","","","","fixation","","","","","",""
"d3-animate-choice","70","245640","0.0-61.0-0.3","1801","2930","23","Male","false","true","true","true","""event"",""trial"",""time""
""focus"",""0"",""0""
""blur"",""0"",""0""
""focus"",""1"",""2035""
""blur"",""4"",""8695""
""focus"",""4"",""9881""
""fullscreenenter"",""5"",""13328""
","""event"",""trial"",""time""
""blur"",""0"",""0""
""blur"",""4"",""8695""
","""event"",""trial"",""time""
""focus"",""0"",""0""
""focus"",""1"",""2035""
""focus"",""4"",""9881""
","""event"",""trial"",""time""
""fullscreenenter"",""5"",""13328""
","
","242","","49","","","3000","1","","","images/earth.jpg","images/tutrocket1","images/tutrocket2","null","images/tutrocket2","","1","practice","null","1","","",""
"d3-animate-choice","71","248507","0.0-61.0-1.3","1801","2930","23","Male","false","true","true","true","""event"",""trial"",""time""
""focus"",""0"",""0""
""blur"",""0"",""0""
""focus"",""1"",""2035""
""blur"",""4"",""8695""
""focus"",""4"",""9881""
""fullscreenenter"",""5"",""13328""
","""event"",""trial"",""time""
""blur"",""0"",""0""
""blur"",""4"",""8695""
","""event"",""trial"",""time""
""focus"",""0"",""0""
""focus"",""1"",""2035""
""focus"",""4"",""9881""
","""event"",""trial"",""time""
""fullscreenenter"",""5"",""13328""
","
","860","","49","","","3000","1","","","images/tutgreenplanet.jpg","images/tutalien2","images/tutalien1","images/tutrocket2","images/tutalien1","images/nothing.png","2","practice","false","1","rare","0","2022-09-16 21:01:09.663"
"two-step-fixation","72","249521","0.0-61.0-2.3","1801","2930","23","Male","false","true","true","true","""event"",""trial"",""time""
""focus"",""0"",""0""
""blur"",""0"",""0""
""focus"",""1"",""2035""
""blur"",""4"",""8695""
""focus"",""4"",""9881""
""fullscreenenter"",""5"",""13328""
","""event"",""trial"",""time""
""blur"",""0"",""0""
""blur"",""4"",""8695""
","""event"",""trial"",""time""
""focus"",""0"",""0""
""focus"",""1"",""2035""
""focus"",""4"",""9881""
","""event"",""trial"",""time""
""fullscreenenter"",""5"",""13328""
","
","","images/earth.jpg","","","","","","","","","","","","","","fixation","","","","","",""
"d3-animate-choice","73","251777","0.0-61.0-0.4","1801","2930","23","Male","false","true","true","true","""event"",""trial"",""time""
""focus"",""0"",""0""
""blur"",""0"",""0""
""focus"",""1"",""2035""
""blur"",""4"",""8695""
""focus"",""4"",""9881""
""fullscreenenter"",""5"",""13328""
","""event"",""trial"",""time""
""blur"",""0"",""0""
""blur"",""4"",""8695""
","""event"",""trial"",""time""
""focus"",""0"",""0""
""focus"",""1"",""2035""
""focus"",""4"",""9881""
","""event"",""trial"",""time""
""fullscreenenter"",""5"",""13328""
","
","243","","49","","","3000","1","","","images/earth.jpg","images/tutrocket1","images/tutrocket2","null","images/tutrocket2","","1","practice","null","1","","",""
"d3-animate-choice","74","254315","0.0-61.0-1.4","1801","2930","23","Male","false","true","true","true","""event"",""trial"",""time""
""focus"",""0"",""0""
""blur"",""0"",""0""
""focus"",""1"",""2035""
""blur"",""4"",""8695""
""focus"",""4"",""9881""
""fullscreenenter"",""5"",""13328""
","""event"",""trial"",""time""
""blur"",""0"",""0""
""blur"",""4"",""8695""
","""event"",""trial"",""time""
""focus"",""0"",""0""
""focus"",""1"",""2035""
""focus"",""4"",""9881""
","""event"",""trial"",""time""
""fullscreenenter"",""5"",""13328""
","
","533","","48","","","3000","1","","","images/tutyellowplanet.jpg","images/tutalien4","images/tutalien3","images/tutrocket2","images/tutalien4","images/t.png","2","practice","true","2","common","1","2022-09-16 21:01:15.471"
"two-step-fixation","75","255331","0.0-61.0-2.4","1801","2930","23","Male","false","true","true","true","""event"",""trial"",""time""
""focus"",""0"",""0""
""blur"",""0"",""0""
""focus"",""1"",""2035""
""blur"",""4"",""8695""
""focus"",""4"",""9881""
""fullscreenenter"",""5"",""13328""
","""event"",""trial"",""time""
""blur"",""0"",""0""
""blur"",""4"",""8695""
","""event"",""trial"",""time""
""focus"",""0"",""0""
""focus"",""1"",""2035""
""focus"",""4"",""9881""
","""event"",""trial"",""time""
""fullscreenenter"",""5"",""13328""
","
","","images/earth.jpg","","","","","","","","","","","","","","fixation","","","","","",""
"d3-animate-choice","76","257657","0.0-61.0-0.5","1801","2930","23","Male","false","true","true","true","""event"",""trial"",""time""
""focus"",""0"",""0""
""blur"",""0"",""0""
""focus"",""1"",""2035""
""blur"",""4"",""8695""
""focus"",""4"",""9881""
""fullscreenenter"",""5"",""13328""
","""event"",""trial"",""time""
""blur"",""0"",""0""
""blur"",""4"",""8695""
","""event"",""trial"",""time""
""focus"",""0"",""0""
""focus"",""1"",""2035""
""focus"",""4"",""9881""
","""event"",""trial"",""time""
""fullscreenenter"",""5"",""13328""
","
","307","","49","","","3000","1","","","images/earth.jpg","images/tutrocket1","images/tutrocket2","null","images/tutrocket2","","1","practice","null","1","","",""
"d3-animate-choice","77","260143","0.0-61.0-1.5","1801","2930","23","Male","false","true","true","true","""event"",""trial"",""time""
""focus"",""0"",""0""
""blur"",""0"",""0""
""focus"",""1"",""2035""
""blur"",""4"",""8695""
""focus"",""4"",""9881""
""fullscreenenter"",""5"",""13328""
","""event"",""trial"",""time""
""blur"",""0"",""0""
""blur"",""4"",""8695""
","""event"",""trial"",""time""
""focus"",""0"",""0""
""focus"",""1"",""2035""
""focus"",""4"",""9881""
","""event"",""trial"",""time""
""fullscreenenter"",""5"",""13328""
","
","476","","48","","","3000","1","","","images/tutyellowplanet.jpg","images/tutalien4","images/tutalien3","images/tutrocket2","images/tutalien4","images/nothing.png","2","practice","true","2","common","0","2022-09-16 21:01:21.299"
"two-step-fixation","78","261156","0.0-61.0-2.5","1801","2930","23","Male","false","true","true","true","""event"",""trial"",""time""
""focus"",""0"",""0""
""blur"",""0"",""0""
""focus"",""1"",""2035""
""blur"",""4"",""8695""
""focus"",""4"",""9881""
""fullscreenenter"",""5"",""13328""
","""event"",""trial"",""time""
""blur"",""0"",""0""
""blur"",""4"",""8695""
","""event"",""trial"",""time""
""focus"",""0"",""0""
""focus"",""1"",""2035""
""focus"",""4"",""9881""
","""event"",""trial"",""time""
""fullscreenenter"",""5"",""13328""
","
","","images/earth.jpg","","","","","","","","","","","","","","fixation","","","","","",""
"d3-animate-choice","79","263456","0.0-61.0-0.6","1801","2930","23","Male","false","true","true","true","""event"",""trial"",""time""
""focus"",""0"",""0""
""blur"",""0"",""0""
""focus"",""1"",""2035""
""blur"",""4"",""8695""
""focus"",""4"",""9881""
""fullscreenenter"",""5"",""13328""
","""event"",""trial"",""time""
""blur"",""0"",""0""
""blur"",""4"",""8695""
","""event"",""trial"",""time""
""focus"",""0"",""0""
""focus"",""1"",""2035""
""focus"",""4"",""9881""
","""event"",""trial"",""time""
""fullscreenenter"",""5"",""13328""
","
","287","","49","","","3000","1","","","images/earth.jpg","images/tutrocket1","images/tutrocket2","null","images/tutrocket2","","1","practice","null","1","","",""
"d3-animate-choice","80","265705","0.0-61.0-1.6","1801","2930","23","Male","false","true","true","true","""event"",""trial"",""time""
""focus"",""0"",""0""
""blur"",""0"",""0""
""focus"",""1"",""2035""
""blur"",""4"",""8695""
""focus"",""4"",""9881""
""fullscreenenter"",""5"",""13328""
","""event"",""trial"",""time""
""blur"",""0"",""0""
""blur"",""4"",""8695""
","""event"",""trial"",""time""
""focus"",""0"",""0""
""focus"",""1"",""2035""
""focus"",""4"",""9881""
","""event"",""trial"",""time""
""fullscreenenter"",""5"",""13328""
","
","245","","48","","","3000","1","","","images/tutyellowplanet.jpg","images/tutalien4","images/tutalien3","images/tutrocket2","images/tutalien4","images/nothing.png","2","practice","true","2","common","0","2022-09-16 21:01:26.861"
"two-step-fixation","81","266721","0.0-61.0-2.6","1801","2930","23","Male","false","true","true","true","""event"",""trial"",""time""
""focus"",""0"",""0""
""blur"",""0"",""0""
""focus"",""1"",""2035""
""blur"",""4"",""8695""
""focus"",""4"",""9881""
""fullscreenenter"",""5"",""13328""
","""event"",""trial"",""time""
""blur"",""0"",""0""
""blur"",""4"",""8695""
","""event"",""trial"",""time""
""focus"",""0"",""0""
""focus"",""1"",""2035""
""focus"",""4"",""9881""
","""event"",""trial"",""time""
""fullscreenenter"",""5"",""13328""
","
","","images/earth.jpg","","","","","","","","","","","","","","fixation","","","","","",""
"d3-animate-choice","82","268767","0.0-61.0-0.7","1801","2930","23","Male","false","true","true","true","""event"",""trial"",""time""
""focus"",""0"",""0""
""blur"",""0"",""0""
""focus"",""1"",""2035""
""blur"",""4"",""8695""
""focus"",""4"",""9881""
""fullscreenenter"",""5"",""13328""
","""event"",""trial"",""time""
""blur"",""0"",""0""
""blur"",""4"",""8695""
","""event"",""trial"",""time""
""focus"",""0"",""0""
""focus"",""1"",""2035""
""focus"",""4"",""9881""
","""event"",""trial"",""time""
""fullscreenenter"",""5"",""13328""
","
","36","","49","","","3000","1","","","images/earth.jpg","images/tutrocket1","images/tutrocket2","null","images/tutrocket2","","1","practice","null","1","","",""
"d3-animate-choice","83","270999","0.0-61.0-1.7","1801","2930","23","Male","false","true","true","true","""event"",""trial"",""time""
""focus"",""0"",""0""
""blur"",""0"",""0""
""focus"",""1"",""2035""
""blur"",""4"",""8695""
""focus"",""4"",""9881""
""fullscreenenter"",""5"",""13328""
","""event"",""trial"",""time""
""blur"",""0"",""0""
""blur"",""4"",""8695""
","""event"",""trial"",""time""
""focus"",""0"",""0""
""focus"",""1"",""2035""
""focus"",""4"",""9881""
","""event"",""trial"",""time""
""fullscreenenter"",""5"",""13328""
","
","229","","49","","","3000","1","","","images/tutyellowplanet.jpg","images/tutalien4","images/tutalien3","images/tutrocket2","images/tutalien3","images/nothing.png","2","practice","true","1","common","0","2022-09-16 21:01:32.155"
"two-step-fixation","84","272015","0.0-61.0-2.7","1801","2930","23","Male","false","true","true","true","""event"",""trial"",""time""
""focus"",""0"",""0""
""blur"",""0"",""0""
""focus"",""1"",""2035""
""blur"",""4"",""8695""
""focus"",""4"",""9881""
""fullscreenenter"",""5"",""13328""
","""event"",""trial"",""time""
""blur"",""0"",""0""
""blur"",""4"",""8695""
","""event"",""trial"",""time""
""focus"",""0"",""0""
""focus"",""1"",""2035""
""focus"",""4"",""9881""
","""event"",""trial"",""time""
""fullscreenenter"",""5"",""13328""
","
","","images/earth.jpg","","","","","","","","","","","","","","fixation","","","","","",""
"d3-animate-choice","85","274230","0.0-61.0-0.8","1801","2930","23","Male","false","true","true","true","""event"",""trial"",""time""
""focus"",""0"",""0""
""blur"",""0"",""0""
""focus"",""1"",""2035""
""blur"",""4"",""8695""
""focus"",""4"",""9881""
""fullscreenenter"",""5"",""13328""
","""event"",""trial"",""time""
""blur"",""0"",""0""
""blur"",""4"",""8695""
","""event"",""trial"",""time""
""focus"",""0"",""0""
""focus"",""1"",""2035""
""focus"",""4"",""9881""
","""event"",""trial"",""time""
""fullscreenenter"",""5"",""13328""
","
","198","","48","","","3000","1","","","images/earth.jpg","images/tutrocket1","images/tutrocket2","null","images/tutrocket1","","1","practice","null","2","","",""
"d3-animate-choice","86","276494","0.0-61.0-1.8","1801","2930","23","Male","false","true","true","true","""event"",""trial"",""time""
""focus"",""0"",""0""
""blur"",""0"",""0""
""focus"",""1"",""2035""
""blur"",""4"",""8695""
""focus"",""4"",""9881""
""fullscreenenter"",""5"",""13328""
","""event"",""trial"",""time""
""blur"",""0"",""0""
""blur"",""4"",""8695""
","""event"",""trial"",""time""
""focus"",""0"",""0""
""focus"",""1"",""2035""
""focus"",""4"",""9881""
","""event"",""trial"",""time""
""fullscreenenter"",""5"",""13328""
","
","255","","48","","","3000","1","","","images/tutyellowplanet.jpg","images/tutalien4","images/tutalien3","images/tutrocket1","images/tutalien4","images/nothing.png","2","practice","false","2","rare","0","2022-09-16 21:01:37.651"
"two-step-fixation","87","277509","0.0-61.0-2.8","1801","2930","23","Male","false","true","true","true","""event"",""trial"",""time""
""focus"",""0"",""0""
""blur"",""0"",""0""
""focus"",""1"",""2035""
""blur"",""4"",""8695""
""focus"",""4"",""9881""
""fullscreenenter"",""5"",""13328""
","""event"",""trial"",""time""
""blur"",""0"",""0""
""blur"",""4"",""8695""
","""event"",""trial"",""time""
""focus"",""0"",""0""
""focus"",""1"",""2035""
""focus"",""4"",""9881""
","""event"",""trial"",""time""
""fullscreenenter"",""5"",""13328""
","
","","images/earth.jpg","","","","","","","","","","","","","","fixation","","","","","",""
"d3-animate-choice","88","279857","0.0-61.0-0.9","1801","2930","23","Male","false","true","true","true","""event"",""trial"",""time""
""focus"",""0"",""0""
""blur"",""0"",""0""
""focus"",""1"",""2035""
""blur"",""4"",""8695""
""focus"",""4"",""9881""
""fullscreenenter"",""5"",""13328""
","""event"",""trial"",""time""
""blur"",""0"",""0""
""blur"",""4"",""8695""
","""event"",""trial"",""time""
""focus"",""0"",""0""
""focus"",""1"",""2035""
""focus"",""4"",""9881""
","""event"",""trial"",""time""
""fullscreenenter"",""5"",""13328""
","
","335","","48","","","3000","1","2319","49","images/earth.jpg","images/tutrocket1","images/tutrocket2","null","images/tutrocket1","","1","practice","null","2","","",""
"d3-animate-choice","89","282117","0.0-61.0-1.9","1801","2930","23","Male","false","true","true","true","""event"",""trial"",""time""
""focus"",""0"",""0""
""blur"",""0"",""0""
""focus"",""1"",""2035""
""blur"",""4"",""8695""
""focus"",""4"",""9881""
""fullscreenenter"",""5"",""13328""
","""event"",""trial"",""time""
""blur"",""0"",""0""
""blur"",""4"",""8695""
","""event"",""trial"",""time""
""focus"",""0"",""0""
""focus"",""1"",""2035""
""focus"",""4"",""9881""
","""event"",""trial"",""time""
""fullscreenenter"",""5"",""13328""
","
","242","","49","","","3000","1","546","49","images/tutgreenplanet.jpg","images/tutalien2","images/tutalien1","images/tutrocket1","images/tutalien1","images/nothing.png","2","practice","true","1","common","0","2022-09-16 21:01:43.273"
"two-step-fixation","90","283129","0.0-61.0-2.9","1801","2930","23","Male","false","true","true","true","""event"",""trial"",""time""
""focus"",""0"",""0""
""blur"",""0"",""0""
""focus"",""1"",""2035""
""blur"",""4"",""8695""
""focus"",""4"",""9881""
""fullscreenenter"",""5"",""13328""
","""event"",""trial"",""time""
""blur"",""0"",""0""
""blur"",""4"",""8695""
","""event"",""trial"",""time""
""focus"",""0"",""0""
""focus"",""1"",""2035""
""focus"",""4"",""9881""
","""event"",""trial"",""time""
""fullscreenenter"",""5"",""13328""
","
","","images/earth.jpg","","","","","","","","","","","","","","fixation","","","","","",""
"d3-animate-choice","91","285436","0.0-61.0-0.10","1801","2930","23","Male","false","true","true","true","""event"",""trial"",""time""
""focus"",""0"",""0""
""blur"",""0"",""0""
""focus"",""1"",""2035""
""blur"",""4"",""8695""
""focus"",""4"",""9881""
""fullscreenenter"",""5"",""13328""
","""event"",""trial"",""time""
""blur"",""0"",""0""
""blur"",""4"",""8695""
","""event"",""trial"",""time""
""focus"",""0"",""0""
""focus"",""1"",""2035""
""focus"",""4"",""9881""
","""event"",""trial"",""time""
""fullscreenenter"",""5"",""13328""
","
","300","","48","","","3000","1","","","images/earth.jpg","images/tutrocket1","images/tutrocket2","null","images/tutrocket1","","1","practice","null","2","","",""
"d3-animate-choice","92","287848","0.0-61.0-1.10","1801","2930","23","Male","false","true","true","true","""event"",""trial"",""time""
""focus"",""0"",""0""
""blur"",""0"",""0""
""focus"",""1"",""2035""
""blur"",""4"",""8695""
""focus"",""4"",""9881""
""fullscreenenter"",""5"",""13328""
","""event"",""trial"",""time""
""blur"",""0"",""0""
""blur"",""4"",""8695""
","""event"",""trial"",""time""
""focus"",""0"",""0""
""focus"",""1"",""2035""
""focus"",""4"",""9881""
","""event"",""trial"",""time""
""fullscreenenter"",""5"",""13328""
","
","408","","49","","","3000","1","","","images/tutyellowplanet.jpg","images/tutalien4","images/tutalien3","images/tutrocket1","images/tutalien3","images/nothing.png","2","practice","false","1","rare","0","2022-09-16 21:01:49.004"
"two-step-fixation","93","288867","0.0-61.0-2.10","1801","2930","23","Male","false","true","true","true","""event"",""trial"",""time""
""focus"",""0"",""0""
""blur"",""0"",""0""
""focus"",""1"",""2035""
""blur"",""4"",""8695""
""focus"",""4"",""9881""
""fullscreenenter"",""5"",""13328""
","""event"",""trial"",""time""
""blur"",""0"",""0""
""blur"",""4"",""8695""
","""event"",""trial"",""time""
""focus"",""0"",""0""
""focus"",""1"",""2035""
""focus"",""4"",""9881""
","""event"",""trial"",""time""
""fullscreenenter"",""5"",""13328""
","
","","images/earth.jpg","","","","","","","","","","","","","","fixation","","","","","",""
"d3-animate-choice","94","291277","0.0-61.0-0.11","1801","2930","23","Male","false","true","true","true","""event"",""trial"",""time""
""focus"",""0"",""0""
""blur"",""0"",""0""
""focus"",""1"",""2035""
""blur"",""4"",""8695""
""focus"",""4"",""9881""
""fullscreenenter"",""5"",""13328""
","""event"",""trial"",""time""
""blur"",""0"",""0""
""blur"",""4"",""8695""
","""event"",""trial"",""time""
""focus"",""0"",""0""
""focus"",""1"",""2035""
""focus"",""4"",""9881""
","""event"",""trial"",""time""
""fullscreenenter"",""5"",""13328""
","
","401","","48","","","3000","1","","","images/earth.jpg","images/tutrocket1","images/tutrocket2","null","images/tutrocket1","","1","practice","null","2","","",""
"d3-animate-choice","95","293537","0.0-61.0-1.11","1801","2930","23","Male","false","true","true","true","""event"",""trial"",""time""
""focus"",""0"",""0""
""blur"",""0"",""0""
""focus"",""1"",""2035""
""blur"",""4"",""8695""
""focus"",""4"",""9881""
""fullscreenenter"",""5"",""13328""
","""event"",""trial"",""time""
""blur"",""0"",""0""
""blur"",""4"",""8695""
","""event"",""trial"",""time""
""focus"",""0"",""0""
""focus"",""1"",""2035""
""focus"",""4"",""9881""
","""event"",""trial"",""time""
""fullscreenenter"",""5"",""13328""
","
","249","","49","","","3000","1","","","images/tutgreenplanet.jpg","images/tutalien2","images/tutalien1","images/tutrocket1","images/tutalien1","images/nothing.png","2","practice","true","1","common","0","2022-09-16 21:01:54.693"
"two-step-fixation","96","294544","0.0-61.0-2.11","1801","2930","23","Male","false","true","true","true","""event"",""trial"",""time""
""focus"",""0"",""0""
""blur"",""0"",""0""
""focus"",""1"",""2035""
""blur"",""4"",""8695""
""focus"",""4"",""9881""
""fullscreenenter"",""5"",""13328""
","""event"",""trial"",""time""
""blur"",""0"",""0""
""blur"",""4"",""8695""
","""event"",""trial"",""time""
""focus"",""0"",""0""
""focus"",""1"",""2035""
""focus"",""4"",""9881""
","""event"",""trial"",""time""
""fullscreenenter"",""5"",""13328""
","
","","images/earth.jpg","","","","","","","","","","","","","","fixation","","","","","",""
"d3-animate-choice","97","296707","0.0-61.0-0.12","1801","2930","23","Male","false","true","true","true","""event"",""trial"",""time""
""focus"",""0"",""0""
""blur"",""0"",""0""
""focus"",""1"",""2035""
""blur"",""4"",""8695""
""focus"",""4"",""9881""
""fullscreenenter"",""5"",""13328""
","""event"",""trial"",""time""
""blur"",""0"",""0""
""blur"",""4"",""8695""
","""event"",""trial"",""time""
""focus"",""0"",""0""
""focus"",""1"",""2035""
""focus"",""4"",""9881""
","""event"",""trial"",""time""
""fullscreenenter"",""5"",""13328""
","
","149","","48","","","3000","1","340","48","images/earth.jpg","images/tutrocket1","images/tutrocket2","null","images/tutrocket1","","1","practice","null","2","","",""
"d3-animate-choice","98","299089","0.0-61.0-1.12","1801","2930","23","Male","false","true","true","true","""event"",""trial"",""time""
""focus"",""0"",""0""
""blur"",""0"",""0""
""focus"",""1"",""2035""
""blur"",""4"",""8695""
""focus"",""4"",""9881""
""fullscreenenter"",""5"",""13328""
","""event"",""trial"",""time""
""blur"",""0"",""0""
""blur"",""4"",""8695""
","""event"",""trial"",""time""
""focus"",""0"",""0""
""focus"",""1"",""2035""
""focus"",""4"",""9881""
","""event"",""trial"",""time""
""fullscreenenter"",""5"",""13328""
","
","368","","48","","","3000","1","","","images/tutgreenplanet.jpg","images/tutalien2","images/tutalien1","images/tutrocket1","images/tutalien2","images/nothing.png","2","practice","true","2","common","0","2022-09-16 21:02:00.245"
"two-step-fixation","99","300105","0.0-61.0-2.12","1801","2930","23","Male","false","true","true","true","""event"",""trial"",""time""
""focus"",""0"",""0""
""blur"",""0"",""0""
""focus"",""1"",""2035""
""blur"",""4"",""8695""
""focus"",""4"",""9881""
""fullscreenenter"",""5"",""13328""
","""event"",""trial"",""time""
""blur"",""0"",""0""
""blur"",""4"",""8695""
","""event"",""trial"",""time""
""focus"",""0"",""0""
""focus"",""1"",""2035""
""focus"",""4"",""9881""
","""event"",""trial"",""time""
""fullscreenenter"",""5"",""13328""
","
","","images/earth.jpg","","","","","","","","","","","","","","fixation","","","","","",""
"d3-animate-choice","100","302417","0.0-61.0-0.13","1801","2930","23","Male","false","true","true","true","""event"",""trial"",""time""
""focus"",""0"",""0""
""blur"",""0"",""0""
""focus"",""1"",""2035""
""blur"",""4"",""8695""
""focus"",""4"",""9881""
""fullscreenenter"",""5"",""13328""
","""event"",""trial"",""time""
""blur"",""0"",""0""
""blur"",""4"",""8695""
","""event"",""trial"",""time""
""focus"",""0"",""0""
""focus"",""1"",""2035""
""focus"",""4"",""9881""
","""event"",""trial"",""time""
""fullscreenenter"",""5"",""13328""
","
","300","","48","","","3000","1","","","images/earth.jpg","images/tutrocket1","images/tutrocket2","null","images/tutrocket1","","1","practice","null","2","","",""
"d3-animate-choice","101","304567","0.0-61.0-1.13","1801","2930","23","Male","false","true","true","true","""event"",""trial"",""time""
""focus"",""0"",""0""
""blur"",""0"",""0""
""focus"",""1"",""2035""
""blur"",""4"",""8695""
""focus"",""4"",""9881""
""fullscreenenter"",""5"",""13328""
","""event"",""trial"",""time""
""blur"",""0"",""0""
""blur"",""4"",""8695""
","""event"",""trial"",""time""
""focus"",""0"",""0""
""focus"",""1"",""2035""
""focus"",""4"",""9881""
","""event"",""trial"",""time""
""fullscreenenter"",""5"",""13328""
","
","133","","48","","","3000","1","","","images/tutyellowplanet.jpg","images/tutalien4","images/tutalien3","images/tutrocket1","images/tutalien4","images/t.png","2","practice","false","2","rare","1","2022-09-16 21:02:05.723"
"two-step-fixation","102","305575","0.0-61.0-2.13","1801","2930","23","Male","false","true","true","true","""event"",""trial"",""time""
""focus"",""0"",""0""
""blur"",""0"",""0""
""focus"",""1"",""2035""
""blur"",""4"",""8695""
""focus"",""4"",""9881""
""fullscreenenter"",""5"",""13328""
","""event"",""trial"",""time""
""blur"",""0"",""0""
""blur"",""4"",""8695""
","""event"",""trial"",""time""
""focus"",""0"",""0""
""focus"",""1"",""2035""
""focus"",""4"",""9881""
","""event"",""trial"",""time""
""fullscreenenter"",""5"",""13328""
","
","","images/earth.jpg","","","","","","","","","","","","","","fixation","","","","","",""
"d3-animate-choice","103","307864","0.0-61.0-0.14","1801","2930","23","Male","false","true","true","true","""event"",""trial"",""time""
""focus"",""0"",""0""
""blur"",""0"",""0""
""focus"",""1"",""2035""
""blur"",""4"",""8695""
""focus"",""4"",""9881""
""fullscreenenter"",""5"",""13328""
","""event"",""trial"",""time""
""blur"",""0"",""0""
""blur"",""4"",""8695""
","""event"",""trial"",""time""
""focus"",""0"",""0""
""focus"",""1"",""2035""
""focus"",""4"",""9881""
","""event"",""trial"",""time""
""fullscreenenter"",""5"",""13328""
","
","271","","48","","","3000","1","","","images/earth.jpg","images/tutrocket1","images/tutrocket2","null","images/tutrocket1","","1","practice","null","2","","",""
"d3-animate-choice","104","310279","0.0-61.0-1.14","1801","2930","23","Male","false","true","true","true","""event"",""trial"",""time""
""focus"",""0"",""0""
""blur"",""0"",""0""
""focus"",""1"",""2035""
""blur"",""4"",""8695""
""focus"",""4"",""9881""
""fullscreenenter"",""5"",""13328""
","""event"",""trial"",""time""
""blur"",""0"",""0""
""blur"",""4"",""8695""
","""event"",""trial"",""time""
""focus"",""0"",""0""
""focus"",""1"",""2035""
""focus"",""4"",""9881""
","""event"",""trial"",""time""
""fullscreenenter"",""5"",""13328""
","
","396","","49","","","3000","1","","","images/tutgreenplanet.jpg","images/tutalien2","images/tutalien1","images/tutrocket1","images/tutalien1","images/nothing.png","2","practice","true","1","common","0","2022-09-16 21:02:11.435"
"two-step-fixation","105","311295","0.0-61.0-2.14","1801","2930","23","Male","false","true","true","true","""event"",""trial"",""time""
""focus"",""0"",""0""
""blur"",""0"",""0""
""focus"",""1"",""2035""
""blur"",""4"",""8695""
""focus"",""4"",""9881""
""fullscreenenter"",""5"",""13328""
","""event"",""trial"",""time""
""blur"",""0"",""0""
""blur"",""4"",""8695""
","""event"",""trial"",""time""
""focus"",""0"",""0""
""focus"",""1"",""2035""
""focus"",""4"",""9881""
","""event"",""trial"",""time""
""fullscreenenter"",""5"",""13328""
","
","","images/earth.jpg","","","","","","","","","","","","","","fixation","","","","","",""
"d3-animate-choice","106","313326","0.0-61.0-0.15","1801","2930","23","Male","false","true","true","true","""event"",""trial"",""time""
""focus"",""0"",""0""
""blur"",""0"",""0""
""focus"",""1"",""2035""
""blur"",""4"",""8695""
""focus"",""4"",""9881""
""fullscreenenter"",""5"",""13328""
","""event"",""trial"",""time""
""blur"",""0"",""0""
""blur"",""4"",""8695""
","""event"",""trial"",""time""
""focus"",""0"",""0""
""focus"",""1"",""2035""
""focus"",""4"",""9881""
","""event"",""trial"",""time""
""fullscreenenter"",""5"",""13328""
","
","22","","48","","","3000","1","182","48","images/earth.jpg","images/tutrocket1","images/tutrocket2","null","images/tutrocket1","","1","practice","null","2","","",""
"d3-animate-choice","107","316075","0.0-61.0-1.15","1801","2930","23","Male","false","true","true","true","""event"",""trial"",""time""
""focus"",""0"",""0""
""blur"",""0"",""0""
""focus"",""1"",""2035""
""blur"",""4"",""8695""
""focus"",""4"",""9881""
""fullscreenenter"",""5"",""13328""
","""event"",""trial"",""time""
""blur"",""0"",""0""
""blur"",""4"",""8695""
","""event"",""trial"",""time""
""focus"",""0"",""0""
""focus"",""1"",""2035""
""focus"",""4"",""9881""
","""event"",""trial"",""time""
""fullscreenenter"",""5"",""13328""
","
","742","","49","","","3000","1","","","images/tutgreenplanet.jpg","images/tutalien2","images/tutalien1","images/tutrocket1","images/tutalien1","images/nothing.png","2","practice","true","1","common","0","2022-09-16 21:02:17.231"
"two-step-fixation","108","317089","0.0-61.0-2.15","1801","2930","23","Male","false","true","true","true","""event"",""trial"",""time""
""focus"",""0"",""0""
""blur"",""0"",""0""
""focus"",""1"",""2035""
""blur"",""4"",""8695""
""focus"",""4"",""9881""
""fullscreenenter"",""5"",""13328""
","""event"",""trial"",""time""
""blur"",""0"",""0""
""blur"",""4"",""8695""
","""event"",""trial"",""time""
""focus"",""0"",""0""
""focus"",""1"",""2035""
""focus"",""4"",""9881""
","""event"",""trial"",""time""
""fullscreenenter"",""5"",""13328""
","
","","images/earth.jpg","","","","","","","","","","","","","","fixation","","","","","",""
"d3-animate-choice","109","319220","0.0-61.0-0.16","1801","2930","23","Male","false","true","true","true","""event"",""trial"",""time""
""focus"",""0"",""0""
""blur"",""0"",""0""
""focus"",""1"",""2035""
""blur"",""4"",""8695""
""focus"",""4"",""9881""
""fullscreenenter"",""5"",""13328""
","""event"",""trial"",""time""
""blur"",""0"",""0""
""blur"",""4"",""8695""
","""event"",""trial"",""time""
""focus"",""0"",""0""
""focus"",""1"",""2035""
""focus"",""4"",""9881""
","""event"",""trial"",""time""
""fullscreenenter"",""5"",""13328""
","
","116","","48","","","3000","1","","","images/earth.jpg","images/tutrocket1","images/tutrocket2","null","images/tutrocket1","","1","practice","null","2","","",""
"d3-animate-choice","110","321851","0.0-61.0-1.16","1801","2930","23","Male","false","true","true","true","""event"",""trial"",""time""
""focus"",""0"",""0""
""blur"",""0"",""0""
""focus"",""1"",""2035""
""blur"",""4"",""8695""
""focus"",""4"",""9881""
""fullscreenenter"",""5"",""13328""
","""event"",""trial"",""time""
""blur"",""0"",""0""
""blur"",""4"",""8695""
","""event"",""trial"",""time""
""focus"",""0"",""0""
""focus"",""1"",""2035""
""focus"",""4"",""9881""
","""event"",""trial"",""time""
""fullscreenenter"",""5"",""13328""
","
","624","","48","","","3000","1","","","images/tutgreenplanet.jpg","images/tutalien2","images/tutalien1","images/tutrocket1","images/tutalien2","images/nothing.png","2","practice","true","2","common","0","2022-09-16 21:02:23.007"
"two-step-fixation","111","322867","0.0-61.0-2.16","1801","2930","23","Male","false","true","true","true","""event"",""trial"",""time""
""focus"",""0"",""0""
""blur"",""0"",""0""
""focus"",""1"",""2035""
""blur"",""4"",""8695""
""focus"",""4"",""9881""
""fullscreenenter"",""5"",""13328""
","""event"",""trial"",""time""
""blur"",""0"",""0""
""blur"",""4"",""8695""
","""event"",""trial"",""time""
""focus"",""0"",""0""
""focus"",""1"",""2035""
""focus"",""4"",""9881""
","""event"",""trial"",""time""
""fullscreenenter"",""5"",""13328""
","
","","images/earth.jpg","","","","","","","","","","","","","","fixation","","","","","",""
"d3-animate-choice","112","325115","0.0-61.0-0.17","1801","2930","23","Male","false","true","true","true","""event"",""trial"",""time""
""focus"",""0"",""0""
""blur"",""0"",""0""
""focus"",""1"",""2035""
""blur"",""4"",""8695""
""focus"",""4"",""9881""
""fullscreenenter"",""5"",""13328""
","""event"",""trial"",""time""
""blur"",""0"",""0""
""blur"",""4"",""8695""
","""event"",""trial"",""time""
""focus"",""0"",""0""
""focus"",""1"",""2035""
""focus"",""4"",""9881""
","""event"",""trial"",""time""
""fullscreenenter"",""5"",""13328""
","
","241","","48","","","3000","1","","","images/earth.jpg","images/tutrocket1","images/tutrocket2","null","images/tutrocket1","","1","practice","null","2","","",""
"d3-animate-choice","113","327712","0.0-61.0-1.17","1801","2930","23","Male","false","true","true","true","""event"",""trial"",""time""
""focus"",""0"",""0""
""blur"",""0"",""0""
""focus"",""1"",""2035""
""blur"",""4"",""8695""
""focus"",""4"",""9881""
""fullscreenenter"",""5"",""13328""
","""event"",""trial"",""time""
""blur"",""0"",""0""
""blur"",""4"",""8695""
","""event"",""trial"",""time""
""focus"",""0"",""0""
""focus"",""1"",""2035""
""focus"",""4"",""9881""
","""event"",""trial"",""time""
""fullscreenenter"",""5"",""13328""
","
","585","","48","","","3000","1","","","images/tutgreenplanet.jpg","images/tutalien2","images/tutalien1","images/tutrocket1","images/tutalien2","images/t.png","2","practice","true","2","common","1","2022-09-16 21:02:28.868"
"two-step-fixation","114","328727","0.0-61.0-2.17","1801","2930","23","Male","false","true","true","true","""event"",""trial"",""time""
""focus"",""0"",""0""
""blur"",""0"",""0""
""focus"",""1"",""2035""
""blur"",""4"",""8695""
""focus"",""4"",""9881""
""fullscreenenter"",""5"",""13328""
","""event"",""trial"",""time""
""blur"",""0"",""0""
""blur"",""4"",""8695""
","""event"",""trial"",""time""
""focus"",""0"",""0""
""focus"",""1"",""2035""
""focus"",""4"",""9881""
","""event"",""trial"",""time""
""fullscreenenter"",""5"",""13328""
","
","","images/earth.jpg","","","","","","","","","","","","","","fixation","","","","","",""
"d3-animate-choice","115","330976","0.0-61.0-0.18","1801","2930","23","Male","false","true","true","true","""event"",""trial"",""time""
""focus"",""0"",""0""
""blur"",""0"",""0""
""focus"",""1"",""2035""
""blur"",""4"",""8695""
""focus"",""4"",""9881""
""fullscreenenter"",""5"",""13328""
","""event"",""trial"",""time""
""blur"",""0"",""0""
""blur"",""4"",""8695""
","""event"",""trial"",""time""
""focus"",""0"",""0""
""focus"",""1"",""2035""
""focus"",""4"",""9881""
","""event"",""trial"",""time""
""fullscreenenter"",""5"",""13328""
","
","238","","49","","","3000","1","","","images/earth.jpg","images/tutrocket1","images/tutrocket2","null","images/tutrocket2","","1","practice","null","1","","",""
"d3-animate-choice","116","333357","0.0-61.0-1.18","1801","2930","23","Male","false","true","true","true","""event"",""trial"",""time""
""focus"",""0"",""0""
""blur"",""0"",""0""
""focus"",""1"",""2035""
""blur"",""4"",""8695""
""focus"",""4"",""9881""
""fullscreenenter"",""5"",""13328""
","""event"",""trial"",""time""
""blur"",""0"",""0""
""blur"",""4"",""8695""
","""event"",""trial"",""time""
""focus"",""0"",""0""
""focus"",""1"",""2035""
""focus"",""4"",""9881""
","""event"",""trial"",""time""
""fullscreenenter"",""5"",""13328""
","
","373","","48","","","3000","1","","","images/tutyellowplanet.jpg","images/tutalien4","images/tutalien3","images/tutrocket2","images/tutalien4","images/t.png","2","practice","true","2","common","1","2022-09-16 21:02:34.513"
"two-step-fixation","117","334373","0.0-61.0-2.18","1801","2930","23","Male","false","true","true","true","""event"",""trial"",""time""
""focus"",""0"",""0""
""blur"",""0"",""0""
""focus"",""1"",""2035""
""blur"",""4"",""8695""
""focus"",""4"",""9881""
""fullscreenenter"",""5"",""13328""
","""event"",""trial"",""time""
""blur"",""0"",""0""
""blur"",""4"",""8695""
","""event"",""trial"",""time""
""focus"",""0"",""0""
""focus"",""1"",""2035""
""focus"",""4"",""9881""
","""event"",""trial"",""time""
""fullscreenenter"",""5"",""13328""
","
","","images/earth.jpg","","","","","","","","","","","","","","fixation","","","","","",""
"d3-animate-choice","118","336604","0.0-61.0-0.19","1801","2930","23","Male","false","true","true","true","""event"",""trial"",""time""
""focus"",""0"",""0""
""blur"",""0"",""0""
""focus"",""1"",""2035""
""blur"",""4"",""8695""
""focus"",""4"",""9881""
""fullscreenenter"",""5"",""13328""
","""event"",""trial"",""time""
""blur"",""0"",""0""
""blur"",""4"",""8695""
","""event"",""trial"",""time""
""focus"",""0"",""0""
""focus"",""1"",""2035""
""focus"",""4"",""9881""
","""event"",""trial"",""time""
""fullscreenenter"",""5"",""13328""
","
","224","","49","","","3000","1","","","images/earth.jpg","images/tutrocket1","images/tutrocket2","null","images/tutrocket2","","1","practice","null","1","","",""
"d3-animate-choice","119","338668","0.0-61.0-1.19","1801","2930","23","Male","false","true","true","true","""event"",""trial"",""time""
""focus"",""0"",""0""
""blur"",""0"",""0""
""focus"",""1"",""2035""
""blur"",""4"",""8695""
""focus"",""4"",""9881""
""fullscreenenter"",""5"",""13328""
","""event"",""trial"",""time""
""blur"",""0"",""0""
""blur"",""4"",""8695""
","""event"",""trial"",""time""
""focus"",""0"",""0""
""focus"",""1"",""2035""
""focus"",""4"",""9881""
","""event"",""trial"",""time""
""fullscreenenter"",""5"",""13328""
","
","57","","48","","","3000","1","248","48","images/tutgreenplanet.jpg","images/tutalien2","images/tutalien1","images/tutrocket2","images/tutalien2","images/nothing.png","2","practice","false","2","rare","0","2022-09-16 21:02:39.825"
"two-step-fixation","120","339684","0.0-61.0-2.19","1801","2930","23","Male","false","true","true","true","""event"",""trial"",""time""
""focus"",""0"",""0""
""blur"",""0"",""0""
""focus"",""1"",""2035""
""blur"",""4"",""8695""
""focus"",""4"",""9881""
""fullscreenenter"",""5"",""13328""
","""event"",""trial"",""time""
""blur"",""0"",""0""
""blur"",""4"",""8695""
","""event"",""trial"",""time""
""focus"",""0"",""0""
""focus"",""1"",""2035""
""focus"",""4"",""9881""
","""event"",""trial"",""time""
""fullscreenenter"",""5"",""13328""
","
","","images/earth.jpg","","","","","","","","","","","","","","fixation","","","","","",""
"d3-instructions","121","342055","0.0-62.0","1801","2930","23","Male","false","true","true","true","""event"",""trial"",""time""
""focus"",""0"",""0""
""blur"",""0"",""0""
""focus"",""1"",""2035""
""blur"",""4"",""8695""
""focus"",""4"",""9881""
""fullscreenenter"",""5"",""13328""
","""event"",""trial"",""time""
""blur"",""0"",""0""
""blur"",""4"",""8695""
","""event"",""trial"",""time""
""focus"",""0"",""0""
""focus"",""1"",""2035""
""focus"",""4"",""9881""
","""event"",""trial"",""time""
""fullscreenenter"",""5"",""13328""
","
","","","","","","","","","","","","","","","","","","","","","",""
"audio-keyboard-response","122","343462","0.0-63.0","1801","2930","23","Male","false","true","true","true","""event"",""trial"",""time""
""focus"",""0"",""0""
""blur"",""0"",""0""
""focus"",""1"",""2035""
""blur"",""4"",""8695""
""focus"",""4"",""9881""
""fullscreenenter"",""5"",""13328""
","""event"",""trial"",""time""
""blur"",""0"",""0""
""blur"",""4"",""8695""
","""event"",""trial"",""time""
""focus"",""0"",""0""
""focus"",""1"",""2035""
""focus"",""4"",""9881""
","""event"",""trial"",""time""
""fullscreenenter"",""5"",""13328""
","
","1411","audio/instructions/treasure_feedback.wav","32","","","","","","","","","","","","","","","","","","",""
"d3-instructions","123","346471","0.0-64.0","1801","2930","23","Male","false","true","true","true","""event"",""trial"",""time""
""focus"",""0"",""0""
""blur"",""0"",""0""
""focus"",""1"",""2035""
""blur"",""4"",""8695""
""focus"",""4"",""9881""
""fullscreenenter"",""5"",""13328""
","""event"",""trial"",""time""
""blur"",""0"",""0""
""blur"",""4"",""8695""
","""event"",""trial"",""time""
""focus"",""0"",""0""
""focus"",""1"",""2035""
""focus"",""4"",""9881""
","""event"",""trial"",""time""
""fullscreenenter"",""5"",""13328""
","
","","","","","","","","","","","","","","","","","","","","","",""
"d3-instructions","124","354839","0.0-65.0","1801","2930","23","Male","false","true","true","true","""event"",""trial"",""time""
""focus"",""0"",""0""
""blur"",""0"",""0""
""focus"",""1"",""2035""
""blur"",""4"",""8695""
""focus"",""4"",""9881""
""fullscreenenter"",""5"",""13328""
","""event"",""trial"",""time""
""blur"",""0"",""0""
""blur"",""4"",""8695""
","""event"",""trial"",""time""
""focus"",""0"",""0""
""focus"",""1"",""2035""
""focus"",""4"",""9881""
","""event"",""trial"",""time""
""fullscreenenter"",""5"",""13328""
","
","","","","","","","","","","","","","","","","","","","","","",""
"d3-instructions","125","366743","0.0-66.0","1801","2930","23","Male","false","true","true","true","""event"",""trial"",""time""
""focus"",""0"",""0""
""blur"",""0"",""0""
""focus"",""1"",""2035""
""blur"",""4"",""8695""
""focus"",""4"",""9881""
""fullscreenenter"",""5"",""13328""
","""event"",""trial"",""time""
""blur"",""0"",""0""
""blur"",""4"",""8695""
","""event"",""trial"",""time""
""focus"",""0"",""0""
""focus"",""1"",""2035""
""focus"",""4"",""9881""
","""event"",""trial"",""time""
""fullscreenenter"",""5"",""13328""
","
","","","","","","","","","","","","","","","","","","","","","",""
"d3-instructions","126","378919","0.0-67.0","1801","2930","23","Male","false","true","true","true","""event"",""trial"",""time""
""focus"",""0"",""0""
""blur"",""0"",""0""
""focus"",""1"",""2035""
""blur"",""4"",""8695""
""focus"",""4"",""9881""
""fullscreenenter"",""5"",""13328""
","""event"",""trial"",""time""
""blur"",""0"",""0""
""blur"",""4"",""8695""
","""event"",""trial"",""time""
""focus"",""0"",""0""
""focus"",""1"",""2035""
""focus"",""4"",""9881""
","""event"",""trial"",""time""
""fullscreenenter"",""5"",""13328""
","
","","","","","","","","","","","","","","","","","","","","","",""
"d3-instructions","127","381238","0.0-68.0","1801","2930","23","Male","false","true","true","true","""event"",""trial"",""time""
""focus"",""0"",""0""
""blur"",""0"",""0""
""focus"",""1"",""2035""
""blur"",""4"",""8695""
""focus"",""4"",""9881""
""fullscreenenter"",""5"",""13328""
","""event"",""trial"",""time""
""blur"",""0"",""0""
""blur"",""4"",""8695""
","""event"",""trial"",""time""
""focus"",""0"",""0""
""focus"",""1"",""2035""
""focus"",""4"",""9881""
","""event"",""trial"",""time""
""fullscreenenter"",""5"",""13328""
","
","","","","","","","","","","","","","","","","","","","","","",""
"instructions-quiz","128","384264","0.0-69.0","1801","2930","23","Male","false","true","true","true","""event"",""trial"",""time""
""focus"",""0"",""0""
""blur"",""0"",""0""
""focus"",""1"",""2035""
""blur"",""4"",""8695""
""focus"",""4"",""9881""
""fullscreenenter"",""5"",""13328""
","""event"",""trial"",""time""
""blur"",""0"",""0""
""blur"",""4"",""8695""
","""event"",""trial"",""time""
""focus"",""0"",""0""
""focus"",""1"",""2035""
""focus"",""4"",""9881""
","""event"",""trial"",""time""
""fullscreenenter"",""5"",""13328""
","
","3024","audio/quiz/Q1_Prompt.wav","","1","","","","","","","","","","","","","","","","","",""
"audio-keyboard-response","129","385160","0.0-70.0","1801","2930","23","Male","false","true","true","true","""event"",""trial"",""time""
""focus"",""0"",""0""
""blur"",""0"",""0""
""focus"",""1"",""2035""
""blur"",""4"",""8695""
""focus"",""4"",""9881""
""fullscreenenter"",""5"",""13328""
","""event"",""trial"",""time""
""blur"",""0"",""0""
""blur"",""4"",""8695""
","""event"",""trial"",""time""
""focus"",""0"",""0""
""focus"",""1"",""2035""
""focus"",""4"",""9881""
","""event"",""trial"",""time""
""fullscreenenter"",""5"",""13328""
","
","899","audio/quiz/Q1_Correct.wav","32","","","","","","","","","","","","","","","","","","",""
"instructions-quiz","130","388936","0.0-71.0","1801","2930","23","Male","false","true","true","true","""event"",""trial"",""time""
""focus"",""0"",""0""
""blur"",""0"",""0""
""focus"",""1"",""2035""
""blur"",""4"",""8695""
""focus"",""4"",""9881""
""fullscreenenter"",""5"",""13328""
","""event"",""trial"",""time""
""blur"",""0"",""0""
""blur"",""4"",""8695""
","""event"",""trial"",""time""
""focus"",""0"",""0""
""focus"",""1"",""2035""
""focus"",""4"",""9881""
","""event"",""trial"",""time""
""fullscreenenter"",""5"",""13328""
","
","3775","audio/quiz/Q2_Prompt.wav","","0","","","","","","","","","","","","","","","","","",""
"audio-keyboard-response","131","389575","0.0-72.0","1801","2930","23","Male","false","true","true","true","""event"",""trial"",""time""
""focus"",""0"",""0""
""blur"",""0"",""0""
""focus"",""1"",""2035""
""blur"",""4"",""8695""
""focus"",""4"",""9881""
""fullscreenenter"",""5"",""13328""
","""event"",""trial"",""time""
""blur"",""0"",""0""
""blur"",""4"",""8695""
","""event"",""trial"",""time""
""focus"",""0"",""0""
""focus"",""1"",""2035""
""focus"",""4"",""9881""
","""event"",""trial"",""time""
""fullscreenenter"",""5"",""13328""
","
","640","audio/quiz/Q2_Correct.wav","32","","","","","","","","","","","","","","","","","","",""
"instructions-quiz","132","391831","0.0-73.0","1801","2930","23","Male","false","true","true","true","""event"",""trial"",""time""
""focus"",""0"",""0""
""blur"",""0"",""0""
""focus"",""1"",""2035""
""blur"",""4"",""8695""
""focus"",""4"",""9881""
""fullscreenenter"",""5"",""13328""
","""event"",""trial"",""time""
""blur"",""0"",""0""
""blur"",""4"",""8695""
","""event"",""trial"",""time""
""focus"",""0"",""0""
""focus"",""1"",""2035""
""focus"",""4"",""9881""
","""event"",""trial"",""time""
""fullscreenenter"",""5"",""13328""
","
","2256","audio/quiz/Q3_Prompt.wav","","1","","","","","","","","","","","","","","","","","",""
"audio-keyboard-response","133","392022","0.0-74.0","1801","2930","23","Male","false","true","true","true","""event"",""trial"",""time""
""focus"",""0"",""0""
""blur"",""0"",""0""
""focus"",""1"",""2035""
""blur"",""4"",""8695""
""focus"",""4"",""9881""
""fullscreenenter"",""5"",""13328""
","""event"",""trial"",""time""
""blur"",""0"",""0""
""blur"",""4"",""8695""
","""event"",""trial"",""time""
""focus"",""0"",""0""
""focus"",""1"",""2035""
""focus"",""4"",""9881""
","""event"",""trial"",""time""
""fullscreenenter"",""5"",""13328""
","
","189","audio/quiz/Q3_Correct.wav","32","","","","","","","","","","","","","","","","","","",""
"d3-instructions","134","393622","0.0-75.0","1801","2930","23","Male","false","true","true","true","""event"",""trial"",""time""
""focus"",""0"",""0""
""blur"",""0"",""0""
""focus"",""1"",""2035""
""blur"",""4"",""8695""
""focus"",""4"",""9881""
""fullscreenenter"",""5"",""13328""
","""event"",""trial"",""time""
""blur"",""0"",""0""
""blur"",""4"",""8695""
","""event"",""trial"",""time""
""focus"",""0"",""0""
""focus"",""1"",""2035""
""focus"",""4"",""9881""
","""event"",""trial"",""time""
""fullscreenenter"",""5"",""13328""
","
","","","","","","","","","","","","","","","","","","","","","",""
"d3-animate-choice","135","396347","0.0-76.0-0.0","1801","2930","23","Male","false","true","true","true","""event"",""trial"",""time""
""focus"",""0"",""0""
""blur"",""0"",""0""
""focus"",""1"",""2035""
""blur"",""4"",""8695""
""focus"",""4"",""9881""
""fullscreenenter"",""5"",""13328""
","""event"",""trial"",""time""
""blur"",""0"",""0""
""blur"",""4"",""8695""
","""event"",""trial"",""time""
""focus"",""0"",""0""
""focus"",""1"",""2035""
""focus"",""4"",""9881""
","""event"",""trial"",""time""
""fullscreenenter"",""5"",""13328""
","
","718","","49","","","3000","1","","","images/earth.jpg","images/rocket1","images/rocket2","null","images/rocket2","","1","real","null","1","","",""
"d3-animate-choice","136","398562","0.0-76.0-1.0","1801","2930","23","Male","false","true","true","true","""event"",""trial"",""time""
""focus"",""0"",""0""
""blur"",""0"",""0""
""focus"",""1"",""2035""
""blur"",""4"",""8695""
""focus"",""4"",""9881""
""fullscreenenter"",""5"",""13328""
","""event"",""trial"",""time""
""blur"",""0"",""0""
""blur"",""4"",""8695""
","""event"",""trial"",""time""
""focus"",""0"",""0""
""focus"",""1"",""2035""
""focus"",""4"",""9881""
","""event"",""trial"",""time""
""fullscreenenter"",""5"",""13328""
","
","200","","49","","","3000","1","649","49","images/redplanet1.jpg","images/alien2","images/alien1","images/rocket2","images/alien1","images/nothing.png","2","real","false","1","rare","0","2022-09-16 21:03:39.718"
"two-step-fixation","137","399575","0.0-76.0-2.0","1801","2930","23","Male","false","true","true","true","""event"",""trial"",""time""
""focus"",""0"",""0""
""blur"",""0"",""0""
""focus"",""1"",""2035""
""blur"",""4"",""8695""
""focus"",""4"",""9881""
""fullscreenenter"",""5"",""13328""
","""event"",""trial"",""time""
""blur"",""0"",""0""
""blur"",""4"",""8695""
","""event"",""trial"",""time""
""focus"",""0"",""0""
""focus"",""1"",""2035""
""focus"",""4"",""9881""
","""event"",""trial"",""time""
""fullscreenenter"",""5"",""13328""
","
","","images/earth.jpg","","","","","","","","","","","","","","fixation","","","","","",""
"d3-animate-choice","138","401710","0.0-76.0-0.1","1801","2930","23","Male","false","true","true","true","""event"",""trial"",""time""
""focus"",""0"",""0""
""blur"",""0"",""0""
""focus"",""1"",""2035""
""blur"",""4"",""8695""
""focus"",""4"",""9881""
""fullscreenenter"",""5"",""13328""
","""event"",""trial"",""time""
""blur"",""0"",""0""
""blur"",""4"",""8695""
","""event"",""trial"",""time""
""focus"",""0"",""0""
""focus"",""1"",""2035""
""focus"",""4"",""9881""
","""event"",""trial"",""time""
""fullscreenenter"",""5"",""13328""
","
","126","","49","","","3000","1","","","images/earth.jpg","images/rocket1","images/rocket2","null","images/rocket2","","1","real","null","1","","",""
"d3-animate-choice","139","404024","0.0-76.0-1.1","1801","2930","23","Male","false","true","true","true","""event"",""trial"",""time""
""focus"",""0"",""0""
""blur"",""0"",""0""
""focus"",""1"",""2035""
""blur"",""4"",""8695""
""focus"",""4"",""9881""
""fullscreenenter"",""5"",""13328""
","""event"",""trial"",""time""
""blur"",""0"",""0""
""blur"",""4"",""8695""
","""event"",""trial"",""time""
""focus"",""0"",""0""
""focus"",""1"",""2035""
""focus"",""4"",""9881""
","""event"",""trial"",""time""
""fullscreenenter"",""5"",""13328""
","
","294","","49","","","3000","1","","","images/purpleplanet.jpg","images/alien4","images/alien3","images/rocket2","images/alien3","images/nothing.png","2","real","true","1","common","0","2022-09-16 21:03:45.180"
"two-step-fixation","140","405041","0.0-76.0-2.1","1801","2930","23","Male","false","true","true","true","""event"",""trial"",""time""
""focus"",""0"",""0""
""blur"",""0"",""0""
""focus"",""1"",""2035""
""blur"",""4"",""8695""
""focus"",""4"",""9881""
""fullscreenenter"",""5"",""13328""
","""event"",""trial"",""time""
""blur"",""0"",""0""
""blur"",""4"",""8695""
","""event"",""trial"",""time""
""focus"",""0"",""0""
""focus"",""1"",""2035""
""focus"",""4"",""9881""
","""event"",""trial"",""time""
""fullscreenenter"",""5"",""13328""
","
","","images/earth.jpg","","","","","","","","","","","","","","fixation","","","","","",""
"d3-animate-choice","141","407137","0.0-76.0-0.2","1801","2930","23","Male","false","true","true","true","""event"",""trial"",""time""
""focus"",""0"",""0""
""blur"",""0"",""0""
""focus"",""1"",""2035""
""blur"",""4"",""8695""
""focus"",""4"",""9881""
""fullscreenenter"",""5"",""13328""
","""event"",""trial"",""time""
""blur"",""0"",""0""
""blur"",""4"",""8695""
","""event"",""trial"",""time""
""focus"",""0"",""0""
""focus"",""1"",""2035""
""focus"",""4"",""9881""
","""event"",""trial"",""time""
""fullscreenenter"",""5"",""13328""
","
","84","","49","","","3000","1","","","images/earth.jpg","images/rocket1","images/rocket2","null","images/rocket2","","1","real","null","1","","",""
"d3-animate-choice","142","409635","0.0-76.0-1.2","1801","2930","23","Male","false","true","true","true","""event"",""trial"",""time""
""focus"",""0"",""0""
""blur"",""0"",""0""
""focus"",""1"",""2035""
""blur"",""4"",""8695""
""focus"",""4"",""9881""
""fullscreenenter"",""5"",""13328""
","""event"",""trial"",""time""
""blur"",""0"",""0""
""blur"",""4"",""8695""
","""event"",""trial"",""time""
""focus"",""0"",""0""
""focus"",""1"",""2035""
""focus"",""4"",""9881""
","""event"",""trial"",""time""
""fullscreenenter"",""5"",""13328""
","
","483","","49","","","3000","1","","","images/purpleplanet.jpg","images/alien4","images/alien3","images/rocket2","images/alien3","images/t.png","2","real","true","1","common","1","2022-09-16 21:03:50.791"
"two-step-fixation","143","410651","0.0-76.0-2.2","1801","2930","23","Male","false","true","true","true","""event"",""trial"",""time""
""focus"",""0"",""0""
""blur"",""0"",""0""
""focus"",""1"",""2035""
""blur"",""4"",""8695""
""focus"",""4"",""9881""
""fullscreenenter"",""5"",""13328""
","""event"",""trial"",""time""
""blur"",""0"",""0""
""blur"",""4"",""8695""
","""event"",""trial"",""time""
""focus"",""0"",""0""
""focus"",""1"",""2035""
""focus"",""4"",""9881""
","""event"",""trial"",""time""
""fullscreenenter"",""5"",""13328""
","
","","images/earth.jpg","","","","","","","","","","","","","","fixation","","","","","",""
"d3-animate-choice","144","412899","0.0-76.0-0.3","1801","2930","23","Male","false","true","true","true","""event"",""trial"",""time""
""focus"",""0"",""0""
""blur"",""0"",""0""
""focus"",""1"",""2035""
""blur"",""4"",""8695""
""focus"",""4"",""9881""
""fullscreenenter"",""5"",""13328""
","""event"",""trial"",""time""
""blur"",""0"",""0""
""blur"",""4"",""8695""
","""event"",""trial"",""time""
""focus"",""0"",""0""
""focus"",""1"",""2035""
""focus"",""4"",""9881""
","""event"",""trial"",""time""
""fullscreenenter"",""5"",""13328""
","
","233","","49","","","3000","1","","","images/earth.jpg","images/rocket1","images/rocket2","null","images/rocket2","","1","real","null","1","","",""
"d3-animate-choice","145","415580","0.0-76.0-1.3","1801","2930","23","Male","false","true","true","true","""event"",""trial"",""time""
""focus"",""0"",""0""
""blur"",""0"",""0""
""focus"",""1"",""2035""
""blur"",""4"",""8695""
