"success","trial_type","trial_index","time_elapsed","internal_node_id","interactions","blur_events","focus_events","fullscreenenter_events","fullscreenexit_events","rt","stimulus","key_press","subject_id","participant_id","age","gender","prompt","response","choice_outcomes","context_n","context_img_id","trial_n","probe_img_id","pR_red","pR_white","pR_black","outcome","is_valid","image_to_show","probed_trial","probed_context","correct","probe","probed_trial_n","probed_context_n","context_im"
"true","fullscreen","0","3442","0.0-0.0","""event"",""trial"",""time""
""fullscreenenter"",""0"",""2500""
","
","
","""event"",""trial"",""time""
""fullscreenenter"",""0"",""2500""
","
","","","","","","","","","","","","","","","","","","","","","","","","","","",""
"","pavlovia","1","3449","0.0-1.0","""event"",""trial"",""time""
""fullscreenenter"",""0"",""2500""
","
","
","""event"",""trial"",""time""
""fullscreenenter"",""0"",""2500""
","
","","","","","","","","","","","","","","","","","","","","","","","","","","",""
"","welc_back","2","13209","0.0-2.0","""event"",""trial"",""time""
""fullscreenenter"",""0"",""2500""
","
","
","""event"",""trial"",""time""
""fullscreenenter"",""0"",""2500""
","
","null","run_exp/static/audio/clip_29_welcome_back.m4a","null","1335","1352","15","Female","<div class='center'><p>Welcome to day 2!</p><p> Yesterday, you were the head captain of a pirate ship. You asked your fellow pirates to rob other ships of their gold across six different islands.</p></div>","","","","","","","","","","","","","","","","","","",""
"","html-keyboard-response","3","14954","0.0-3.0","""event"",""trial"",""time""
""fullscreenenter"",""0"",""2500""
","
","
","""event"",""trial"",""time""
""fullscreenenter"",""0"",""2500""
","
","1743","<div class='center'><p>Welcome to day 2!</p><p> Yesterday, you were the head captain of a pirate ship. You asked your fellow pirates to rob other ships of their gold across six different islands.</p><p><b>[Press the space bar to continue]</b></p></div>","32","","","","","","","","","","","","","","","","","","","","","","","",""
"","day_1_summary_goal","4","32147","0.0-4.0","""event"",""trial"",""time""
""fullscreenenter"",""0"",""2500""
","
","
","""event"",""trial"",""time""
""fullscreenenter"",""0"",""2500""
","
","null","run_exp/static/audio/clip_30_goal_of_game.m4a","null","","","","","<div class='center'><p>Today, like yesterday, you get to pick which pirate you want to rob the next ship.</p><p>If the pirate is successful in robbing a ship, you get gold coins that look like this: </p><p><img src='run_exp/static/images/tutorial/reward.png' height='150'></p><p> If they were not successful in robbing the ship, then you will get no gold coins and you'll see a big red x like this: </p><p><img src='run_exp/static/images/tutorial/reward_no.png' height='150'></p></div>","","","","","","","","","","","","","","","","","","",""
"","html-keyboard-response","5","33003","0.0-5.0","""event"",""trial"",""time""
""fullscreenenter"",""0"",""2500""
","
","
","""event"",""trial"",""time""
""fullscreenenter"",""0"",""2500""
","
","854","<div class='center'><p>Today, like yesterday, you get to pick which pirate you want to rob the next ship.</p><p>If the pirate is successful in robbing a ship, you get gold coins that look like this: </p><p><img src='run_exp/static/images/tutorial/reward.png' height='150'></p><p> If they were not successful in robbing the ship, then you will get no gold coins and you'll see a big red x like this: </p><p><img src='run_exp/static/images/tutorial/reward_no.png' height='150'></p><p><b>[Press the space bar to continue]</b></p></div>","32","","","","","","","","","","","","","","","","","","","","","","","",""
"","day_1_summary_pick","6","47697","0.0-6.0","""event"",""trial"",""time""
""fullscreenenter"",""0"",""2500""
","
","
","""event"",""trial"",""time""
""fullscreenenter"",""0"",""2500""
","
","null","run_exp/static/audio/clip_31_how_to_pick_a_pirate.m4a","null","","","","","<div class='center'><p>Also, just like yesterday, you will use the 1,2,3 keys on your keyboard to pick a pirate. Press '1' to choose red beard, '2' to choose white beard, and '3' to choose black beard . You only have 3 seconds to pick a pirate, so please make a choice quickly!</p></div>","","","","","","","","","","","","","","","","","","",""
"","html-keyboard-response","7","48220","0.0-7.0","""event"",""trial"",""time""
""fullscreenenter"",""0"",""2500""
","
","
","""event"",""trial"",""time""
""fullscreenenter"",""0"",""2500""
","
","521","<div class='center'><p>Also, just like yesterday, you will use the 1,2,3 keys on your keyboard to pick a pirate. Press '1' to choose red beard, '2' to choose white beard, and '3' to choose black beard . You only have 3 seconds to pick a pirate, so please make a choice quickly!</p><p><b>[Press the space bar to continue]</b></p></div>","32","","","","","","","","","","","","","","","","","","","","","","","",""
"","test_phase_begin","8","78597","0.0-8.0","""event"",""trial"",""time""
""fullscreenenter"",""0"",""2500""
","
","
","""event"",""trial"",""time""
""fullscreenenter"",""0"",""2500""
","
","null","run_exp/static/audio/clip_32_final_place.m4a","null","","","","","<div class='center'><p>You’ve arrived at the final island of your journey! Unfortunately, it’s very foggy out, so you won’t be able to see it in the distance like the other islands you've visited.</p><p>You’ll still be deciding which pirate you want to rob a ship like before. However, because of the fog, you also won’t be able to see the ship.</p><p>This means you do not have to remember the ships you rob on this island.</p><p>Unlike yesterday, you won't be visiting multiple islands today. You will stay on this island for the entire game. This game will last ~30 minutes.</p></div>","","","","","","","","","","","","","","","","","","",""
"","html-keyboard-response","9","79730","0.0-9.0","""event"",""trial"",""time""
""fullscreenenter"",""0"",""2500""
","
","
","""event"",""trial"",""time""
""fullscreenenter"",""0"",""2500""
","
","1132","<div class='center'><p>You’ve arrived at the final island of your journey! Unfortunately, it’s very foggy out, so you won’t be able to see it in the distance like the other islands you've visited.</p><p>You’ll still be deciding which pirate you want to rob a ship like before. However, because of the fog, you also won’t be able to see the ship.</p><p>This means you do not have to remember the ships you rob on this island.</p><p>Unlike yesterday, you won't be visiting multiple islands today. You will stay on this island for the entire game. This game will last ~30 minutes.</p><p><b>[Press the space bar to continue]</b></p></div>","32","","","","","","","","","","","","","","","","","","","","","","","",""
"","explain_probe_1","10","87537","0.0-10.0","""event"",""trial"",""time""
""fullscreenenter"",""0"",""2500""
","
","
","""event"",""trial"",""time""
""fullscreenenter"",""0"",""2500""
","
","null","run_exp/static/audio/clip_33_recognition_1.m4a","null","","","","","<div class='center'><p> Sometimes you’ll be shown a ship, and you will be asked if you saw this ship on a past island.</p><p> Here is an example of what you will see.</p><p><img src='run_exp/static/images/tutorial/example_recog_trial.png' height='500'></p></div>","","","","","","","","","","","","","","","","","","",""
"","html-keyboard-response","11","89857","0.0-11.0","""event"",""trial"",""time""
""fullscreenenter"",""0"",""2500""
","
","
","""event"",""trial"",""time""
""fullscreenenter"",""0"",""2500""
","
","2319","<div class='center'><p> Sometimes you’ll be shown a ship, and you will be asked if you saw this ship on a past island.</p><p> Here is an example of what you will see.</p><p><img src='run_exp/static/images/tutorial/example_recog_trial.png' height='500'></p><p><b>[Press the space bar to continue]</b></p></div>","32","","","","","","","","","","","","","","","","","","","","","","","",""
"","explain_probe_2","12","111548","0.0-12.0","""event"",""trial"",""time""
""fullscreenenter"",""0"",""2500""
","
","
","""event"",""trial"",""time""
""fullscreenenter"",""0"",""2500""
","
","null","run_exp/static/audio/clip_34_recognition_2.m4a","null","","","","","<div class='center'><p> You will press the 5, 6, 7, 8 keys on your keyboard to respond.</p><p>If you are sure you saw the ship, press <b>5</b> on your keyboard.</p><p> If you think you saw it before but aren't sure, then press <b>6</b>.</p><p> If you think you have <b>not</b> seen it before but aren't sure, then press <b>7</b>.</p><p> If you are sure you did <b>not</b> see the ship before, then press <b>8</b>.</p><p><img src='run_exp/static/images/tutorial/example_recog_trial.png' height='500'></p></div>","","","","","","","","","","","","","","","","","","",""
"","html-keyboard-response","13","112856","0.0-13.0","""event"",""trial"",""time""
""fullscreenenter"",""0"",""2500""
","
","
","""event"",""trial"",""time""
""fullscreenenter"",""0"",""2500""
","
","1305","<div class='center'><p> You will press the 5, 6, 7, 8 keys on your keyboard to respond.</p><p>If you are sure you saw the ship, press <b>5</b> on your keyboard.</p><p> If you think you saw it before but aren't sure, then press <b>6</b>.</p><p> If you think you have <b>not</b> seen it before but aren't sure, then press <b>7</b>.</p><p> If you are sure you did <b>not</b> see the ship before, then press <b>8</b>.</p><p><img src='run_exp/static/images/tutorial/example_recog_trial.png' height='500'></p><p><b>[Press the space bar to continue]</b></p></div>","32","","","","","","","","","","","","","","","","","","","","","","","",""
"","explain_outcome","14","130047","0.0-14.0","""event"",""trial"",""time""
""fullscreenenter"",""0"",""2500""
","
","
","""event"",""trial"",""time""
""fullscreenenter"",""0"",""2500""
","
","null","run_exp/static/audio/clip_35_recognition_3.m4a","null","","","","","<div class='center'><p> If you remember correctly, then you’ll get a gold coin like this: </p><p><img src='run_exp/static/images/tutorial/reward_small.png' height='200'></p><p>If you do not remember correctly, then you'll see a red x like this: </p><p><img src='run_exp/static/images/tutorial/reward_no.png' height='200'></p><p>Importantly, when you are shown a ship, take the time to remind yourself which island you saw it on. This will help you in the next part of the study.</p></div>","","","","","","","","","","","","","","","","","","",""
"","html-keyboard-response","15","130091","0.0-15.0","""event"",""trial"",""time""
""fullscreenenter"",""0"",""2500""
","
","
","""event"",""trial"",""time""
""fullscreenenter"",""0"",""2500""
","
","42","<div class='center'><p> If you remember correctly, then you’ll get a gold coin like this: </p><p><img src='run_exp/static/images/tutorial/reward_small.png' height='200'></p><p>If you do not remember correctly, then you'll see a red x like this: </p><p><img src='run_exp/static/images/tutorial/reward_no.png' height='200'></p><p>Importantly, when you are shown a ship, take the time to remind yourself which island you saw it on. This will help you in the next part of the study.</p><p><b>[Press the space bar to continue]</b></p></div>","32","","","","","","","","","","","","","","","","","","","","","","","",""
"","begin_test_phase","16","145888","0.0-16.0","""event"",""trial"",""time""
""fullscreenenter"",""0"",""2500""
","
","
","""event"",""trial"",""time""
""fullscreenenter"",""0"",""2500""
","
","null","run_exp/static/audio/clip_36_begin_final.m4a","null","","","","","<div class='center'><p>Let's go over the important points again. Your job is to: </p><p>1. Pick the pirate who is best at robbing ships and will bring you back gold coins. </p><p>2. Correctly remember whether or not you saw a ship before. If you did see the ship before, remind yourself on which island you saw it. </p></div>","","","","","","","","","","","","","","","","","","",""
"","html-keyboard-response","17","147912","0.0-17.0","""event"",""trial"",""time""
""fullscreenenter"",""0"",""2500""
","
","
","""event"",""trial"",""time""
""fullscreenenter"",""0"",""2500""
","
","1949","<div class='center'><p>Let's go over the important points again. Your job is to: </p><p>1. Pick the pirate who is best at robbing ships and will bring you back gold coins. </p><p>2. Correctly remember whether or not you saw a ship before. If you did see the ship before, remind yourself on which island you saw it. </p><p><b>[Press the space bar to continue]</b></p></div>","32","","","","","","","","","","","","","","","","","","","","","","","",""
"","do_welcome","18","151927","0.0-18.0","""event"",""trial"",""time""
""fullscreenenter"",""0"",""2500""
","
","
","""event"",""trial"",""time""
""fullscreenenter"",""0"",""2500""
","
","null","","","","","","","","null","","","","","","","","","","","","","","","","","",""
"","do_trial","19","156296","0.0-19.0-0.0","""event"",""trial"",""time""
""fullscreenenter"",""0"",""2500""
","
","
","""event"",""trial"",""time""
""fullscreenenter"",""0"",""2500""
","
","1773","","","","","","","","50","0,0,1","6","blank","230","null","0.15617022348616677","0.2032552376955917","0.5915462903786888","0","","","","","","","","",""
"","html-keyboard-response","20","157299","0.0-19.0-1.0","""event"",""trial"",""time""
""fullscreenenter"",""0"",""2500""
","
","
","""event"",""trial"",""time""
""fullscreenenter"",""0"",""2500""
","
","null","<p></p>","null","","","","","","","","","","","","","","","","","","","","","","","",""
"","do_trial","21","160270","0.0-20.0-0.0","""event"",""trial"",""time""
""fullscreenenter"",""0"",""2500""
","
","
","""event"",""trial"",""time""
""fullscreenenter"",""0"",""2500""
","
","382","","","","","","","","49","0,0,0","6","blank","231","null","0.21802577086867772","0.2522989587889342","0.7035110226260954","0","","","","","","","","",""
"","html-keyboard-response","22","161271","0.0-20.0-1.0","""event"",""trial"",""time""
""fullscreenenter"",""0"",""2500""
","
","
","""event"",""trial"",""time""
""fullscreenenter"",""0"",""2500""
","
","null","<p></p>","null","","","","","","","","","","","","","","","","","","","","","","","",""
"","do_trial","23","164254","0.0-21.0-0.0","""event"",""trial"",""time""
""fullscreenenter"",""0"",""2500""
","
","
","""event"",""trial"",""time""
""fullscreenenter"",""0"",""2500""
","
","394","","","","","","","","49","0,0,1","6","blank","232","null","0.17846975459314407","0.31247464926229995","0.7058959374066694","0","","","","","","","","",""
"","html-keyboard-response","24","165255","0.0-21.0-1.0","""event"",""trial"",""time""
""fullscreenenter"",""0"",""2500""
","
","
","""event"",""trial"",""time""
""fullscreenenter"",""0"",""2500""
","
","null","<p></p>","null","","","","","","","","","","","","","","","","","","","","","","","",""
"","do_trial","25","168069","0.0-22.0-0.0","""event"",""trial"",""time""
""fullscreenenter"",""0"",""2500""
","
","
","""event"",""trial"",""time""
""fullscreenenter"",""0"",""2500""
","
","226","","","","","","","","51","0,0,1","6","blank","233","null","0.1947266032548469","0.34302342192686097","0.8409529481683212","1","","","","","","","","",""
"","html-keyboard-response","26","169070","0.0-22.0-1.0","""event"",""trial"",""time""
""fullscreenenter"",""0"",""2500""
","
","
","""event"",""trial"",""time""
""fullscreenenter"",""0"",""2500""
","
","null","<p></p>","null","","","","","","","","","","","","","","","","","","","","","","","",""
"","do_trial","27","172041","0.0-23.0-0.0","""event"",""trial"",""time""
""fullscreenenter"",""0"",""2500""
","
","
","""event"",""trial"",""time""
""fullscreenenter"",""0"",""2500""
","
","384","","","","","","","","50","1,0,1","6","blank","234","null","0.19957456672539217","0.38164167870725185","0.7916285312020942","0","","","","","","","","",""
"","html-keyboard-response","28","173042","0.0-23.0-1.0","""event"",""trial"",""time""
""fullscreenenter"",""0"",""2500""
","
","
","""event"",""trial"",""time""
""fullscreenenter"",""0"",""2500""
","
","null","<p></p>","null","","","","","","","","","","","","","","","","","","","","","","","",""
"","do_trial","29","176011","0.0-24.0-0.0","""event"",""trial"",""time""
""fullscreenenter"",""0"",""2500""
","
","
","""event"",""trial"",""time""
""fullscreenenter"",""0"",""2500""
","
","382","","","","","","","","51","0,1,1","6","blank","235","null","0.10555216048200325","0.38300371567122804","0.7445054628543595","1","","","","","","","","",""
"","html-keyboard-response","30","177012","0.0-24.0-1.0","""event"",""trial"",""time""
""fullscreenenter"",""0"",""2500""
","
","
","""event"",""trial"",""time""
""fullscreenenter"",""0"",""2500""
","
","null","<p></p>","null","","","","","","","","","","","","","","","","","","","","","","","",""
"","do_trial","31","180720","0.0-25.0-0.0","""event"",""trial"",""time""
""fullscreenenter"",""0"",""2500""
","
","
","""event"",""trial"",""time""
""fullscreenenter"",""0"",""2500""
","
","1120","","","","","","","","49","0,1,1","6","blank","236","null","0.06420873841399219","0.4090527940947757","0.6732518050671483","0","","","","","","","","",""
"","html-keyboard-response","32","181721","0.0-25.0-1.0","""event"",""trial"",""time""
""fullscreenenter"",""0"",""2500""
","
","
","""event"",""trial"",""time""
""fullscreenenter"",""0"",""2500""
","
","null","<p></p>","null","","","","","","","","","","","","","","","","","","","","","","","",""
"","do_trial","33","184961","0.0-26.0-0.0","""event"",""trial"",""time""
""fullscreenenter"",""0"",""2500""
","
","
","""event"",""trial"",""time""
""fullscreenenter"",""0"",""2500""
","
","651","","","","","","","","51","0,1,1","6","blank","237","null","0.05421166259767039","0.35058443126881444","0.7107476962526897","1","","","","","","","","",""
"","html-keyboard-response","34","185962","0.0-26.0-1.0","""event"",""trial"",""time""
""fullscreenenter"",""0"",""2500""
","
","
","""event"",""trial"",""time""
""fullscreenenter"",""0"",""2500""
","
","null","<p></p>","null","","","","","","","","","","","","","","","","","","","","","","","",""
"","do_trial","35","188965","0.0-27.0-0.0","""event"",""trial"",""time""
""fullscreenenter"",""0"",""2500""
","
","
","""event"",""trial"",""time""
""fullscreenenter"",""0"",""2500""
","
","415","","","","","","","","51","1,0,1","6","blank","238","null","0.17001511886843232","0.34234702836539527","0.8219608838217548","1","","","","","","","","",""
"","html-keyboard-response","36","189966","0.0-27.0-1.0","""event"",""trial"",""time""
""fullscreenenter"",""0"",""2500""
","
","
","""event"",""trial"",""time""
""fullscreenenter"",""0"",""2500""
","
","null","<p></p>","null","","","","","","","","","","","","","","","","","","","","","","","",""
"","do_trial","37","192870","0.0-28.0-0.0","""event"",""trial"",""time""
""fullscreenenter"",""0"",""2500""
","
","
","""event"",""trial"",""time""
""fullscreenenter"",""0"",""2500""
","
","314","","","","","","","","51","0,0,1","6","blank","239","null","0.1152591296330462","0.2875354126071669","0.6815338959580964","1","","","","","","","","",""
"","html-keyboard-response","38","193871","0.0-28.0-1.0","""event"",""trial"",""time""
""fullscreenenter"",""0"",""2500""
","
","
","""event"",""trial"",""time""
""fullscreenenter"",""0"",""2500""
","
","null","<p></p>","null","","","","","","","","","","","","","","","","","","","","","","","",""
"","do_trial","39","196834","0.0-29.0-0.0","""event"",""trial"",""time""
""fullscreenenter"",""0"",""2500""
","
","
","""event"",""trial"",""time""
""fullscreenenter"",""0"",""2500""
","
","375","","","","","","","","51","0,1,1","6","blank","240","null","0.13898746230366896","0.3748253880182902","0.6709400123606867","1","","","","","","","","",""
"","html-keyboard-response","40","197835","0.0-29.0-1.0","""event"",""trial"",""time""
""fullscreenenter"",""0"",""2500""
","
","
","""event"",""trial"",""time""
""fullscreenenter"",""0"",""2500""
","
","null","<p></p>","null","","","","","","","","","","","","","","","","","","","","","","","",""
"","do_trial","41","200879","0.0-30.0-0.0","""event"",""trial"",""time""
""fullscreenenter"",""0"",""2500""
","
","
","""event"",""trial"",""time""
""fullscreenenter"",""0"",""2500""
","
","456","","","","","","","","51","0,0,1","6","blank","241","null","0.08882715018387445","0.23899122630949715","0.6056345982432382","1","","","","","","","","",""
"","html-keyboard-response","42","201880","0.0-30.0-1.0","""event"",""trial"",""time""
""fullscreenenter"",""0"",""2500""
","
","
","""event"",""trial"",""time""
""fullscreenenter"",""0"",""2500""
","
","null","<p></p>","null","","","","","","","","","","","","","","","","","","","","","","","",""
"","do_trial","43","204772","0.0-31.0-0.0","""event"",""trial"",""time""
""fullscreenenter"",""0"",""2500""
","
","
","""event"",""trial"",""time""
""fullscreenenter"",""0"",""2500""
","
","304","","","","","","","","51","0,1,0","6","blank","242","null","0.34550223324765855","0.2511017535033921","0.24003030643508513","0","","","","","","","","",""
"","html-keyboard-response","44","205773","0.0-31.0-1.0","""event"",""trial"",""time""
""fullscreenenter"",""0"",""2500""
","
","
","""event"",""trial"",""time""
""fullscreenenter"",""0"",""2500""
","
","null","<p></p>","null","","","","","","","","","","","","","","","","","","","","","","","",""
"","do_trial","45","208668","0.0-32.0-0.0","""event"",""trial"",""time""
""fullscreenenter"",""0"",""2500""
","
","
","""event"",""trial"",""time""
""fullscreenenter"",""0"",""2500""
","
","306","","","","","","","","51","1,1,1","6","blank","243","null","0.6432066459800384","0.3283559001917111","0.18376844693365105","1","","","","","","","","",""
"","html-keyboard-response","46","209669","0.0-32.0-1.0","""event"",""trial"",""time""
""fullscreenenter"",""0"",""2500""
","
","
","""event"",""trial"",""time""
""fullscreenenter"",""0"",""2500""
","
","null","<p></p>","null","","","","","","","","","","","","","","","","","","","","","","","",""
"","do_trial","47","212591","0.0-33.0-0.0","""event"",""trial"",""time""
""fullscreenenter"",""0"",""2500""
","
","
","""event"",""trial"",""time""
""fullscreenenter"",""0"",""2500""
","
","333","","","","","","","","51","1,0,0","6","blank","244","null","0.6469711165269552","0.27530803983016344","0.06408482714047628","0","","","","","","","","",""
"","html-keyboard-response","48","213592","0.0-33.0-1.0","""event"",""trial"",""time""
""fullscreenenter"",""0"",""2500""
","
","
","""event"",""trial"",""time""
""fullscreenenter"",""0"",""2500""
","
","null","<p></p>","null","","","","","","","","","","","","","","","","","","","","","","","",""
"","do_trial","49","216474","0.0-34.0-0.0","""event"",""trial"",""time""
""fullscreenenter"",""0"",""2500""
","
","
","""event"",""trial"",""time""
""fullscreenenter"",""0"",""2500""
","
","287","","","","","","","","50","1,1,0","6","blank","245","null","0.6861876728656399","0.37208468053230964","0.17037665014680614","1","","","","","","","","",""
"","html-keyboard-response","50","217475","0.0-34.0-1.0","""event"",""trial"",""time""
""fullscreenenter"",""0"",""2500""
","
","
","""event"",""trial"",""time""
""fullscreenenter"",""0"",""2500""
","
","null","<p></p>","null","","","","","","","","","","","","","","","","","","","","","","","",""
"","do_recog","51","223482","0.0-35.0-0.0","""event"",""trial"",""time""
""fullscreenenter"",""0"",""2500""
","
","
","""event"",""trial"",""time""
""fullscreenenter"",""0"",""2500""
","
","null","","","","","","","","null","","","","246","probe-223","","","","","1","[object Object]","34","0","0","","","",""
"","html-keyboard-response","52","224483","0.0-35.0-1.0","""event"",""trial"",""time""
""fullscreenenter"",""0"",""2500""
","
","
","""event"",""trial"",""time""
""fullscreenenter"",""0"",""2500""
","
","null","<p></p>","null","","","","","","","","","","","","","","","","","","","","","","","",""
"","do_trial","53","227935","0.0-36.0-0.0","""event"",""trial"",""time""
""fullscreenenter"",""0"",""2500""
","
","
","""event"",""trial"",""time""
""fullscreenenter"",""0"",""2500""
","
","864","","","","","","","","50","1,1,1","6","blank","247","null","0.723795168569404","0.4554624565295663","0.33594954239748737","1","","","","","","","","",""
"","html-keyboard-response","54","228936","0.0-36.0-1.0","""event"",""trial"",""time""
""fullscreenenter"",""0"",""2500""
","
","
","""event"",""trial"",""time""
""fullscreenenter"",""0"",""2500""
","
","null","<p></p>","null","","","","","","","","","","","","","","","","","","","","","","","",""
"","do_recog","55","232706","0.0-37.0-0.0","""event"",""trial"",""time""
""fullscreenenter"",""0"",""2500""
","
","
","""event"",""trial"",""time""
""fullscreenenter"",""0"",""2500""
","
","2263","","","","","","","","54","","","","248","probe-164","","","","","1","[object Object]","72","1","1","","","",""
"","html-keyboard-response","56","233707","0.0-37.0-1.0","""event"",""trial"",""time""
""fullscreenenter"",""0"",""2500""
","
","
","""event"",""trial"",""time""
""fullscreenenter"",""0"",""2500""
","
","null","<p></p>","null","","","","","","","","","","","","","","","","","","","","","","","",""
"","do_trial","57","237225","0.0-38.0-0.0","""event"",""trial"",""time""
""fullscreenenter"",""0"",""2500""
","
","
","""event"",""trial"",""time""
""fullscreenenter"",""0"",""2500""
","
","930","","","","","","","","49","1,1,1","6","blank","249","null","0.743549170300432","0.4757098226318095","0.21748010524344286","1","","","","","","","","",""
"","html-keyboard-response","58","238226","0.0-38.0-1.0","""event"",""trial"",""time""
""fullscreenenter"",""0"",""2500""
","
","
","""event"",""trial"",""time""
""fullscreenenter"",""0"",""2500""
","
","null","<p></p>","null","","","","","","","","","","","","","","","","","","","","","","","",""
"","do_recog","59","241136","0.0-39.0-0.0","""event"",""trial"",""time""
""fullscreenenter"",""0"",""2500""
","
","
","""event"",""trial"",""time""
""fullscreenenter"",""0"",""2500""
","
","1404","","","","","","","","56","","","","250","probe-234","","","","","0","[object Object]","null","null","1","","","",""
"","html-keyboard-response","60","242137","0.0-39.0-1.0","""event"",""trial"",""time""
""fullscreenenter"",""0"",""2500""
","
","
","""event"",""trial"",""time""
""fullscreenenter"",""0"",""2500""
","
","null","<p></p>","null","","","","","","","","","","","","","","","","","","","","","","","",""
"","do_trial","61","245854","0.0-40.0-0.0","""event"",""trial"",""time""
""fullscreenenter"",""0"",""2500""
","
","
","""event"",""trial"",""time""
""fullscreenenter"",""0"",""2500""
","
","1129","","","","","","","","51","0,1,0","6","blank","251","null","0.7022035925592544","0.3490228949860881","0.27620088137026677","0","","","","","","","","",""
"","html-keyboard-response","62","246855","0.0-40.0-1.0","""event"",""trial"",""time""
""fullscreenenter"",""0"",""2500""
","
","
","""event"",""trial"",""time""
""fullscreenenter"",""0"",""2500""
","
","null","<p></p>","null","","","","","","","","","","","","","","","","","","","","","","","",""
"","do_trial","63","249791","0.0-41.0-0.0","""event"",""trial"",""time""
""fullscreenenter"",""0"",""2500""
","
","
","""event"",""trial"",""time""
""fullscreenenter"",""0"",""2500""
","
","348","","","","","","","","50","0,0,0","6","blank","252","null","0.6756361702983185","0.376002755450381","0.22403456633468835","0","","","","","","","","",""
"","html-keyboard-response","64","250792","0.0-41.0-1.0","""event"",""trial"",""time""
""fullscreenenter"",""0"",""2500""
","
","
","""event"",""trial"",""time""
""fullscreenenter"",""0"",""2500""
","
","null","<p></p>","null","","","","","","","","","","","","","","","","","","","","","","","",""
"","do_trial","65","253921","0.0-42.0-0.0","""event"",""trial"",""time""
""fullscreenenter"",""0"",""2500""
","
","
","""event"",""trial"",""time""
""fullscreenenter"",""0"",""2500""
","
","541","","","","","","","","51","1,1,0","6","blank","253","null","0.5613592095969063","0.48593375688664603","0.14915721461050047","0","","","","","","","","",""
"","html-keyboard-response","66","254922","0.0-42.0-1.0","""event"",""trial"",""time""
""fullscreenenter"",""0"",""2500""
","
","
","""event"",""trial"",""time""
""fullscreenenter"",""0"",""2500""
","
","null","<p></p>","null","","","","","","","","","","","","","","","","","","","","","","","",""
"","do_recog","67","258370","0.0-43.0-0.0","""event"",""trial"",""time""
""fullscreenenter"",""0"",""2500""
","
","
","""event"",""trial"",""time""
""fullscreenenter"",""0"",""2500""
","
","1942","","","","","","","","55","","","","254","probe-153","","","","","1","[object Object]","37","0","0","","","",""
"","html-keyboard-response","68","259371","0.0-43.0-1.0","""event"",""trial"",""time""
""fullscreenenter"",""0"",""2500""
","
","
","""event"",""trial"",""time""
""fullscreenenter"",""0"",""2500""
","
","null","<p></p>","null","","","","","","","","","","","","","","","","","","","","","","","",""
"","do_trial","69","262577","0.0-44.0-0.0","""event"",""trial"",""time""
""fullscreenenter"",""0"",""2500""
","
","
","""event"",""trial"",""time""
""fullscreenenter"",""0"",""2500""
","
","618","","","","","","","","49","0,0,0","6","blank","255","null","0.5656835786350071","0.32099536141382745","0.24476164346362753","0","","","","","","","","",""
"","html-keyboard-response","70","263578","0.0-44.0-1.0","""event"",""trial"",""time""
""fullscreenenter"",""0"",""2500""
","
","
","""event"",""trial"",""time""
""fullscreenenter"",""0"",""2500""
","
","null","<p></p>","null","","","","","","","","","","","","","","","","","","","","","","","",""
"","do_trial","71","266649","0.0-45.0-0.0","""event"",""trial"",""time""
""fullscreenenter"",""0"",""2500""
","
","
","""event"",""trial"",""time""
""fullscreenenter"",""0"",""2500""
","
","483","","","","","","","","50","1,0,0","6","blank","256","null","0.49488470224538583","0.39209457790853747","0.16578075739929518","0","","","","","","","","",""
"","html-keyboard-response","72","267650","0.0-45.0-1.0","""event"",""trial"",""time""
""fullscreenenter"",""0"",""2500""
","
","
","""event"",""trial"",""time""
""fullscreenenter"",""0"",""2500""
","
","null","<p></p>","null","","","","","","","","","","","","","","","","","","","","","","","",""
"","do_trial","73","270698","0.0-46.0-0.0","""event"",""trial"",""time""
""fullscreenenter"",""0"",""2500""
","
","
","""event"",""trial"",""time""
""fullscreenenter"",""0"",""2500""
","
","460","","","","","","","","51","0,1,1","6","blank","257","null","0.5362124617697814","0.4276177977730952","0.09123042674587961","1","","","","","","","","",""
"","html-keyboard-response","74","271699","0.0-46.0-1.0","""event"",""trial"",""time""
""fullscreenenter"",""0"",""2500""
","
","
","""event"",""trial"",""time""
""fullscreenenter"",""0"",""2500""
","
","null","<p></p>","null","","","","","","","","","","","","","","","","","","","","","","","",""
"","do_trial","75","275241","0.0-47.0-0.0","""event"",""trial"",""time""
""fullscreenenter"",""0"",""2500""
","
","
","""event"",""trial"",""time""
""fullscreenenter"",""0"",""2500""
","
","955","","","","","","","","49","1,0,0","6","blank","258","null","0.6312364609343877","0.2716559038582536","0.06287050559017705","1","","","","","","","","",""
"","html-keyboard-response","76","276242","0.0-47.0-1.0","""event"",""trial"",""time""
""fullscreenenter"",""0"",""2500""
","
","
","""event"",""trial"",""time""
""fullscreenenter"",""0"",""2500""
","
","null","<p></p>","null","","","","","","","","","","","","","","","","","","","","","","","",""
"","do_trial","77","279240","0.0-48.0-0.0","""event"",""trial"",""time""
""fullscreenenter"",""0"",""2500""
","
","
","""event"",""trial"",""time""
""fullscreenenter"",""0"",""2500""
","
","411","","","","","","","","51","1,0,0","6","blank","259","null","0.6827078047817112","0.05607297486939459","0.09243672311537114","0","","","","","","","","",""
"","html-keyboard-response","78","280242","0.0-48.0-1.0","""event"",""trial"",""time""
""fullscreenenter"",""0"",""2500""
","
","
","""event"",""trial"",""time""
""fullscreenenter"",""0"",""2500""
","
","null","<p></p>","null","","","","","","","","","","","","","","","","","","","","","","","",""
"","do_trial","79","283154","0.0-49.0-0.0","""event"",""trial"",""time""
""fullscreenenter"",""0"",""2500""
","
","
","""event"",""trial"",""time""
""fullscreenenter"",""0"",""2500""
","
","324","","","","","","","","49","0,0,0","6","blank","260","null","0.6026878350169573","0.2102731036655889","0.05289823487929171","0","","","","","","","","",""
"","html-keyboard-response","80","284155","0.0-49.0-1.0","""event"",""trial"",""time""
""fullscreenenter"",""0"",""2500""
","
","
","""event"",""trial"",""time""
""fullscreenenter"",""0"",""2500""
","
","null","<p></p>","null","","","","","","","","","","","","","","","","","","","","","","","",""
"","do_recog","81","286986","0.0-50.0-0.0","""event"",""trial"",""time""
""fullscreenenter"",""0"",""2500""
","
","
","""event"",""trial"",""time""
""fullscreenenter"",""0"",""2500""
","
","1324","","","","","","","","56","","","","261","probe-220","","","","","1","[object Object]","155","3","0","","","",""
"","html-keyboard-response","82","287987","0.0-50.0-1.0","""event"",""trial"",""time""
""fullscreenenter"",""0"",""2500""
","
","
","""event"",""trial"",""time""
""fullscreenenter"",""0"",""2500""
","
","null","<p></p>","null","","","","","","","","","","","","","","","","","","","","","","","",""
"","do_trial","83","291153","0.0-51.0-0.0","""event"",""trial"",""time""
""fullscreenenter"",""0"",""2500""
","
","
","""event"",""trial"",""time""
""fullscreenenter"",""0"",""2500""
","
","578","","","","","","","","49","1,1,1","6","blank","262","null","0.4558620693113424","0.14722288969503577","0.1915679045578063","1","","","","","","","","",""
"","html-keyboard-response","84","292154","0.0-51.0-1.0","""event"",""trial"",""time""
""fullscreenenter"",""0"",""2500""
","
","
","""event"",""trial"",""time""
""fullscreenenter"",""0"",""2500""
","
","null","<p></p>","null","","","","","","","","","","","","","","","","","","","","","","","",""
"","do_recog","85","294960","0.0-52.0-0.0","""event"",""trial"",""time""
""fullscreenenter"",""0"",""2500""
","
","
","""event"",""trial"",""time""
""fullscreenenter"",""0"",""2500""
","
","1300","","","","","","","","56","","","","263","probe-255","","","","","0","[object Object]","null","null","1","","","",""
"","html-keyboard-response","86","295961","0.0-52.0-1.0","""event"",""trial"",""time""
""fullscreenenter"",""0"",""2500""
","
","
","""event"",""trial"",""time""
""fullscreenenter"",""0"",""2500""
","
","null","<p></p>","null","","","","","","","","","","","","","","","","","","","","","","","",""
"","do_trial","87","299143","0.0-53.0-0.0","""event"",""trial"",""time""
""fullscreenenter"",""0"",""2500""
","
","
","""event"",""trial"",""time""
""fullscreenenter"",""0"",""2500""
","
","595","","","","","","","","51","0,0,1","6","blank","264","null","0.4717142366449054","0.18565170573314346","0.13123381590292976","1","","","","","","","","",""
"","html-keyboard-response","88","300145","0.0-53.0-1.0","""event"",""trial"",""time""
""fullscreenenter"",""0"",""2500""
","
","
","""event"",""trial"",""time""
""fullscreenenter"",""0"",""2500""
","
","null","<p></p>","null","","","","","","","","","","","","","","","","","","","","","","","",""
"","do_trial","89","303475","0.0-54.0-0.0","""event"",""trial"",""time""
""fullscreenenter"",""0"",""2500""
","
","
","""event"",""trial"",""time""
""fullscreenenter"",""0"",""2500""
","
","741","","","","","","","","50","0,0,0","6","blank","265","null","0.5274151871064521","0.2928962325419182","0.1461756858366755","0","","","","","","","","",""
"","html-keyboard-response","90","304476","0.0-54.0-1.0","""event"",""trial"",""time""
""fullscreenenter"",""0"",""2500""
","
","
","""event"",""trial"",""time""
""fullscreenenter"",""0"",""2500""
","
","null","<p></p>","null","","","","","","","","","","","","","","","","","","","","","","","",""
"","do_recog","91","308083","0.0-55.0-0.0","""event"",""trial"",""time""
""fullscreenenter"",""0"",""2500""
","
","
","""event"",""trial"",""time""
""fullscreenenter"",""0"",""2500""
","
","2100","","","","","","","","53","","","","266","probe-38","","","","","1","[object Object]","117","2","1","","","",""
"","html-keyboard-response","92","309084","0.0-55.0-1.0","""event"",""trial"",""time""
""fullscreenenter"",""0"",""2500""
","
","
","""event"",""trial"",""time""
""fullscreenenter"",""0"",""2500""
","
","null","<p></p>","null","","","","","","","","","","","","","","","","","","","","","","","",""
"","do_trial","93","312328","0.0-56.0-0.0","""event"",""trial"",""time""
""fullscreenenter"",""0"",""2500""
","
","
","""event"",""trial"",""time""
""fullscreenenter"",""0"",""2500""
","
","654","","","","","","","","49","1,0,0","6","blank","267","null","0.4612184483965988","0.40563801648747394","0.09604900236193797","1","","","","","","","","",""
"","html-keyboard-response","94","313329","0.0-56.0-1.0","""event"",""trial"",""time""
""fullscreenenter"",""0"",""2500""
","
","
","""event"",""trial"",""time""
""fullscreenenter"",""0"",""2500""
","
","null","<p></p>","null","","","","","","","","","","","","","","","","","","","","","","","",""
"","do_recog","95","316594","0.0-57.0-0.0","""event"",""trial"",""time""
""fullscreenenter"",""0"",""2500""
","
","
","""event"",""trial"",""time""
""fullscreenenter"",""0"",""2500""
","
","1759","","","","","","","","55","","","","268","probe-91","","","","","1","[object Object]","70","1","0","","","",""
"","html-keyboard-response","96","317595","0.0-57.0-1.0","""event"",""trial"",""time""
""fullscreenenter"",""0"",""2500""
","
","
","""event"",""trial"",""time""
""fullscreenenter"",""0"",""2500""
","
","null","<p></p>","null","","","","","","","","","","","","","","","","","","","","","","","",""
"","break","97","320769","0.0-58.0-0.0","""event"",""trial"",""time""
""fullscreenenter"",""0"",""2500""
","
","
","""event"",""trial"",""time""
""fullscreenenter"",""0"",""2500""
","
","3173","<div class='center'><p>Time to take a quick break! You have 2 minutes to rest, but you can move on sooner if you'd like.</p><p> Press the <b>space bar</b> to continue.</p></div>","32","","","","","","","","","","","","","","","","","","","","","","","",""
"","do_trial","98","324223","0.0-58.0-1.0","""event"",""trial"",""time""
""fullscreenenter"",""0"",""2500""
","
","
","""event"",""trial"",""time""
""fullscreenenter"",""0"",""2500""
","
","865","","","","","","","","50","1,0,0","6","blank","269","null","0.5723999839341304","0.26986908272571764","0.05877230888047319","0","","","","","","","","",""
"","html-keyboard-response","99","325224","0.0-58.0-2.0","""event"",""trial"",""time""
""fullscreenenter"",""0"",""2500""
","
","
","""event"",""trial"",""time""
""fullscreenenter"",""0"",""2500""
","
","null","<p></p>","null","","","","","","","","","","","","","","","","","","","","","","","",""
"","do_trial","100","328133","0.0-59.0-0.0","""event"",""trial"",""time""
""fullscreenenter"",""0"",""2500""
","
","
","""event"",""trial"",""time""
""fullscreenenter"",""0"",""2500""
","
","322","","","","","","","","49","1,1,0","6","blank","270","null","0.6247338077668331","0.26911626705102626","0.12555751538358353","1","","","","","","","","",""
"","html-keyboard-response","101","329134","0.0-59.0-1.0","""event"",""trial"",""time""
""fullscreenenter"",""0"",""2500""
","
","
","""event"",""trial"",""time""
""fullscreenenter"",""0"",""2500""
","
","null","<p></p>","null","","","","","","","","","","","","","","","","","","","","","","","",""
"","do_trial","102","332144","0.0-60.0-0.0","""event"",""trial"",""time""
""fullscreenenter"",""0"",""2500""
","
","
","""event"",""trial"",""time""
""fullscreenenter"",""0"",""2500""
","
","423","","","","","","","","51","0,1,1","6","blank","271","null","0.6104973987620685","0.2573273547273259","0.15498883862719331","1","","","","","","","","",""
"","html-keyboard-response","103","333146","0.0-60.0-1.0","""event"",""trial"",""time""
""fullscreenenter"",""0"",""2500""
","
","
","""event"",""trial"",""time""
""fullscreenenter"",""0"",""2500""
","
","null","<p></p>","null","","","","","","","","","","","","","","","","","","","","","","","",""
"","do_trial","104","336384","0.0-61.0-0.0","""event"",""trial"",""time""
""fullscreenenter"",""0"",""2500""
","
","
","""event"",""trial"",""time""
""fullscreenenter"",""0"",""2500""
","
","651","","","","","","","","49","0,0,0","6","blank","272","null","0.49182905873088656","0.2550611620289685","0.05684072429022621","0","","","","","","","","",""
"","html-keyboard-response","105","337385","0.0-61.0-1.0","""event"",""trial"",""time""
""fullscreenenter"",""0"",""2500""
","
","
","""event"",""trial"",""time""
""fullscreenenter"",""0"",""2500""
","
","null","<p></p>","null","","","","","","","","","","","","","","","","","","","","","","","",""
"","do_trial","106","340573","0.0-62.0-0.0","""event"",""trial"",""time""
""fullscreenenter"",""0"",""2500""
","
","
","""event"",""trial"",""time""
""fullscreenenter"",""0"",""2500""
","
","600","","","","","","","","49","1,1,0","6","blank","273","null","0.5622191659172618","0.393308691220785","0.08474168974678577","1","","","","","","","","",""
"","html-keyboard-response","107","341574","0.0-62.0-1.0","""event"",""trial"",""time""
""fullscreenenter"",""0"",""2500""
","
","
","""event"",""trial"",""time""
""fullscreenenter"",""0"",""2500""
","
","null","<p></p>","null","","","","","","","","","","","","","","","","","","","","","","","",""
"","do_trial","108","344580","0.0-63.0-0.0","""event"",""trial"",""time""
""fullscreenenter"",""0"",""2500""
","
","
","""event"",""trial"",""time""
""fullscreenenter"",""0"",""2500""
","
","418","","","","","","","","51","0,0,0","6","blank","274","null","0.538288021543116","0.35059617317452846","0.06979562221309993","0","","","","","","","","",""
"","html-keyboard-response","109","345581","0.0-63.0-1.0","""event"",""trial"",""time""
""fullscreenenter"",""0"",""2500""
","
","
","""event"",""trial"",""time""
""fullscreenenter"",""0"",""2500""
","
","null","<p></p>","null","","","","","","","","","","","","","","","","","","","","","","","",""
"","do_trial","110","348727","0.0-64.0-0.0","""event"",""trial"",""time""
""fullscreenenter"",""0"",""2500""
","
","
","""event"",""trial"",""time""
""fullscreenenter"",""0"",""2500""
","
","558","","","","","","","","49","0,0,0","6","blank","275","null","0.5667927052831631","0.36937494692450806","0.06774233565630974","0","","","","","","","","",""
"","html-keyboard-response","111","349728","0.0-64.0-1.0","""event"",""trial"",""time""
""fullscreenenter"",""0"",""2500""
","
","
","""event"",""trial"",""time""
""fullscreenenter"",""0"",""2500""
","
","null","<p></p>","null","","","","","","","","","","","","","","","","","","","","","","","",""
"","do_recog","112","352633","0.0-65.0-0.0","""event"",""trial"",""time""
""fullscreenenter"",""0"",""2500""
","
","
","""event"",""trial"",""time""
""fullscreenenter"",""0"",""2500""
","
","1399","","","","","","","","53","","","","276","probe-42","","","","","1","[object Object]","73","1","1","","","",""
"","html-keyboard-response","113","353634","0.0-65.0-1.0","""event"",""trial"",""time""
""fullscreenenter"",""0"",""2500""
","
","
","""event"",""trial"",""time""
""fullscreenenter"",""0"",""2500""
","
","null","<p></p>","null","","","","","","","","","","","","","","","","","","","","","","","",""
"","do_trial","114","356854","0.0-66.0-0.0","""event"",""trial"",""time""
""fullscreenenter"",""0"",""2500""
","
","
","""event"",""trial"",""time""
""fullscreenenter"",""0"",""2500""
","
","632","","","","","","","","50","1,0,0","6","blank","277","null","0.5259388314588039","0.39345864399406894","0.12260774590585882","0","","","","","","","","",""
"","html-keyboard-response","115","357855","0.0-66.0-1.0","""event"",""trial"",""time""
""fullscreenenter"",""0"",""2500""
","
","
","""event"",""trial"",""time""
""fullscreenenter"",""0"",""2500""
","
","null","<p></p>","null","","","","","","","","","","","","","","","","","","","","","","","",""
"","do_trial","116","360781","0.0-67.0-0.0","""event"",""trial"",""time""
""fullscreenenter"",""0"",""2500""
","
","
","""event"",""trial"",""time""
""fullscreenenter"",""0"",""2500""
","
","338","","","","","","","","51","0,1,0","6","blank","278","null","0.5213176969813054","0.2571249597114929","0.14465389042551705","0","","","","","","","","",""
"","html-keyboard-response","117","361782","0.0-67.0-1.0","""event"",""trial"",""time""
""fullscreenenter"",""0"",""2500""
","
","
","""event"",""trial"",""time""
""fullscreenenter"",""0"",""2500""
","
","null","<p></p>","null","","","","","","","","","","","","","","","","","","","","","","","",""
"","do_trial","118","364817","0.0-68.0-0.0","""event"",""trial"",""time""
""fullscreenenter"",""0"",""2500""
","
","
","""event"",""trial"",""time""
""fullscreenenter"",""0"",""2500""
","
","448","","","","","","","","51","0,0,0","6","blank","279","null","0.5902566313959794","0.32797170020324046","0.3501239690174169","0","","","","","","","","",""
"","html-keyboard-response","119","365818","0.0-68.0-1.0","""event"",""trial"",""time""
""fullscreenenter"",""0"",""2500""
","
","
","""event"",""trial"",""time""
""fullscreenenter"",""0"",""2500""
","
","null","<p></p>","null","","","","","","","","","","","","","","","","","","","","","","","",""
"","do_trial","120","368761","0.0-69.0-0.0","""event"",""trial"",""time""
""fullscreenenter"",""0"",""2500""
","
","
","""event"",""trial"",""time""
""fullscreenenter"",""0"",""2500""
","
","356","","","","","","","","49","1,1,0","6","blank","280","null","0.5355359298122112","0.39969772377677304","0.18920409754329381","1","","","","","","","","",""
"","html-keyboard-response","121","369762","0.0-69.0-1.0","""event"",""trial"",""time""
""fullscreenenter"",""0"",""2500""
","
","
","""event"",""trial"",""time""
""fullscreenenter"",""0"",""2500""
","
","null","<p></p>","null","","","","","","","","","","","","","","","","","","","","","","","",""
"","do_trial","122","372741","0.0-70.0-0.0","""event"",""trial"",""time""
""fullscreenenter"",""0"",""2500""
","
","
","""event"",""trial"",""time""
""fullscreenenter"",""0"",""2500""
","
","392","","","","","","","","49","0,0,0","6","blank","281","null","0.5906334772231848","0.48732519870290925","0.15985019833783065","0","","","","","","","","",""
"","html-keyboard-response","123","373742","0.0-70.0-1.0","""event"",""trial"",""time""
""fullscreenenter"",""0"",""2500""
","
","
","""event"",""trial"",""time""
""fullscreenenter"",""0"",""2500""
","
","null","<p></p>","null","","","","","","","","","","","","","","","","","","","","","","","",""
"","do_recog","124","376967","0.0-71.0-0.0","""event"",""trial"",""time""
""fullscreenenter"",""0"",""2500""
","
","
","""event"",""trial"",""time""
""fullscreenenter"",""0"",""2500""
","
","1718","","","","","","","","54","","","","282","probe-152","","","","","1","[object Object]","192","4","1","","","",""
"","html-keyboard-response","125","377968","0.0-71.0-1.0","""event"",""trial"",""time""
""fullscreenenter"",""0"",""2500""
","
","
","""event"",""trial"",""time""
""fullscreenenter"",""0"",""2500""
","
","null","<p></p>","null","","","","","","","","","","","","","","","","","","","","","","","",""
"","do_trial","126","381116","0.0-72.0-0.0","""event"",""trial"",""time""
""fullscreenenter"",""0"",""2500""
","
","
","""event"",""trial"",""time""
""fullscreenenter"",""0"",""2500""
","
","559","","","","","","","","49","1,1,0","6","blank","283","null","0.7163038299878517","0.5438211552845161","0.05044952686972533","1","","","","","","","","",""
"","html-keyboard-response","127","382117","0.0-72.0-1.0","""event"",""trial"",""time""
""fullscreenenter"",""0"",""2500""
","
","
","""event"",""trial"",""time""
""fullscreenenter"",""0"",""2500""
","
","null","<p></p>","null","","","","","","","","","","","","","","","","","","","","","","","",""
"","do_trial","128","385267","0.0-73.0-0.0","""event"",""trial"",""time""
""fullscreenenter"",""0"",""2500""
","
","
","""event"",""trial"",""time""
""fullscreenenter"",""0"",""2500""
","
","563","","","","","","","","50","0,1,0","6","blank","284","null","0.7183733934843956","0.3716791000840383","0.0962856152813009","1","","","","","","","","",""
"","html-keyboard-response","129","386268","0.0-73.0-1.0","""event"",""trial"",""time""
""fullscreenenter"",""0"",""2500""
","
","
","""event"",""trial"",""time""
""fullscreenenter"",""0"",""2500""
","
","null","<p></p>","null","","","","","","","","","","","","","","","","","","","","","","","",""
"","do_trial","130","389378","0.0-74.0-0.0","""event"",""trial"",""time""
""fullscreenenter"",""0"",""2500""
","
","
","""event"",""trial"",""time""
""fullscreenenter"",""0"",""2500""
","
","521","","","","","","","","51","0,0,0","6","blank","285","null","0.6725801050204213","0.3535801224281266","0.17992748676691458","0","","","","","","","","",""
"","html-keyboard-response","131","390379","0.0-74.0-1.0","""event"",""trial"",""time""
""fullscreenenter"",""0"",""2500""
","
","
","""event"",""trial"",""time""
""fullscreenenter"",""0"",""2500""
","
","null","<p></p>","null","","","","","","","","","","","","","","","","","","","","","","","",""
"","do_trial","132","393464","0.0-75.0-0.0","""event"",""trial"",""time""
""fullscreenenter"",""0"",""2500""
","
","
","""event"",""trial"",""time""
""fullscreenenter"",""0"",""2500""
","
","497","","","","","","","","50","1,0,1","6","blank","286","null","0.4463623568270168","0.3019046514560458","0.23793567154981574","0","","","","","","","","",""
"","html-keyboard-response","133","394465","0.0-75.0-1.0","""event"",""trial"",""time""
""fullscreenenter"",""0"",""2500""
","
","
","""event"",""trial"",""time""
""fullscreenenter"",""0"",""2500""
","
","null","<p></p>","null","","","","","","","","","","","","","","","","","","","","","","","",""
"","do_trial","134","397376","0.0-76.0-0.0","""event"",""trial"",""time""
""fullscreenenter"",""0"",""2500""
","
","
","""event"",""trial"",""time""
""fullscreenenter"",""0"",""2500""
","
","324","","","","","","","","50","0,1,0","6","blank","287","null","0.45626658494734446","0.5200882275976482","0.26051853845197365","1","","","","","","","","",""
"","html-keyboard-response","135","398377","0.0-76.0-1.0","""event"",""trial"",""time""
""fullscreenenter"",""0"",""2500""
","
","
","""event"",""trial"",""time""
""fullscreenenter"",""0"",""2500""
","
","null","<p></p>","null","","","","","","","","","","","","","","","","","","","","","","","",""
"","do_recog","136","400927","0.0-77.0-0.0","""event"",""trial"",""time""
""fullscreenenter"",""0"",""2500""
","
","
","""event"",""trial"",""time""
""fullscreenenter"",""0"",""2500""
","
","1043","","","","","","","","53","","","","288","probe-121","","","","","1","[object Object]","111","2","1","","","",""
"","html-keyboard-response","137","401928","0.0-77.0-1.0","""event"",""trial"",""time""
""fullscreenenter"",""0"",""2500""
","
","
","""event"",""trial"",""time""
""fullscreenenter"",""0"",""2500""
","
","null","<p></p>","null","","","","","","","","","","","","","","","","","","","","","","","",""
"","do_trial","138","405168","0.0-78.0-0.0","""event"",""trial"",""time""
""fullscreenenter"",""0"",""2500""
","
","
","""event"",""trial"",""time""
""fullscreenenter"",""0"",""2500""
","
","652","","","","","","","","49","1,1,1","6","blank","289","null","0.5856446198954796","0.5019977306530311","0.1839790244952839","1","","","","","","","","",""
"","html-keyboard-response","139","406169","0.0-78.0-1.0","""event"",""trial"",""time""
""fullscreenenter"",""0"",""2500""
","
","
","""event"",""trial"",""time""
""fullscreenenter"",""0"",""2500""
","
","null","<p></p>","null","","","","","","","","","","","","","","","","","","","","","","","",""
"","do_trial","140","409131","0.0-79.0-0.0","""event"",""trial"",""time""
""fullscreenenter"",""0"",""2500""
","
","
","""event"",""trial"",""time""
""fullscreenenter"",""0"",""2500""
","
","375","","","","","","","","50","1,1,0","6","blank","290","null","0.6071531854101838","0.5789009456705495","0.06294925157648104","1","","","","","","","","",""
"","html-keyboard-response","141","410132","0.0-79.0-1.0","""event"",""trial"",""time""
""fullscreenenter"",""0"",""2500""
","
","
","""event"",""trial"",""time""
""fullscreenenter"",""0"",""2500""
","
","null","<p></p>","null","","","","","","","","","","","","","","","","","","","","","","","",""
"","do_trial","142","413193","0.0-80.0-0.0","""event"",""trial"",""time""
""fullscreenenter"",""0"",""2500""
","
","
","""event"",""trial"",""time""
""fullscreenenter"",""0"",""2500""
","
","474","","","","","","","","50","1,1,0","6","blank","291","null","0.5461516393046907","0.5062320817325452","0.12482517935349914","1","","","","","","","","",""
"","html-keyboard-response","143","414194","0.0-80.0-1.0","""event"",""trial"",""time""
""fullscreenenter"",""0"",""2500""
","
","
","""event"",""trial"",""time""
""fullscreenenter"",""0"",""2500""
","
","null","<p></p>","null","","","","","","","","","","","","","","","","","","","","","","","",""
"","do_recog","144","417379","0.0-81.0-0.0","""event"",""trial"",""time""
""fullscreenenter"",""0"",""2500""
","
","
","""event"",""trial"",""time""
""fullscreenenter"",""0"",""2500""
","
","1679","","","","","","","","54","","","","292","probe-25","","","","","1","[object Object]","199","4","1","","","",""
"","html-keyboard-response","145","418380","0.0-81.0-1.0","""event"",""trial"",""time""
""fullscreenenter"",""0"",""2500""
","
","
","""event"",""trial"",""time""
""fullscreenenter"",""0"",""2500""
","
","null","<p></p>","null","","","","","","","","","","","","","","","","","","","","","","","",""
"","do_trial","146","423565","0.0-82.0-0.0","""event"",""trial"",""time""
""fullscreenenter"",""0"",""2500""
","
","
","""event"",""trial"",""time""
""fullscreenenter"",""0"",""2500""
","
","2597","","","","","","","","49","0,0,0","6","blank","293","null","0.5824857284842145","0.6171601792592701","0.2022851267258334","0","","","","","","","","",""
"","html-keyboard-response","147","424566","0.0-82.0-1.0","""event"",""trial"",""time""
""fullscreenenter"",""0"",""2500""
","
","
","""event"",""trial"",""time""
""fullscreenenter"",""0"",""2500""
","
","null","<p></p>","null","","","","","","","","","","","","","","","","","","","","","","","",""
"","do_trial","148","427507","0.0-83.0-0.0","""event"",""trial"",""time""
""fullscreenenter"",""0"",""2500""
","
","
","""event"",""trial"",""time""
""fullscreenenter"",""0"",""2500""
","
","354","","","","","","","","50","0,1,0","6","blank","294","null","0.5826287162833361","0.4777906015179342","0.37974776483374806","1","","","","","","","","",""
"","html-keyboard-response","149","428508","0.0-83.0-1.0","""event"",""trial"",""time""
""fullscreenenter"",""0"",""2500""
","
","
","""event"",""trial"",""time""
""fullscreenenter"",""0"",""2500""
","
","null","<p></p>","null","","","","","","","","","","","","","","","","","","","","","","","",""
"","do_trial","150","431786","0.0-84.0-0.0","""event"",""trial"",""time""
""fullscreenenter"",""0"",""2500""
","
","
","""event"",""trial"",""time""
""fullscreenenter"",""0"",""2500""
","
","691","","","","","","","","49","0,0,0","6","blank","295","null","0.44468063838072847","0.40741883638394294","0.4447510493510359","0","","","","","","","","",""
"","html-keyboard-response","151","432787","0.0-84.0-1.0","""event"",""trial"",""time""
""fullscreenenter"",""0"",""2500""
","
","
","""event"",""trial"",""time""
""fullscreenenter"",""0"",""2500""
","
","null","<p></p>","null","","","","","","","","","","","","","","","","","","","","","","","",""
"","do_trial","152","435777","0.0-85.0-0.0","""event"",""trial"",""time""
""fullscreenenter"",""0"",""2500""
","
","
","""event"",""trial"",""time""
""fullscreenenter"",""0"",""2500""
","
","402","","","","","","","","49","1,0,1","6","blank","296","null","0.3391055125622385","0.2786461381061728","0.5512500836739334","1","","","","","","","","",""
"","html-keyboard-response","153","436778","0.0-85.0-1.0","""event"",""trial"",""time""
""fullscreenenter"",""0"",""2500""
","
","
","""event"",""trial"",""time""
""fullscreenenter"",""0"",""2500""
","
","null","<p></p>","null","","","","","","","","","","","","","","","","","","","","","","","",""
"","do_trial","154","439784","0.0-86.0-0.0","""event"",""trial"",""time""
""fullscreenenter"",""0"",""2500""
","
","
","""event"",""trial"",""time""
""fullscreenenter"",""0"",""2500""
","
","419","","","","","","","","50","0,1,0","6","blank","297","null","0.34450251266239157","0.21717988882121958","0.5646148666877333","1","","","","","","","","",""
"","html-keyboard-response","155","440785","0.0-86.0-1.0","""event"",""trial"",""time""
""fullscreenenter"",""0"",""2500""
","
","
","""event"",""trial"",""time""
""fullscreenenter"",""0"",""2500""
","
","null","<p></p>","null","","","","","","","","","","","","","","","","","","","","","","","",""
"","do_recog","156","443252","0.0-87.0-0.0","""event"",""trial"",""time""
""fullscreenenter"",""0"",""2500""
","
","
","""event"",""trial"",""time""
""fullscreenenter"",""0"",""2500""
","
","959","","","","","","","","53","","","","298","probe-215","","","","","1","[object Object]","110","2","1","","","",""
"","html-keyboard-response","157","444253","0.0-87.0-1.0","""event"",""trial"",""time""
""fullscreenenter"",""0"",""2500""
","
","
","""event"",""trial"",""time""
""fullscreenenter"",""0"",""2500""
","
","null","<p></p>","null","","","","","","","","","","","","","","","","","","","","","","","",""
"","do_trial","158","447528","0.0-88.0-0.0","""event"",""trial"",""time""
""fullscreenenter"",""0"",""2500""
","
","
","""event"",""trial"",""time""
""fullscreenenter"",""0"",""2500""
","
","687","","","","","","","","49","0,0,1","6","blank","299","null","0.25006234065518435","0.06705361835312225","0.4135606245790777","0","","","","","","","","",""
"","html-keyboard-response","159","448529","0.0-88.0-1.0","""event"",""trial"",""time""
""fullscreenenter"",""0"",""2500""
","
","
","""event"",""trial"",""time""
""fullscreenenter"",""0"",""2500""
","
","null","<p></p>","null","","","","","","","","","","","","","","","","","","","","","","","",""
"","do_trial","160","451447","0.0-89.0-0.0","""event"",""trial"",""time""
""fullscreenenter"",""0"",""2500""
","
","
","""event"",""trial"",""time""
""fullscreenenter"",""0"",""2500""
","
","330","","","","","","","","50","0,0,1","6","blank","300","null","0.14427324361277843","0.05816471655606113","0.4670640665800533","0","","","","","","","","",""
"","html-keyboard-response","161","452448","0.0-89.0-1.0","""event"",""trial"",""time""
""fullscreenenter"",""0"",""2500""
","
","
","""event"",""trial"",""time""
""fullscreenenter"",""0"",""2500""
","
","null","<p></p>","null","","","","","","","","","","","","","","","","","","","","","","","",""
"","do_trial","162","455360","0.0-90.0-0.0","""event"",""trial"",""time""
""fullscreenenter"",""0"",""2500""
","
","
","""event"",""trial"",""time""
""fullscreenenter"",""0"",""2500""
","
","324","","","","","","","","49","0,1,1","6","blank","301","null","0.100559272752891","0.11682586684910602","0.6526261489283818","0","","","","","","","","",""
"","html-keyboard-response","163","456361","0.0-90.0-1.0","""event"",""trial"",""time""
""fullscreenenter"",""0"",""2500""
","
","
","""event"",""trial"",""time""
""fullscreenenter"",""0"",""2500""
","
","null","<p></p>","null","","","","","","","","","","","","","","","","","","","","","","","",""
"","do_trial","164","459327","0.0-91.0-0.0","""event"",""trial"",""time""
""fullscreenenter"",""0"",""2500""
","
","
","""event"",""trial"",""time""
""fullscreenenter"",""0"",""2500""
","
","378","","","","","","","","50","0,0,1","6","blank","302","null","0.06631409853672417","0.1300761201378603","0.6736253598365091","0","","","","","","","","",""
"","html-keyboard-response","165","460328","0.0-91.0-1.0","""event"",""trial"",""time""
""fullscreenenter"",""0"",""2500""
","
","
","""event"",""trial"",""time""
""fullscreenenter"",""0"",""2500""
","
","null","<p></p>","null","","","","","","","","","","","","","","","","","","","","","","","",""
"","do_recog","166","463111","0.0-92.0-0.0","""event"",""trial"",""time""
""fullscreenenter"",""0"",""2500""
","
","
","""event"",""trial"",""time""
""fullscreenenter"",""0"",""2500""
","
","1277","","","","","","","","56","","","","303","probe-06","","","","","1","[object Object]","115","2","0","","","",""
"","html-keyboard-response","167","464112","0.0-92.0-1.0","""event"",""trial"",""time""
""fullscreenenter"",""0"",""2500""
","
","
","""event"",""trial"",""time""
""fullscreenenter"",""0"",""2500""
","
","null","<p></p>","null","","","","","","","","","","","","","","","","","","","","","","","",""
"","do_trial","168","467513","0.0-93.0-0.0","""event"",""trial"",""time""
""fullscreenenter"",""0"",""2500""
","
","
","""event"",""trial"",""time""
""fullscreenenter"",""0"",""2500""
","
","813","","","","","","","","49","0,0,0","6","blank","304","null","0.0693291044889951","0.35259288548246903","0.5159119696323943","0","","","","","","","","",""
"","html-keyboard-response","169","468514","0.0-93.0-1.0","""event"",""trial"",""time""
""fullscreenenter"",""0"",""2500""
","
","
","""event"",""trial"",""time""
""fullscreenenter"",""0"",""2500""
","
","null","<p></p>","null","","","","","","","","","","","","","","","","","","","","","","","",""
"","do_recog","170","471138","0.0-94.0-0.0","""event"",""trial"",""time""
""fullscreenenter"",""0"",""2500""
","
","
","""event"",""trial"",""time""
""fullscreenenter"",""0"",""2500""
","
","1118","","","","","","","","53","","","","305","probe-142","","","","","1","[object Object]","33","0","1","","","",""
"","html-keyboard-response","171","472139","0.0-94.0-1.0","""event"",""trial"",""time""
""fullscreenenter"",""0"",""2500""
","
","
","""event"",""trial"",""time""
""fullscreenenter"",""0"",""2500""
","
","null","<p></p>","null","","","","","","","","","","","","","","","","","","","","","","","",""
"","do_trial","172","475272","0.0-95.0-0.0","""event"",""trial"",""time""
""fullscreenenter"",""0"",""2500""
","
","
","""event"",""trial"",""time""
""fullscreenenter"",""0"",""2500""
","
","546","","","","","","","","49","0,0,1","6","blank","306","null","0.19896938052866248","0.3992269839260172","0.5617912973025015","0","","","","","","","","",""
"","html-keyboard-response","173","476273","0.0-95.0-1.0","""event"",""trial"",""time""
""fullscreenenter"",""0"",""2500""
","
","
","""event"",""trial"",""time""
""fullscreenenter"",""0"",""2500""
","
","null","<p></p>","null","","","","","","","","","","","","","","","","","","","","","","","",""
"","do_trial","174","479270","0.0-96.0-0.0","""event"",""trial"",""time""
""fullscreenenter"",""0"",""2500""
","
","
","""event"",""trial"",""time""
""fullscreenenter"",""0"",""2500""
","
","410","","","","","","","","50","0,0,1","6","blank","307","null","0.3724449493850132","0.30747623332830065","0.5893888770756099","0","","","","","","","","",""
"","html-keyboard-response","175","480271","0.0-96.0-1.0","""event"",""trial"",""time""
""fullscreenenter"",""0"",""2500""
","
","
","""event"",""trial"",""time""
""fullscreenenter"",""0"",""2500""
","
","null","<p></p>","null","","","","","","","","","","","","","","","","","","","","","","","",""
"","do_recog","176","483433","0.0-97.0-0.0","""event"",""trial"",""time""
""fullscreenenter"",""0"",""2500""
","
","
","""event"",""trial"",""time""
""fullscreenenter"",""0"",""2500""
","
","1655","","","","","","","","55","","","","308","probe-39","","","","","1","[object Object]","194","4","0","","","",""
"","html-keyboard-response","177","484434","0.0-97.0-1.0","""event"",""trial"",""time""
""fullscreenenter"",""0"",""2500""
","
","
","""event"",""trial"",""time""
""fullscreenenter"",""0"",""2500""
","
","null","<p></p>","null","","","","","","","","","","","","","","","","","","","","","","","",""
"","break","178","485742","0.0-98.0-0.0","""event"",""trial"",""time""
""fullscreenenter"",""0"",""2500""
","
","
","""event"",""trial"",""time""
""fullscreenenter"",""0"",""2500""
","
","1307","<div class='center'><p>Time to take a quick break! You have 2 minutes to rest, but you can move on sooner if you'd like.</p><p> Press the <b>space bar</b> to continue.</p></div>","32","","","","","","","","","","","","","","","","","","","","","","","",""
"","do_trial","179","488852","0.0-98.0-1.0","""event"",""trial"",""time""
""fullscreenenter"",""0"",""2500""
","
","
","""event"",""trial"",""time""
""fullscreenenter"",""0"",""2500""
","
","522","","","","","","","","50","0,1,1","6","blank","309","null","0.2373409922808059","0.28915451602142495","0.6272532623110958","1","","","","","","","","",""
"","html-keyboard-response","180","489854","0.0-98.0-2.0","""event"",""trial"",""time""
""fullscreenenter"",""0"",""2500""
","
","
","""event"",""trial"",""time""
""fullscreenenter"",""0"",""2500""
","
","null","<p></p>","null","","","","","","","","","","","","","","","","","","","","","","","",""
"","do_trial","181","493092","0.0-99.0-0.0","""event"",""trial"",""time""
""fullscreenenter"",""0"",""2500""
","
","
","""event"",""trial"",""time""
""fullscreenenter"",""0"",""2500""
","
","651","","","","","","","","50","0,0,0","6","blank","310","null","0.07461502825810101","0.16803982947956356","0.6084617586612222","0","","","","","","","","",""
"","html-keyboard-response","182","494093","0.0-99.0-1.0","""event"",""trial"",""time""
""fullscreenenter"",""0"",""2500""
","
","
","""event"",""trial"",""time""
""fullscreenenter"",""0"",""2500""
","
","null","<p></p>","null","","","","","","","","","","","","","","","","","","","","","","","",""
"","do_trial","183","496681","0.0-100.0-0.0","""event"",""trial"",""time""
""fullscreenenter"",""0"",""2500""
","
","
","""event"",""trial"",""time""
""fullscreenenter"",""0"",""2500""
","
","0","","","","","","","","50","0,0,1","6","blank","311","null","0.06803527093249855","0.1252576603704625","0.5744286310373468","0","","","","","","","","",""
"","html-keyboard-response","184","497682","0.0-100.0-1.0","""event"",""trial"",""time""
""fullscreenenter"",""0"",""2500""
","
","
","""event"",""trial"",""time""
""fullscreenenter"",""0"",""2500""
","
","null","<p></p>","null","","","","","","","","","","","","","","","","","","","","","","","",""
"","do_trial","185","500304","0.0-101.0-0.0","""event"",""trial"",""time""
""fullscreenenter"",""0"",""2500""
","
","
","""event"",""trial"",""time""
""fullscreenenter"",""0"",""2500""
","
","35","","","","","","","","50","0,0,1","6","blank","312","null","0.13836269510168797","0.22104458390900358","0.7350379327781887","0","","","","","","","","",""
"","html-keyboard-response","186","501305","0.0-101.0-1.0","""event"",""trial"",""time""
""fullscreenenter"",""0"",""2500""
","
","
","""event"",""trial"",""time""
""fullscreenenter"",""0"",""2500""
","
","null","<p></p>","null","","","","","","","","","","","","","","","","","","","","","","","",""
"","do_trial","187","504231","0.0-102.0-0.0","""event"",""trial"",""time""
""fullscreenenter"",""0"",""2500""
","
","
","""event"",""trial"",""time""
""fullscreenenter"",""0"",""2500""
","
","339","","","","","","","","50","0,0,1","6","blank","313","null","0.11228422636434654","0.14522499516359205","0.57993785574852","0","","","","","","","","",""
"","html-keyboard-response","188","505232","0.0-102.0-1.0","""event"",""trial"",""time""
""fullscreenenter"",""0"",""2500""
","
","
","""event"",""trial"",""time""
""fullscreenenter"",""0"",""2500""
","
","null","<p></p>","null","","","","","","","","","","","","","","","","","","","","","","","",""
"","do_recog","189","507777","0.0-103.0-0.0","""event"",""trial"",""time""
""fullscreenenter"",""0"",""2500""
","
","
","""event"",""trial"",""time""
""fullscreenenter"",""0"",""2500""
","
","1038","","","","","","","","53","","","","314","probe-141","","","","","1","[object Object]","77","1","1","","","",""
"","html-keyboard-response","190","508778","0.0-103.0-1.0","""event"",""trial"",""time""
""fullscreenenter"",""0"",""2500""
","
","
","""event"",""trial"",""time""
""fullscreenenter"",""0"",""2500""
","
","null","<p></p>","null","","","","","","","","","","","","","","","","","","","","","","","",""
"","do_trial","191","511878","0.0-104.0-0.0","""event"",""trial"",""time""
""fullscreenenter"",""0"",""2500""
","
","
","""event"",""trial"",""time""
""fullscreenenter"",""0"",""2500""
","
","513","","","","","","","","49","0,0,1","6","blank","315","null","0.058758710447143314","0.29147660954785354","0.5235515811812461","0","","","","","","","","",""
"","html-keyboard-response","192","512879","0.0-104.0-1.0","""event"",""trial"",""time""
""fullscreenenter"",""0"",""2500""
","
","
","""event"",""trial"",""time""
""fullscreenenter"",""0"",""2500""
","
","null","<p></p>","null","","","","","","","","","","","","","","","","","","","","","","","",""
"","do_trial","193","515863","0.0-105.0-0.0","""event"",""trial"",""time""
""fullscreenenter"",""0"",""2500""
","
","
","""event"",""trial"",""time""
""fullscreenenter"",""0"",""2500""
","
","395","","","","","","","","51","0,1,1","6","blank","316","null","0.06307637963046242","0.25177729148972816","0.4969487929853557","1","","","","","","","","",""
"","html-keyboard-response","194","516864","0.0-105.0-1.0","""event"",""trial"",""time""
""fullscreenenter"",""0"",""2500""
","
","
","""event"",""trial"",""time""
""fullscreenenter"",""0"",""2500""
","
","null","<p></p>","null","","","","","","","","","","","","","","","","","","","","","","","",""
"","do_recog","195","519985","0.0-106.0-0.0","""event"",""trial"",""time""
""fullscreenenter"",""0"",""2500""
","
","
","""event"",""trial"",""time""
""fullscreenenter"",""0"",""2500""
","
","1615","","","","","","","","56","","","","317","probe-135","","","","","1","[object Object]","150","3","0","","","",""
"","html-keyboard-response","196","520986","0.0-106.0-1.0","""event"",""trial"",""time""
""fullscreenenter"",""0"",""2500""
","
","
","""event"",""trial"",""time""
""fullscreenenter"",""0"",""2500""
","
","null","<p></p>","null","","","","","","","","","","","","","","","","","","","","","","","",""
"","do_trial","197","524148","0.0-107.0-0.0","""event"",""trial"",""time""
""fullscreenenter"",""0"",""2500""
","
","
","""event"",""trial"",""time""
""fullscreenenter"",""0"",""2500""
","
","575","","","","","","","","50","0,0,1","6","blank","318","null","0.0990362735168505","0.25583139763602747","0.6439244426793529","0","","","","","","","","",""
"","html-keyboard-response","198","525150","0.0-107.0-1.0","""event"",""trial"",""time""
""fullscreenenter"",""0"",""2500""
","
","
","""event"",""trial"",""time""
""fullscreenenter"",""0"",""2500""
","
","null","<p></p>","null","","","","","","","","","","","","","","","","","","","","","","","",""
"","do_trial","199","528068","0.0-108.0-0.0","""event"",""trial"",""time""
""fullscreenenter"",""0"",""2500""
","
","
","""event"",""trial"",""time""
""fullscreenenter"",""0"",""2500""
","
","331","","","","","","","","51","0,1,0","6","blank","319","null","0.09625382919102127","0.33361710546161727","0.6906065219293437","0","","","","","","","","",""
"","html-keyboard-response","200","529069","0.0-108.0-1.0","""event"",""trial"",""time""
""fullscreenenter"",""0"",""2500""
","
","
","""event"",""trial"",""time""
""fullscreenenter"",""0"",""2500""
","
","null","<p></p>","null","","","","","","","","","","","","","","","","","","","","","","","",""
"","do_trial","201","531722","0.0-109.0-0.0","""event"",""trial"",""time""
""fullscreenenter"",""0"",""2500""
","
","
","""event"",""trial"",""time""
""fullscreenenter"",""0"",""2500""
","
","65","","","","","","","","51","0,1,0","6","blank","320","null","0.06229270363862435","0.42379759881831847","0.7076059629819799","0","","","","","","","","",""
"","html-keyboard-response","202","532723","0.0-109.0-1.0","""event"",""trial"",""time""
""fullscreenenter"",""0"",""2500""
","
","
","""event"",""trial"",""time""
""fullscreenenter"",""0"",""2500""
","
","null","<p></p>","null","","","","","","","","","","","","","","","","","","","","","","","",""
"","do_trial","203","536076","0.0-110.0-0.0","""event"",""trial"",""time""
""fullscreenenter"",""0"",""2500""
","
","
","""event"",""trial"",""time""
""fullscreenenter"",""0"",""2500""
","
","766","","","","","","","","49","0,1,0","6","blank","321","null","0.09024461986139941","0.3296453853424678","0.7105792395476297","0","","","","","","","","",""
"","html-keyboard-response","204","537077","0.0-110.0-1.0","""event"",""trial"",""time""
""fullscreenenter"",""0"",""2500""
","
","
","""event"",""trial"",""time""
""fullscreenenter"",""0"",""2500""
","
","null","<p></p>","null","","","","","","","","","","","","","","","","","","","","","","","",""
"","do_trial","205","540188","0.0-111.0-0.0","""event"",""trial"",""time""
""fullscreenenter"",""0"",""2500""
","
","
","""event"",""trial"",""time""
""fullscreenenter"",""0"",""2500""
","
","523","","","","","","","","49","1,0,0","6","blank","322","null","0.10805967741934383","0.35703751254789706","0.6385009798419948","1","","","","","","","","",""
"","html-keyboard-response","206","541189","0.0-111.0-1.0","""event"",""trial"",""time""
""fullscreenenter"",""0"",""2500""
","
","
","""event"",""trial"",""time""
""fullscreenenter"",""0"",""2500""
","
","null","<p></p>","null","","","","","","","","","","","","","","","","","","","","","","","",""
"","do_trial","207","544236","0.0-112.0-0.0","""event"",""trial"",""time""
""fullscreenenter"",""0"",""2500""
","
","
","""event"",""trial"",""time""
""fullscreenenter"",""0"",""2500""
","
","459","","","","","","","","50","0,0,1","6","blank","323","null","0.10549490468225858","0.40612562016854803","0.638102216277231","0","","","","","","","","",""
"","html-keyboard-response","208","545237","0.0-112.0-1.0","""event"",""trial"",""time""
""fullscreenenter"",""0"",""2500""
","
","
","""event"",""trial"",""time""
""fullscreenenter"",""0"",""2500""
","
","null","<p></p>","null","","","","","","","","","","","","","","","","","","","","","","","",""
"","do_recog","209","547858","0.0-113.0-0.0","""event"",""trial"",""time""
""fullscreenenter"",""0"",""2500""
","
","
","""event"",""trial"",""time""
""fullscreenenter"",""0"",""2500""
","
","1115","","","","","","","","53","","","","324","probe-93","","","","","1","[object Object]","157","3","1","","","",""
"","html-keyboard-response","210","548859","0.0-113.0-1.0","""event"",""trial"",""time""
""fullscreenenter"",""0"",""2500""
","
","
","""event"",""trial"",""time""
""fullscreenenter"",""0"",""2500""
","
","null","<p></p>","null","","","","","","","","","","","","","","","","","","","","","","","",""
"","do_trial","211","552064","0.0-114.0-0.0","""event"",""trial"",""time""
""fullscreenenter"",""0"",""2500""
","
","
","""event"",""trial"",""time""
""fullscreenenter"",""0"",""2500""
","
","617","","","","","","","","49","0,1,0","6","blank","325","null","0.09044554850748726","0.4627691012598445","0.5184522132515365","0","","","","","","","","",""
"","html-keyboard-response","212","553065","0.0-114.0-1.0","""event"",""trial"",""time""
""fullscreenenter"",""0"",""2500""
","
","
","""event"",""trial"",""time""
""fullscreenenter"",""0"",""2500""
","
","null","<p></p>","null","","","","","","","","","","","","","","","","","","","","","","","",""
"","do_trial","213","556248","0.0-115.0-0.0","""event"",""trial"",""time""
""fullscreenenter"",""0"",""2500""
","
","
","""event"",""trial"",""time""
""fullscreenenter"",""0"",""2500""
","
","595","","","","","","","","51","0,0,0","6","blank","326","null","0.08426167505067624","0.35525327700129244","0.5642029515579965","0","","","","","","","","",""
"","html-keyboard-response","214","557249","0.0-115.0-1.0","""event"",""trial"",""time""
""fullscreenenter"",""0"",""2500""
","
","
","""event"",""trial"",""time""
""fullscreenenter"",""0"",""2500""
","
","null","<p></p>","null","","","","","","","","","","","","","","","","","","","","","","","",""
"","do_trial","215","560253","0.0-116.0-0.0","""event"",""trial"",""time""
""fullscreenenter"",""0"",""2500""
","
","
","""event"",""trial"",""time""
""fullscreenenter"",""0"",""2500""
","
","415","","","","","","","","50","0,0,0","6","blank","327","null","0.08398081002680631","0.38798813687656775","0.5382075847519525","0","","","","","","","","",""
"","html-keyboard-response","216","561254","0.0-116.0-1.0","""event"",""trial"",""time""
""fullscreenenter"",""0"",""2500""
","
","
","""event"",""trial"",""time""
""fullscreenenter"",""0"",""2500""
","
","null","<p></p>","null","","","","","","","","","","","","","","","","","","","","","","","",""
"","do_trial","217","564364","0.0-117.0-0.0","""event"",""trial"",""time""
""fullscreenenter"",""0"",""2500""
","
","
","""event"",""trial"",""time""
""fullscreenenter"",""0"",""2500""
","
","522","","","","","","","","49","1,0,0","6","blank","328","null","0.16395153051723427","0.41410974258363936","0.54392118690499","1","","","","","","","","",""
"","html-keyboard-response","218","565365","0.0-117.0-1.0","""event"",""trial"",""time""
""fullscreenenter"",""0"",""2500""
","
","
","""event"",""trial"",""time""
""fullscreenenter"",""0"",""2500""
","
","null","<p></p>","null","","","","","","","","","","","","","","","","","","","","","","","",""
"","do_trial","219","568516","0.0-118.0-0.0","""event"",""trial"",""time""
""fullscreenenter"",""0"",""2500""
","
","
","""event"",""trial"",""time""
""fullscreenenter"",""0"",""2500""
","
","564","","","","","","","","49","0,0,1","6","blank","329","null","0.09211570600373994","0.421401243680696","0.5819724720136753","0","","","","","","","","",""
"","html-keyboard-response","220","569517","0.0-118.0-1.0","""event"",""trial"",""time""
""fullscreenenter"",""0"",""2500""
","
","
","""event"",""trial"",""time""
""fullscreenenter"",""0"",""2500""
","
","null","<p></p>","null","","","","","","","","","","","","","","","","","","","","","","","",""
"","do_trial","221","572564","0.0-119.0-0.0","""event"",""trial"",""time""
""fullscreenenter"",""0"",""2500""
","
","
","""event"",""trial"",""time""
""fullscreenenter"",""0"",""2500""
","
","460","","","","","","","","49","0,0,0","6","blank","330","null","0.1866565659816409","0.28732971271243685","0.6193421879192695","0","","","","","","","","",""
"","html-keyboard-response","222","573565","0.0-119.0-1.0","""event"",""trial"",""time""
""fullscreenenter"",""0"",""2500""
","
","
","""event"",""trial"",""time""
""fullscreenenter"",""0"",""2500""
","
","null","<p></p>","null","","","","","","","","","","","","","","","","","","","","","","","",""
"","do_recog","223","575971","0.0-120.0-0.0","""event"",""trial"",""time""
""fullscreenenter"",""0"",""2500""
","
","
","""event"",""trial"",""time""
""fullscreenenter"",""0"",""2500""
","
","900","","","","","","","","53","","","","331","probe-49","","","","","1","[object Object]","158","3","1","","","",""
"","html-keyboard-response","224","576972","0.0-120.0-1.0","""event"",""trial"",""time""
""fullscreenenter"",""0"",""2500""
","
","
","""event"",""trial"",""time""
""fullscreenenter"",""0"",""2500""
","
","null","<p></p>","null","","","","","","","","","","","","","","","","","","","","","","","",""
"","do_trial","225","580105","0.0-121.0-0.0","""event"",""trial"",""time""
""fullscreenenter"",""0"",""2500""
","
","
","""event"",""trial"",""time""
""fullscreenenter"",""0"",""2500""
","
","545","","","","","","","","51","0,0,0","6","blank","332","null","0.1988704997234952","0.27292976943596214","0.6462748031633894","0","","","","","","","","",""
"","html-keyboard-response","226","581106","0.0-121.0-1.0","""event"",""trial"",""time""
""fullscreenenter"",""0"",""2500""
","
","
","""event"",""trial"",""time""
""fullscreenenter"",""0"",""2500""
","
","null","<p></p>","null","","","","","","","","","","","","","","","","","","","","","","","",""
"","do_recog","227","584111","0.0-122.0-0.0","""event"",""trial"",""time""
""fullscreenenter"",""0"",""2500""
","
","
","""event"",""trial"",""time""
""fullscreenenter"",""0"",""2500""
","
","1499","","","","","","","","56","","","","333","probe-79","","","","","1","[object Object]","112","2","0","","","",""
"","html-keyboard-response","228","585112","0.0-122.0-1.0","""event"",""trial"",""time""
""fullscreenenter"",""0"",""2500""
","
","
","""event"",""trial"",""time""
""fullscreenenter"",""0"",""2500""
","
","null","<p></p>","null","","","","","","","","","","","","","","","","","","","","","","","",""
"","do_trial","229","588465","0.0-123.0-0.0","""event"",""trial"",""time""
""fullscreenenter"",""0"",""2500""
","
","
","""event"",""trial"",""time""
""fullscreenenter"",""0"",""2500""
","
","764","","","","","","","","50","0,1,0","6","blank","334","null","0.10673630263063405","0.30904253035655915","0.5295939510655343","1","","","","","","","","",""
"","html-keyboard-response","230","589466","0.0-123.0-1.0","""event"",""trial"",""time""
""fullscreenenter"",""0"",""2500""
","
","
","""event"",""trial"",""time""
""fullscreenenter"",""0"",""2500""
","
","null","<p></p>","null","","","","","","","","","","","","","","","","","","","","","","","",""
"","do_trial","231","592858","0.0-124.0-0.0","""event"",""trial"",""time""
""fullscreenenter"",""0"",""2500""
","
","
","""event"",""trial"",""time""
""fullscreenenter"",""0"",""2500""
","
","804","","","","","","","","50","0,0,0","6","blank","335","null","0.11842142607612283","0.2873764757665097","0.487083298673248","0","","","","","","","","",""
"","html-keyboard-response","232","593859","0.0-124.0-1.0","""event"",""trial"",""time""
""fullscreenenter"",""0"",""2500""
","
","
","""event"",""trial"",""time""
""fullscreenenter"",""0"",""2500""
","
","null","<p></p>","null","","","","","","","","","","","","","","","","","","","","","","","",""
"","do_recog","233","597263","0.0-125.0-0.0","""event"",""trial"",""time""
""fullscreenenter"",""0"",""2500""
","
","
","""event"",""trial"",""time""
""fullscreenenter"",""0"",""2500""
","
","1898","","","","","","","","53","","","","336","probe-57","","","","","1","[object Object]","119","2","1","","","",""
"","html-keyboard-response","234","598264","0.0-125.0-1.0","""event"",""trial"",""time""
""fullscreenenter"",""0"",""2500""
","
","
","""event"",""trial"",""time""
""fullscreenenter"",""0"",""2500""
","
","null","<p></p>","null","","","","","","","","","","","","","","","","","","","","","","","",""
"","do_trial","235","601573","0.0-126.0-0.0","""event"",""trial"",""time""
""fullscreenenter"",""0"",""2500""
","
","
","""event"",""trial"",""time""
""fullscreenenter"",""0"",""2500""
","
","721","","","","","","","","49","0,0,1","6","blank","337","null","0.29294410741686094","0.24917711969815298","0.6536653658411075","0","","","","","","","","",""
"","html-keyboard-response","236","602574","0.0-126.0-1.0","""event"",""trial"",""time""
""fullscreenenter"",""0"",""2500""
","
","
","""event"",""trial"",""time""
""fullscreenenter"",""0"",""2500""
","
","null","<p></p>","null","","","","","","","","","","","","","","","","","","","","","","","",""
"","do_recog","237","605062","0.0-127.0-0.0","""event"",""trial"",""time""
""fullscreenenter"",""0"",""2500""
","
","
","""event"",""trial"",""time""
""fullscreenenter"",""0"",""2500""
","
","981","","","","","","","","53","","","","338","probe-227","","","","","1","[object Object]","193","4","1","","","",""
"","html-keyboard-response","238","606063","0.0-127.0-1.0","""event"",""trial"",""time""
""fullscreenenter"",""0"",""2500""
","
","
","""event"",""trial"",""time""
""fullscreenenter"",""0"",""2500""
","
","null","<p></p>","null","","","","","","","","","","","","","","","","","","","","","","","",""
"","do_trial","239","609412","0.0-128.0-0.0","""event"",""trial"",""time""
""fullscreenenter"",""0"",""2500""
","
","
","""event"",""trial"",""time""
""fullscreenenter"",""0"",""2500""
","
","761","","","","","","","","51","1,0,0","6","blank","339","null","0.1411908595036418","0.3166210673191243","0.5926096177038861","0","","","","","","","","",""
"","html-keyboard-response","240","610413","0.0-128.0-1.0","""event"",""trial"",""time""
""fullscreenenter"",""0"",""2500""
","
","
","""event"",""trial"",""time""
""fullscreenenter"",""0"",""2500""
","
","null","<p></p>","null","","","","","","","","","","","","","","","","","","","","","","","",""
"","do_trial","241","613800","0.0-129.0-0.0","""event"",""trial"",""time""
""fullscreenenter"",""0"",""2500""
","
","
","""event"",""trial"",""time""
""fullscreenenter"",""0"",""2500""
","
","799","","","","","","","","49","0,1,0","6","blank","340","null","0.057625788672542144","0.4222703484293976","0.6348378907945661","0","","","","","","","","",""
"","html-keyboard-response","242","614801","0.0-129.0-1.0","""event"",""trial"",""time""
""fullscreenenter"",""0"",""2500""
","
","
","""event"",""trial"",""time""
""fullscreenenter"",""0"",""2500""
","
","null","<p></p>","null","","","","","","","","","","","","","","","","","","","","","","","",""
"","do_trial","243","617866","0.0-130.0-0.0","""event"",""trial"",""time""
""fullscreenenter"",""0"",""2500""
","
","
","""event"",""trial"",""time""
""fullscreenenter"",""0"",""2500""
","
","476","","","","","","","","50","0,0,1","6","blank","341","null","0.06779762577318087","0.445586357203901","0.557888863452541","0","","","","","","","","",""
"","html-keyboard-response","244","618867","0.0-130.0-1.0","""event"",""trial"",""time""
""fullscreenenter"",""0"",""2500""
","
","
","""event"",""trial"",""time""
""fullscreenenter"",""0"",""2500""
","
","null","<p></p>","null","","","","","","","","","","","","","","","","","","","","","","","",""
"","do_trial","245","622086","0.0-131.0-0.0","""event"",""trial"",""time""
""fullscreenenter"",""0"",""2500""
","
","
","""event"",""trial"",""time""
""fullscreenenter"",""0"",""2500""
","
","632","","","","","","","","50","0,0,0","6","blank","342","null","0.13906831506134856","0.30386608375275376","0.5896233603370363","0","","","","","","","","",""
"","html-keyboard-response","246","623087","0.0-131.0-1.0","""event"",""trial"",""time""
""fullscreenenter"",""0"",""2500""
","
","
","""event"",""trial"",""time""
""fullscreenenter"",""0"",""2500""
","
","null","<p></p>","null","","","","","","","","","","","","","","","","","","","","","","","",""
"","do_recog","247","625727","0.0-132.0-0.0","""event"",""trial"",""time""
""fullscreenenter"",""0"",""2500""
","
","
","""event"",""trial"",""time""
""fullscreenenter"",""0"",""2500""
","
","1133","","","","","","","","53","","","","343","probe-226","","","","","1","[object Object]","71","1","1","","","",""
"","html-keyboard-response","248","626728","0.0-132.0-1.0","""event"",""trial"",""time""
""fullscreenenter"",""0"",""2500""
","
","
","""event"",""trial"",""time""
""fullscreenenter"",""0"",""2500""
","
","null","<p></p>","null","","","","","","","","","","","","","","","","","","","","","","","",""
"","do_trial","249","630102","0.0-133.0-0.0","""event"",""trial"",""time""
""fullscreenenter"",""0"",""2500""
","
","
","""event"",""trial"",""time""
""fullscreenenter"",""0"",""2500""
","
","785","","","","","","","","49","0,0,0","6","blank","344","null","0.17737376568218852","0.3109337873796545","0.5530243887117111","0","","","","","","","","",""
"","html-keyboard-response","250","631103","0.0-133.0-1.0","""event"",""trial"",""time""
""fullscreenenter"",""0"",""2500""
","
","
","""event"",""trial"",""time""
""fullscreenenter"",""0"",""2500""
","
","null","<p></p>","null","","","","","","","","","","","","","","","","","","","","","","","",""
"","do_trial","251","634142","0.0-134.0-0.0","""event"",""trial"",""time""
""fullscreenenter"",""0"",""2500""
","
","
","""event"",""trial"",""time""
""fullscreenenter"",""0"",""2500""
","
","449","","","","","","","","51","0,0,1","6","blank","345","null","0.15302584058827276","0.26714304626022917","0.452386293039866","1","","","","","","","","",""
"","html-keyboard-response","252","635143","0.0-134.0-1.0","""event"",""trial"",""time""
""fullscreenenter"",""0"",""2500""
","
","
","""event"",""trial"",""time""
""fullscreenenter"",""0"",""2500""
","
","null","<p></p>","null","","","","","","","","","","","","","","","","","","","","","","","",""
"","do_trial","253","638936","0.0-135.0-0.0","""event"",""trial"",""time""
""fullscreenenter"",""0"",""2500""
","
","
","""event"",""trial"",""time""
""fullscreenenter"",""0"",""2500""
","
","1206","","","","","","","","51","1,0,1","6","blank","346","null","0.32419251546754263","0.2198355877823782","0.3630228643553714","1","","","","","","","","",""
"","html-keyboard-response","254","639937","0.0-135.0-1.0","""event"",""trial"",""time""
""fullscreenenter"",""0"",""2500""
","
","
","""event"",""trial"",""time""
""fullscreenenter"",""0"",""2500""
","
","null","<p></p>","null","","","","","","","","","","","","","","","","","","","","","","","",""
"","do_trial","255","643311","0.0-136.0-0.0","""event"",""trial"",""time""
""fullscreenenter"",""0"",""2500""
","
","
","""event"",""trial"",""time""
""fullscreenenter"",""0"",""2500""
","
","787","","","","","","","","49","0,0,1","6","blank","347","null","0.5275935888738467","0.20492545663532943","0.3664109019169053","0","","","","","","","","",""
"","html-keyboard-response","256","644312","0.0-136.0-1.0","""event"",""trial"",""time""
""fullscreenenter"",""0"",""2500""
","
","
","""event"",""trial"",""time""
""fullscreenenter"",""0"",""2500""
","
","null","<p></p>","null","","","","","","","","","","","","","","","","","","","","","","","",""
"","do_recog","257","646736","0.0-137.0-0.0","""event"",""trial"",""time""
""fullscreenenter"",""0"",""2500""
","
","
","""event"",""trial"",""time""
""fullscreenenter"",""0"",""2500""
","
","917","","","","","","","","53","","","","348","probe-166","","","","","1","[object Object]","31","0","1","","","",""
"","html-keyboard-response","258","647736","0.0-137.0-1.0","""event"",""trial"",""time""
""fullscreenenter"",""0"",""2500""
","
","
","""event"",""trial"",""time""
""fullscreenenter"",""0"",""2500""
","
","null","<p></p>","null","","","","","","","","","","","","","","","","","","","","","","","",""
"","break","259","649302","0.0-138.0-0.0","""event"",""trial"",""time""
""fullscreenenter"",""0"",""2500""
","
","
","""event"",""trial"",""time""
""fullscreenenter"",""0"",""2500""
","
","1564","<div class='center'><p>Time to take a quick break! You have 2 minutes to rest, but you can move on sooner if you'd like.</p><p> Press the <b>space bar</b> to continue.</p></div>","32","","","","","","","","","","","","","","","","","","","","","","","",""
"","do_trial","260","652549","0.0-138.0-1.0","""event"",""trial"",""time""
""fullscreenenter"",""0"",""2500""
","
","
","""event"",""trial"",""time""
""fullscreenenter"",""0"",""2500""
","
","660","","","","","","","","50","1,1,0","6","blank","349","null","0.5547760339029619","0.21115205421366234","0.47773461489422275","1","","","","","","","","",""
"","html-keyboard-response","261","653550","0.0-138.0-2.0","""event"",""trial"",""time""
""fullscreenenter"",""0"",""2500""
","
","
","""event"",""trial"",""time""
""fullscreenenter"",""0"",""2500""
","
","null","<p></p>","null","","","","","","","","","","","","","","","","","","","","","","","",""
"","do_trial","262","656854","0.0-139.0-0.0","""event"",""trial"",""time""
""fullscreenenter"",""0"",""2500""
","
","
","""event"",""trial"",""time""
""fullscreenenter"",""0"",""2500""
","
","716","","","","","","","","50","1,0,0","6","blank","350","null","0.5212191518695175","0.13615377655883973","0.3746864005117837","0","","","","","","","","",""
"","html-keyboard-response","263","657855","0.0-139.0-1.0","""event"",""trial"",""time""
""fullscreenenter"",""0"",""2500""
","
","
","""event"",""trial"",""time""
""fullscreenenter"",""0"",""2500""
","
","null","<p></p>","null","","","","","","","","","","","","","","","","","","","","","","","",""
"","do_recog","264","660899","0.0-140.0-0.0","""event"",""trial"",""time""
""fullscreenenter"",""0"",""2500""
","
","
","""event"",""trial"",""time""
""fullscreenenter"",""0"",""2500""
","
","1538","","","","","","","","53","","","","351","probe-144","","","","","1","[object Object]","36","0","1","","","",""
"","html-keyboard-response","265","661900","0.0-140.0-1.0","""event"",""trial"",""time""
""fullscreenenter"",""0"",""2500""
","
","
","""event"",""trial"",""time""
""fullscreenenter"",""0"",""2500""
","
","null","<p></p>","null","","","","","","","","","","","","","","","","","","","","","","","",""
"","do_trial","266","665185","0.0-141.0-0.0","""event"",""trial"",""time""
""fullscreenenter"",""0"",""2500""
","
","
","""event"",""trial"",""time""
""fullscreenenter"",""0"",""2500""
","
","696","","","","","","","","50","0,1,0","6","blank","352","null","0.510132477418829","0.07175039665131841","0.3021706587008023","1","","","","","","","","",""
"","html-keyboard-response","267","666186","0.0-141.0-1.0","""event"",""trial"",""time""
""fullscreenenter"",""0"",""2500""
","
","
","""event"",""trial"",""time""
""fullscreenenter"",""0"",""2500""
","
","null","<p></p>","null","","","","","","","","","","","","","","","","","","","","","","","",""
"","do_trial","268","669259","0.0-142.0-0.0","""event"",""trial"",""time""
""fullscreenenter"",""0"",""2500""
","
","
","""event"",""trial"",""time""
""fullscreenenter"",""0"",""2500""
","
","484","","","","","","","","49","0,0,0","6","blank","353","null","0.5939806349644193","0.11254157168408867","0.4139039015293713","0","","","","","","","","",""
"","html-keyboard-response","269","670260","0.0-142.0-1.0","""event"",""trial"",""time""
""fullscreenenter"",""0"",""2500""
","
","
","""event"",""trial"",""time""
""fullscreenenter"",""0"",""2500""
","
","null","<p></p>","null","","","","","","","","","","","","","","","","","","","","","","","",""
"","do_trial","270","673390","0.0-143.0-0.0","""event"",""trial"",""time""
""fullscreenenter"",""0"",""2500""
","
","
","""event"",""trial"",""time""
""fullscreenenter"",""0"",""2500""
","
","543","","","","","","","","49","0,0,0","6","blank","354","null","0.52410250249373","0.10506126020422953","0.5222533386760319","0","","","","","","","","",""
"","html-keyboard-response","271","674391","0.0-143.0-1.0","""event"",""trial"",""time""
""fullscreenenter"",""0"",""2500""
","
","
","""event"",""trial"",""time""
""fullscreenenter"",""0"",""2500""
","
","null","<p></p>","null","","","","","","","","","","","","","","","","","","","","","","","",""
"","do_trial","272","677399","0.0-144.0-0.0","""event"",""trial"",""time""
""fullscreenenter"",""0"",""2500""
","
","
","""event"",""trial"",""time""
""fullscreenenter"",""0"",""2500""
","
","421","","","","","","","","51","0,0,0","6","blank","355","null","0.45882947570901056","0.13399203904620888","0.4490471125164383","0","","","","","","","","",""
"","html-keyboard-response","273","678400","0.0-144.0-1.0","""event"",""trial"",""time""
""fullscreenenter"",""0"",""2500""
","
","
","""event"",""trial"",""time""
""fullscreenenter"",""0"",""2500""
","
","null","<p></p>","null","","","","","","","","","","","","","","","","","","","","","","","",""
"","do_trial","274","681564","0.0-145.0-0.0","""event"",""trial"",""time""
""fullscreenenter"",""0"",""2500""
","
","
","""event"",""trial"",""time""
""fullscreenenter"",""0"",""2500""
","
","576","","","","","","","","50","0,0,0","6","blank","356","null","0.45523694948076737","0.0856552807572254","0.4981650138760898","0","","","","","","","","",""
"","html-keyboard-response","275","682566","0.0-145.0-1.0","""event"",""trial"",""time""
""fullscreenenter"",""0"",""2500""
","
","
","""event"",""trial"",""time""
""fullscreenenter"",""0"",""2500""
","
","null","<p></p>","null","","","","","","","","","","","","","","","","","","","","","","","",""
"","do_recog","276","685333","0.0-146.0-0.0","""event"",""trial"",""time""
""fullscreenenter"",""0"",""2500""
","
","
","""event"",""trial"",""time""
""fullscreenenter"",""0"",""2500""
","
","1261","","","","","","","","53","","","","357","probe-133","","","","","1","[object Object]","78","1","1","","","",""
"","html-keyboard-response","277","686334","0.0-146.0-1.0","""event"",""trial"",""time""
""fullscreenenter"",""0"",""2500""
","
","
","""event"",""trial"",""time""
""fullscreenenter"",""0"",""2500""
","
","null","<p></p>","null","","","","","","","","","","","","","","","","","","","","","","","",""
"","do_trial","278","689377","0.0-147.0-0.0","""event"",""trial"",""time""
""fullscreenenter"",""0"",""2500""
","
","
","""event"",""trial"",""time""
""fullscreenenter"",""0"",""2500""
","
","456","","","","","","","","50","0,0,0","6","blank","358","null","0.4065863978134597","0.1750560489080866","0.2978632790258283","0","","","","","","","","",""
"","html-keyboard-response","279","690378","0.0-147.0-1.0","""event"",""trial"",""time""
""fullscreenenter"",""0"",""2500""
","
","
","""event"",""trial"",""time""
""fullscreenenter"",""0"",""2500""
","
","null","<p></p>","null","","","","","","","","","","","","","","","","","","","","","","","",""
"","do_trial","280","693518","0.0-148.0-0.0","""event"",""trial"",""time""
""fullscreenenter"",""0"",""2500""
","
","
","""event"",""trial"",""time""
""fullscreenenter"",""0"",""2500""
","
","552","","","","","","","","49","1,1,1","6","blank","359","null","0.3862226195745131","0.2324984046402426","0.48195026684402564","1","","","","","","","","",""
"","html-keyboard-response","281","694519","0.0-148.0-1.0","""event"",""trial"",""time""
""fullscreenenter"",""0"",""2500""
","
","
","""event"",""trial"",""time""
""fullscreenenter"",""0"",""2500""
","
","null","<p></p>","null","","","","","","","","","","","","","","","","","","","","","","","",""
"","do_trial","282","698221","0.0-149.0-0.0","""event"",""trial"",""time""
