"success","trial_type","trial_index","time_elapsed","internal_node_id","interactions","blur_events","focus_events","fullscreenenter_events","fullscreenexit_events","rt","stimulus","key_press","subject_id","participant_id","age","gender","prompt","response","choice_outcomes","context_n","context_img_id","trial_n","probe_img_id","pR_red","pR_white","pR_black","outcome","is_valid","image_to_show","probed_trial","probed_context","correct","probe","probed_trial_n","probed_context_n","context_im"
"true","fullscreen","0","10610","0.0-0.0","""event"",""trial"",""time""
""fullscreenenter"",""0"",""9624""
","
","
","""event"",""trial"",""time""
""fullscreenenter"",""0"",""9624""
","
","","","","","","","","","","","","","","","","","","","","","","","","","","",""
"","pavlovia","1","10620","0.0-1.0","""event"",""trial"",""time""
""fullscreenenter"",""0"",""9624""
","
","
","""event"",""trial"",""time""
""fullscreenenter"",""0"",""9624""
","
","","","","","","","","","","","","","","","","","","","","","","","","","","",""
"","welc_back","2","20459","0.0-2.0","""event"",""trial"",""time""
""fullscreenenter"",""0"",""9624""
","
","
","""event"",""trial"",""time""
""fullscreenenter"",""0"",""9624""
","
","null","run_exp/static/audio/clip_29_welcome_back.m4a","null","559","661","11","Female","<div class='center'><p>Welcome to day 2!</p><p> Yesterday, you were the head captain of a pirate ship. You asked your fellow pirates to rob other ships of their gold across six different islands.</p></div>","","","","","","","","","","","","","","","","","","",""
"","html-keyboard-response","3","22075","0.0-3.0","""event"",""trial"",""time""
""fullscreenenter"",""0"",""9624""
","
","
","""event"",""trial"",""time""
""fullscreenenter"",""0"",""9624""
","
","1614.2000000001863","<div class='center'><p>Welcome to day 2!</p><p> Yesterday, you were the head captain of a pirate ship. You asked your fellow pirates to rob other ships of their gold across six different islands.</p><p><b>[Press the space bar to continue]</b></p></div>","32","","","","","","","","","","","","","","","","","","","","","","","",""
"","day_1_summary_goal","4","39271","0.0-4.0","""event"",""trial"",""time""
""fullscreenenter"",""0"",""9624""
","
","
","""event"",""trial"",""time""
""fullscreenenter"",""0"",""9624""
","
","null","run_exp/static/audio/clip_30_goal_of_game.m4a","null","","","","","<div class='center'><p>Today, like yesterday, you get to pick which pirate you want to rob the next ship.</p><p>If the pirate is successful in robbing a ship, you get gold coins that look like this: </p><p><img src='run_exp/static/images/tutorial/reward.png' height='150'></p><p> If they were not successful in robbing the ship, then you will get no gold coins and you'll see a big red x like this: </p><p><img src='run_exp/static/images/tutorial/reward_no.png' height='150'></p></div>","","","","","","","","","","","","","","","","","","",""
"","html-keyboard-response","5","40068","0.0-5.0","""event"",""trial"",""time""
""fullscreenenter"",""0"",""9624""
","
","
","""event"",""trial"",""time""
""fullscreenenter"",""0"",""9624""
","
","795.3000000007451","<div class='center'><p>Today, like yesterday, you get to pick which pirate you want to rob the next ship.</p><p>If the pirate is successful in robbing a ship, you get gold coins that look like this: </p><p><img src='run_exp/static/images/tutorial/reward.png' height='150'></p><p> If they were not successful in robbing the ship, then you will get no gold coins and you'll see a big red x like this: </p><p><img src='run_exp/static/images/tutorial/reward_no.png' height='150'></p><p><b>[Press the space bar to continue]</b></p></div>","32","","","","","","","","","","","","","","","","","","","","","","","",""
"","day_1_summary_pick","6","54774","0.0-6.0","""event"",""trial"",""time""
""fullscreenenter"",""0"",""9624""
","
","
","""event"",""trial"",""time""
""fullscreenenter"",""0"",""9624""
","
","null","run_exp/static/audio/clip_31_how_to_pick_a_pirate.m4a","null","","","","","<div class='center'><p>Also, just like yesterday, you will use the 1,2,3 keys on your keyboard to pick a pirate. Press '1' to choose red beard, '2' to choose white beard, and '3' to choose black beard . You only have 3 seconds to pick a pirate, so please make a choice quickly!</p></div>","","","","","","","","","","","","","","","","","","",""
"","html-keyboard-response","7","55539","0.0-7.0","""event"",""trial"",""time""
""fullscreenenter"",""0"",""9624""
","
","
","""event"",""trial"",""time""
""fullscreenenter"",""0"",""9624""
","
","762.5","<div class='center'><p>Also, just like yesterday, you will use the 1,2,3 keys on your keyboard to pick a pirate. Press '1' to choose red beard, '2' to choose white beard, and '3' to choose black beard . You only have 3 seconds to pick a pirate, so please make a choice quickly!</p><p><b>[Press the space bar to continue]</b></p></div>","32","","","","","","","","","","","","","","","","","","","","","","","",""
"","test_phase_begin","8","85920","0.0-8.0","""event"",""trial"",""time""
""fullscreenenter"",""0"",""9624""
","
","
","""event"",""trial"",""time""
""fullscreenenter"",""0"",""9624""
","
","null","run_exp/static/audio/clip_32_final_place.m4a","null","","","","","<div class='center'><p>You’ve arrived at the final island of your journey! Unfortunately, it’s very foggy out, so you won’t be able to see it in the distance like the other islands you've visited.</p><p>You’ll still be deciding which pirate you want to rob a ship like before. However, because of the fog, you also won’t be able to see the ship.</p><p>This means you do not have to remember the ships you rob on this island.</p><p>Unlike yesterday, you won't be visiting multiple islands today. You will stay on this island for the entire game. This game will last ~30 minutes.</p></div>","","","","","","","","","","","","","","","","","","",""
"","html-keyboard-response","9","86054","0.0-9.0","""event"",""trial"",""time""
""fullscreenenter"",""0"",""9624""
","
","
","""event"",""trial"",""time""
""fullscreenenter"",""0"",""9624""
","
","132.3999999994412","<div class='center'><p>You’ve arrived at the final island of your journey! Unfortunately, it’s very foggy out, so you won’t be able to see it in the distance like the other islands you've visited.</p><p>You’ll still be deciding which pirate you want to rob a ship like before. However, because of the fog, you also won’t be able to see the ship.</p><p>This means you do not have to remember the ships you rob on this island.</p><p>Unlike yesterday, you won't be visiting multiple islands today. You will stay on this island for the entire game. This game will last ~30 minutes.</p><p><b>[Press the space bar to continue]</b></p></div>","32","","","","","","","","","","","","","","","","","","","","","","","",""
"","explain_probe_1","10","93763","0.0-10.0","""event"",""trial"",""time""
""fullscreenenter"",""0"",""9624""
","
","
","""event"",""trial"",""time""
""fullscreenenter"",""0"",""9624""
","
","null","run_exp/static/audio/clip_33_recognition_1.m4a","null","","","","","<div class='center'><p> Sometimes you’ll be shown a ship, and you will be asked if you saw this ship on a past island.</p><p> Here is an example of what you will see.</p><p><img src='run_exp/static/images/tutorial/example_recog_trial.png' height='500'></p></div>","","","","","","","","","","","","","","","","","","",""
"","html-keyboard-response","11","96937","0.0-11.0","""event"",""trial"",""time""
""fullscreenenter"",""0"",""9624""
","
","
","""event"",""trial"",""time""
""fullscreenenter"",""0"",""9624""
","
","3172","<div class='center'><p> Sometimes you’ll be shown a ship, and you will be asked if you saw this ship on a past island.</p><p> Here is an example of what you will see.</p><p><img src='run_exp/static/images/tutorial/example_recog_trial.png' height='500'></p><p><b>[Press the space bar to continue]</b></p></div>","32","","","","","","","","","","","","","","","","","","","","","","","",""
"","explain_probe_2","12","118653","0.0-12.0","""event"",""trial"",""time""
""fullscreenenter"",""0"",""9624""
","
","
","""event"",""trial"",""time""
""fullscreenenter"",""0"",""9624""
","
","null","run_exp/static/audio/clip_34_recognition_2.m4a","null","","","","","<div class='center'><p> You will press the 5, 6, 7, 8 keys on your keyboard to respond.</p><p>If you are sure you saw the ship, press <b>5</b> on your keyboard.</p><p> If you think you saw it before but aren't sure, then press <b>6</b>.</p><p> If you think you have <b>not</b> seen it before but aren't sure, then press <b>7</b>.</p><p> If you are sure you did <b>not</b> see the ship before, then press <b>8</b>.</p><p><img src='run_exp/static/images/tutorial/example_recog_trial.png' height='500'></p></div>","","","","","","","","","","","","","","","","","","",""
"","html-keyboard-response","13","119508","0.0-13.0","""event"",""trial"",""time""
""fullscreenenter"",""0"",""9624""
","
","
","""event"",""trial"",""time""
""fullscreenenter"",""0"",""9624""
","
","853.9000000003725","<div class='center'><p> You will press the 5, 6, 7, 8 keys on your keyboard to respond.</p><p>If you are sure you saw the ship, press <b>5</b> on your keyboard.</p><p> If you think you saw it before but aren't sure, then press <b>6</b>.</p><p> If you think you have <b>not</b> seen it before but aren't sure, then press <b>7</b>.</p><p> If you are sure you did <b>not</b> see the ship before, then press <b>8</b>.</p><p><img src='run_exp/static/images/tutorial/example_recog_trial.png' height='500'></p><p><b>[Press the space bar to continue]</b></p></div>","32","","","","","","","","","","","","","","","","","","","","","","","",""
"","explain_outcome","14","136694","0.0-14.0","""event"",""trial"",""time""
""fullscreenenter"",""0"",""9624""
","
","
","""event"",""trial"",""time""
""fullscreenenter"",""0"",""9624""
","
","null","run_exp/static/audio/clip_35_recognition_3.m4a","null","","","","","<div class='center'><p> If you remember correctly, then you’ll get a gold coin like this: </p><p><img src='run_exp/static/images/tutorial/reward_small.png' height='200'></p><p>If you do not remember correctly, then you'll see a red x like this: </p><p><img src='run_exp/static/images/tutorial/reward_no.png' height='200'></p><p>Importantly, when you are shown a ship, take the time to remind yourself which island you saw it on. This will help you in the next part of the study.</p></div>","","","","","","","","","","","","","","","","","","",""
"","html-keyboard-response","15","137564","0.0-15.0","""event"",""trial"",""time""
""fullscreenenter"",""0"",""9624""
","
","
","""event"",""trial"",""time""
""fullscreenenter"",""0"",""9624""
","
","867.2999999998137","<div class='center'><p> If you remember correctly, then you’ll get a gold coin like this: </p><p><img src='run_exp/static/images/tutorial/reward_small.png' height='200'></p><p>If you do not remember correctly, then you'll see a red x like this: </p><p><img src='run_exp/static/images/tutorial/reward_no.png' height='200'></p><p>Importantly, when you are shown a ship, take the time to remind yourself which island you saw it on. This will help you in the next part of the study.</p><p><b>[Press the space bar to continue]</b></p></div>","32","","","","","","","","","","","","","","","","","","","","","","","",""
"","begin_test_phase","16","153375","0.0-16.0","""event"",""trial"",""time""
""fullscreenenter"",""0"",""9624""
","
","
","""event"",""trial"",""time""
""fullscreenenter"",""0"",""9624""
","
","null","run_exp/static/audio/clip_36_begin_final.m4a","null","","","","","<div class='center'><p>Let's go over the important points again. Your job is to: </p><p>1. Pick the pirate who is best at robbing ships and will bring you back gold coins. </p><p>2. Correctly remember whether or not you saw a ship before. If you did see the ship before, remind yourself on which island you saw it. </p></div>","","","","","","","","","","","","","","","","","","",""
"","html-keyboard-response","17","154388","0.0-17.0","""event"",""trial"",""time""
""fullscreenenter"",""0"",""9624""
","
","
","""event"",""trial"",""time""
""fullscreenenter"",""0"",""9624""
","
","920.2000000001863","<div class='center'><p>Let's go over the important points again. Your job is to: </p><p>1. Pick the pirate who is best at robbing ships and will bring you back gold coins. </p><p>2. Correctly remember whether or not you saw a ship before. If you did see the ship before, remind yourself on which island you saw it. </p><p><b>[Press the space bar to continue]</b></p></div>","32","","","","","","","","","","","","","","","","","","","","","","","",""
"","do_welcome","18","158403","0.0-18.0","""event"",""trial"",""time""
""fullscreenenter"",""0"",""9624""
","
","
","""event"",""trial"",""time""
""fullscreenenter"",""0"",""9624""
","
","null","","","","","","","","null","","","","","","","","","","","","","","","","","",""
"","do_trial","19","162917","0.0-19.0-0.0","""event"",""trial"",""time""
""fullscreenenter"",""0"",""9624""
","
","
","""event"",""trial"",""time""
""fullscreenenter"",""0"",""9624""
","
","1872.699999999255","","","","","","","","50","1,1,0","6","blank","230","null","0.2594814426552704","0.5737915648124995","0.21884416699269715","1","","","","","","","","",""
"","html-keyboard-response","20","163919","0.0-19.0-1.0","""event"",""trial"",""time""
""fullscreenenter"",""0"",""9624""
","
","
","""event"",""trial"",""time""
""fullscreenenter"",""0"",""9624""
","
","null","<p></p>","null","","","","","","","","","","","","","","","","","","","","","","","",""
"","do_trial","21","167171","0.0-20.0-0.0","""event"",""trial"",""time""
""fullscreenenter"",""0"",""9624""
","
","
","""event"",""trial"",""time""
""fullscreenenter"",""0"",""9624""
","
","606.1000000005588","","","","","","","","50","1,0,0","6","blank","231","null","0.27821739900154063","0.6853350086496882","0.23009877141678686","0","","","","","","","","",""
"","html-keyboard-response","22","168173","0.0-20.0-1.0","""event"",""trial"",""time""
""fullscreenenter"",""0"",""9624""
","
","
","""event"",""trial"",""time""
""fullscreenenter"",""0"",""9624""
","
","null","<p></p>","null","","","","","","","","","","","","","","","","","","","","","","","",""
"","do_trial","23","170878","0.0-21.0-0.0","""event"",""trial"",""time""
""fullscreenenter"",""0"",""9624""
","
","
","""event"",""trial"",""time""
""fullscreenenter"",""0"",""9624""
","
","76.09999999962747","","","","","","","","51","1,0,0","6","blank","232","null","0.2573013929804574","0.6841477894556975","0.16816741087136153","0","","","","","","","","",""
"","html-keyboard-response","24","171880","0.0-21.0-1.0","""event"",""trial"",""time""
""fullscreenenter"",""0"",""9624""
","
","
","""event"",""trial"",""time""
""fullscreenenter"",""0"",""9624""
","
","null","<p></p>","null","","","","","","","","","","","","","","","","","","","","","","","",""
"","do_trial","25","174519","0.0-22.0-0.0","""event"",""trial"",""time""
""fullscreenenter"",""0"",""9624""
","
","
","""event"",""trial"",""time""
""fullscreenenter"",""0"",""9624""
","
","16.200000000186265","","","","","","","","49","0,1,0","6","blank","233","null","0.404835309425106","0.5852523429469407","0.16465508250365496","0","","","","","","","","",""
"","html-keyboard-response","26","175521","0.0-22.0-1.0","""event"",""trial"",""time""
""fullscreenenter"",""0"",""9624""
","
","
","""event"",""trial"",""time""
""fullscreenenter"",""0"",""9624""
","
","null","<p></p>","null","","","","","","","","","","","","","","","","","","","","","","","",""
"","do_trial","27","178601","0.0-23.0-0.0","""event"",""trial"",""time""
""fullscreenenter"",""0"",""9624""
","
","
","""event"",""trial"",""time""
""fullscreenenter"",""0"",""9624""
","
","456.59999999962747","","","","","","","","49","0,1,0","6","blank","234","null","0.3355248336148048","0.6037747108159112","0.13599111325648006","0","","","","","","","","",""
"","html-keyboard-response","28","179605","0.0-23.0-1.0","""event"",""trial"",""time""
""fullscreenenter"",""0"",""9624""
","
","
","""event"",""trial"",""time""
""fullscreenenter"",""0"",""9624""
","
","null","<p></p>","null","","","","","","","","","","","","","","","","","","","","","","","",""
"","do_trial","29","182552","0.0-24.0-0.0","""event"",""trial"",""time""
""fullscreenenter"",""0"",""9624""
","
","
","""event"",""trial"",""time""
""fullscreenenter"",""0"",""9624""
","
","354.20000000018626","","","","","","","","50","0,0,0","6","blank","235","null","0.32437251625757485","0.7302666833330347","0.14352538094005465","0","","","","","","","","",""
"","html-keyboard-response","30","183554","0.0-24.0-1.0","""event"",""trial"",""time""
""fullscreenenter"",""0"",""9624""
","
","
","""event"",""trial"",""time""
""fullscreenenter"",""0"",""9624""
","
","null","<p></p>","null","","","","","","","","","","","","","","","","","","","","","","","",""
"","do_trial","31","186201","0.0-25.0-0.0","""event"",""trial"",""time""
""fullscreenenter"",""0"",""9624""
","
","
","""event"",""trial"",""time""
""fullscreenenter"",""0"",""9624""
","
","22.59999999962747","","","","","","","","51","0,1,1","6","blank","236","null","0.3272833350019775","0.6940937203370108","0.1181989298847173","1","","","","","","","","",""
"","html-keyboard-response","32","187202","0.0-25.0-1.0","""event"",""trial"",""time""
""fullscreenenter"",""0"",""9624""
","
","
","""event"",""trial"",""time""
""fullscreenenter"",""0"",""9624""
","
","null","<p></p>","null","","","","","","","","","","","","","","","","","","","","","","","",""
"","do_trial","33","190193","0.0-26.0-0.0","""event"",""trial"",""time""
""fullscreenenter"",""0"",""9624""
","
","
","""event"",""trial"",""time""
""fullscreenenter"",""0"",""9624""
","
","396.5","","","","","","","","51","0,1,1","6","blank","237","null","0.24051233829850302","0.5830809613061594","0.09135710123411876","1","","","","","","","","",""
"","html-keyboard-response","34","191195","0.0-26.0-1.0","""event"",""trial"",""time""
""fullscreenenter"",""0"",""9624""
","
","
","""event"",""trial"",""time""
""fullscreenenter"",""0"",""9624""
","
","null","<p></p>","null","","","","","","","","","","","","","","","","","","","","","","","",""
"","do_trial","35","193825","0.0-27.0-0.0","""event"",""trial"",""time""
""fullscreenenter"",""0"",""9624""
","
","
","""event"",""trial"",""time""
""fullscreenenter"",""0"",""9624""
","
","0.5","","","","","","","","51","0,0,0","6","blank","238","null","0.22488778112000074","0.5698948431152894","0.1815155611190011","0","","","","","","","","",""
"","html-keyboard-response","36","194827","0.0-27.0-1.0","""event"",""trial"",""time""
""fullscreenenter"",""0"",""9624""
","
","
","""event"",""trial"",""time""
""fullscreenenter"",""0"",""9624""
","
","null","<p></p>","null","","","","","","","","","","","","","","","","","","","","","","","",""
"","do_trial","37","197836","0.0-28.0-0.0","""event"",""trial"",""time""
""fullscreenenter"",""0"",""9624""
","
","
","""event"",""trial"",""time""
""fullscreenenter"",""0"",""9624""
","
","391.70000000018626","","","","","","","","49","1,0,0","6","blank","239","null","0.3768303381951509","0.5771137237571184","0.06183322809797043","1","","","","","","","","",""
"","html-keyboard-response","38","198838","0.0-28.0-1.0","""event"",""trial"",""time""
""fullscreenenter"",""0"",""9624""
","
","
","""event"",""trial"",""time""
""fullscreenenter"",""0"",""9624""
","
","null","<p></p>","null","","","","","","","","","","","","","","","","","","","","","","","",""
"","do_trial","39","201803","0.0-29.0-0.0","""event"",""trial"",""time""
""fullscreenenter"",""0"",""9624""
","
","
","""event"",""trial"",""time""
""fullscreenenter"",""0"",""9624""
","
","364.29999999981374","","","","","","","","49","0,0,0","6","blank","240","null","0.34487961527377314","0.41081242438574456","0.2171364444347569","0","","","","","","","","",""
"","html-keyboard-response","40","202805","0.0-29.0-1.0","""event"",""trial"",""time""
""fullscreenenter"",""0"",""9624""
","
","
","""event"",""trial"",""time""
""fullscreenenter"",""0"",""9624""
","
","null","<p></p>","null","","","","","","","","","","","","","","","","","","","","","","","",""
"","do_trial","41","205400","0.0-30.0-0.0","""event"",""trial"",""time""
""fullscreenenter"",""0"",""9624""
","
","
","""event"",""trial"",""time""
""fullscreenenter"",""0"",""9624""
","
","0.20000000018626451","","","","","","","","50","0,1,0","6","blank","241","null","0.32104086817551675","0.49022031751890077","0.3225061657911685","1","","","","","","","","",""
"","html-keyboard-response","42","206402","0.0-30.0-1.0","""event"",""trial"",""time""
""fullscreenenter"",""0"",""9624""
","
","
","""event"",""trial"",""time""
""fullscreenenter"",""0"",""9624""
","
","null","<p></p>","null","","","","","","","","","","","","","","","","","","","","","","","",""
"","do_trial","43","209024","0.0-31.0-0.0","""event"",""trial"",""time""
""fullscreenenter"",""0"",""9624""
","
","
","""event"",""trial"",""time""
""fullscreenenter"",""0"",""9624""
","
","18.799999999813735","","","","","","","","50","1,0,1","6","blank","242","null","0.4874243551640987","0.3752356486984847","0.24852294406670475","0","","","","","","","","",""
"","html-keyboard-response","44","210027","0.0-31.0-1.0","""event"",""trial"",""time""
""fullscreenenter"",""0"",""9624""
","
","
","""event"",""trial"",""time""
""fullscreenenter"",""0"",""9624""
","
","null","<p></p>","null","","","","","","","","","","","","","","","","","","","","","","","",""
"","do_trial","45","212909","0.0-32.0-0.0","""event"",""trial"",""time""
""fullscreenenter"",""0"",""9624""
","
","
","""event"",""trial"",""time""
""fullscreenenter"",""0"",""9624""
","
","298.09999999962747","","","","","","","","51","0,0,0","6","blank","243","null","0.527802299726294","0.39596066752083503","0.14426752208913973","0","","","","","","","","",""
"","html-keyboard-response","46","213911","0.0-32.0-1.0","""event"",""trial"",""time""
""fullscreenenter"",""0"",""9624""
","
","
","""event"",""trial"",""time""
""fullscreenenter"",""0"",""9624""
","
","null","<p></p>","null","","","","","","","","","","","","","","","","","","","","","","","",""
"","do_trial","47","216536","0.0-33.0-0.0","""event"",""trial"",""time""
""fullscreenenter"",""0"",""9624""
","
","
","""event"",""trial"",""time""
""fullscreenenter"",""0"",""9624""
","
","1.099999999627471","","","","","","","","49","1,0,0","6","blank","244","null","0.6151090372268344","0.3033362674463229","0.16791579166159906","1","","","","","","","","",""
"","html-keyboard-response","48","217538","0.0-33.0-1.0","""event"",""trial"",""time""
""fullscreenenter"",""0"",""9624""
","
","
","""event"",""trial"",""time""
""fullscreenenter"",""0"",""9624""
","
","null","<p></p>","null","","","","","","","","","","","","","","","","","","","","","","","",""
"","do_trial","49","220402","0.0-34.0-0.0","""event"",""trial"",""time""
""fullscreenenter"",""0"",""9624""
","
","
","""event"",""trial"",""time""
""fullscreenenter"",""0"",""9624""
","
","275.70000000018626","","","","","","","","50","1,0,0","6","blank","245","null","0.695534432763408","0.3349396498456118","0.16434620810687534","0","","","","","","","","",""
"","html-keyboard-response","50","221404","0.0-34.0-1.0","""event"",""trial"",""time""
""fullscreenenter"",""0"",""9624""
","
","
","""event"",""trial"",""time""
""fullscreenenter"",""0"",""9624""
","
","null","<p></p>","null","","","","","","","","","","","","","","","","","","","","","","","",""
"","do_recog","51","227417","0.0-35.0-0.0","""event"",""trial"",""time""
""fullscreenenter"",""0"",""9624""
","
","
","""event"",""trial"",""time""
""fullscreenenter"",""0"",""9624""
","
","null","","","","","","","","null","","","","246","probe-145","","","","","1","[object Object]","117","2","0","","","",""
"","html-keyboard-response","52","228421","0.0-35.0-1.0","""event"",""trial"",""time""
""fullscreenenter"",""0"",""9624""
","
","
","""event"",""trial"",""time""
""fullscreenenter"",""0"",""9624""
","
","null","<p></p>","null","","","","","","","","","","","","","","","","","","","","","","","",""
"","do_trial","53","232240","0.0-36.0-0.0","""event"",""trial"",""time""
""fullscreenenter"",""0"",""9624""
","
","
","""event"",""trial"",""time""
""fullscreenenter"",""0"",""9624""
","
","1220.5","","","","","","","","51","0,1,0","6","blank","247","null","0.5265347572560904","0.2940053204207352","0.14973658707801413","0","","","","","","","","",""
"","html-keyboard-response","54","233242","0.0-36.0-1.0","""event"",""trial"",""time""
""fullscreenenter"",""0"",""9624""
","
","
","""event"",""trial"",""time""
""fullscreenenter"",""0"",""9624""
","
","null","<p></p>","null","","","","","","","","","","","","","","","","","","","","","","","",""
"","do_trial","55","236405","0.0-37.0-0.0","""event"",""trial"",""time""
""fullscreenenter"",""0"",""9624""
","
","
","""event"",""trial"",""time""
""fullscreenenter"",""0"",""9624""
","
","557.5","","","","","","","","51","1,0,0","6","blank","248","null","0.5389357782381099","0.34523593801637714","0.1121784276954988","0","","","","","","","","",""
"","html-keyboard-response","56","237407","0.0-37.0-1.0","""event"",""trial"",""time""
""fullscreenenter"",""0"",""9624""
","
","
","""event"",""trial"",""time""
""fullscreenenter"",""0"",""9624""
","
","null","<p></p>","null","","","","","","","","","","","","","","","","","","","","","","","",""
"","do_trial","57","240035","0.0-38.0-0.0","""event"",""trial"",""time""
""fullscreenenter"",""0"",""9624""
","
","
","""event"",""trial"",""time""
""fullscreenenter"",""0"",""9624""
","
","0.2999999998137355","","","","","","","","50","1,0,1","6","blank","249","null","0.6445711101476362","0.3482375901554013","0.18713442979832912","0","","","","","","","","",""
"","html-keyboard-response","58","241037","0.0-38.0-1.0","""event"",""trial"",""time""
""fullscreenenter"",""0"",""9624""
","
","
","""event"",""trial"",""time""
""fullscreenenter"",""0"",""9624""
","
","null","<p></p>","null","","","","","","","","","","","","","","","","","","","","","","","",""
"","do_trial","59","243642","0.0-39.0-0.0","""event"",""trial"",""time""
""fullscreenenter"",""0"",""9624""
","
","
","""event"",""trial"",""time""
""fullscreenenter"",""0"",""9624""
","
","1","","","","","","","","50","0,0,0","6","blank","250","null","0.6665964001367662","0.4066806273542549","0.07898934425401449","0","","","","","","","","",""
"","html-keyboard-response","60","244644","0.0-39.0-1.0","""event"",""trial"",""time""
""fullscreenenter"",""0"",""9624""
","
","
","""event"",""trial"",""time""
""fullscreenenter"",""0"",""9624""
","
","null","<p></p>","null","","","","","","","","","","","","","","","","","","","","","","","",""
"","do_recog","61","250656","0.0-40.0-0.0","""event"",""trial"",""time""
""fullscreenenter"",""0"",""9624""
","
","
","""event"",""trial"",""time""
""fullscreenenter"",""0"",""9624""
","
","null","","","","","","","","null","","","","251","probe-203","","","","","1","[object Object]","111","2","0","","","",""
"","html-keyboard-response","62","251659","0.0-40.0-1.0","""event"",""trial"",""time""
""fullscreenenter"",""0"",""9624""
","
","
","""event"",""trial"",""time""
""fullscreenenter"",""0"",""9624""
","
","null","<p></p>","null","","","","","","","","","","","","","","","","","","","","","","","",""
"","do_trial","63","255977","0.0-41.0-0.0","""event"",""trial"",""time""
""fullscreenenter"",""0"",""9624""
","
","
","""event"",""trial"",""time""
""fullscreenenter"",""0"",""9624""
","
","1700.2999999998137","","","","","","","","49","1,1,0","6","blank","252","null","0.7141543998740972","0.25886562082183284","0.08742187023766534","1","","","","","","","","",""
"","html-keyboard-response","64","256979","0.0-41.0-1.0","""event"",""trial"",""time""
""fullscreenenter"",""0"",""9624""
","
","
","""event"",""trial"",""time""
""fullscreenenter"",""0"",""9624""
","
","null","<p></p>","null","","","","","","","","","","","","","","","","","","","","","","","",""
"","do_trial","65","259608","0.0-42.0-0.0","""event"",""trial"",""time""
""fullscreenenter"",""0"",""9624""
","
","
","""event"",""trial"",""time""
""fullscreenenter"",""0"",""9624""
","
","1.2000000001862645","","","","","","","","49","0,0,0","6","blank","253","null","0.7255737766562821","0.18218452721266637","0.09443647329408812","0","","","","","","","","",""
"","html-keyboard-response","66","260610","0.0-42.0-1.0","""event"",""trial"",""time""
""fullscreenenter"",""0"",""9624""
","
","
","""event"",""trial"",""time""
""fullscreenenter"",""0"",""9624""
","
","null","<p></p>","null","","","","","","","","","","","","","","","","","","","","","","","",""
"","do_trial","67","264681","0.0-43.0-0.0","""event"",""trial"",""time""
""fullscreenenter"",""0"",""9624""
","
","
","""event"",""trial"",""time""
""fullscreenenter"",""0"",""9624""
","
","1469.9000000003725","","","","","","","","51","0,1,0","6","blank","254","null","0.8157978721581376","0.076633061773117","0.10688887706479586","0","","","","","","","","",""
"","html-keyboard-response","68","265683","0.0-43.0-1.0","""event"",""trial"",""time""
""fullscreenenter"",""0"",""9624""
","
","
","""event"",""trial"",""time""
""fullscreenenter"",""0"",""9624""
","
","null","<p></p>","null","","","","","","","","","","","","","","","","","","","","","","","",""
"","do_trial","69","270678","0.0-44.0-0.0","""event"",""trial"",""time""
""fullscreenenter"",""0"",""9624""
","
","
","""event"",""trial"",""time""
""fullscreenenter"",""0"",""9624""
","
","2366.5999999996275","","","","","","","","49","1,0,0","6","blank","255","null","0.7668995294761737","0.23917788807911997","0.23973495808664125","1","","","","","","","","",""
"","html-keyboard-response","70","271680","0.0-44.0-1.0","""event"",""trial"",""time""
""fullscreenenter"",""0"",""9624""
","
","
","""event"",""trial"",""time""
""fullscreenenter"",""0"",""9624""
","
","null","<p></p>","null","","","","","","","","","","","","","","","","","","","","","","","",""
"","do_trial","71","274847","0.0-45.0-0.0","""event"",""trial"",""time""
""fullscreenenter"",""0"",""9624""
","
","
","""event"",""trial"",""time""
""fullscreenenter"",""0"",""9624""
","
","538.5999999996275","","","","","","","","50","1,0,1","6","blank","256","null","0.6389611611927888","0.29019821269034496","0.126602677838165","0","","","","","","","","",""
"","html-keyboard-response","72","275849","0.0-45.0-1.0","""event"",""trial"",""time""
""fullscreenenter"",""0"",""9624""
","
","
","""event"",""trial"",""time""
""fullscreenenter"",""0"",""9624""
","
","null","<p></p>","null","","","","","","","","","","","","","","","","","","","","","","","",""
"","do_trial","73","279105","0.0-46.0-0.0","""event"",""trial"",""time""
""fullscreenenter"",""0"",""9624""
","
","
","""event"",""trial"",""time""
""fullscreenenter"",""0"",""9624""
","
","628.6000000005588","","","","","","","","49","1,0,0","6","blank","257","null","0.6702334371120203","0.10726880583566889","0.1311158401073769","1","","","","","","","","",""
"","html-keyboard-response","74","280107","0.0-46.0-1.0","""event"",""trial"",""time""
""fullscreenenter"",""0"",""9624""
","
","
","""event"",""trial"",""time""
""fullscreenenter"",""0"",""9624""
","
","null","<p></p>","null","","","","","","","","","","","","","","","","","","","","","","","",""
"","do_trial","75","282734","0.0-47.0-0.0","""event"",""trial"",""time""
""fullscreenenter"",""0"",""9624""
","
","
","""event"",""trial"",""time""
""fullscreenenter"",""0"",""9624""
","
","0.20000000018626451","","","","","","","","51","1,0,0","6","blank","258","null","0.6181722071229473","0.11771374070574556","0.128515015468183","0","","","","","","","","",""
"","html-keyboard-response","76","283736","0.0-47.0-1.0","""event"",""trial"",""time""
""fullscreenenter"",""0"",""9624""
","
","
","""event"",""trial"",""time""
""fullscreenenter"",""0"",""9624""
","
","null","<p></p>","null","","","","","","","","","","","","","","","","","","","","","","","",""
"","do_recog","77","289748","0.0-48.0-0.0","""event"",""trial"",""time""
""fullscreenenter"",""0"",""9624""
","
","
","""event"",""trial"",""time""
""fullscreenenter"",""0"",""9624""
","
","null","","","","","","","","null","","","","259","probe-131","","","","","1","[object Object]","36","0","0","","","",""
"","html-keyboard-response","78","290750","0.0-48.0-1.0","""event"",""trial"",""time""
""fullscreenenter"",""0"",""9624""
","
","
","""event"",""trial"",""time""
""fullscreenenter"",""0"",""9624""
","
","null","<p></p>","null","","","","","","","","","","","","","","","","","","","","","","","",""
"","do_trial","79","294633","0.0-49.0-0.0","""event"",""trial"",""time""
""fullscreenenter"",""0"",""9624""
","
","
","""event"",""trial"",""time""
""fullscreenenter"",""0"",""9624""
","
","1301","","","","","","","","49","1,0,0","6","blank","260","null","0.5898602520729304","0.211892360681338","0.07336162818522393","1","","","","","","","","",""
"","html-keyboard-response","80","295635","0.0-49.0-1.0","""event"",""trial"",""time""
""fullscreenenter"",""0"",""9624""
","
","
","""event"",""trial"",""time""
""fullscreenenter"",""0"",""9624""
","
","null","<p></p>","null","","","","","","","","","","","","","","","","","","","","","","","",""
"","do_trial","81","298312","0.0-50.0-0.0","""event"",""trial"",""time""
""fullscreenenter"",""0"",""9624""
","
","
","""event"",""trial"",""time""
""fullscreenenter"",""0"",""9624""
","
","78.30000000074506","","","","","","","","49","1,0,0","6","blank","261","null","0.5365485239941576","0.25625208494697344","0.19030147554382681","1","","","","","","","","",""
"","html-keyboard-response","82","299314","0.0-50.0-1.0","""event"",""trial"",""time""
""fullscreenenter"",""0"",""9624""
","
","
","""event"",""trial"",""time""
""fullscreenenter"",""0"",""9624""
","
","null","<p></p>","null","","","","","","","","","","","","","","","","","","","","","","","",""
"","do_trial","83","301937","0.0-51.0-0.0","""event"",""trial"",""time""
""fullscreenenter"",""0"",""9624""
","
","
","""event"",""trial"",""time""
""fullscreenenter"",""0"",""9624""
","
","0.20000000018626451","","","","","","","","49","0,0,0","6","blank","262","null","0.4370788463566004","0.21907505582234074","0.12056680684374191","0","","","","","","","","",""
"","html-keyboard-response","84","302939","0.0-51.0-1.0","""event"",""trial"",""time""
""fullscreenenter"",""0"",""9624""
","
","
","""event"",""trial"",""time""
""fullscreenenter"",""0"",""9624""
","
","null","<p></p>","null","","","","","","","","","","","","","","","","","","","","","","","",""
"","do_trial","85","305617","0.0-52.0-0.0","""event"",""trial"",""time""
""fullscreenenter"",""0"",""9624""
","
","
","""event"",""trial"",""time""
""fullscreenenter"",""0"",""9624""
","
","80.69999999925494","","","","","","","","51","1,0,0","6","blank","263","null","0.4529103758318099","0.12580329302740806","0.4056576758651916","0","","","","","","","","",""
"","html-keyboard-response","86","306619","0.0-52.0-1.0","""event"",""trial"",""time""
""fullscreenenter"",""0"",""9624""
","
","
","""event"",""trial"",""time""
""fullscreenenter"",""0"",""9624""
","
","null","<p></p>","null","","","","","","","","","","","","","","","","","","","","","","","",""
"","do_trial","87","309243","0.0-53.0-0.0","""event"",""trial"",""time""
""fullscreenenter"",""0"",""9624""
","
","
","""event"",""trial"",""time""
""fullscreenenter"",""0"",""9624""
","
","0.2999999998137355","","","","","","","","50","1,0,1","6","blank","264","null","0.4206717277815972","0.2602402212388292","0.26494387820462584","0","","","","","","","","",""
"","html-keyboard-response","88","310245","0.0-53.0-1.0","""event"",""trial"",""time""
""fullscreenenter"",""0"",""9624""
","
","
","""event"",""trial"",""time""
""fullscreenenter"",""0"",""9624""
","
","null","<p></p>","null","","","","","","","","","","","","","","","","","","","","","","","",""
"","do_trial","89","313349","0.0-54.0-0.0","""event"",""trial"",""time""
""fullscreenenter"",""0"",""9624""
","
","
","""event"",""trial"",""time""
""fullscreenenter"",""0"",""9624""
","
","484.80000000074506","","","","","","","","50","0,1,0","6","blank","265","null","0.36833807458263834","0.2746530456639592","0.2418565072331756","1","","","","","","","","",""
"","html-keyboard-response","90","314351","0.0-54.0-1.0","""event"",""trial"",""time""
""fullscreenenter"",""0"",""9624""
","
","
","""event"",""trial"",""time""
""fullscreenenter"",""0"",""9624""
","
","null","<p></p>","null","","","","","","","","","","","","","","","","","","","","","","","",""
"","do_recog","91","317583","0.0-55.0-0.0","""event"",""trial"",""time""
""fullscreenenter"",""0"",""9624""
","
","
","""event"",""trial"",""time""
""fullscreenenter"",""0"",""9624""
","
","1719.4000000003725","","","","","","","","55","","","","266","probe-239","","","","","0","[object Object]","null","null","1","","","",""
"","html-keyboard-response","92","318585","0.0-55.0-1.0","""event"",""trial"",""time""
""fullscreenenter"",""0"",""9624""
","
","
","""event"",""trial"",""time""
""fullscreenenter"",""0"",""9624""
","
","null","<p></p>","null","","","","","","","","","","","","","","","","","","","","","","","",""
"","do_trial","93","323837","0.0-56.0-0.0","""event"",""trial"",""time""
""fullscreenenter"",""0"",""9624""
","
","
","""event"",""trial"",""time""
""fullscreenenter"",""0"",""9624""
","
","2620.5","","","","","","","","50","0,0,0","6","blank","267","null","0.39093870588678903","0.2217429814467173","0.09876812603650774","0","","","","","","","","",""
"","html-keyboard-response","94","324839","0.0-56.0-1.0","""event"",""trial"",""time""
""fullscreenenter"",""0"",""9624""
","
","
","""event"",""trial"",""time""
""fullscreenenter"",""0"",""9624""
","
","null","<p></p>","null","","","","","","","","","","","","","","","","","","","","","","","",""
"","do_trial","95","328129","0.0-57.0-0.0","""event"",""trial"",""time""
""fullscreenenter"",""0"",""9624""
","
","
","""event"",""trial"",""time""
""fullscreenenter"",""0"",""9624""
","
","692.5","","","","","","","","50","0,1,0","6","blank","268","null","0.45294679582316755","0.37144375203696073","0.1123269769622497","1","","","","","","","","",""
"","html-keyboard-response","96","329131","0.0-57.0-1.0","""event"",""trial"",""time""
""fullscreenenter"",""0"",""9624""
","
","
","""event"",""trial"",""time""
""fullscreenenter"",""0"",""9624""
","
","null","<p></p>","null","","","","","","","","","","","","","","","","","","","","","","","",""
"","break","97","332810","0.0-58.0-0.0","""event"",""trial"",""time""
""fullscreenenter"",""0"",""9624""
","
","
","""event"",""trial"",""time""
""fullscreenenter"",""0"",""9624""
","
","3677.399999999441","<div class='center'><p>Time to take a quick break! You have 2 minutes to rest, but you can move on sooner if you'd like.</p><p> Press the <b>space bar</b> to continue.</p></div>","32","","","","","","","","","","","","","","","","","","","","","","","",""
"","do_trial","98","337909","0.0-58.0-1.0","""event"",""trial"",""time""
""fullscreenenter"",""0"",""9624""
","
","
","""event"",""trial"",""time""
""fullscreenenter"",""0"",""9624""
","
","2506.300000000745","","","","","","","","51","0,0,0","6","blank","269","null","0.3925527084710434","0.3383598257706534","0.08908105373181523","0","","","","","","","","",""
"","html-keyboard-response","99","338911","0.0-58.0-2.0","""event"",""trial"",""time""
""fullscreenenter"",""0"",""9624""
","
","
","""event"",""trial"",""time""
""fullscreenenter"",""0"",""9624""
","
","null","<p></p>","null","","","","","","","","","","","","","","","","","","","","","","","",""
"","do_trial","100","341565","0.0-59.0-0.0","""event"",""trial"",""time""
""fullscreenenter"",""0"",""9624""
","
","
","""event"",""trial"",""time""
""fullscreenenter"",""0"",""9624""
","
","37.700000000186265","","","","","","","","50","1,1,1","6","blank","270","null","0.43407127215023095","0.4084190610821548","0.12700907522337082","1","","","","","","","","",""
"","html-keyboard-response","101","342567","0.0-59.0-1.0","""event"",""trial"",""time""
""fullscreenenter"",""0"",""9624""
","
","
","""event"",""trial"",""time""
""fullscreenenter"",""0"",""9624""
","
","null","<p></p>","null","","","","","","","","","","","","","","","","","","","","","","","",""
"","do_trial","102","346076","0.0-60.0-0.0","""event"",""trial"",""time""
""fullscreenenter"",""0"",""9624""
","
","
","""event"",""trial"",""time""
""fullscreenenter"",""0"",""9624""
","
","878.7000000001863","","","","","","","","50","0,0,0","6","blank","271","null","0.40080940520778074","0.3341324038706262","0.09284959200930548","0","","","","","","","","",""
"","html-keyboard-response","103","347078","0.0-60.0-1.0","""event"",""trial"",""time""
""fullscreenenter"",""0"",""9624""
","
","
","""event"",""trial"",""time""
""fullscreenenter"",""0"",""9624""
","
","null","<p></p>","null","","","","","","","","","","","","","","","","","","","","","","","",""
"","do_trial","104","350372","0.0-61.0-0.0","""event"",""trial"",""time""
""fullscreenenter"",""0"",""9624""
","
","
","""event"",""trial"",""time""
""fullscreenenter"",""0"",""9624""
","
","671.9000000003725","","","","","","","","51","1,1,0","6","blank","272","null","0.4781074699632636","0.36329936962569004","0.0874619882794818","0","","","","","","","","",""
"","html-keyboard-response","105","351374","0.0-61.0-1.0","""event"",""trial"",""time""
""fullscreenenter"",""0"",""9624""
","
","
","""event"",""trial"",""time""
""fullscreenenter"",""0"",""9624""
","
","null","<p></p>","null","","","","","","","","","","","","","","","","","","","","","","","",""
"","do_recog","106","355324","0.0-62.0-0.0","""event"",""trial"",""time""
""fullscreenenter"",""0"",""9624""
","
","
","""event"",""trial"",""time""
""fullscreenenter"",""0"",""9624""
","
","2439","","","","","","","","54","","","","273","probe-165","","","","","1","[object Object]","31","0","1","","","",""
"","html-keyboard-response","107","356326","0.0-62.0-1.0","""event"",""trial"",""time""
""fullscreenenter"",""0"",""9624""
","
","
","""event"",""trial"",""time""
""fullscreenenter"",""0"",""9624""
","
","null","<p></p>","null","","","","","","","","","","","","","","","","","","","","","","","",""
"","do_trial","108","359711","0.0-63.0-0.0","""event"",""trial"",""time""
""fullscreenenter"",""0"",""9624""
","
","
","""event"",""trial"",""time""
""fullscreenenter"",""0"",""9624""
","
","783.3000000007451","","","","","","","","50","1,1,0","6","blank","274","null","0.3363762146312274","0.4658096657178602","0.06722254327038936","1","","","","","","","","",""
"","html-keyboard-response","109","360715","0.0-63.0-1.0","""event"",""trial"",""time""
""fullscreenenter"",""0"",""9624""
","
","
","""event"",""trial"",""time""
""fullscreenenter"",""0"",""9624""
","
","null","<p></p>","null","","","","","","","","","","","","","","","","","","","","","","","",""
"","do_trial","110","364010","0.0-64.0-0.0","""event"",""trial"",""time""
""fullscreenenter"",""0"",""9624""
","
","
","""event"",""trial"",""time""
""fullscreenenter"",""0"",""9624""
","
","649.8999999994412","","","","","","","","49","0,0,1","6","blank","275","null","0.5666532080850499","0.45632517621917934","0.0600422228830827","0","","","","","","","","",""
"","html-keyboard-response","111","365012","0.0-64.0-1.0","""event"",""trial"",""time""
""fullscreenenter"",""0"",""9624""
","
","
","""event"",""trial"",""time""
""fullscreenenter"",""0"",""9624""
","
","null","<p></p>","null","","","","","","","","","","","","","","","","","","","","","","","",""
"","do_recog","112","368642","0.0-65.0-0.0","""event"",""trial"",""time""
""fullscreenenter"",""0"",""9624""
","
","
","""event"",""trial"",""time""
""fullscreenenter"",""0"",""9624""
","
","2116.7999999998137","","","","","","","","56","","","","276","probe-170","","","","","1","[object Object]","35","0","0","","","",""
"","html-keyboard-response","113","369645","0.0-65.0-1.0","""event"",""trial"",""time""
""fullscreenenter"",""0"",""9624""
","
","
","""event"",""trial"",""time""
""fullscreenenter"",""0"",""9624""
","
","null","<p></p>","null","","","","","","","","","","","","","","","","","","","","","","","",""
"","do_trial","114","373460","0.0-66.0-0.0","""event"",""trial"",""time""
""fullscreenenter"",""0"",""9624""
","
","
","""event"",""trial"",""time""
""fullscreenenter"",""0"",""9624""
","
","1195.2999999998137","","","","","","","","50","1,1,0","6","blank","277","null","0.5097701758733566","0.41936662825556936","0.12623464479310775","1","","","","","","","","",""
"","html-keyboard-response","115","374462","0.0-66.0-1.0","""event"",""trial"",""time""
""fullscreenenter"",""0"",""9624""
","
","
","""event"",""trial"",""time""
""fullscreenenter"",""0"",""9624""
","
","null","<p></p>","null","","","","","","","","","","","","","","","","","","","","","","","",""
"","do_trial","116","377231","0.0-67.0-0.0","""event"",""trial"",""time""
""fullscreenenter"",""0"",""9624""
","
","
","""event"",""trial"",""time""
""fullscreenenter"",""0"",""9624""
","
","174.3999999994412","","","","","","","","50","1,0,0","6","blank","278","null","0.5901254331387112","0.3889835271739671","0.05834880159629528","0","","","","","","","","",""
"","html-keyboard-response","117","378233","0.0-67.0-1.0","""event"",""trial"",""time""
""fullscreenenter"",""0"",""9624""
","
","
","""event"",""trial"",""time""
""fullscreenenter"",""0"",""9624""
","
","null","<p></p>","null","","","","","","","","","","","","","","","","","","","","","","","",""
"","do_trial","118","381259","0.0-68.0-0.0","""event"",""trial"",""time""
""fullscreenenter"",""0"",""9624""
","
","
","""event"",""trial"",""time""
""fullscreenenter"",""0"",""9624""
","
","413.40000000037253","","","","","","","","51","0,0,0","6","blank","279","null","0.6064046842520694","0.2695442327641866","0.053197121108669684","0","","","","","","","","",""
"","html-keyboard-response","119","382261","0.0-68.0-1.0","""event"",""trial"",""time""
""fullscreenenter"",""0"",""9624""
","
","
","""event"",""trial"",""time""
""fullscreenenter"",""0"",""9624""
","
","null","<p></p>","null","","","","","","","","","","","","","","","","","","","","","","","",""
"","do_trial","120","384866","0.0-69.0-0.0","""event"",""trial"",""time""
""fullscreenenter"",""0"",""9624""
","
","
","""event"",""trial"",""time""
""fullscreenenter"",""0"",""9624""
","
","0.09999999962747097","","","","","","","","49","1,1,1","6","blank","280","null","0.5554882571444724","0.20288621024569928","0.0551843755452762","1","","","","","","","","",""
"","html-keyboard-response","121","385868","0.0-69.0-1.0","""event"",""trial"",""time""
""fullscreenenter"",""0"",""9624""
","
","
","""event"",""trial"",""time""
""fullscreenenter"",""0"",""9624""
","
","null","<p></p>","null","","","","","","","","","","","","","","","","","","","","","","","",""
"","do_trial","122","388520","0.0-70.0-0.0","""event"",""trial"",""time""
""fullscreenenter"",""0"",""9624""
","
","
","""event"",""trial"",""time""
""fullscreenenter"",""0"",""9624""
","
","37.40000000037253","","","","","","","","49","1,0,1","6","blank","281","null","0.5745264291577258","0.2309840993205087","0.13315741204736337","1","","","","","","","","",""
"","html-keyboard-response","123","389522","0.0-70.0-1.0","""event"",""trial"",""time""
""fullscreenenter"",""0"",""9624""
","
","
","""event"",""trial"",""time""
""fullscreenenter"",""0"",""9624""
","
","null","<p></p>","null","","","","","","","","","","","","","","","","","","","","","","","",""
"","do_trial","124","392336","0.0-71.0-0.0","""event"",""trial"",""time""
""fullscreenenter"",""0"",""9624""
","
","
","""event"",""trial"",""time""
""fullscreenenter"",""0"",""9624""
","
","192.20000000018626","","","","","","","","49","1,1,0","6","blank","282","null","0.5715747456750957","0.22135653929401888","0.11209442703464474","1","","","","","","","","",""
"","html-keyboard-response","125","393339","0.0-71.0-1.0","""event"",""trial"",""time""
""fullscreenenter"",""0"",""9624""
","
","
","""event"",""trial"",""time""
""fullscreenenter"",""0"",""9624""
","
","null","<p></p>","null","","","","","","","","","","","","","","","","","","","","","","","",""
"","do_trial","126","396622","0.0-72.0-0.0","""event"",""trial"",""time""
""fullscreenenter"",""0"",""9624""
","
","
","""event"",""trial"",""time""
""fullscreenenter"",""0"",""9624""
","
","691.3999999994412","","","","","","","","49","1,1,0","6","blank","283","null","0.4537637744628995","0.2875277830724297","0.05596250307437429","1","","","","","","","","",""
"","html-keyboard-response","127","397624","0.0-72.0-1.0","""event"",""trial"",""time""
""fullscreenenter"",""0"",""9624""
","
","
","""event"",""trial"",""time""
""fullscreenenter"",""0"",""9624""
","
","null","<p></p>","null","","","","","","","","","","","","","","","","","","","","","","","",""
"","do_recog","128","401019","0.0-73.0-0.0","""event"",""trial"",""time""
""fullscreenenter"",""0"",""9624""
","
","
","""event"",""trial"",""time""
""fullscreenenter"",""0"",""9624""
","
","1882.3999999994412","","","","","","","","53","","","","284","probe-171","","","","","1","[object Object]","32","0","1","","","",""
"","html-keyboard-response","129","402021","0.0-73.0-1.0","""event"",""trial"",""time""
""fullscreenenter"",""0"",""9624""
","
","
","""event"",""trial"",""time""
""fullscreenenter"",""0"",""9624""
","
","null","<p></p>","null","","","","","","","","","","","","","","","","","","","","","","","",""
"","do_trial","130","405472","0.0-74.0-0.0","""event"",""trial"",""time""
""fullscreenenter"",""0"",""9624""
","
","
","""event"",""trial"",""time""
""fullscreenenter"",""0"",""9624""
","
","856.2999999998137","","","","","","","","51","1,0,0","6","blank","285","null","0.6703960377045233","0.17827439230979766","0.05492329573597369","0","","","","","","","","",""
"","html-keyboard-response","131","406474","0.0-74.0-1.0","""event"",""trial"",""time""
""fullscreenenter"",""0"",""9624""
","
","
","""event"",""trial"",""time""
""fullscreenenter"",""0"",""9624""
","
","null","<p></p>","null","","","","","","","","","","","","","","","","","","","","","","","",""
"","do_recog","132","410628","0.0-75.0-0.0","""event"",""trial"",""time""
""fullscreenenter"",""0"",""9624""
","
","
","""event"",""trial"",""time""
""fullscreenenter"",""0"",""9624""
","
","2640.899999999441","","","","","","","","54","","","","286","probe-76","","","","","1","[object Object]","71","1","1","","","",""
"","html-keyboard-response","133","411630","0.0-75.0-1.0","""event"",""trial"",""time""
""fullscreenenter"",""0"",""9624""
","
","
","""event"",""trial"",""time""
""fullscreenenter"",""0"",""9624""
","
","null","<p></p>","null","","","","","","","","","","","","","","","","","","","","","","","",""
"","do_trial","134","415444","0.0-76.0-0.0","""event"",""trial"",""time""
""fullscreenenter"",""0"",""9624""
","
","
","""event"",""trial"",""time""
""fullscreenenter"",""0"",""9624""
","
","1196.4000000003725","","","","","","","","51","1,0,0","6","blank","287","null","0.6112156381955457","0.18118760540577797","0.1316212637620812","0","","","","","","","","",""
"","html-keyboard-response","135","416446","0.0-76.0-1.0","""event"",""trial"",""time""
""fullscreenenter"",""0"",""9624""
","
","
","""event"",""trial"",""time""
""fullscreenenter"",""0"",""9624""
","
","null","<p></p>","null","","","","","","","","","","","","","","","","","","","","","","","",""
"","do_recog","136","420609","0.0-77.0-0.0","""event"",""trial"",""time""
""fullscreenenter"",""0"",""9624""
","
","
","""event"",""trial"",""time""
""fullscreenenter"",""0"",""9624""
","
","2649.7000000001863","","","","","","","","54","","","","288","probe-101","","","","","1","[object Object]","155","3","1","","","",""
"","html-keyboard-response","137","421612","0.0-77.0-1.0","""event"",""trial"",""time""
""fullscreenenter"",""0"",""9624""
","
","
","""event"",""trial"",""time""
""fullscreenenter"",""0"",""9624""
","
","null","<p></p>","null","","","","","","","","","","","","","","","","","","","","","","","",""
"","do_trial","138","425314","0.0-78.0-0.0","""event"",""trial"",""time""
""fullscreenenter"",""0"",""9624""
","
","
","""event"",""trial"",""time""
""fullscreenenter"",""0"",""9624""
","
","1070.2000000001863","","","","","","","","50","0,0,0","6","blank","289","null","0.5438685452683092","0.20685874115707767","0.15935005266127752","0","","","","","","","","",""
"","html-keyboard-response","139","426316","0.0-78.0-1.0","""event"",""trial"",""time""
""fullscreenenter"",""0"",""9624""
","
","
","""event"",""trial"",""time""
""fullscreenenter"",""0"",""9624""
","
","null","<p></p>","null","","","","","","","","","","","","","","","","","","","","","","","",""
"","do_trial","140","428953","0.0-79.0-0.0","""event"",""trial"",""time""
""fullscreenenter"",""0"",""9624""
","
","
","""event"",""trial"",""time""
""fullscreenenter"",""0"",""9624""
","
","38.09999999962747","","","","","","","","49","0,0,0","6","blank","290","null","0.5969022399814897","0.27727060836177797","0.0682146113207552","0","","","","","","","","",""
"","html-keyboard-response","141","429956","0.0-79.0-1.0","""event"",""trial"",""time""
""fullscreenenter"",""0"",""9624""
","
","
","""event"",""trial"",""time""
""fullscreenenter"",""0"",""9624""
","
","null","<p></p>","null","","","","","","","","","","","","","","","","","","","","","","","",""
"","do_trial","142","432581","0.0-80.0-0.0","""event"",""trial"",""time""
""fullscreenenter"",""0"",""9624""
","
","
","""event"",""trial"",""time""
""fullscreenenter"",""0"",""9624""
","
","0.20000000018626451","","","","","","","","51","0,1,0","6","blank","291","null","0.3715684422484071","0.39744414084626767","0.08796508267752011","0","","","","","","","","",""
"","html-keyboard-response","143","433582","0.0-80.0-1.0","""event"",""trial"",""time""
""fullscreenenter"",""0"",""9624""
","
","
","""event"",""trial"",""time""
""fullscreenenter"",""0"",""9624""
","
","null","<p></p>","null","","","","","","","","","","","","","","","","","","","","","","","",""
"","do_recog","144","437518","0.0-81.0-0.0","""event"",""trial"",""time""
""fullscreenenter"",""0"",""9624""
","
","
","""event"",""trial"",""time""
""fullscreenenter"",""0"",""9624""
","
","2425.0999999996275","","","","","","","","53","","","","292","probe-21","","","","","1","[object Object]","37","0","1","","","",""
"","html-keyboard-response","145","438521","0.0-81.0-1.0","""event"",""trial"",""time""
""fullscreenenter"",""0"",""9624""
","
","
","""event"",""trial"",""time""
""fullscreenenter"",""0"",""9624""
","
","null","<p></p>","null","","","","","","","","","","","","","","","","","","","","","","","",""
"","do_trial","146","441891","0.0-82.0-0.0","""event"",""trial"",""time""
""fullscreenenter"",""0"",""9624""
","
","
","""event"",""trial"",""time""
""fullscreenenter"",""0"",""9624""
","
","746.3999999994412","","","","","","","","50","0,0,0","6","blank","293","null","0.3556660632922122","0.4200106008115917","0.12099444881604511","0","","","","","","","","",""
"","html-keyboard-response","147","442893","0.0-82.0-1.0","""event"",""trial"",""time""
""fullscreenenter"",""0"",""9624""
","
","
","""event"",""trial"",""time""
""fullscreenenter"",""0"",""9624""
","
","null","<p></p>","null","","","","","","","","","","","","","","","","","","","","","","","",""
"","do_recog","148","448905","0.0-83.0-0.0","""event"",""trial"",""time""
""fullscreenenter"",""0"",""9624""
","
","
","""event"",""trial"",""time""
""fullscreenenter"",""0"",""9624""
","
","null","","","","","","","","null","","","","294","probe-144","","","","","1","[object Object]","119","2","0","","","",""
"","html-keyboard-response","149","449907","0.0-83.0-1.0","""event"",""trial"",""time""
""fullscreenenter"",""0"",""9624""
","
","
","""event"",""trial"",""time""
""fullscreenenter"",""0"",""9624""
","
","null","<p></p>","null","","","","","","","","","","","","","","","","","","","","","","","",""
"","do_trial","150","455257","0.0-84.0-0.0","""event"",""trial"",""time""
""fullscreenenter"",""0"",""9624""
","
","
","""event"",""trial"",""time""
""fullscreenenter"",""0"",""9624""
","
","2742","","","","","","","","50","1,1,0","6","blank","295","null","0.3544096343291341","0.3637648566246913","0.1500588266033469","1","","","","","","","","",""
"","html-keyboard-response","151","456259","0.0-84.0-1.0","""event"",""trial"",""time""
""fullscreenenter"",""0"",""9624""
","
","
","""event"",""trial"",""time""
""fullscreenenter"",""0"",""9624""
","
","null","<p></p>","null","","","","","","","","","","","","","","","","","","","","","","","",""
"","do_trial","152","460347","0.0-85.0-0.0","""event"",""trial"",""time""
""fullscreenenter"",""0"",""9624""
","
","
","""event"",""trial"",""time""
""fullscreenenter"",""0"",""9624""
","
","1469.3999999994412","","","","","","","","50","1,1,0","6","blank","296","null","0.24352337988773212","0.5037504255874835","0.12187570592753533","1","","","","","","","","",""
"","html-keyboard-response","153","461350","0.0-85.0-1.0","""event"",""trial"",""time""
""fullscreenenter"",""0"",""9624""
","
","
","""event"",""trial"",""time""
""fullscreenenter"",""0"",""9624""
","
","null","<p></p>","null","","","","","","","","","","","","","","","","","","","","","","","",""
"","do_trial","154","464331","0.0-86.0-0.0","""event"",""trial"",""time""
""fullscreenenter"",""0"",""9624""
","
","
","""event"",""trial"",""time""
""fullscreenenter"",""0"",""9624""
","
","381.70000000018626","","","","","","","","50","0,1,0","6","blank","297","null","0.26101384745459916","0.4916757144598234","0.0859754961780916","1","","","","","","","","",""
"","html-keyboard-response","155","465333","0.0-86.0-1.0","""event"",""trial"",""time""
""fullscreenenter"",""0"",""9624""
","
","
","""event"",""trial"",""time""
""fullscreenenter"",""0"",""9624""
","
","null","<p></p>","null","","","","","","","","","","","","","","","","","","","","","","","",""
"","do_recog","156","469216","0.0-87.0-0.0","""event"",""trial"",""time""
""fullscreenenter"",""0"",""9624""
","
","
","""event"",""trial"",""time""
""fullscreenenter"",""0"",""9624""
","
","2372.100000000559","","","","","","","","56","","","","298","probe-218","","","","","1","[object Object]","79","1","0","","","",""
"","html-keyboard-response","157","470217","0.0-87.0-1.0","""event"",""trial"",""time""
""fullscreenenter"",""0"",""9624""
","
","
","""event"",""trial"",""time""
""fullscreenenter"",""0"",""9624""
","
","null","<p></p>","null","","","","","","","","","","","","","","","","","","","","","","","",""
"","do_trial","158","473190","0.0-88.0-0.0","""event"",""trial"",""time""
""fullscreenenter"",""0"",""9624""
","
","
","""event"",""trial"",""time""
""fullscreenenter"",""0"",""9624""
","
","340.20000000018626","","","","","","","","50","0,0,0","6","blank","299","null","0.3062450717374619","0.5303400369661214","0.09776802684505825","0","","","","","","","","",""
"","html-keyboard-response","159","474192","0.0-88.0-1.0","""event"",""trial"",""time""
""fullscreenenter"",""0"",""9624""
","
","
","""event"",""trial"",""time""
""fullscreenenter"",""0"",""9624""
","
","null","<p></p>","null","","","","","","","","","","","","","","","","","","","","","","","",""
"","do_trial","160","477168","0.0-89.0-0.0","""event"",""trial"",""time""
""fullscreenenter"",""0"",""9624""
","
","
","""event"",""trial"",""time""
""fullscreenenter"",""0"",""9624""
","
","364.59999999962747","","","","","","","","49","1,1,1","6","blank","300","null","0.14348534024638274","0.5452689646784473","0.10867314822216052","1","","","","","","","","",""
"","html-keyboard-response","161","478170","0.0-89.0-1.0","""event"",""trial"",""time""
""fullscreenenter"",""0"",""9624""
","
","
","""event"",""trial"",""time""
""fullscreenenter"",""0"",""9624""
","
","null","<p></p>","null","","","","","","","","","","","","","","","","","","","","","","","",""
"","do_trial","162","481153","0.0-90.0-0.0","""event"",""trial"",""time""
""fullscreenenter"",""0"",""9624""
","
","
","""event"",""trial"",""time""
""fullscreenenter"",""0"",""9624""
","
","387.29999999981374","","","","","","","","49","0,0,0","6","blank","301","null","0.2502426761003012","0.6447889476036711","0.1303705738456547","0","","","","","","","","",""
"","html-keyboard-response","163","482157","0.0-90.0-1.0","""event"",""trial"",""time""
""fullscreenenter"",""0"",""9624""
","
","
","""event"",""trial"",""time""
""fullscreenenter"",""0"",""9624""
","
","null","<p></p>","null","","","","","","","","","","","","","","","","","","","","","","","",""
"","do_trial","164","485189","0.0-91.0-0.0","""event"",""trial"",""time""
""fullscreenenter"",""0"",""9624""
","
","
","""event"",""trial"",""time""
""fullscreenenter"",""0"",""9624""
","
","447.70000000018626","","","","","","","","51","0,0,0","6","blank","302","null","0.2399023931125213","0.5836036739186187","0.18037445809384028","0","","","","","","","","",""
"","html-keyboard-response","165","486191","0.0-91.0-1.0","""event"",""trial"",""time""
""fullscreenenter"",""0"",""9624""
","
","
","""event"",""trial"",""time""
""fullscreenenter"",""0"",""9624""
","
","null","<p></p>","null","","","","","","","","","","","","","","","","","","","","","","","",""
"","do_trial","166","488827","0.0-92.0-0.0","""event"",""trial"",""time""
""fullscreenenter"",""0"",""9624""
","
","
","""event"",""trial"",""time""
""fullscreenenter"",""0"",""9624""
","
","26.700000000186265","","","","","","","","50","1,0,0","6","blank","303","null","0.21504232195790757","0.6361034913124212","0.08344622699530399","0","","","","","","","","",""
"","html-keyboard-response","167","489829","0.0-92.0-1.0","""event"",""trial"",""time""
""fullscreenenter"",""0"",""9624""
","
","
","""event"",""trial"",""time""
""fullscreenenter"",""0"",""9624""
","
","null","<p></p>","null","","","","","","","","","","","","","","","","","","","","","","","",""
"","do_trial","168","492928","0.0-93.0-0.0","""event"",""trial"",""time""
""fullscreenenter"",""0"",""9624""
","
","
","""event"",""trial"",""time""
""fullscreenenter"",""0"",""9624""
","
","493","","","","","","","","49","1,0,0","6","blank","304","null","0.3864796660961832","0.6136286522099093","0.15679894935481425","1","","","","","","","","",""
"","html-keyboard-response","169","493930","0.0-93.0-1.0","""event"",""trial"",""time""
""fullscreenenter"",""0"",""9624""
","
","
","""event"",""trial"",""time""
""fullscreenenter"",""0"",""9624""
","
","null","<p></p>","null","","","","","","","","","","","","","","","","","","","","","","","",""
"","do_recog","170","497701","0.0-94.0-0.0","""event"",""trial"",""time""
""fullscreenenter"",""0"",""9624""
","
","
","""event"",""trial"",""time""
""fullscreenenter"",""0"",""9624""
","
","2260.4000000003725","","","","","","","","56","","","","305","probe-243","","","","","0","[object Object]","null","null","1","","","",""
"","html-keyboard-response","171","498703","0.0-94.0-1.0","""event"",""trial"",""time""
""fullscreenenter"",""0"",""9624""
","
","
","""event"",""trial"",""time""
""fullscreenenter"",""0"",""9624""
","
","null","<p></p>","null","","","","","","","","","","","","","","","","","","","","","","","",""
"","do_trial","172","502773","0.0-95.0-0.0","""event"",""trial"",""time""
""fullscreenenter"",""0"",""9624""
","
","
","""event"",""trial"",""time""
""fullscreenenter"",""0"",""9624""
","
","1476.2000000001863","","","","","","","","49","1,1,0","6","blank","306","null","0.3435238270386553","0.7193220646916809","0.15936820017834502","1","","","","","","","","",""
"","html-keyboard-response","173","503775","0.0-95.0-1.0","""event"",""trial"",""time""
""fullscreenenter"",""0"",""9624""
","
","
","""event"",""trial"",""time""
""fullscreenenter"",""0"",""9624""
","
","null","<p></p>","null","","","","","","","","","","","","","","","","","","","","","","","",""
"","do_recog","174","508036","0.0-96.0-0.0","""event"",""trial"",""time""
""fullscreenenter"",""0"",""9624""
","
","
","""event"",""trial"",""time""
""fullscreenenter"",""0"",""9624""
","
","2750.5","","","","","","","","53","","","","307","probe-100","","","","","1","[object Object]","191","4","1","","","",""
"","html-keyboard-response","175","509038","0.0-96.0-1.0","""event"",""trial"",""time""
""fullscreenenter"",""0"",""9624""
","
","
","""event"",""trial"",""time""
""fullscreenenter"",""0"",""9624""
","
","null","<p></p>","null","","","","","","","","","","","","","","","","","","","","","","","",""
"","do_trial","176","512193","0.0-97.0-0.0","""event"",""trial"",""time""
""fullscreenenter"",""0"",""9624""
","
","
","""event"",""trial"",""time""
""fullscreenenter"",""0"",""9624""
","
","543.9000000003725","","","","","","","","51","1,0,0","6","blank","308","null","0.36372067701511235","0.5893805131402798","0.10737994707754381","0","","","","","","","","",""
"","html-keyboard-response","177","513195","0.0-97.0-1.0","""event"",""trial"",""time""
""fullscreenenter"",""0"",""9624""
","
","
","""event"",""trial"",""time""
""fullscreenenter"",""0"",""9624""
","
","null","<p></p>","null","","","","","","","","","","","","","","","","","","","","","","","",""
"","break","178","516356","0.0-98.0-0.0","""event"",""trial"",""time""
""fullscreenenter"",""0"",""9624""
","
","
","""event"",""trial"",""time""
""fullscreenenter"",""0"",""9624""
","
","3159.4000000003725","<div class='center'><p>Time to take a quick break! You have 2 minutes to rest, but you can move on sooner if you'd like.</p><p> Press the <b>space bar</b> to continue.</p></div>","32","","","","","","","","","","","","","","","","","","","","","","","",""
"","do_trial","179","519845","0.0-98.0-1.0","""event"",""trial"",""time""
""fullscreenenter"",""0"",""9624""
","
","
","""event"",""trial"",""time""
""fullscreenenter"",""0"",""9624""
","
","885.6999999992549","","","","","","","","50","0,0,0","6","blank","309","null","0.3644459609364373","0.5042298679947406","0.10375718978110143","0","","","","","","","","",""
"","html-keyboard-response","180","520847","0.0-98.0-2.0","""event"",""trial"",""time""
""fullscreenenter"",""0"",""9624""
","
","
","""event"",""trial"",""time""
""fullscreenenter"",""0"",""9624""
","
","null","<p></p>","null","","","","","","","","","","","","","","","","","","","","","","","",""
"","do_trial","181","523544","0.0-99.0-0.0","""event"",""trial"",""time""
""fullscreenenter"",""0"",""9624""
","
","
","""event"",""trial"",""time""
""fullscreenenter"",""0"",""9624""
","
","87.70000000018626","","","","","","","","49","1,0,0","6","blank","310","null","0.2345983256299332","0.5377915936069022","0.1709749991039666","1","","","","","","","","",""
"","html-keyboard-response","182","524546","0.0-99.0-1.0","""event"",""trial"",""time""
""fullscreenenter"",""0"",""9624""
","
","
","""event"",""trial"",""time""
""fullscreenenter"",""0"",""9624""
","
","null","<p></p>","null","","","","","","","","","","","","","","","","","","","","","","","",""
"","do_trial","183","527246","0.0-100.0-0.0","""event"",""trial"",""time""
""fullscreenenter"",""0"",""9624""
","
","
","""event"",""trial"",""time""
""fullscreenenter"",""0"",""9624""
","
","128.5","","","","","","","","49","0,0,0","6","blank","311","null","0.26759254458749304","0.5577756969963527","0.11898063968755924","0","","","","","","","","",""
"","html-keyboard-response","184","528248","0.0-100.0-1.0","""event"",""trial"",""time""
""fullscreenenter"",""0"",""9624""
","
","
","""event"",""trial"",""time""
""fullscreenenter"",""0"",""9624""
","
","null","<p></p>","null","","","","","","","","","","","","","","","","","","","","","","","",""
"","do_trial","185","531631","0.0-101.0-0.0","""event"",""trial"",""time""
""fullscreenenter"",""0"",""9624""
","
","
","""event"",""trial"",""time""
""fullscreenenter"",""0"",""9624""
","
","776.6000000005588","","","","","","","","49","0,1,0","6","blank","312","null","0.27734145194066157","0.6257416412397124","0.16560182630288428","0","","","","","","","","",""
"","html-keyboard-response","186","532633","0.0-101.0-1.0","""event"",""trial"",""time""
""fullscreenenter"",""0"",""9624""
","
","
","""event"",""trial"",""time""
""fullscreenenter"",""0"",""9624""
","
","null","<p></p>","null","","","","","","","","","","","","","","","","","","","","","","","",""
"","do_trial","187","535598","0.0-102.0-0.0","""event"",""trial"",""time""
""fullscreenenter"",""0"",""9624""
","
","
","""event"",""trial"",""time""
""fullscreenenter"",""0"",""9624""
","
","347.40000000037253","","","","","","","","51","1,0,0","6","blank","313","null","0.24047454286245631","0.531683315373925","0.11526704313923883","0","","","","","","","","",""
"","html-keyboard-response","188","536600","0.0-102.0-1.0","""event"",""trial"",""time""
""fullscreenenter"",""0"",""9624""
","
","
","""event"",""trial"",""time""
""fullscreenenter"",""0"",""9624""
","
","null","<p></p>","null","","","","","","","","","","","","","","","","","","","","","","","",""
"","do_recog","189","540753","0.0-103.0-0.0","""event"",""trial"",""time""
""fullscreenenter"",""0"",""9624""
","
","
","""event"",""trial"",""time""
""fullscreenenter"",""0"",""9624""
","
","2642.5","","","","","","","","54","","","","314","probe-246","","","","","0","[object Object]","null","null","0","","","",""
"","html-keyboard-response","190","541754","0.0-103.0-1.0","""event"",""trial"",""time""
""fullscreenenter"",""0"",""9624""
","
","
","""event"",""trial"",""time""
""fullscreenenter"",""0"",""9624""
","
","null","<p></p>","null","","","","","","","","","","","","","","","","","","","","","","","",""
"","do_trial","191","545080","0.0-104.0-0.0","""event"",""trial"",""time""
""fullscreenenter"",""0"",""9624""
","
","
","""event"",""trial"",""time""
""fullscreenenter"",""0"",""9624""
","
","708.2999999998137","","","","","","","","50","0,1,0","6","blank","315","null","0.21421555185344177","0.624394663500741","0.16692499403364777","1","","","","","","","","",""
"","html-keyboard-response","192","546082","0.0-104.0-1.0","""event"",""trial"",""time""
""fullscreenenter"",""0"",""9624""
","
","
","""event"",""trial"",""time""
""fullscreenenter"",""0"",""9624""
","
","null","<p></p>","null","","","","","","","","","","","","","","","","","","","","","","","",""
"","do_trial","193","549806","0.0-105.0-0.0","""event"",""trial"",""time""
""fullscreenenter"",""0"",""9624""
","
","
","""event"",""trial"",""time""
""fullscreenenter"",""0"",""9624""
","
","1091.2999999998137","","","","","","","","51","0,1,0","6","blank","316","null","0.23307258531918704","0.6312186000878885","0.24157033635485117","0","","","","","","","","",""
"","html-keyboard-response","194","550808","0.0-105.0-1.0","""event"",""trial"",""time""
""fullscreenenter"",""0"",""9624""
","
","
","""event"",""trial"",""time""
""fullscreenenter"",""0"",""9624""
","
","null","<p></p>","null","","","","","","","","","","","","","","","","","","","","","","","",""
"","do_trial","195","553837","0.0-106.0-0.0","""event"",""trial"",""time""
""fullscreenenter"",""0"",""9624""
","
","
","""event"",""trial"",""time""
""fullscreenenter"",""0"",""9624""
","
","427.29999999981374","","","","","","","","50","0,1,0","6","blank","317","null","0.27074226977954","0.7511099880673119","0.16155604978302981","1","","","","","","","","",""
"","html-keyboard-response","196","554839","0.0-106.0-1.0","""event"",""trial"",""time""
""fullscreenenter"",""0"",""9624""
","
","
","""event"",""trial"",""time""
""fullscreenenter"",""0"",""9624""
","
","null","<p></p>","null","","","","","","","","","","","","","","","","","","","","","","","",""
"","do_recog","197","558673","0.0-107.0-0.0","""event"",""trial"",""time""
""fullscreenenter"",""0"",""9624""
","
","
","""event"",""trial"",""time""
""fullscreenenter"",""0"",""9624""
","
","2321.7000000001863","","","","","","","","54","","","","318","probe-59","","","","","1","[object Object]","195","4","1","","","",""
"","html-keyboard-response","198","559674","0.0-107.0-1.0","""event"",""trial"",""time""
""fullscreenenter"",""0"",""9624""
","
","
","""event"",""trial"",""time""
""fullscreenenter"",""0"",""9624""
","
","null","<p></p>","null","","","","","","","","","","","","","","","","","","","","","","","",""
"","do_trial","199","562912","0.0-108.0-0.0","""event"",""trial"",""time""
""fullscreenenter"",""0"",""9624""
","
","
","""event"",""trial"",""time""
""fullscreenenter"",""0"",""9624""
","
","665","","","","","","","","49","0,1,0","6","blank","319","null","0.34735631648446474","0.795260361245378","0.07880319054031273","0","","","","","","","","",""
"","html-keyboard-response","200","563914","0.0-108.0-1.0","""event"",""trial"",""time""
""fullscreenenter"",""0"",""9624""
","
","
","""event"",""trial"",""time""
""fullscreenenter"",""0"",""9624""
","
","null","<p></p>","null","","","","","","","","","","","","","","","","","","","","","","","",""
"","do_recog","201","567560","0.0-109.0-0.0","""event"",""trial"",""time""
""fullscreenenter"",""0"",""9624""
","
","
","""event"",""trial"",""time""
""fullscreenenter"",""0"",""9624""
","
","2135","","","","","","","","53","","","","320","probe-169","","","","","1","[object Object]","152","3","1","","","",""
"","html-keyboard-response","202","568562","0.0-109.0-1.0","""event"",""trial"",""time""
""fullscreenenter"",""0"",""9624""
","
","
","""event"",""trial"",""time""
""fullscreenenter"",""0"",""9624""
","
","null","<p></p>","null","","","","","","","","","","","","","","","","","","","","","","","",""
"","do_trial","203","571559","0.0-110.0-0.0","""event"",""trial"",""time""
""fullscreenenter"",""0"",""9624""
","
","
","""event"",""trial"",""time""
""fullscreenenter"",""0"",""9624""
","
","377.6000000005588","","","","","","","","49","1,0,0","6","blank","321","null","0.3775085743811464","0.6400361485774309","0.10134382257359863","1","","","","","","","","",""
"","html-keyboard-response","204","572562","0.0-110.0-1.0","""event"",""trial"",""time""
""fullscreenenter"",""0"",""9624""
","
","
","""event"",""trial"",""time""
""fullscreenenter"",""0"",""9624""
","
","null","<p></p>","null","","","","","","","","","","","","","","","","","","","","","","","",""
"","do_trial","205","575628","0.0-111.0-0.0","""event"",""trial"",""time""
""fullscreenenter"",""0"",""9624""
","
","
","""event"",""trial"",""time""
""fullscreenenter"",""0"",""9624""
","
","433.40000000037253","","","","","","","","49","1,0,0","6","blank","322","null","0.3068950847705532","0.5142473422598044","0.20990473817556485","1","","","","","","","","",""
"","html-keyboard-response","206","576630","0.0-111.0-1.0","""event"",""trial"",""time""
""fullscreenenter"",""0"",""9624""
","
","
","""event"",""trial"",""time""
""fullscreenenter"",""0"",""9624""
","
","null","<p></p>","null","","","","","","","","","","","","","","","","","","","","","","","",""
"","do_trial","207","579334","0.0-112.0-0.0","""event"",""trial"",""time""
""fullscreenenter"",""0"",""9624""
","
","
","""event"",""trial"",""time""
""fullscreenenter"",""0"",""9624""
","
","105.1000000005588","","","","","","","","49","0,0,0","6","blank","323","null","0.30383550178462826","0.4910887898885201","0.1428565233772999","0","","","","","","","","",""
"","html-keyboard-response","208","580336","0.0-112.0-1.0","""event"",""trial"",""time""
""fullscreenenter"",""0"",""9624""
","
","
","""event"",""trial"",""time""
""fullscreenenter"",""0"",""9624""
","
","null","<p></p>","null","","","","","","","","","","","","","","","","","","","","","","","",""
"","do_trial","209","583221","0.0-113.0-0.0","""event"",""trial"",""time""
""fullscreenenter"",""0"",""9624""
","
","
","""event"",""trial"",""time""
""fullscreenenter"",""0"",""9624""
","
","278.09999999962747","","","","","","","","51","0,1,0","6","blank","324","null","0.36338266989822315","0.5347274585053916","0.11637247246576558","0","","","","","","","","",""
"","html-keyboard-response","210","584223","0.0-113.0-1.0","""event"",""trial"",""time""
""fullscreenenter"",""0"",""9624""
","
","
","""event"",""trial"",""time""
""fullscreenenter"",""0"",""9624""
","
","null","<p></p>","null","","","","","","","","","","","","","","","","","","","","","","","",""
"","do_recog","211","587939","0.0-114.0-0.0","""event"",""trial"",""time""
""fullscreenenter"",""0"",""9624""
","
","
","""event"",""trial"",""time""
""fullscreenenter"",""0"",""9624""
","
","2205.4000000003725","","","","","","","","54","","","","325","probe-48","","","","","1","[object Object]","151","3","1","","","",""
"","html-keyboard-response","212","588940","0.0-114.0-1.0","""event"",""trial"",""time""
""fullscreenenter"",""0"",""9624""
","
","
","""event"",""trial"",""time""
""fullscreenenter"",""0"",""9624""
","
","null","<p></p>","null","","","","","","","","","","","","","","","","","","","","","","","",""
"","do_trial","213","592319","0.0-115.0-0.0","""event"",""trial"",""time""
""fullscreenenter"",""0"",""9624""
","
","
","""event"",""trial"",""time""
""fullscreenenter"",""0"",""9624""
","
","753.7000000001863","","","","","","","","51","0,1,1","6","blank","326","null","0.19210697122871176","0.5092988000017208","0.311996316860528","1","","","","","","","","",""
"","html-keyboard-response","214","593321","0.0-115.0-1.0","""event"",""trial"",""time""
""fullscreenenter"",""0"",""9624""
","
","
","""event"",""trial"",""time""
""fullscreenenter"",""0"",""9624""
","
","null","<p></p>","null","","","","","","","","","","","","","","","","","","","","","","","",""
"","do_recog","215","596934","0.0-116.0-0.0","""event"",""trial"",""time""
""fullscreenenter"",""0"",""9624""
","
","
","""event"",""trial"",""time""
""fullscreenenter"",""0"",""9624""
","
","2099.2000000001863","","","","","","","","54","","","","327","probe-190","","","","","1","[object Object]","118","2","1","","","",""
"","html-keyboard-response","216","597937","0.0-116.0-1.0","""event"",""trial"",""time""
""fullscreenenter"",""0"",""9624""
","
","
","""event"",""trial"",""time""
""fullscreenenter"",""0"",""9624""
","
","null","<p></p>","null","","","","","","","","","","","","","","","","","","","","","","","",""
"","do_trial","217","600673","0.0-117.0-0.0","""event"",""trial"",""time""
""fullscreenenter"",""0"",""9624""
","
","
","""event"",""trial"",""time""
""fullscreenenter"",""0"",""9624""
","
","108.6000000005588","","","","","","","","50","0,1,0","6","blank","328","null","0.28841434629455215","0.6654330544018504","0.22780792531102798","1","","","","","","","","",""
"","html-keyboard-response","218","601675","0.0-117.0-1.0","""event"",""trial"",""time""
""fullscreenenter"",""0"",""9624""
","
","
","""event"",""trial"",""time""
""fullscreenenter"",""0"",""9624""
","
","null","<p></p>","null","","","","","","","","","","","","","","","","","","","","","","","",""
"","do_trial","219","604589","0.0-118.0-0.0","""event"",""trial"",""time""
""fullscreenenter"",""0"",""9624""
","
","
","""event"",""trial"",""time""
""fullscreenenter"",""0"",""9624""
","
","316.3999999994412","","","","","","","","50","1,1,0","6","blank","329","null","0.27783483537042025","0.6548650223367207","0.19114648559056274","1","","","","","","","","",""
"","html-keyboard-response","220","605591","0.0-118.0-1.0","""event"",""trial"",""time""
""fullscreenenter"",""0"",""9624""
","
","
","""event"",""trial"",""time""
""fullscreenenter"",""0"",""9624""
","
","null","<p></p>","null","","","","","","","","","","","","","","","","","","","","","","","",""
"","do_trial","221","608649","0.0-119.0-0.0","""event"",""trial"",""time""
""fullscreenenter"",""0"",""9624""
","
","
","""event"",""trial"",""time""
""fullscreenenter"",""0"",""9624""
","
","453.09999999962747","","","","","","","","50","0,0,1","6","blank","330","null","0.20994302451712266","0.6607773977647295","0.08945185639677543","0","","","","","","","","",""
"","html-keyboard-response","222","609651","0.0-119.0-1.0","""event"",""trial"",""time""
""fullscreenenter"",""0"",""9624""
","
","
","""event"",""trial"",""time""
""fullscreenenter"",""0"",""9624""
","
","null","<p></p>","null","","","","","","","","","","","","","","","","","","","","","","","",""
"","do_recog","223","613723","0.0-120.0-0.0","""event"",""trial"",""time""
""fullscreenenter"",""0"",""9624""
","
","
","""event"",""trial"",""time""
""fullscreenenter"",""0"",""9624""
","
","2561.7000000001863","","","","","","","","55","","","","331","probe-163","","","","","1","[object Object]","192","4","0","","","",""
"","html-keyboard-response","224","614725","0.0-120.0-1.0","""event"",""trial"",""time""
""fullscreenenter"",""0"",""9624""
","
","
","""event"",""trial"",""time""
""fullscreenenter"",""0"",""9624""
","
","null","<p></p>","null","","","","","","","","","","","","","","","","","","","","","","","",""
"","do_trial","225","619079","0.0-121.0-0.0","""event"",""trial"",""time""
""fullscreenenter"",""0"",""9624""
","
","
","""event"",""trial"",""time""
""fullscreenenter"",""0"",""9624""
","
","1738.2999999998137","","","","","","","","50","0,1,0","6","blank","332","null","0.17604747676916468","0.590702219264422","0.13556796213167474","1","","","","","","","","",""
"","html-keyboard-response","226","620082","0.0-121.0-1.0","""event"",""trial"",""time""
""fullscreenenter"",""0"",""9624""
","
","
","""event"",""trial"",""time""
""fullscreenenter"",""0"",""9624""
","
","null","<p></p>","null","","","","","","","","","","","","","","","","","","","","","","","",""
"","do_recog","227","624056","0.0-122.0-0.0","""event"",""trial"",""time""
""fullscreenenter"",""0"",""9624""
","
","
","""event"",""trial"",""time""
""fullscreenenter"",""0"",""9624""
","
","2464.2999999998137","","","","","","","","53","","","","333","probe-124","","","","","1","[object Object]","196","4","1","","","",""
"","html-keyboard-response","228","625058","0.0-122.0-1.0","""event"",""trial"",""time""
""fullscreenenter"",""0"",""9624""
","
","
","""event"",""trial"",""time""
""fullscreenenter"",""0"",""9624""
","
","null","<p></p>","null","","","","","","","","","","","","","","","","","","","","","","","",""
"","do_trial","229","628821","0.0-123.0-0.0","""event"",""trial"",""time""
""fullscreenenter"",""0"",""9624""
","
","
","""event"",""trial"",""time""
""fullscreenenter"",""0"",""9624""
","
","1157.5","","","","","","","","49","0,1,0","6","blank","334","null","0.2142506024004931","0.5315114754705222","0.13556592433126832","0","","","","","","","","",""
"","html-keyboard-response","230","629823","0.0-123.0-1.0","""event"",""trial"",""time""
""fullscreenenter"",""0"",""9624""
","
","
","""event"",""trial"",""time""
""fullscreenenter"",""0"",""9624""
","
","null","<p></p>","null","","","","","","","","","","","","","","","","","","","","","","","",""
"","do_trial","231","634645","0.0-124.0-0.0","""event"",""trial"",""time""
""fullscreenenter"",""0"",""9624""
","
","
","""event"",""trial"",""time""
""fullscreenenter"",""0"",""9624""
","
","2205.899999999441","","","","","","","","51","1,1,0","6","blank","335","null","0.2472176883510672","0.6667640051607642","0.0930685594923951","0","","","","","","","","",""
"","html-keyboard-response","232","635647","0.0-124.0-1.0","""event"",""trial"",""time""
""fullscreenenter"",""0"",""9624""
","
","
","""event"",""trial"",""time""
""fullscreenenter"",""0"",""9624""
","
","null","<p></p>","null","","","","","","","","","","","","","","","","","","","","","","","",""
"","do_trial","233","638800","0.0-125.0-0.0","""event"",""trial"",""time""
""fullscreenenter"",""0"",""9624""
","
","
","""event"",""trial"",""time""
""fullscreenenter"",""0"",""9624""
","
","561.7999999998137","","","","","","","","50","1,1,0","6","blank","336","null","0.28648778111958206","0.6280191734110772","0.21932627264203397","1","","","","","","","","",""
"","html-keyboard-response","234","639802","0.0-125.0-1.0","""event"",""trial"",""time""
""fullscreenenter"",""0"",""9624""
","
","
","""event"",""trial"",""time""
""fullscreenenter"",""0"",""9624""
","
","null","<p></p>","null","","","","","","","","","","","","","","","","","","","","","","","",""
"","do_trial","235","642757","0.0-126.0-0.0","""event"",""trial"",""time""
""fullscreenenter"",""0"",""9624""
","
","
","""event"",""trial"",""time""
""fullscreenenter"",""0"",""9624""
","
","365.1000000005588","","","","","","","","50","0,1,0","6","blank","337","null","0.3484225160370449","0.7546618520027748","0.0952131343269232","1","","","","","","","","",""
"","html-keyboard-response","236","643759","0.0-126.0-1.0","""event"",""trial"",""time""
""fullscreenenter"",""0"",""9624""
","
","
","""event"",""trial"",""time""
""fullscreenenter"",""0"",""9624""
","
","null","<p></p>","null","","","","","","","","","","","","","","","","","","","","","","","",""
"","do_trial","237","646916","0.0-127.0-0.0","""event"",""trial"",""time""
""fullscreenenter"",""0"",""9624""
","
","
","""event"",""trial"",""time""
""fullscreenenter"",""0"",""9624""
","
","551.5","","","","","","","","50","0,1,0","6","blank","338","null","0.22082932910977668","0.6389754848443113","0.1469504676614533","1","","","","","","","","",""
"","html-keyboard-response","238","647918","0.0-127.0-1.0","""event"",""trial"",""time""
""fullscreenenter"",""0"",""9624""
","
","
","""event"",""trial"",""time""
""fullscreenenter"",""0"",""9624""
","
","null","<p></p>","null","","","","","","","","","","","","","","","","","","","","","","","",""
"","do_trial","239","650899","0.0-128.0-0.0","""event"",""trial"",""time""
""fullscreenenter"",""0"",""9624""
","
","
","""event"",""trial"",""time""
""fullscreenenter"",""0"",""9624""
","
","365.20000000018626","","","","","","","","49","0,1,0","6","blank","339","null","0.15744844612326409","0.5951648634434159","0.16562710243518372","0","","","","","","","","",""
"","html-keyboard-response","240","651901","0.0-128.0-1.0","""event"",""trial"",""time""
""fullscreenenter"",""0"",""9624""
","
","
","""event"",""trial"",""time""
""fullscreenenter"",""0"",""9624""
","
","null","<p></p>","null","","","","","","","","","","","","","","","","","","","","","","","",""
"","do_recog","241","655140","0.0-129.0-0.0","""event"",""trial"",""time""
""fullscreenenter"",""0"",""9624""
","
","
","""event"",""trial"",""time""
""fullscreenenter"",""0"",""9624""
","
","1724.9000000003725","","","","","","","","54","","","","340","probe-61","","","","","1","[object Object]","115","2","1","","","",""
"","html-keyboard-response","242","656142","0.0-129.0-1.0","""event"",""trial"",""time""
""fullscreenenter"",""0"",""9624""
","
","
","""event"",""trial"",""time""
""fullscreenenter"",""0"",""9624""
","
","null","<p></p>","null","","","","","","","","","","","","","","","","","","","","","","","",""
"","do_trial","243","660764","0.0-130.0-0.0","""event"",""trial"",""time""
""fullscreenenter"",""0"",""9624""
","
","
","""event"",""trial"",""time""
""fullscreenenter"",""0"",""9624""
","
","2011","","","","","","","","49","0,1,0","6","blank","341","null","0.2498104725400825","0.6029048453788255","0.07782466404880772","0","","","","","","","","",""
"","html-keyboard-response","244","661766","0.0-130.0-1.0","""event"",""trial"",""time""
""fullscreenenter"",""0"",""9624""
","
","
","""event"",""trial"",""time""
""fullscreenenter"",""0"",""9624""
","
","null","<p></p>","null","","","","","","","","","","","","","","","","","","","","","","","",""
"","do_recog","245","665204","0.0-131.0-0.0","""event"",""trial"",""time""
""fullscreenenter"",""0"",""9624""
","
","
","""event"",""trial"",""time""
""fullscreenenter"",""0"",""9624""
","
","1927","","","","","","","","53","","","","342","probe-211","","","","","1","[object Object]","75","1","1","","","",""
"","html-keyboard-response","246","666206","0.0-131.0-1.0","""event"",""trial"",""time""
""fullscreenenter"",""0"",""9624""
","
","
","""event"",""trial"",""time""
""fullscreenenter"",""0"",""9624""
","
","null","<p></p>","null","","","","","","","","","","","","","","","","","","","","","","","",""
"","do_trial","247","670643","0.0-132.0-0.0","""event"",""trial"",""time""
""fullscreenenter"",""0"",""9624""
","
","
","""event"",""trial"",""time""
""fullscreenenter"",""0"",""9624""
","
","1833.5","","","","","","","","51","0,1,0","6","blank","343","null","0.27659271068503666","0.5324346728181596","0.061565261308701595","0","","","","","","","","",""
"","html-keyboard-response","248","671645","0.0-132.0-1.0","""event"",""trial"",""time""
""fullscreenenter"",""0"",""9624""
","
","
","""event"",""trial"",""time""
""fullscreenenter"",""0"",""9624""
","
","null","<p></p>","null","","","","","","","","","","","","","","","","","","","","","","","",""
"","do_trial","249","674291","0.0-133.0-0.0","""event"",""trial"",""time""
""fullscreenenter"",""0"",""9624""
","
","
","""event"",""trial"",""time""
""fullscreenenter"",""0"",""9624""
","
","22","","","","","","","","50","0,1,0","6","blank","344","null","0.3671668884078275","0.6500804254118401","0.10030442041210297","1","","","","","","","","",""
"","html-keyboard-response","250","675293","0.0-133.0-1.0","""event"",""trial"",""time""
""fullscreenenter"",""0"",""9624""
","
","
","""event"",""trial"",""time""
""fullscreenenter"",""0"",""9624""
","
","null","<p></p>","null","","","","","","","","","","","","","","","","","","","","","","","",""
"","do_recog","251","678330","0.0-134.0-0.0","""event"",""trial"",""time""
""fullscreenenter"",""0"",""9624""
","
","
","""event"",""trial"",""time""
""fullscreenenter"",""0"",""9624""
","
","1526.7000000001863","","","","","","","","53","","","","345","probe-85","","","","","1","[object Object]","33","0","1","","","",""
"","html-keyboard-response","252","679331","0.0-134.0-1.0","""event"",""trial"",""time""
""fullscreenenter"",""0"",""9624""
","
","
","""event"",""trial"",""time""
""fullscreenenter"",""0"",""9624""
","
","null","<p></p>","null","","","","","","","","","","","","","","","","","","","","","","","",""
"","do_trial","253","683076","0.0-135.0-0.0","""event"",""trial"",""time""
""fullscreenenter"",""0"",""9624""
","
","
","""event"",""trial"",""time""
""fullscreenenter"",""0"",""9624""
","
","1143","","","","","","","","50","1,0,0","6","blank","346","null","0.5749533344737853","0.5139813237173195","0.20115272866742998","0","","","","","","","","",""
"","html-keyboard-response","254","684078","0.0-135.0-1.0","""event"",""trial"",""time""
""fullscreenenter"",""0"",""9624""
","
","
","""event"",""trial"",""time""
""fullscreenenter"",""0"",""9624""
","
","null","<p></p>","null","","","","","","","","","","","","","","","","","","","","","","","",""
"","do_recog","255","687995","0.0-136.0-0.0","""event"",""trial"",""time""
""fullscreenenter"",""0"",""9624""
","
","
","""event"",""trial"",""time""
""fullscreenenter"",""0"",""9624""
","
","2406.199999999255","","","","","","","","56","","","","347","probe-233","","","","","0","[object Object]","null","null","1","","","",""
"","html-keyboard-response","256","688997","0.0-136.0-1.0","""event"",""trial"",""time""
""fullscreenenter"",""0"",""9624""
","
","
","""event"",""trial"",""time""
""fullscreenenter"",""0"",""9624""
","
","null","<p></p>","null","","","","","","","","","","","","","","","","","","","","","","","",""
"","do_trial","257","692186","0.0-137.0-0.0","""event"",""trial"",""time""
""fullscreenenter"",""0"",""9624""
","
","
","""event"",""trial"",""time""
""fullscreenenter"",""0"",""9624""
","
","579.2999999998137","","","","","","","","50","1,0,0","6","blank","348","null","0.614579963109822","0.3284534681942357","0.23145693841151765","0","","","","","","","","",""
"","html-keyboard-response","258","693188","0.0-137.0-1.0","""event"",""trial"",""time""
""fullscreenenter"",""0"",""9624""
","
","
","""event"",""trial"",""time""
""fullscreenenter"",""0"",""9624""
","
","null","<p></p>","null","","","","","","","","","","","","","","","","","","","","","","","",""
"","break","259","773941","0.0-138.0-0.0","""event"",""trial"",""time""
""fullscreenenter"",""0"",""9624""
","
","
","""event"",""trial"",""time""
""fullscreenenter"",""0"",""9624""
","
","80749.20000000019","<div class='center'><p>Time to take a quick break! You have 2 minutes to rest, but you can move on sooner if you'd like.</p><p> Press the <b>space bar</b> to continue.</p></div>","32","","","","","","","","","","","","","","","","","","","","","","","",""
"","do_recog","260","777148","0.0-138.0-1.0","""event"",""trial"",""time""
""fullscreenenter"",""0"",""9624""
","
","
","""event"",""trial"",""time""
""fullscreenenter"",""0"",""9624""
","
","1697.2999999998137","","","","","","","","53","","","","349","probe-106","","","","","1","[object Object]","159","3","1","","","",""
"","html-keyboard-response","261","778150","0.0-138.0-2.0","""event"",""trial"",""time""
""fullscreenenter"",""0"",""9624""
","
","
","""event"",""trial"",""time""
""fullscreenenter"",""0"",""9624""
","
","null","<p></p>","null","","","","","","","","","","","","","","","","","","","","","","","",""
"","do_trial","262","781650","0.0-139.0-0.0","""event"",""trial"",""time""
""fullscreenenter"",""0"",""9624""
","
","
","""event"",""trial"",""time""
""fullscreenenter"",""0"",""9624""
","
","907.5999999996275","","","","","","","","50","1,1,1","6","blank","350","null","0.5934703601388446","0.387013928105543","0.23196982233288382","1","","","","","","","","",""
"","html-keyboard-response","263","782652","0.0-139.0-1.0","""event"",""trial"",""time""
""fullscreenenter"",""0"",""9624""
","
","
","""event"",""trial"",""time""
""fullscreenenter"",""0"",""9624""
","
","null","<p></p>","null","","","","","","","","","","","","","","","","","","","","","","","",""
"","do_recog","264","785939","0.0-140.0-0.0","""event"",""trial"",""time""
""fullscreenenter"",""0"",""9624""
","
","
","""event"",""trial"",""time""
""fullscreenenter"",""0"",""9624""
","
","1776.2999999998137","","","","","","","","53","","","","351","probe-136","","","","","1","[object Object]","74","1","1","","","",""
"","html-keyboard-response","265","786940","0.0-140.0-1.0","""event"",""trial"",""time""
""fullscreenenter"",""0"",""9624""
","
","
","""event"",""trial"",""time""
""fullscreenenter"",""0"",""9624""
","
","null","<p></p>","null","","","","","","","","","","","","","","","","","","","","","","","",""
"","do_trial","266","790546","0.0-141.0-0.0","""event"",""trial"",""time""
""fullscreenenter"",""0"",""9624""
","
","
","""event"",""trial"",""time""
""fullscreenenter"",""0"",""9624""
","
","986.2000000001863","","","","","","","","50","0,0,0","6","blank","352","null","0.6217646659891533","0.3091568816238725","0.1191703228972456","0","","","","","","","","",""
"","html-keyboard-response","267","791548","0.0-141.0-1.0","""event"",""trial"",""time""
""fullscreenenter"",""0"",""9624""
","
","
","""event"",""trial"",""time""
""fullscreenenter"",""0"",""9624""
","
","null","<p></p>","null","","","","","","","","","","","","","","","","","","","","","","","",""
"","do_recog","268","794757","0.0-142.0-0.0","""event"",""trial"",""time""
""fullscreenenter"",""0"",""9624""
","
","
","""event"",""trial"",""time""
""fullscreenenter"",""0"",""9624""
","
","1696.9000000003725","","","","","","","","53","","","","353","probe-175","","","","","1","[object Object]","76","1","1","","","",""
"","html-keyboard-response","269","795759","0.0-142.0-1.0","""event"",""trial"",""time""
""fullscreenenter"",""0"",""9624""
","
","
","""event"",""trial"",""time""
""fullscreenenter"",""0"",""9624""
","
","null","<p></p>","null","","","","","","","","","","","","","","","","","","","","","","","",""
"","do_trial","270","799398","0.0-143.0-0.0","""event"",""trial"",""time""
""fullscreenenter"",""0"",""9624""
","
","
","""event"",""trial"",""time""
""fullscreenenter"",""0"",""9624""
","
","1028.5","","","","","","","","49","1,0,0","6","blank","354","null","0.5819824337454346","0.27548637274660503","0.10876753528626301","1","","","","","","","","",""
"","html-keyboard-response","271","800400","0.0-143.0-1.0","""event"",""trial"",""time""
""fullscreenenter"",""0"",""9624""
","
","
","""event"",""trial"",""time""
""fullscreenenter"",""0"",""9624""
","
","null","<p></p>","null","","","","","","","","","","","","","","","","","","","","","","","",""
"","do_trial","272","804317","0.0-144.0-0.0","""event"",""trial"",""time""
""fullscreenenter"",""0"",""9624""
","
","
","""event"",""trial"",""time""
""fullscreenenter"",""0"",""9624""
","
","1322.7000000001863","","","","","","","","49","1,1,0","6","blank","355","null","0.6458649430998402","0.3298309311929387","0.0811194184856021","1","","","","","","","","",""
"","html-keyboard-response","273","805319","0.0-144.0-1.0","""event"",""trial"",""time""
""fullscreenenter"",""0"",""9624""
","
","
","""event"",""trial"",""time""
""fullscreenenter"",""0"",""9624""
","
","null","<p></p>","null","","","","","","","","","","","","","","","","","","","","","","","",""
"","do_trial","274","807901","0.0-145.0-0.0","""event"",""trial"",""time""
""fullscreenenter"",""0"",""9624""
","
","
","""event"",""trial"",""time""
""fullscreenenter"",""0"",""9624""
","
","1.099999999627471","","","","","","","","51","0,0,0","6","blank","356","null","0.6744085554441245","0.348318856753124","0.18374157166306163","0","","","","","","","","",""
"","html-keyboard-response","275","808903","0.0-145.0-1.0","""event"",""trial"",""time""
""fullscreenenter"",""0"",""9624""
","
","
","""event"",""trial"",""time""
""fullscreenenter"",""0"",""9624""
","
","null","<p></p>","null","","","","","","","","","","","","","","","","","","","","","","","",""
"","do_trial","276","811554","0.0-146.0-0.0","""event"",""trial"",""time""
""fullscreenenter"",""0"",""9624""
","
","
","""event"",""trial"",""time""
""fullscreenenter"",""0"",""9624""
","
","45.80000000074506","","","","","","","","49","0,0,0","6","blank","357","null","0.6336649217683044","0.25515125898027924","0.2200692883512936","0","","","","","","","","",""
"","html-keyboard-response","277","812556","0.0-146.0-1.0","""event"",""trial"",""time""
""fullscreenenter"",""0"",""9624""
","
","
