"success","trial_type","trial_index","time_elapsed","internal_node_id","interactions","blur_events","focus_events","fullscreenenter_events","fullscreenexit_events","rt","stimulus","key_press","subject_id","participant_id","age","gender","prompt","response","choice_outcomes","context_n","context_img_id","trial_n","probe_img_id","pR_red","pR_white","pR_black","outcome","is_valid","image_to_show","probed_trial","probed_context","correct","probe","probed_trial_n","probed_context_n","context_im"
"true","fullscreen","0","3003","0.0-0.0","""event"",""trial"",""time""
""fullscreenenter"",""0"",""2020""
","
","
","""event"",""trial"",""time""
""fullscreenenter"",""0"",""2020""
","
","","","","","","","","","","","","","","","","","","","","","","","","","","",""
"","pavlovia","1","3006","0.0-1.0","""event"",""trial"",""time""
""fullscreenenter"",""0"",""2020""
","
","
","""event"",""trial"",""time""
""fullscreenenter"",""0"",""2020""
","
","","","","","","","","","","","","","","","","","","","","","","","","","","",""
"","welc_back","2","12837","0.0-2.0","""event"",""trial"",""time""
""fullscreenenter"",""0"",""2020""
","
","
","""event"",""trial"",""time""
""fullscreenenter"",""0"",""2020""
","
","null","run_exp/static/audio/clip_29_welcome_back.m4a","null","1480","1488","17","Male","<div class='center'><p>Welcome to day 2!</p><p> Yesterday, you were the head captain of a pirate ship. You asked your fellow pirates to rob other ships of their gold across six different islands.</p></div>","","","","","","","","","","","","","","","","","","",""
"","html-keyboard-response","3","17064","0.0-3.0","""event"",""trial"",""time""
""fullscreenenter"",""0"",""2020""
","
","
","""event"",""trial"",""time""
""fullscreenenter"",""0"",""2020""
","
","4225.699999999255","<div class='center'><p>Welcome to day 2!</p><p> Yesterday, you were the head captain of a pirate ship. You asked your fellow pirates to rob other ships of their gold across six different islands.</p><p><b>[Press the space bar to continue]</b></p></div>","32","","","","","","","","","","","","","","","","","","","","","","","",""
"","day_1_summary_goal","4","34257","0.0-4.0","""event"",""trial"",""time""
""fullscreenenter"",""0"",""2020""
","
","
","""event"",""trial"",""time""
""fullscreenenter"",""0"",""2020""
","
","null","run_exp/static/audio/clip_30_goal_of_game.m4a","null","","","","","<div class='center'><p>Today, like yesterday, you get to pick which pirate you want to rob the next ship.</p><p>If the pirate is successful in robbing a ship, you get gold coins that look like this: </p><p><img src='run_exp/static/images/tutorial/reward.png' height='150'></p><p> If they were not successful in robbing the ship, then you will get no gold coins and you'll see a big red x like this: </p><p><img src='run_exp/static/images/tutorial/reward_no.png' height='150'></p></div>","","","","","","","","","","","","","","","","","","",""
"","html-keyboard-response","5","34770","0.0-5.0","""event"",""trial"",""time""
""fullscreenenter"",""0"",""2020""
","
","
","""event"",""trial"",""time""
""fullscreenenter"",""0"",""2020""
","
","512.4000000003725","<div class='center'><p>Today, like yesterday, you get to pick which pirate you want to rob the next ship.</p><p>If the pirate is successful in robbing a ship, you get gold coins that look like this: </p><p><img src='run_exp/static/images/tutorial/reward.png' height='150'></p><p> If they were not successful in robbing the ship, then you will get no gold coins and you'll see a big red x like this: </p><p><img src='run_exp/static/images/tutorial/reward_no.png' height='150'></p><p><b>[Press the space bar to continue]</b></p></div>","32","","","","","","","","","","","","","","","","","","","","","","","",""
"","day_1_summary_pick","6","49457","0.0-6.0","""event"",""trial"",""time""
""fullscreenenter"",""0"",""2020""
","
","
","""event"",""trial"",""time""
""fullscreenenter"",""0"",""2020""
","
","null","run_exp/static/audio/clip_31_how_to_pick_a_pirate.m4a","null","","","","","<div class='center'><p>Also, just like yesterday, you will use the 1,2,3 keys on your keyboard to pick a pirate. Press '1' to choose red beard, '2' to choose white beard, and '3' to choose black beard . You only have 3 seconds to pick a pirate, so please make a choice quickly!</p></div>","","","","","","","","","","","","","","","","","","",""
"","html-keyboard-response","7","50907","0.0-7.0","""event"",""trial"",""time""
""fullscreenenter"",""0"",""2020""
","
","
","""event"",""trial"",""time""
""fullscreenenter"",""0"",""2020""
","
","1448.4000000003725","<div class='center'><p>Also, just like yesterday, you will use the 1,2,3 keys on your keyboard to pick a pirate. Press '1' to choose red beard, '2' to choose white beard, and '3' to choose black beard . You only have 3 seconds to pick a pirate, so please make a choice quickly!</p><p><b>[Press the space bar to continue]</b></p></div>","32","","","","","","","","","","","","","","","","","","","","","","","",""
"","test_phase_begin","8","81297","0.0-8.0","""event"",""trial"",""time""
""fullscreenenter"",""0"",""2020""
","
","
","""event"",""trial"",""time""
""fullscreenenter"",""0"",""2020""
","
","null","run_exp/static/audio/clip_32_final_place.m4a","null","","","","","<div class='center'><p>You’ve arrived at the final island of your journey! Unfortunately, it’s very foggy out, so you won’t be able to see it in the distance like the other islands you've visited.</p><p>You’ll still be deciding which pirate you want to rob a ship like before. However, because of the fog, you also won’t be able to see the ship.</p><p>This means you do not have to remember the ships you rob on this island.</p><p>Unlike yesterday, you won't be visiting multiple islands today. You will stay on this island for the entire game. This game will last ~30 minutes.</p></div>","","","","","","","","","","","","","","","","","","",""
"","html-keyboard-response","9","81946","0.0-9.0","""event"",""trial"",""time""
""fullscreenenter"",""0"",""2020""
","
","
","""event"",""trial"",""time""
""fullscreenenter"",""0"",""2020""
","
","648.4000000003725","<div class='center'><p>You’ve arrived at the final island of your journey! Unfortunately, it’s very foggy out, so you won’t be able to see it in the distance like the other islands you've visited.</p><p>You’ll still be deciding which pirate you want to rob a ship like before. However, because of the fog, you also won’t be able to see the ship.</p><p>This means you do not have to remember the ships you rob on this island.</p><p>Unlike yesterday, you won't be visiting multiple islands today. You will stay on this island for the entire game. This game will last ~30 minutes.</p><p><b>[Press the space bar to continue]</b></p></div>","32","","","","","","","","","","","","","","","","","","","","","","","",""
"","explain_probe_1","10","89657","0.0-10.0","""event"",""trial"",""time""
""fullscreenenter"",""0"",""2020""
","
","
","""event"",""trial"",""time""
""fullscreenenter"",""0"",""2020""
","
","null","run_exp/static/audio/clip_33_recognition_1.m4a","null","","","","","<div class='center'><p> Sometimes you’ll be shown a ship, and you will be asked if you saw this ship on a past island.</p><p> Here is an example of what you will see.</p><p><img src='run_exp/static/images/tutorial/example_recog_trial.png' height='500'></p></div>","","","","","","","","","","","","","","","","","","",""
"","html-keyboard-response","11","90330","0.0-11.0","""event"",""trial"",""time""
""fullscreenenter"",""0"",""2020""
","
","
","""event"",""trial"",""time""
""fullscreenenter"",""0"",""2020""
","
","672.0999999996275","<div class='center'><p> Sometimes you’ll be shown a ship, and you will be asked if you saw this ship on a past island.</p><p> Here is an example of what you will see.</p><p><img src='run_exp/static/images/tutorial/example_recog_trial.png' height='500'></p><p><b>[Press the space bar to continue]</b></p></div>","32","","","","","","","","","","","","","","","","","","","","","","","",""
"","explain_probe_2","12","112037","0.0-12.0","""event"",""trial"",""time""
""fullscreenenter"",""0"",""2020""
","
","
","""event"",""trial"",""time""
""fullscreenenter"",""0"",""2020""
","
","null","run_exp/static/audio/clip_34_recognition_2.m4a","null","","","","","<div class='center'><p> You will press the 5, 6, 7, 8 keys on your keyboard to respond.</p><p>If you are sure you saw the ship, press <b>5</b> on your keyboard.</p><p> If you think you saw it before but aren't sure, then press <b>6</b>.</p><p> If you think you have <b>not</b> seen it before but aren't sure, then press <b>7</b>.</p><p> If you are sure you did <b>not</b> see the ship before, then press <b>8</b>.</p><p><img src='run_exp/static/images/tutorial/example_recog_trial.png' height='500'></p></div>","","","","","","","","","","","","","","","","","","",""
"","html-keyboard-response","13","113010","0.0-13.0","""event"",""trial"",""time""
""fullscreenenter"",""0"",""2020""
","
","
","""event"",""trial"",""time""
""fullscreenenter"",""0"",""2020""
","
","972.6999999992549","<div class='center'><p> You will press the 5, 6, 7, 8 keys on your keyboard to respond.</p><p>If you are sure you saw the ship, press <b>5</b> on your keyboard.</p><p> If you think you saw it before but aren't sure, then press <b>6</b>.</p><p> If you think you have <b>not</b> seen it before but aren't sure, then press <b>7</b>.</p><p> If you are sure you did <b>not</b> see the ship before, then press <b>8</b>.</p><p><img src='run_exp/static/images/tutorial/example_recog_trial.png' height='500'></p><p><b>[Press the space bar to continue]</b></p></div>","32","","","","","","","","","","","","","","","","","","","","","","","",""
"","explain_outcome","14","130197","0.0-14.0","""event"",""trial"",""time""
""fullscreenenter"",""0"",""2020""
","
","
","""event"",""trial"",""time""
""fullscreenenter"",""0"",""2020""
","
","null","run_exp/static/audio/clip_35_recognition_3.m4a","null","","","","","<div class='center'><p> If you remember correctly, then you’ll get a gold coin like this: </p><p><img src='run_exp/static/images/tutorial/reward_small.png' height='200'></p><p>If you do not remember correctly, then you'll see a red x like this: </p><p><img src='run_exp/static/images/tutorial/reward_no.png' height='200'></p><p>Importantly, when you are shown a ship, take the time to remind yourself which island you saw it on. This will help you in the next part of the study.</p></div>","","","","","","","","","","","","","","","","","","",""
"","html-keyboard-response","15","130202","0.0-15.0","""event"",""trial"",""time""
""fullscreenenter"",""0"",""2020""
","
","
","""event"",""trial"",""time""
""fullscreenenter"",""0"",""2020""
","
","4","<div class='center'><p> If you remember correctly, then you’ll get a gold coin like this: </p><p><img src='run_exp/static/images/tutorial/reward_small.png' height='200'></p><p>If you do not remember correctly, then you'll see a red x like this: </p><p><img src='run_exp/static/images/tutorial/reward_no.png' height='200'></p><p>Importantly, when you are shown a ship, take the time to remind yourself which island you saw it on. This will help you in the next part of the study.</p><p><b>[Press the space bar to continue]</b></p></div>","32","","","","","","","","","","","","","","","","","","","","","","","",""
"","begin_test_phase","16","146017","0.0-16.0","""event"",""trial"",""time""
""fullscreenenter"",""0"",""2020""
","
","
","""event"",""trial"",""time""
""fullscreenenter"",""0"",""2020""
","
","null","run_exp/static/audio/clip_36_begin_final.m4a","null","","","","","<div class='center'><p>Let's go over the important points again. Your job is to: </p><p>1. Pick the pirate who is best at robbing ships and will bring you back gold coins. </p><p>2. Correctly remember whether or not you saw a ship before. If you did see the ship before, remind yourself on which island you saw it. </p></div>","","","","","","","","","","","","","","","","","","",""
"","html-keyboard-response","17","149722","0.0-17.0","""event"",""trial"",""time""
""fullscreenenter"",""0"",""2020""
","
","
","""event"",""trial"",""time""
""fullscreenenter"",""0"",""2020""
","
","3656.5999999996275","<div class='center'><p>Let's go over the important points again. Your job is to: </p><p>1. Pick the pirate who is best at robbing ships and will bring you back gold coins. </p><p>2. Correctly remember whether or not you saw a ship before. If you did see the ship before, remind yourself on which island you saw it. </p><p><b>[Press the space bar to continue]</b></p></div>","32","","","","","","","","","","","","","","","","","","","","","","","",""
"","do_welcome","18","153838","0.0-18.0","""event"",""trial"",""time""
""fullscreenenter"",""0"",""2020""
","
","
","""event"",""trial"",""time""
""fullscreenenter"",""0"",""2020""
","
","null","","","","","","","","null","","","","","","","","","","","","","","","","","",""
"","do_trial","19","157802","0.0-19.0-0.0","""event"",""trial"",""time""
""fullscreenenter"",""0"",""2020""
","
","
","""event"",""trial"",""time""
""fullscreenenter"",""0"",""2020""
","
","1416.5999999996275","","","","","","","","49","0,0,1","6","blank","230","null","0.11219842591646549","0.17277815354906495","0.4139836294309415","0","","","","","","","","",""
"","html-keyboard-response","20","158819","0.0-19.0-1.0","""event"",""trial"",""time""
""fullscreenenter"",""0"",""2020""
","
","
","""event"",""trial"",""time""
""fullscreenenter"",""0"",""2020""
","
","null","<p></p>","null","","","","","","","","","","","","","","","","","","","","","","","",""
"","do_trial","21","161606","0.0-20.0-0.0","""event"",""trial"",""time""
""fullscreenenter"",""0"",""2020""
","
","
","""event"",""trial"",""time""
""fullscreenenter"",""0"",""2020""
","
","239.40000000037253","","","","","","","","50","0,0,0","6","blank","231","null","0.10789622759446622","0.3553761639744931","0.6054733113973539","0","","","","","","","","",""
"","html-keyboard-response","22","162620","0.0-20.0-1.0","""event"",""trial"",""time""
""fullscreenenter"",""0"",""2020""
","
","
","""event"",""trial"",""time""
""fullscreenenter"",""0"",""2020""
","
","null","<p></p>","null","","","","","","","","","","","","","","","","","","","","","","","",""
"","do_trial","23","165401","0.0-21.0-0.0","""event"",""trial"",""time""
""fullscreenenter"",""0"",""2020""
","
","
","""event"",""trial"",""time""
""fullscreenenter"",""0"",""2020""
","
","247.40000000037253","","","","","","","","51","0,1,1","6","blank","232","null","0.09254433568954273","0.44406864428883536","0.5507687521636055","1","","","","","","","","",""
"","html-keyboard-response","24","166416","0.0-21.0-1.0","""event"",""trial"",""time""
""fullscreenenter"",""0"",""2020""
","
","
","""event"",""trial"",""time""
""fullscreenenter"",""0"",""2020""
","
","null","<p></p>","null","","","","","","","","","","","","","","","","","","","","","","","",""
"","do_trial","25","169201","0.0-22.0-0.0","""event"",""trial"",""time""
""fullscreenenter"",""0"",""2020""
","
","
","""event"",""trial"",""time""
""fullscreenenter"",""0"",""2020""
","
","239.80000000074506","","","","","","","","51","0,0,1","6","blank","233","null","0.08494083145704476","0.41687261333767844","0.5896942088076709","1","","","","","","","","",""
"","html-keyboard-response","26","170203","0.0-22.0-1.0","""event"",""trial"",""time""
""fullscreenenter"",""0"",""2020""
","
","
","""event"",""trial"",""time""
""fullscreenenter"",""0"",""2020""
","
","null","<p></p>","null","","","","","","","","","","","","","","","","","","","","","","","",""
"","do_trial","27","173057","0.0-23.0-0.0","""event"",""trial"",""time""
""fullscreenenter"",""0"",""2020""
","
","
","""event"",""trial"",""time""
""fullscreenenter"",""0"",""2020""
","
","311.90000000037253","","","","","","","","51","0,0,1","6","blank","234","null","0.2579315557123415","0.37512152644528274","0.5924794100752034","1","","","","","","","","",""
"","html-keyboard-response","28","174059","0.0-23.0-1.0","""event"",""trial"",""time""
""fullscreenenter"",""0"",""2020""
","
","
","""event"",""trial"",""time""
""fullscreenenter"",""0"",""2020""
","
","null","<p></p>","null","","","","","","","","","","","","","","","","","","","","","","","",""
"","do_trial","29","176857","0.0-24.0-0.0","""event"",""trial"",""time""
""fullscreenenter"",""0"",""2020""
","
","
","""event"",""trial"",""time""
""fullscreenenter"",""0"",""2020""
","
","254.30000000074506","","","","","","","","51","1,0,1","6","blank","235","null","0.25306803937535455","0.4585096162921059","0.49569729268429447","1","","","","","","","","",""
"","html-keyboard-response","30","177864","0.0-24.0-1.0","""event"",""trial"",""time""
""fullscreenenter"",""0"",""2020""
","
","
","""event"",""trial"",""time""
""fullscreenenter"",""0"",""2020""
","
","null","<p></p>","null","","","","","","","","","","","","","","","","","","","","","","","",""
"","do_trial","31","180637","0.0-25.0-0.0","""event"",""trial"",""time""
""fullscreenenter"",""0"",""2020""
","
","
","""event"",""trial"",""time""
""fullscreenenter"",""0"",""2020""
","
","234.2999999988824","","","","","","","","51","1,1,0","6","blank","236","null","0.2526403502888291","0.5036495979221609","0.449241197182491","0","","","","","","","","",""
"","html-keyboard-response","32","181640","0.0-25.0-1.0","""event"",""trial"",""time""
""fullscreenenter"",""0"",""2020""
","
","
","""event"",""trial"",""time""
""fullscreenenter"",""0"",""2020""
","
","null","<p></p>","null","","","","","","","","","","","","","","","","","","","","","","","",""
"","do_trial","33","184404","0.0-26.0-0.0","""event"",""trial"",""time""
""fullscreenenter"",""0"",""2020""
","
","
","""event"",""trial"",""time""
""fullscreenenter"",""0"",""2020""
","
","225.60000000149012","","","","","","","","49","0,1,0","6","blank","237","null","0.23309225468392755","0.42981655804637947","0.5750553719692552","0","","","","","","","","",""
"","html-keyboard-response","34","185419","0.0-26.0-1.0","""event"",""trial"",""time""
""fullscreenenter"",""0"",""2020""
","
","
","""event"",""trial"",""time""
""fullscreenenter"",""0"",""2020""
","
","null","<p></p>","null","","","","","","","","","","","","","","","","","","","","","","","",""
"","do_trial","35","188019","0.0-27.0-0.0","""event"",""trial"",""time""
""fullscreenenter"",""0"",""2020""
","
","
","""event"",""trial"",""time""
""fullscreenenter"",""0"",""2020""
","
","61.59999999962747","","","","","","","","50","0,0,1","6","blank","238","null","0.15785726668784947","0.4728695153626974","0.6838630667713915","0","","","","","","","","",""
"","html-keyboard-response","36","189020","0.0-27.0-1.0","""event"",""trial"",""time""
""fullscreenenter"",""0"",""2020""
","
","
","""event"",""trial"",""time""
""fullscreenenter"",""0"",""2020""
","
","null","<p></p>","null","","","","","","","","","","","","","","","","","","","","","","","",""
"","do_trial","37","191824","0.0-28.0-0.0","""event"",""trial"",""time""
""fullscreenenter"",""0"",""2020""
","
","
","""event"",""trial"",""time""
""fullscreenenter"",""0"",""2020""
","
","271.69999999925494","","","","","","","","51","0,0,1","6","blank","239","null","0.21761077596843448","0.3820840154460576","0.5435276222859028","1","","","","","","","","",""
"","html-keyboard-response","38","192826","0.0-28.0-1.0","""event"",""trial"",""time""
""fullscreenenter"",""0"",""2020""
","
","
","""event"",""trial"",""time""
""fullscreenenter"",""0"",""2020""
","
","null","<p></p>","null","","","","","","","","","","","","","","","","","","","","","","","",""
"","do_trial","39","195932","0.0-29.0-0.0","""event"",""trial"",""time""
""fullscreenenter"",""0"",""2020""
","
","
","""event"",""trial"",""time""
""fullscreenenter"",""0"",""2020""
","
","558","","","","","","","","51","0,0,0","6","blank","240","null","0.33715667795757115","0.42205256729491375","0.34444879545906704","0","","","","","","","","",""
"","html-keyboard-response","40","196947","0.0-29.0-1.0","""event"",""trial"",""time""
""fullscreenenter"",""0"",""2020""
","
","
","""event"",""trial"",""time""
""fullscreenenter"",""0"",""2020""
","
","null","<p></p>","null","","","","","","","","","","","","","","","","","","","","","","","",""
"","do_trial","41","199684","0.0-30.0-0.0","""event"",""trial"",""time""
""fullscreenenter"",""0"",""2020""
","
","
","""event"",""trial"",""time""
""fullscreenenter"",""0"",""2020""
","
","198","","","","","","","","51","0,1,0","6","blank","241","null","0.4165843719244633","0.44358101922211246","0.32053982635475714","0","","","","","","","","",""
"","html-keyboard-response","42","200698","0.0-30.0-1.0","""event"",""trial"",""time""
""fullscreenenter"",""0"",""2020""
","
","
","""event"",""trial"",""time""
""fullscreenenter"",""0"",""2020""
","
","null","<p></p>","null","","","","","","","","","","","","","","","","","","","","","","","",""
"","do_trial","43","203354","0.0-31.0-0.0","""event"",""trial"",""time""
""fullscreenenter"",""0"",""2020""
","
","
","""event"",""trial"",""time""
""fullscreenenter"",""0"",""2020""
","
","113.70000000111759","","","","","","","","50","0,1,0","6","blank","242","null","0.4869207451724678","0.37939331499411316","0.32392008050808524","1","","","","","","","","",""
"","html-keyboard-response","44","204359","0.0-31.0-1.0","""event"",""trial"",""time""
""fullscreenenter"",""0"",""2020""
","
","
","""event"",""trial"",""time""
""fullscreenenter"",""0"",""2020""
","
","null","<p></p>","null","","","","","","","","","","","","","","","","","","","","","","","",""
"","do_trial","45","209137","0.0-32.0-0.0","""event"",""trial"",""time""
""fullscreenenter"",""0"",""2020""
","
","
","""event"",""trial"",""time""
""fullscreenenter"",""0"",""2020""
","
","2232.7000000011176","","","","","","","","50","1,1,1","6","blank","243","null","0.4253631385675991","0.4236430065800688","0.21377451980102","1","","","","","","","","",""
"","html-keyboard-response","46","210139","0.0-32.0-1.0","""event"",""trial"",""time""
""fullscreenenter"",""0"",""2020""
","
","
","""event"",""trial"",""time""
""fullscreenenter"",""0"",""2020""
","
","null","<p></p>","null","","","","","","","","","","","","","","","","","","","","","","","",""
"","do_trial","47","212773","0.0-33.0-0.0","""event"",""trial"",""time""
""fullscreenenter"",""0"",""2020""
","
","
","""event"",""trial"",""time""
""fullscreenenter"",""0"",""2020""
","
","87.20000000111759","","","","","","","","50","0,1,0","6","blank","244","null","0.20518077938505425","0.5663803719143243","0.05858857113270249","1","","","","","","","","",""
"","html-keyboard-response","48","213789","0.0-33.0-1.0","""event"",""trial"",""time""
""fullscreenenter"",""0"",""2020""
","
","
","""event"",""trial"",""time""
""fullscreenenter"",""0"",""2020""
","
","null","<p></p>","null","","","","","","","","","","","","","","","","","","","","","","","",""
"","do_trial","49","216478","0.0-34.0-0.0","""event"",""trial"",""time""
""fullscreenenter"",""0"",""2020""
","
","
","""event"",""trial"",""time""
""fullscreenenter"",""0"",""2020""
","
","142.10000000149012","","","","","","","","50","0,1,0","6","blank","245","null","0.27020784580806","0.5473801155510932","0.09138068871447107","1","","","","","","","","",""
"","html-keyboard-response","50","217490","0.0-34.0-1.0","""event"",""trial"",""time""
""fullscreenenter"",""0"",""2020""
","
","
","""event"",""trial"",""time""
""fullscreenenter"",""0"",""2020""
","
","null","<p></p>","null","","","","","","","","","","","","","","","","","","","","","","","",""
"","do_recog","51","223517","0.0-35.0-0.0","""event"",""trial"",""time""
""fullscreenenter"",""0"",""2020""
","
","
","""event"",""trial"",""time""
""fullscreenenter"",""0"",""2020""
","
","null","","","","","","","","null","","","","246","probe-106","","","","","1","[object Object]","70","1","0","","","",""
"","html-keyboard-response","52","224531","0.0-35.0-1.0","""event"",""trial"",""time""
""fullscreenenter"",""0"",""2020""
","
","
","""event"",""trial"",""time""
""fullscreenenter"",""0"",""2020""
","
","null","<p></p>","null","","","","","","","","","","","","","","","","","","","","","","","",""
"","do_trial","53","228237","0.0-36.0-0.0","""event"",""trial"",""time""
""fullscreenenter"",""0"",""2020""
","
","
","""event"",""trial"",""time""
""fullscreenenter"",""0"",""2020""
","
","1160.300000000745","","","","","","","","51","1,0,0","6","blank","247","null","0.39202204873499663","0.5788052251986988","0.08543388447233119","0","","","","","","","","",""
"","html-keyboard-response","54","229251","0.0-36.0-1.0","""event"",""trial"",""time""
""fullscreenenter"",""0"",""2020""
","
","
","""event"",""trial"",""time""
""fullscreenenter"",""0"",""2020""
","
","null","<p></p>","null","","","","","","","","","","","","","","","","","","","","","","","",""
"","do_recog","55","232932","0.0-37.0-0.0","""event"",""trial"",""time""
""fullscreenenter"",""0"",""2020""
","
","
","""event"",""trial"",""time""
""fullscreenenter"",""0"",""2020""
","
","2172","","","","","","","","53","","","","248","probe-149","","","","","1","[object Object]","191","4","1","","","",""
"","html-keyboard-response","56","233949","0.0-37.0-1.0","""event"",""trial"",""time""
""fullscreenenter"",""0"",""2020""
","
","
","""event"",""trial"",""time""
""fullscreenenter"",""0"",""2020""
","
","null","<p></p>","null","","","","","","","","","","","","","","","","","","","","","","","",""
"","do_trial","57","239150","0.0-38.0-0.0","""event"",""trial"",""time""
""fullscreenenter"",""0"",""2020""
","
","
","""event"",""trial"",""time""
""fullscreenenter"",""0"",""2020""
","
","2654.5","","","","","","","","49","0,1,0","6","blank","249","null","0.2420629704931856","0.6245161546484114","0.06542546037274996","0","","","","","","","","",""
"","html-keyboard-response","58","240163","0.0-38.0-1.0","""event"",""trial"",""time""
""fullscreenenter"",""0"",""2020""
","
","
","""event"",""trial"",""time""
""fullscreenenter"",""0"",""2020""
","
","null","<p></p>","null","","","","","","","","","","","","","","","","","","","","","","","",""
"","do_recog","59","243816","0.0-39.0-0.0","""event"",""trial"",""time""
""fullscreenenter"",""0"",""2020""
","
","
","""event"",""trial"",""time""
""fullscreenenter"",""0"",""2020""
","
","2148","","","","","","","","56","","","","250","probe-105","","","","","1","[object Object]","77","1","0","","","",""
"","html-keyboard-response","60","244827","0.0-39.0-1.0","""event"",""trial"",""time""
""fullscreenenter"",""0"",""2020""
","
","
","""event"",""trial"",""time""
""fullscreenenter"",""0"",""2020""
","
","null","<p></p>","null","","","","","","","","","","","","","","","","","","","","","","","",""
"","do_trial","61","248310","0.0-40.0-0.0","""event"",""trial"",""time""
""fullscreenenter"",""0"",""2020""
","
","
","""event"",""trial"",""time""
""fullscreenenter"",""0"",""2020""
","
","933.9000000003725","","","","","","","","51","0,1,1","6","blank","251","null","0.2144825458865806","0.42715379465487857","0.08674056275636083","1","","","","","","","","",""
"","html-keyboard-response","62","249324","0.0-40.0-1.0","""event"",""trial"",""time""
""fullscreenenter"",""0"",""2020""
","
","
","""event"",""trial"",""time""
""fullscreenenter"",""0"",""2020""
","
","null","<p></p>","null","","","","","","","","","","","","","","","","","","","","","","","",""
"","do_trial","63","252055","0.0-41.0-0.0","""event"",""trial"",""time""
""fullscreenenter"",""0"",""2020""
","
","
","""event"",""trial"",""time""
""fullscreenenter"",""0"",""2020""
","
","188.69999999925494","","","","","","","","51","1,0,0","6","blank","252","null","0.2767487766936085","0.5711014964199927","0.0783634592328722","0","","","","","","","","",""
"","html-keyboard-response","64","253068","0.0-41.0-1.0","""event"",""trial"",""time""
""fullscreenenter"",""0"",""2020""
","
","
","""event"",""trial"",""time""
""fullscreenenter"",""0"",""2020""
","
","null","<p></p>","null","","","","","","","","","","","","","","","","","","","","","","","",""
"","do_trial","65","255867","0.0-42.0-0.0","""event"",""trial"",""time""
""fullscreenenter"",""0"",""2020""
","
","
","""event"",""trial"",""time""
""fullscreenenter"",""0"",""2020""
","
","263","","","","","","","","50","0,0,0","6","blank","253","null","0.11005269166563907","0.6964509692207572","0.08582141303370572","0","","","","","","","","",""
"","html-keyboard-response","66","256870","0.0-42.0-1.0","""event"",""trial"",""time""
""fullscreenenter"",""0"",""2020""
","
","
","""event"",""trial"",""time""
""fullscreenenter"",""0"",""2020""
","
","null","<p></p>","null","","","","","","","","","","","","","","","","","","","","","","","",""
"","do_trial","67","259605","0.0-43.0-0.0","""event"",""trial"",""time""
""fullscreenenter"",""0"",""2020""
","
","
","""event"",""trial"",""time""
""fullscreenenter"",""0"",""2020""
","
","190","","","","","","","","49","0,0,0","6","blank","254","null","0.24908523438422311","0.645184757248178","0.09761364999143567","0","","","","","","","","",""
"","html-keyboard-response","68","260608","0.0-43.0-1.0","""event"",""trial"",""time""
""fullscreenenter"",""0"",""2020""
","
","
","""event"",""trial"",""time""
""fullscreenenter"",""0"",""2020""
","
","null","<p></p>","null","","","","","","","","","","","","","","","","","","","","","","","",""
"","do_trial","69","263438","0.0-44.0-0.0","""event"",""trial"",""time""
""fullscreenenter"",""0"",""2020""
","
","
","""event"",""trial"",""time""
""fullscreenenter"",""0"",""2020""
","
","290.80000000074506","","","","","","","","51","0,0,1","6","blank","255","null","0.3401297389185756","0.7484590612120758","0.1501150720023764","1","","","","","","","","",""
"","html-keyboard-response","70","264443","0.0-44.0-1.0","""event"",""trial"",""time""
""fullscreenenter"",""0"",""2020""
","
","
","""event"",""trial"",""time""
""fullscreenenter"",""0"",""2020""
","
","null","<p></p>","null","","","","","","","","","","","","","","","","","","","","","","","",""
"","do_trial","71","267678","0.0-45.0-0.0","""event"",""trial"",""time""
""fullscreenenter"",""0"",""2020""
","
","
","""event"",""trial"",""time""
""fullscreenenter"",""0"",""2020""
","
","695.7000000011176","","","","","","","","51","1,0,0","6","blank","256","null","0.3335841612926704","0.5784940915743372","0.16481223196486278","0","","","","","","","","",""
"","html-keyboard-response","72","268693","0.0-45.0-1.0","""event"",""trial"",""time""
""fullscreenenter"",""0"",""2020""
","
","
","""event"",""trial"",""time""
""fullscreenenter"",""0"",""2020""
","
","null","<p></p>","null","","","","","","","","","","","","","","","","","","","","","","","",""
"","do_recog","73","272966","0.0-46.0-0.0","""event"",""trial"",""time""
""fullscreenenter"",""0"",""2020""
","
","
","""event"",""trial"",""time""
""fullscreenenter"",""0"",""2020""
","
","2753.5","","","","","","","","55","","","","257","probe-194","","","","","1","[object Object]","71","1","0","","","",""
"","html-keyboard-response","74","273969","0.0-46.0-1.0","""event"",""trial"",""time""
""fullscreenenter"",""0"",""2020""
","
","
","""event"",""trial"",""time""
""fullscreenenter"",""0"",""2020""
","
","null","<p></p>","null","","","","","","","","","","","","","","","","","","","","","","","",""
"","do_trial","75","278750","0.0-47.0-0.0","""event"",""trial"",""time""
""fullscreenenter"",""0"",""2020""
","
","
","""event"",""trial"",""time""
""fullscreenenter"",""0"",""2020""
","
","2241.9000000003725","","","","","","","","50","1,0,0","6","blank","258","null","0.3429539777032435","0.5269795738419221","0.3362161654156565","0","","","","","","","","",""
"","html-keyboard-response","76","279765","0.0-47.0-1.0","""event"",""trial"",""time""
""fullscreenenter"",""0"",""2020""
","
","
","""event"",""trial"",""time""
""fullscreenenter"",""0"",""2020""
","
","null","<p></p>","null","","","","","","","","","","","","","","","","","","","","","","","",""
"","do_trial","77","282829","0.0-48.0-0.0","""event"",""trial"",""time""
""fullscreenenter"",""0"",""2020""
","
","
","""event"",""trial"",""time""
""fullscreenenter"",""0"",""2020""
","
","518","","","","","","","","49","0,0,0","6","blank","259","null","0.27450987761117324","0.6469141099405128","0.23764661871485815","0","","","","","","","","",""
"","html-keyboard-response","78","283832","0.0-48.0-1.0","""event"",""trial"",""time""
""fullscreenenter"",""0"",""2020""
","
","
","""event"",""trial"",""time""
""fullscreenenter"",""0"",""2020""
","
","null","<p></p>","null","","","","","","","","","","","","","","","","","","","","","","","",""
"","do_recog","79","287026","0.0-49.0-0.0","""event"",""trial"",""time""
""fullscreenenter"",""0"",""2020""
","
","
","""event"",""trial"",""time""
""fullscreenenter"",""0"",""2020""
","
","1686.5999999996275","","","","","","","","53","","","","260","probe-05","","","","","1","[object Object]","38","0","1","","","",""
"","html-keyboard-response","80","288039","0.0-49.0-1.0","""event"",""trial"",""time""
""fullscreenenter"",""0"",""2020""
","
","
","""event"",""trial"",""time""
""fullscreenenter"",""0"",""2020""
","
","null","<p></p>","null","","","","","","","","","","","","","","","","","","","","","","","",""
"","do_trial","81","291381","0.0-50.0-0.0","""event"",""trial"",""time""
""fullscreenenter"",""0"",""2020""
","
","
","""event"",""trial"",""time""
""fullscreenenter"",""0"",""2020""
","
","788.4000000003725","","","","","","","","49","1,0,0","6","blank","261","null","0.24201474103735388","0.6336147964736987","0.3626854247184791","1","","","","","","","","",""
"","html-keyboard-response","82","292397","0.0-50.0-1.0","""event"",""trial"",""time""
""fullscreenenter"",""0"",""2020""
","
","
","""event"",""trial"",""time""
""fullscreenenter"",""0"",""2020""
","
","null","<p></p>","null","","","","","","","","","","","","","","","","","","","","","","","",""
"","do_recog","83","296108","0.0-51.0-0.0","""event"",""trial"",""time""
""fullscreenenter"",""0"",""2020""
","
","
","""event"",""trial"",""time""
""fullscreenenter"",""0"",""2020""
","
","2194","","","","","","","","53","","","","262","probe-90","","","","","1","[object Object]","31","0","1","","","",""
"","html-keyboard-response","84","297123","0.0-51.0-1.0","""event"",""trial"",""time""
""fullscreenenter"",""0"",""2020""
","
","
","""event"",""trial"",""time""
""fullscreenenter"",""0"",""2020""
","
","null","<p></p>","null","","","","","","","","","","","","","","","","","","","","","","","",""
"","do_trial","85","300233","0.0-52.0-0.0","""event"",""trial"",""time""
""fullscreenenter"",""0"",""2020""
","
","
","""event"",""trial"",""time""
""fullscreenenter"",""0"",""2020""
","
","572.1000000014901","","","","","","","","49","0,1,0","6","blank","263","null","0.27672844655746714","0.5247612168466043","0.22043798423548924","0","","","","","","","","",""
"","html-keyboard-response","86","301238","0.0-52.0-1.0","""event"",""trial"",""time""
""fullscreenenter"",""0"",""2020""
","
","
","""event"",""trial"",""time""
""fullscreenenter"",""0"",""2020""
","
","null","<p></p>","null","","","","","","","","","","","","","","","","","","","","","","","",""
"","do_trial","87","304271","0.0-53.0-0.0","""event"",""trial"",""time""
""fullscreenenter"",""0"",""2020""
","
","
","""event"",""trial"",""time""
""fullscreenenter"",""0"",""2020""
","
","489.69999999925494","","","","","","","","49","1,1,0","6","blank","264","null","0.292064371821652","0.5163295252496917","0.21098125666100884","1","","","","","","","","",""
"","html-keyboard-response","88","305278","0.0-53.0-1.0","""event"",""trial"",""time""
""fullscreenenter"",""0"",""2020""
","
","
","""event"",""trial"",""time""
""fullscreenenter"",""0"",""2020""
","
","null","<p></p>","null","","","","","","","","","","","","","","","","","","","","","","","",""
"","do_recog","89","308213","0.0-54.0-0.0","""event"",""trial"",""time""
""fullscreenenter"",""0"",""2020""
","
","
","""event"",""trial"",""time""
""fullscreenenter"",""0"",""2020""
","
","1425.2000000011176","","","","","","","","53","","","","265","probe-32","","","","","1","[object Object]","119","2","1","","","",""
"","html-keyboard-response","90","309230","0.0-54.0-1.0","""event"",""trial"",""time""
""fullscreenenter"",""0"",""2020""
","
","
","""event"",""trial"",""time""
""fullscreenenter"",""0"",""2020""
","
","null","<p></p>","null","","","","","","","","","","","","","","","","","","","","","","","",""
"","do_trial","91","312419","0.0-55.0-0.0","""event"",""trial"",""time""
""fullscreenenter"",""0"",""2020""
","
","
","""event"",""trial"",""time""
""fullscreenenter"",""0"",""2020""
","
","650.7999999988824","","","","","","","","49","0,1,1","6","blank","266","null","0.23584957311308766","0.4967501799999667","0.17008136899654022","0","","","","","","","","",""
"","html-keyboard-response","92","313431","0.0-55.0-1.0","""event"",""trial"",""time""
""fullscreenenter"",""0"",""2020""
","
","
","""event"",""trial"",""time""
""fullscreenenter"",""0"",""2020""
","
","null","<p></p>","null","","","","","","","","","","","","","","","","","","","","","","","",""
"","do_recog","93","316027","0.0-56.0-0.0","""event"",""trial"",""time""
""fullscreenenter"",""0"",""2020""
","
","
","""event"",""trial"",""time""
""fullscreenenter"",""0"",""2020""
","
","1079","","","","","","","","53","","","","267","probe-79","","","","","1","[object Object]","154","3","1","","","",""
"","html-keyboard-response","94","317030","0.0-56.0-1.0","""event"",""trial"",""time""
""fullscreenenter"",""0"",""2020""
","
","
","""event"",""trial"",""time""
""fullscreenenter"",""0"",""2020""
","
","null","<p></p>","null","","","","","","","","","","","","","","","","","","","","","","","",""
"","do_trial","95","319970","0.0-57.0-0.0","""event"",""trial"",""time""
""fullscreenenter"",""0"",""2020""
","
","
","""event"",""trial"",""time""
""fullscreenenter"",""0"",""2020""
","
","394.90000000037253","","","","","","","","50","0,1,0","6","blank","268","null","0.41225191455046045","0.44355034322082937","0.1695044893765165","1","","","","","","","","",""
"","html-keyboard-response","96","320974","0.0-57.0-1.0","""event"",""trial"",""time""
""fullscreenenter"",""0"",""2020""
","
","
","""event"",""trial"",""time""
""fullscreenenter"",""0"",""2020""
","
","null","<p></p>","null","","","","","","","","","","","","","","","","","","","","","","","",""
"","break","97","323554","0.0-58.0-0.0","""event"",""trial"",""time""
""fullscreenenter"",""0"",""2020""
","
","
","""event"",""trial"",""time""
""fullscreenenter"",""0"",""2020""
","
","2579.5","<div class='center'><p>Time to take a quick break! You have 2 minutes to rest, but you can move on sooner if you'd like.</p><p> Press the <b>space bar</b> to continue.</p></div>","32","","","","","","","","","","","","","","","","","","","","","","","",""
"","do_trial","98","326982","0.0-58.0-1.0","""event"",""trial"",""time""
""fullscreenenter"",""0"",""2020""
","
","
","""event"",""trial"",""time""
""fullscreenenter"",""0"",""2020""
","
","886","","","","","","","","51","0,0,0","6","blank","269","null","0.4848911210496188","0.34046265329249586","0.07750086714250727","0","","","","","","","","",""
"","html-keyboard-response","99","327983","0.0-58.0-2.0","""event"",""trial"",""time""
""fullscreenenter"",""0"",""2020""
","
","
","""event"",""trial"",""time""
""fullscreenenter"",""0"",""2020""
","
","null","<p></p>","null","","","","","","","","","","","","","","","","","","","","","","","",""
"","do_trial","100","330753","0.0-59.0-0.0","""event"",""trial"",""time""
""fullscreenenter"",""0"",""2020""
","
","
","""event"",""trial"",""time""
""fullscreenenter"",""0"",""2020""
","
","237","","","","","","","","50","1,1,0","6","blank","270","null","0.47170564668219395","0.4741004276375005","0.14547864333699217","1","","","","","","","","",""
"","html-keyboard-response","101","331769","0.0-59.0-1.0","""event"",""trial"",""time""
""fullscreenenter"",""0"",""2020""
","
","
","""event"",""trial"",""time""
""fullscreenenter"",""0"",""2020""
","
","null","<p></p>","null","","","","","","","","","","","","","","","","","","","","","","","",""
"","do_trial","102","334618","0.0-60.0-0.0","""event"",""trial"",""time""
""fullscreenenter"",""0"",""2020""
","
","
","""event"",""trial"",""time""
""fullscreenenter"",""0"",""2020""
","
","311.5","","","","","","","","50","0,0,0","6","blank","271","null","0.28837404961290114","0.4751430391675378","0.05746708771979657","0","","","","","","","","",""
"","html-keyboard-response","103","335624","0.0-60.0-1.0","""event"",""trial"",""time""
""fullscreenenter"",""0"",""2020""
","
","
","""event"",""trial"",""time""
""fullscreenenter"",""0"",""2020""
","
","null","<p></p>","null","","","","","","","","","","","","","","","","","","","","","","","",""
"","do_recog","104","338944","0.0-61.0-0.0","""event"",""trial"",""time""
""fullscreenenter"",""0"",""2020""
","
","
","""event"",""trial"",""time""
""fullscreenenter"",""0"",""2020""
","
","1807.199999999255","","","","","","","","53","","","","272","probe-183","","","","","1","[object Object]","193","4","1","","","",""
"","html-keyboard-response","105","339947","0.0-61.0-1.0","""event"",""trial"",""time""
""fullscreenenter"",""0"",""2020""
","
","
","""event"",""trial"",""time""
""fullscreenenter"",""0"",""2020""
","
","null","<p></p>","null","","","","","","","","","","","","","","","","","","","","","","","",""
"","do_trial","106","343366","0.0-62.0-0.0","""event"",""trial"",""time""
""fullscreenenter"",""0"",""2020""
","
","
","""event"",""trial"",""time""
""fullscreenenter"",""0"",""2020""
","
","872","","","","","","","","49","1,1,1","6","blank","273","null","0.38779354313864406","0.6269573368271604","0.20349615301287707","1","","","","","","","","",""
"","html-keyboard-response","107","344369","0.0-62.0-1.0","""event"",""trial"",""time""
""fullscreenenter"",""0"",""2020""
","
","
","""event"",""trial"",""time""
""fullscreenenter"",""0"",""2020""
","
","null","<p></p>","null","","","","","","","","","","","","","","","","","","","","","","","",""
"","do_recog","108","347044","0.0-63.0-0.0","""event"",""trial"",""time""
""fullscreenenter"",""0"",""2020""
","
","
","""event"",""trial"",""time""
""fullscreenenter"",""0"",""2020""
","
","1166.4000000003725","","","","","","","","53","","","","274","probe-248","","","","","0","[object Object]","null","null","0","","","",""
"","html-keyboard-response","109","348047","0.0-63.0-1.0","""event"",""trial"",""time""
""fullscreenenter"",""0"",""2020""
","
","
","""event"",""trial"",""time""
""fullscreenenter"",""0"",""2020""
","
","null","<p></p>","null","","","","","","","","","","","","","","","","","","","","","","","",""
"","do_trial","110","351237","0.0-64.0-0.0","""event"",""trial"",""time""
""fullscreenenter"",""0"",""2020""
","
","
","""event"",""trial"",""time""
""fullscreenenter"",""0"",""2020""
","
","643.6999999992549","","","","","","","","49","0,0,1","6","blank","275","null","0.37962697361224723","0.5635088961863931","0.23597736324166124","0","","","","","","","","",""
"","html-keyboard-response","111","352249","0.0-64.0-1.0","""event"",""trial"",""time""
""fullscreenenter"",""0"",""2020""
","
","
","""event"",""trial"",""time""
""fullscreenenter"",""0"",""2020""
","
","null","<p></p>","null","","","","","","","","","","","","","","","","","","","","","","","",""
"","do_recog","112","354768","0.0-65.0-0.0","""event"",""trial"",""time""
""fullscreenenter"",""0"",""2020""
","
","
","""event"",""trial"",""time""
""fullscreenenter"",""0"",""2020""
","
","1006.0999999996275","","","","","","","","53","","","","276","probe-42","","","","","1","[object Object]","35","0","1","","","",""
"","html-keyboard-response","113","355784","0.0-65.0-1.0","""event"",""trial"",""time""
""fullscreenenter"",""0"",""2020""
","
","
","""event"",""trial"",""time""
""fullscreenenter"",""0"",""2020""
","
","null","<p></p>","null","","","","","","","","","","","","","","","","","","","","","","","",""
"","do_trial","114","360002","0.0-66.0-0.0","""event"",""trial"",""time""
""fullscreenenter"",""0"",""2020""
","
","
","""event"",""trial"",""time""
""fullscreenenter"",""0"",""2020""
","
","1680.5","","","","","","","","50","0,0,0","6","blank","277","null","0.32172132753595434","0.5391479292032567","0.21039337724321847","0","","","","","","","","",""
"","html-keyboard-response","115","361005","0.0-66.0-1.0","""event"",""trial"",""time""
""fullscreenenter"",""0"",""2020""
","
","
","""event"",""trial"",""time""
""fullscreenenter"",""0"",""2020""
","
","null","<p></p>","null","","","","","","","","","","","","","","","","","","","","","","","",""
"","do_trial","116","364350","0.0-67.0-0.0","""event"",""trial"",""time""
""fullscreenenter"",""0"",""2020""
","
","
","""event"",""trial"",""time""
""fullscreenenter"",""0"",""2020""
","
","798.5","","","","","","","","50","0,1,0","6","blank","278","null","0.3463265527100424","0.4544888396280281","0.1578777121140358","1","","","","","","","","",""
"","html-keyboard-response","117","365352","0.0-67.0-1.0","""event"",""trial"",""time""
""fullscreenenter"",""0"",""2020""
","
","
","""event"",""trial"",""time""
""fullscreenenter"",""0"",""2020""
","
","null","<p></p>","null","","","","","","","","","","","","","","","","","","","","","","","",""
"","do_trial","118","368671","0.0-68.0-0.0","""event"",""trial"",""time""
""fullscreenenter"",""0"",""2020""
","
","
","""event"",""trial"",""time""
""fullscreenenter"",""0"",""2020""
","
","777.7000000011176","","","","","","","","49","1,1,0","6","blank","279","null","0.4504082023734182","0.5926988283568924","0.07264443803788788","1","","","","","","","","",""
"","html-keyboard-response","119","369675","0.0-68.0-1.0","""event"",""trial"",""time""
""fullscreenenter"",""0"",""2020""
","
","
","""event"",""trial"",""time""
""fullscreenenter"",""0"",""2020""
","
","null","<p></p>","null","","","","","","","","","","","","","","","","","","","","","","","",""
"","do_trial","120","373235","0.0-69.0-0.0","""event"",""trial"",""time""
""fullscreenenter"",""0"",""2020""
","
","
","""event"",""trial"",""time""
""fullscreenenter"",""0"",""2020""
","
","1012.5","","","","","","","","51","0,1,0","6","blank","280","null","0.336278904256222","0.7032637322834642","0.059687676298069675","0","","","","","","","","",""
"","html-keyboard-response","121","374251","0.0-69.0-1.0","""event"",""trial"",""time""
""fullscreenenter"",""0"",""2020""
","
","
","""event"",""trial"",""time""
""fullscreenenter"",""0"",""2020""
","
","null","<p></p>","null","","","","","","","","","","","","","","","","","","","","","","","",""
"","do_trial","122","377749","0.0-70.0-0.0","""event"",""trial"",""time""
""fullscreenenter"",""0"",""2020""
","
","
","""event"",""trial"",""time""
""fullscreenenter"",""0"",""2020""
","
","958.8000000007451","","","","","","","","51","0,0,0","6","blank","281","null","0.3015439165688225","0.7491003579330388","0.11734127478504978","0","","","","","","","","",""
"","html-keyboard-response","123","378754","0.0-70.0-1.0","""event"",""trial"",""time""
""fullscreenenter"",""0"",""2020""
","
","
","""event"",""trial"",""time""
""fullscreenenter"",""0"",""2020""
","
","null","<p></p>","null","","","","","","","","","","","","","","","","","","","","","","","",""
"","do_trial","124","381611","0.0-71.0-0.0","""event"",""trial"",""time""
""fullscreenenter"",""0"",""2020""
","
","
","""event"",""trial"",""time""
""fullscreenenter"",""0"",""2020""
","
","311.59999999962747","","","","","","","","50","0,1,1","6","blank","282","null","0.3146590210113699","0.7954437804886695","0.15828331780873572","1","","","","","","","","",""
"","html-keyboard-response","125","382616","0.0-71.0-1.0","""event"",""trial"",""time""
""fullscreenenter"",""0"",""2020""
","
","
","""event"",""trial"",""time""
""fullscreenenter"",""0"",""2020""
","
","null","<p></p>","null","","","","","","","","","","","","","","","","","","","","","","","",""
"","do_trial","126","385827","0.0-72.0-0.0","""event"",""trial"",""time""
""fullscreenenter"",""0"",""2020""
","
","
","""event"",""trial"",""time""
""fullscreenenter"",""0"",""2020""
","
","668.9000000003725","","","","","","","","50","1,1,1","6","blank","283","null","0.24179163692977312","0.762518556249407","0.1318450870501367","1","","","","","","","","",""
"","html-keyboard-response","127","386840","0.0-72.0-1.0","""event"",""trial"",""time""
""fullscreenenter"",""0"",""2020""
","
","
","""event"",""trial"",""time""
""fullscreenenter"",""0"",""2020""
","
","null","<p></p>","null","","","","","","","","","","","","","","","","","","","","","","","",""
"","do_recog","128","389824","0.0-73.0-0.0","""event"",""trial"",""time""
""fullscreenenter"",""0"",""2020""
","
","
","""event"",""trial"",""time""
""fullscreenenter"",""0"",""2020""
","
","1479.9000000003725","","","","","","","","53","","","","284","probe-103","","","","","1","[object Object]","118","2","1","","","",""
"","html-keyboard-response","129","390839","0.0-73.0-1.0","""event"",""trial"",""time""
""fullscreenenter"",""0"",""2020""
","
","
","""event"",""trial"",""time""
""fullscreenenter"",""0"",""2020""
","
","null","<p></p>","null","","","","","","","","","","","","","","","","","","","","","","","",""
"","do_trial","130","394550","0.0-74.0-0.0","""event"",""trial"",""time""
""fullscreenenter"",""0"",""2020""
","
","
","""event"",""trial"",""time""
""fullscreenenter"",""0"",""2020""
","
","1165","","","","","","","","49","1,1,0","6","blank","285","null","0.3471841844322416","0.7859186764086417","0.056156038926617566","1","","","","","","","","",""
"","html-keyboard-response","131","395564","0.0-74.0-1.0","""event"",""trial"",""time""
""fullscreenenter"",""0"",""2020""
","
","
","""event"",""trial"",""time""
""fullscreenenter"",""0"",""2020""
","
","null","<p></p>","null","","","","","","","","","","","","","","","","","","","","","","","",""
"","do_trial","132","399242","0.0-75.0-0.0","""event"",""trial"",""time""
""fullscreenenter"",""0"",""2020""
","
","
","""event"",""trial"",""time""
""fullscreenenter"",""0"",""2020""
","
","1142.300000000745","","","","","","","","50","0,1,0","6","blank","286","null","0.3680198739628385","0.729543927839113","0.1165568831825683","1","","","","","","","","",""
"","html-keyboard-response","133","400245","0.0-75.0-1.0","""event"",""trial"",""time""
""fullscreenenter"",""0"",""2020""
","
","
","""event"",""trial"",""time""
""fullscreenenter"",""0"",""2020""
","
","null","<p></p>","null","","","","","","","","","","","","","","","","","","","","","","","",""
"","do_trial","134","403168","0.0-76.0-0.0","""event"",""trial"",""time""
""fullscreenenter"",""0"",""2020""
","
","
","""event"",""trial"",""time""
""fullscreenenter"",""0"",""2020""
","
","389.90000000037253","","","","","","","","51","0,1,0","6","blank","287","null","0.2716512932216034","0.5864360494353263","0.08878217789766221","0","","","","","","","","",""
"","html-keyboard-response","135","404184","0.0-76.0-1.0","""event"",""trial"",""time""
""fullscreenenter"",""0"",""2020""
","
","
","""event"",""trial"",""time""
""fullscreenenter"",""0"",""2020""
","
","null","<p></p>","null","","","","","","","","","","","","","","","","","","","","","","","",""
"","do_trial","136","408439","0.0-77.0-0.0","""event"",""trial"",""time""
""fullscreenenter"",""0"",""2020""
","
","
","""event"",""trial"",""time""
""fullscreenenter"",""0"",""2020""
","
","1723","","","","","","","","51","0,1,1","6","blank","288","null","0.26479681109315606","0.6640456688650472","0.28339551810483854","1","","","","","","","","",""
"","html-keyboard-response","137","409440","0.0-77.0-1.0","""event"",""trial"",""time""
""fullscreenenter"",""0"",""2020""
","
","
","""event"",""trial"",""time""
""fullscreenenter"",""0"",""2020""
","
","null","<p></p>","null","","","","","","","","","","","","","","","","","","","","","","","",""
"","do_trial","138","412983","0.0-78.0-0.0","""event"",""trial"",""time""
""fullscreenenter"",""0"",""2020""
","
","
","""event"",""trial"",""time""
""fullscreenenter"",""0"",""2020""
","
","1007.6999999992549","","","","","","","","51","0,1,0","6","blank","289","null","0.369474859371595","0.6739999536679042","0.2464176741325204","0","","","","","","","","",""
"","html-keyboard-response","139","413984","0.0-78.0-1.0","""event"",""trial"",""time""
""fullscreenenter"",""0"",""2020""
","
","
","""event"",""trial"",""time""
""fullscreenenter"",""0"",""2020""
","
","null","<p></p>","null","","","","","","","","","","","","","","","","","","","","","","","",""
"","do_trial","140","416782","0.0-79.0-0.0","""event"",""trial"",""time""
""fullscreenenter"",""0"",""2020""
","
","
","""event"",""trial"",""time""
""fullscreenenter"",""0"",""2020""
","
","249.90000000037253","","","","","","","","51","0,1,0","6","blank","290","null","0.4245517737224844","0.5758647357373626","0.0930143748438395","0","","","","","","","","",""
"","html-keyboard-response","141","417797","0.0-79.0-1.0","""event"",""trial"",""time""
""fullscreenenter"",""0"",""2020""
","
","
","""event"",""trial"",""time""
""fullscreenenter"",""0"",""2020""
","
","null","<p></p>","null","","","","","","","","","","","","","","","","","","","","","","","",""
"","do_recog","142","421070","0.0-80.0-0.0","""event"",""trial"",""time""
""fullscreenenter"",""0"",""2020""
","
","
","""event"",""trial"",""time""
""fullscreenenter"",""0"",""2020""
","
","1762.300000000745","","","","","","","","53","","","","291","probe-205","","","","","1","[object Object]","37","0","1","","","",""
"","html-keyboard-response","143","422084","0.0-80.0-1.0","""event"",""trial"",""time""
""fullscreenenter"",""0"",""2020""
","
","
","""event"",""trial"",""time""
""fullscreenenter"",""0"",""2020""
","
","null","<p></p>","null","","","","","","","","","","","","","","","","","","","","","","","",""
"","do_trial","144","424951","0.0-81.0-0.0","""event"",""trial"",""time""
""fullscreenenter"",""0"",""2020""
","
","
","""event"",""trial"",""time""
""fullscreenenter"",""0"",""2020""
","
","326.09999999962747","","","","","","","","49","0,1,1","6","blank","292","null","0.2673985637060056","0.6430657825147881","0.14116703827321622","0","","","","","","","","",""
"","html-keyboard-response","145","425955","0.0-81.0-1.0","""event"",""trial"",""time""
""fullscreenenter"",""0"",""2020""
","
","
","""event"",""trial"",""time""
""fullscreenenter"",""0"",""2020""
","
","null","<p></p>","null","","","","","","","","","","","","","","","","","","","","","","","",""
"","do_trial","146","428785","0.0-82.0-0.0","""event"",""trial"",""time""
""fullscreenenter"",""0"",""2020""
","
","
","""event"",""trial"",""time""
""fullscreenenter"",""0"",""2020""
","
","288.19999999925494","","","","","","","","50","0,0,0","6","blank","293","null","0.40348859956556327","0.5428500438999659","0.0793116861480169","0","","","","","","","","",""
"","html-keyboard-response","147","429786","0.0-82.0-1.0","""event"",""trial"",""time""
""fullscreenenter"",""0"",""2020""
","
","
","""event"",""trial"",""time""
""fullscreenenter"",""0"",""2020""
","
","null","<p></p>","null","","","","","","","","","","","","","","","","","","","","","","","",""
"","do_trial","148","432605","0.0-83.0-0.0","""event"",""trial"",""time""
""fullscreenenter"",""0"",""2020""
","
","
","""event"",""trial"",""time""
""fullscreenenter"",""0"",""2020""
","
","272.90000000037253","","","","","","","","49","0,1,0","6","blank","294","null","0.4342177590354144","0.4979751205875313","0.22569573067332258","0","","","","","","","","",""
"","html-keyboard-response","149","433619","0.0-83.0-1.0","""event"",""trial"",""time""
""fullscreenenter"",""0"",""2020""
","
","
","""event"",""trial"",""time""
""fullscreenenter"",""0"",""2020""
","
","null","<p></p>","null","","","","","","","","","","","","","","","","","","","","","","","",""
"","do_trial","150","436509","0.0-84.0-0.0","""event"",""trial"",""time""
""fullscreenenter"",""0"",""2020""
","
","
","""event"",""trial"",""time""
""fullscreenenter"",""0"",""2020""
","
","344.59999999962747","","","","","","","","51","0,1,0","6","blank","295","null","0.43235033488364677","0.37393998058179373","0.3613806590629019","0","","","","","","","","",""
"","html-keyboard-response","151","437525","0.0-84.0-1.0","""event"",""trial"",""time""
""fullscreenenter"",""0"",""2020""
","
","
","""event"",""trial"",""time""
""fullscreenenter"",""0"",""2020""
","
","null","<p></p>","null","","","","","","","","","","","","","","","","","","","","","","","",""
"","do_trial","152","440310","0.0-85.0-0.0","""event"",""trial"",""time""
""fullscreenenter"",""0"",""2020""
","
","
","""event"",""trial"",""time""
""fullscreenenter"",""0"",""2020""
","
","237.40000000037253","","","","","","","","51","1,0,1","6","blank","296","null","0.37072774612210957","0.20603389634772534","0.4637810322021262","1","","","","","","","","",""
"","html-keyboard-response","153","441325","0.0-85.0-1.0","""event"",""trial"",""time""
""fullscreenenter"",""0"",""2020""
","
","
","""event"",""trial"",""time""
""fullscreenenter"",""0"",""2020""
","
","null","<p></p>","null","","","","","","","","","","","","","","","","","","","","","","","",""
"","do_trial","154","443950","0.0-86.0-0.0","""event"",""trial"",""time""
""fullscreenenter"",""0"",""2020""
","
","
","""event"",""trial"",""time""
""fullscreenenter"",""0"",""2020""
","
","85.89999999850988","","","","","","","","51","0,1,1","6","blank","297","null","0.27228966128060206","0.177441152983107","0.41531099828292456","1","","","","","","","","",""
"","html-keyboard-response","155","444959","0.0-86.0-1.0","""event"",""trial"",""time""
""fullscreenenter"",""0"",""2020""
","
","
","""event"",""trial"",""time""
""fullscreenenter"",""0"",""2020""
","
","null","<p></p>","null","","","","","","","","","","","","","","","","","","","","","","","",""
"","do_recog","156","448103","0.0-87.0-0.0","""event"",""trial"",""time""
""fullscreenenter"",""0"",""2020""
","
","
","""event"",""trial"",""time""
""fullscreenenter"",""0"",""2020""
","
","1624.6000000014901","","","","","","","","53","","","","298","probe-203","","","","","1","[object Object]","115","2","1","","","",""
"","html-keyboard-response","157","449119","0.0-87.0-1.0","""event"",""trial"",""time""
""fullscreenenter"",""0"",""2020""
","
","
","""event"",""trial"",""time""
""fullscreenenter"",""0"",""2020""
","
","null","<p></p>","null","","","","","","","","","","","","","","","","","","","","","","","",""
"","do_trial","158","451897","0.0-88.0-0.0","""event"",""trial"",""time""
""fullscreenenter"",""0"",""2020""
","
","
","""event"",""trial"",""time""
""fullscreenenter"",""0"",""2020""
","
","233.09999999962747","","","","","","","","51","0,1,0","6","blank","299","null","0.2635256770701843","0.16094372716117186","0.35704311797667787","0","","","","","","","","",""
"","html-keyboard-response","159","452901","0.0-88.0-1.0","""event"",""trial"",""time""
""fullscreenenter"",""0"",""2020""
","
","
","""event"",""trial"",""time""
""fullscreenenter"",""0"",""2020""
","
","null","<p></p>","null","","","","","","","","","","","","","","","","","","","","","","","",""
"","do_recog","160","457057","0.0-89.0-0.0","""event"",""trial"",""time""
""fullscreenenter"",""0"",""2020""
","
","
","""event"",""trial"",""time""
""fullscreenenter"",""0"",""2020""
","
","2641","","","","","","","","55","","","","300","probe-127","","","","","1","[object Object]","152","3","0","","","",""
"","html-keyboard-response","161","458059","0.0-89.0-1.0","""event"",""trial"",""time""
""fullscreenenter"",""0"",""2020""
","
","
","""event"",""trial"",""time""
""fullscreenenter"",""0"",""2020""
","
","null","<p></p>","null","","","","","","","","","","","","","","","","","","","","","","","",""
"","do_trial","162","461343","0.0-90.0-0.0","""event"",""trial"",""time""
""fullscreenenter"",""0"",""2020""
","
","
","""event"",""trial"",""time""
""fullscreenenter"",""0"",""2020""
","
","752.0999999996275","","","","","","","","50","1,0,0","6","blank","301","null","0.3277863408868286","0.06508697258629229","0.46264380115909787","0","","","","","","","","",""
"","html-keyboard-response","163","462345","0.0-90.0-1.0","""event"",""trial"",""time""
""fullscreenenter"",""0"",""2020""
","
","
","""event"",""trial"",""time""
""fullscreenenter"",""0"",""2020""
","
","null","<p></p>","null","","","","","","","","","","","","","","","","","","","","","","","",""
"","do_trial","164","465379","0.0-91.0-0.0","""event"",""trial"",""time""
""fullscreenenter"",""0"",""2020""
","
","
","""event"",""trial"",""time""
""fullscreenenter"",""0"",""2020""
","
","497.19999999925494","","","","","","","","49","1,1,0","6","blank","302","null","0.3757717028289727","0.12226386045241011","0.5889180664519112","1","","","","","","","","",""
"","html-keyboard-response","165","466382","0.0-91.0-1.0","""event"",""trial"",""time""
""fullscreenenter"",""0"",""2020""
","
","
","""event"",""trial"",""time""
""fullscreenenter"",""0"",""2020""
","
","null","<p></p>","null","","","","","","","","","","","","","","","","","","","","","","","",""
"","do_trial","166","468992","0.0-92.0-0.0","""event"",""trial"",""time""
""fullscreenenter"",""0"",""2020""
","
","
","""event"",""trial"",""time""
""fullscreenenter"",""0"",""2020""
","
","77.5","","","","","","","","49","1,0,0","6","blank","303","null","0.337471875263742","0.10426165193790052","0.4356713539717981","1","","","","","","","","",""
"","html-keyboard-response","167","469993","0.0-92.0-1.0","""event"",""trial"",""time""
""fullscreenenter"",""0"",""2020""
","
","
","""event"",""trial"",""time""
""fullscreenenter"",""0"",""2020""
","
","null","<p></p>","null","","","","","","","","","","","","","","","","","","","","","","","",""
"","do_trial","168","473181","0.0-93.0-0.0","""event"",""trial"",""time""
""fullscreenenter"",""0"",""2020""
","
","
","""event"",""trial"",""time""
""fullscreenenter"",""0"",""2020""
","
","648.5999999996275","","","","","","","","49","0,0,0","6","blank","304","null","0.3274807889970539","0.1393349841108963","0.4282177134169517","0","","","","","","","","",""
"","html-keyboard-response","169","474196","0.0-93.0-1.0","""event"",""trial"",""time""
""fullscreenenter"",""0"",""2020""
","
","
","""event"",""trial"",""time""
""fullscreenenter"",""0"",""2020""
","
","null","<p></p>","null","","","","","","","","","","","","","","","","","","","","","","","",""
"","do_recog","170","476947","0.0-94.0-0.0","""event"",""trial"",""time""
""fullscreenenter"",""0"",""2020""
","
","
","""event"",""trial"",""time""
""fullscreenenter"",""0"",""2020""
","
","1243.199999999255","","","","","","","","53","","","","305","probe-86","","","","","1","[object Object]","157","3","1","","","",""
"","html-keyboard-response","171","477951","0.0-94.0-1.0","""event"",""trial"",""time""
""fullscreenenter"",""0"",""2020""
","
","
","""event"",""trial"",""time""
""fullscreenenter"",""0"",""2020""
","
","null","<p></p>","null","","","","","","","","","","","","","","","","","","","","","","","",""
"","do_trial","172","481023","0.0-95.0-0.0","""event"",""trial"",""time""
""fullscreenenter"",""0"",""2020""
","
","
","""event"",""trial"",""time""
""fullscreenenter"",""0"",""2020""
","
","537.9000000003725","","","","","","","","51","0,0,1","6","blank","306","null","0.27048299872269127","0.11847671086755489","0.5451317072121085","1","","","","","","","","",""
"","html-keyboard-response","173","482036","0.0-95.0-1.0","""event"",""trial"",""time""
""fullscreenenter"",""0"",""2020""
","
","
","""event"",""trial"",""time""
""fullscreenenter"",""0"",""2020""
","
","null","<p></p>","null","","","","","","","","","","","","","","","","","","","","","","","",""
"","do_recog","174","484606","0.0-96.0-0.0","""event"",""trial"",""time""
""fullscreenenter"",""0"",""2020""
","
","
","""event"",""trial"",""time""
""fullscreenenter"",""0"",""2020""
","
","1059","","","","","","","","53","","","","307","probe-107","","","","","1","[object Object]","192","4","1","","","",""
"","html-keyboard-response","175","485622","0.0-96.0-1.0","""event"",""trial"",""time""
""fullscreenenter"",""0"",""2020""
","
","
","""event"",""trial"",""time""
""fullscreenenter"",""0"",""2020""
","
","null","<p></p>","null","","","","","","","","","","","","","","","","","","","","","","","",""
"","do_trial","176","489003","0.0-97.0-0.0","""event"",""trial"",""time""
""fullscreenenter"",""0"",""2020""
","
","
","""event"",""trial"",""time""
""fullscreenenter"",""0"",""2020""
","
","836.4000000003725","","","","","","","","51","0,1,1","6","blank","308","null","0.16772766206860612","0.24456794292451453","0.5669915270021382","1","","","","","","","","",""
"","html-keyboard-response","177","490006","0.0-97.0-1.0","""event"",""trial"",""time""
""fullscreenenter"",""0"",""2020""
","
","
","""event"",""trial"",""time""
""fullscreenenter"",""0"",""2020""
","
","null","<p></p>","null","","","","","","","","","","","","","","","","","","","","","","","",""
"","break","178","506434","0.0-98.0-0.0","""event"",""trial"",""time""
""fullscreenenter"",""0"",""2020""
","
","
","""event"",""trial"",""time""
""fullscreenenter"",""0"",""2020""
","
","16427.400000000373","<div class='center'><p>Time to take a quick break! You have 2 minutes to rest, but you can move on sooner if you'd like.</p><p> Press the <b>space bar</b> to continue.</p></div>","32","","","","","","","","","","","","","","","","","","","","","","","",""
"","do_trial","179","509854","0.0-98.0-1.0","""event"",""trial"",""time""
""fullscreenenter"",""0"",""2020""
","
","
","""event"",""trial"",""time""
""fullscreenenter"",""0"",""2020""
","
","872.4000000003725","","","","","","","","49","0,0,1","6","blank","309","null","0.14723016229058788","0.23832775703042694","0.5096824232100712","0","","","","","","","","",""
"","html-keyboard-response","180","510858","0.0-98.0-2.0","""event"",""trial"",""time""
""fullscreenenter"",""0"",""2020""
","
","
","""event"",""trial"",""time""
""fullscreenenter"",""0"",""2020""
","
","null","<p></p>","null","","","","","","","","","","","","","","","","","","","","","","","",""
"","do_trial","181","513663","0.0-99.0-0.0","""event"",""trial"",""time""
""fullscreenenter"",""0"",""2020""
","
","
","""event"",""trial"",""time""
""fullscreenenter"",""0"",""2020""
","
","264.80000000074506","","","","","","","","50","0,0,1","6","blank","310","null","0.18187014103890928","0.10858743628012434","0.478684078486499","0","","","","","","","","",""
"","html-keyboard-response","182","514676","0.0-99.0-1.0","""event"",""trial"",""time""
""fullscreenenter"",""0"",""2020""
","
","
","""event"",""trial"",""time""
""fullscreenenter"",""0"",""2020""
","
","null","<p></p>","null","","","","","","","","","","","","","","","","","","","","","","","",""
"","do_recog","183","517415","0.0-100.0-0.0","""event"",""trial"",""time""
""fullscreenenter"",""0"",""2020""
","
","
","""event"",""trial"",""time""
""fullscreenenter"",""0"",""2020""
","
","1227.4000000003725","","","","","","","","53","","","","311","probe-238","","","","","0","[object Object]","null","null","0","","","",""
"","html-keyboard-response","184","518427","0.0-100.0-1.0","""event"",""trial"",""time""
""fullscreenenter"",""0"",""2020""
","
","
","""event"",""trial"",""time""
""fullscreenenter"",""0"",""2020""
","
","null","<p></p>","null","","","","","","","","","","","","","","","","","","","","","","","",""
"","do_trial","185","521567","0.0-101.0-0.0","""event"",""trial"",""time""
""fullscreenenter"",""0"",""2020""
","
","
","""event"",""trial"",""time""
""fullscreenenter"",""0"",""2020""
","
","592.2000000011176","","","","","","","","51","0,0,0","6","blank","312","null","0.2838356507124273","0.08539721866820667","0.561998777710486","0","","","","","","","","",""
"","html-keyboard-response","186","522580","0.0-101.0-1.0","""event"",""trial"",""time""
""fullscreenenter"",""0"",""2020""
","
","
","""event"",""trial"",""time""
""fullscreenenter"",""0"",""2020""
","
","null","<p></p>","null","","","","","","","","","","","","","","","","","","","","","","","",""
"","do_trial","187","525348","0.0-102.0-0.0","""event"",""trial"",""time""
""fullscreenenter"",""0"",""2020""
","
","
","""event"",""trial"",""time""
""fullscreenenter"",""0"",""2020""
","
","230.40000000037253","","","","","","","","49","0,0,1","6","blank","313","null","0.29899423789627905","0.0913728889751862","0.49064445479694885","0","","","","","","","","",""
"","html-keyboard-response","188","526350","0.0-102.0-1.0","""event"",""trial"",""time""
""fullscreenenter"",""0"",""2020""
","
","
","""event"",""trial"",""time""
""fullscreenenter"",""0"",""2020""
","
","null","<p></p>","null","","","","","","","","","","","","","","","","","","","","","","","",""
"","do_trial","189","528981","0.0-103.0-0.0","""event"",""trial"",""time""
""fullscreenenter"",""0"",""2020""
","
","
","""event"",""trial"",""time""
""fullscreenenter"",""0"",""2020""
","
","84.70000000111759","","","","","","","","50","1,0,0","6","blank","314","null","0.3419643484485934","0.11988058255457515","0.5400522661426361","0","","","","","","","","",""
"","html-keyboard-response","190","529986","0.0-103.0-1.0","""event"",""trial"",""time""
""fullscreenenter"",""0"",""2020""
","
","
","""event"",""trial"",""time""
""fullscreenenter"",""0"",""2020""
","
","null","<p></p>","null","","","","","","","","","","","","","","","","","","","","","","","",""
"","do_recog","191","533161","0.0-104.0-0.0","""event"",""trial"",""time""
""fullscreenenter"",""0"",""2020""
","
","
","""event"",""trial"",""time""
""fullscreenenter"",""0"",""2020""
","
","1660.699999999255","","","","","","","","54","","","","315","probe-250","","","","","0","[object Object]","null","null","0","","","",""
"","html-keyboard-response","192","534177","0.0-104.0-1.0","""event"",""trial"",""time""
""fullscreenenter"",""0"",""2020""
","
","
","""event"",""trial"",""time""
""fullscreenenter"",""0"",""2020""
","
","null","<p></p>","null","","","","","","","","","","","","","","","","","","","","","","","",""
"","do_trial","193","539077","0.0-105.0-0.0","""event"",""trial"",""time""
""fullscreenenter"",""0"",""2020""
","
","
","""event"",""trial"",""time""
""fullscreenenter"",""0"",""2020""
","
","2353.699999999255","","","","","","","","49","0,0,1","6","blank","316","null","0.4385871876893184","0.08085257515852522","0.6409938943785151","0","","","","","","","","",""
"","html-keyboard-response","194","540094","0.0-105.0-1.0","""event"",""trial"",""time""
""fullscreenenter"",""0"",""2020""
","
","
","""event"",""trial"",""time""
""fullscreenenter"",""0"",""2020""
","
","null","<p></p>","null","","","","","","","","","","","","","","","","","","","","","","","",""
"","do_trial","195","543895","0.0-106.0-0.0","""event"",""trial"",""time""
""fullscreenenter"",""0"",""2020""
","
","
","""event"",""trial"",""time""
""fullscreenenter"",""0"",""2020""
","
","1260.699999999255","","","","","","","","50","0,0,1","6","blank","317","null","0.30779793268789163","0.06100914308623648","0.5721657516047263","0","","","","","","","","",""
"","html-keyboard-response","196","544910","0.0-106.0-1.0","""event"",""trial"",""time""
""fullscreenenter"",""0"",""2020""
","
","
","""event"",""trial"",""time""
""fullscreenenter"",""0"",""2020""
","
","null","<p></p>","null","","","","","","","","","","","","","","","","","","","","","","","",""
"","do_trial","197","547869","0.0-107.0-0.0","""event"",""trial"",""time""
""fullscreenenter"",""0"",""2020""
","
","
","""event"",""trial"",""time""
""fullscreenenter"",""0"",""2020""
","
","421.59999999962747","","","","","","","","51","0,0,0","6","blank","318","null","0.21366154810424193","0.2585331335684595","0.49525611639352224","0","","","","","","","","",""
"","html-keyboard-response","198","548884","0.0-107.0-1.0","""event"",""trial"",""time""
""fullscreenenter"",""0"",""2020""
","
","
","""event"",""trial"",""time""
""fullscreenenter"",""0"",""2020""
","
","null","<p></p>","null","","","","","","","","","","","","","","","","","","","","","","","",""
"","do_trial","199","551501","0.0-108.0-0.0","""event"",""trial"",""time""
""fullscreenenter"",""0"",""2020""
","
","
","""event"",""trial"",""time""
""fullscreenenter"",""0"",""2020""
","
","70.79999999888241","","","","","","","","49","1,0,0","6","blank","319","null","0.273273995437102","0.27278798631205686","0.5796270363202217","1","","","","","","","","",""
"","html-keyboard-response","200","552513","0.0-108.0-1.0","""event"",""trial"",""time""
""fullscreenenter"",""0"",""2020""
","
","
","""event"",""trial"",""time""
""fullscreenenter"",""0"",""2020""
","
","null","<p></p>","null","","","","","","","","","","","","","","","","","","","","","","","",""
"","do_trial","201","555793","0.0-109.0-0.0","""event"",""trial"",""time""
""fullscreenenter"",""0"",""2020""
","
","
","""event"",""trial"",""time""
""fullscreenenter"",""0"",""2020""
","
","736.6999999992549","","","","","","","","49","0,0,1","6","blank","320","null","0.2215956833209497","0.07796939253022757","0.5860340129528268","0","","","","","","","","",""
"","html-keyboard-response","202","556808","0.0-109.0-1.0","""event"",""trial"",""time""
""fullscreenenter"",""0"",""2020""
","
","
","""event"",""trial"",""time""
""fullscreenenter"",""0"",""2020""
","
","null","<p></p>","null","","","","","","","","","","","","","","","","","","","","","","","",""
"","do_recog","203","560090","0.0-110.0-0.0","""event"",""trial"",""time""
""fullscreenenter"",""0"",""2020""
","
","
","""event"",""trial"",""time""
""fullscreenenter"",""0"",""2020""
","
","1774.2000000011176","","","","","","","","53","","","","321","probe-128","","","","","1","[object Object]","197","4","1","","","",""
"","html-keyboard-response","204","561095","0.0-110.0-1.0","""event"",""trial"",""time""
""fullscreenenter"",""0"",""2020""
","
","
","""event"",""trial"",""time""
""fullscreenenter"",""0"",""2020""
","
","null","<p></p>","null","","","","","","","","","","","","","","","","","","","","","","","",""
"","do_trial","205","565978","0.0-111.0-0.0","""event"",""trial"",""time""
""fullscreenenter"",""0"",""2020""
","
","
","""event"",""trial"",""time""
""fullscreenenter"",""0"",""2020""
","
","2338.0999999996275","","","","","","","","51","0,0,0","6","blank","322","null","0.31067239221492926","0.12852215254375549","0.6754650244871315","0","","","","","","","","",""
"","html-keyboard-response","206","566992","0.0-111.0-1.0","""event"",""trial"",""time""
""fullscreenenter"",""0"",""2020""
","
","
","""event"",""trial"",""time""
""fullscreenenter"",""0"",""2020""
","
","null","<p></p>","null","","","","","","","","","","","","","","","","","","","","","","","",""
"","do_recog","207","570139","0.0-112.0-0.0","""event"",""trial"",""time""
""fullscreenenter"",""0"",""2020""
","
","
","""event"",""trial"",""time""
""fullscreenenter"",""0"",""2020""
","
","1631.699999999255","","","","","","","","53","","","","323","probe-59","","","","","1","[object Object]","111","2","1","","","",""
"","html-keyboard-response","208","571144","0.0-112.0-1.0","""event"",""trial"",""time""
""fullscreenenter"",""0"",""2020""
","
","
","""event"",""trial"",""time""
""fullscreenenter"",""0"",""2020""
","
","null","<p></p>","null","","","","","","","","","","","","","","","","","","","","","","","",""
"","do_trial","209","574299","0.0-113.0-0.0","""event"",""trial"",""time""
""fullscreenenter"",""0"",""2020""
","
","
","""event"",""trial"",""time""
""fullscreenenter"",""0"",""2020""
","
","609.4000000003725","","","","","","","","50","0,0,0","6","blank","324","null","0.1364885531219126","0.11993735279253238","0.6361880362372815","0","","","","","","","","",""
"","html-keyboard-response","210","575314","0.0-113.0-1.0","""event"",""trial"",""time""
""fullscreenenter"",""0"",""2020""
","
","
","""event"",""trial"",""time""
""fullscreenenter"",""0"",""2020""
","
","null","<p></p>","null","","","","","","","","","","","","","","","","","","","","","","","",""
"","do_recog","211","578454","0.0-114.0-0.0","""event"",""trial"",""time""
""fullscreenenter"",""0"",""2020""
","
","
","""event"",""trial"",""time""
""fullscreenenter"",""0"",""2020""
","
","1620.3999999985099","","","","","","","","53","","","","325","probe-43","","","","","1","[object Object]","158","3","1","","","",""
"","html-keyboard-response","212","579458","0.0-114.0-1.0","""event"",""trial"",""time""
""fullscreenenter"",""0"",""2020""
","
","
","""event"",""trial"",""time""
""fullscreenenter"",""0"",""2020""
","
","null","<p></p>","null","","","","","","","","","","","","","","","","","","","","","","","",""
"","do_trial","213","585517","0.0-115.0-0.0","""event"",""trial"",""time""
""fullscreenenter"",""0"",""2020""
","
","
","""event"",""trial"",""time""
""fullscreenenter"",""0"",""2020""
","
","null","","","","","","","","null","0,0,1","6","blank","326","null","0.05451359595489842","0.08671071941271948","0.6906970632901412","","","","","","","","","",""
"","html-keyboard-response","214","586534","0.0-115.0-1.0","""event"",""trial"",""time""
""fullscreenenter"",""0"",""2020""
","
","
","""event"",""trial"",""time""
""fullscreenenter"",""0"",""2020""
","
","null","<p></p>","null","","","","","","","","","","","","","","","","","","","","","","","",""
"","do_trial","215","589386","0.0-116.0-0.0","""event"",""trial"",""time""
""fullscreenenter"",""0"",""2020""
","
","
","""event"",""trial"",""time""
""fullscreenenter"",""0"",""2020""
","
","308.7000000011176","","","","","","","","49","1,0,0","6","blank","327","null","0.121297597310525","0.05345286788935973","0.7339501587659402","1","","","","","","","","",""
"","html-keyboard-response","216","590393","0.0-116.0-1.0","""event"",""trial"",""time""
""fullscreenenter"",""0"",""2020""
","
","
","""event"",""trial"",""time""
""fullscreenenter"",""0"",""2020""
","
","null","<p></p>","null","","","","","","","","","","","","","","","","","","","","","","","",""
"","do_recog","217","593134","0.0-117.0-0.0","""event"",""trial"",""time""
""fullscreenenter"",""0"",""2020""
","
","
","""event"",""trial"",""time""
""fullscreenenter"",""0"",""2020""
","
","1221.3999999985099","","","","","","","","53","","","","328","probe-222","","","","","1","[object Object]","116","2","1","","","",""
"","html-keyboard-response","218","594137","0.0-117.0-1.0","""event"",""trial"",""time""
""fullscreenenter"",""0"",""2020""
","
","
","""event"",""trial"",""time""
""fullscreenenter"",""0"",""2020""
","
","null","<p></p>","null","","","","","","","","","","","","","","","","","","","","","","","",""
"","do_trial","219","596954","0.0-118.0-0.0","""event"",""trial"",""time""
""fullscreenenter"",""0"",""2020""
","
","
","""event"",""trial"",""time""
""fullscreenenter"",""0"",""2020""
","
","274.80000000074506","","","","","","","","49","0,0,0","6","blank","329","null","0.05283561548806949","0.07817497051271084","0.7208312968183944","0","","","","","","","","",""
"","html-keyboard-response","220","597969","0.0-118.0-1.0","""event"",""trial"",""time""
""fullscreenenter"",""0"",""2020""
","
","
","""event"",""trial"",""time""
""fullscreenenter"",""0"",""2020""
","
","null","<p></p>","null","","","","","","","","","","","","","","","","","","","","","","","",""
"","do_trial","221","600772","0.0-119.0-0.0","""event"",""trial"",""time""
""fullscreenenter"",""0"",""2020""
","
","
","""event"",""trial"",""time""
""fullscreenenter"",""0"",""2020""
","
","262.69999999925494","","","","","","","","49","1,0,1","6","blank","330","null","0.2147735904019845","0.13999911586258304","0.6945127351797453","1","","","","","","","","",""
"","html-keyboard-response","222","601774","0.0-119.0-1.0","""event"",""trial"",""time""
""fullscreenenter"",""0"",""2020""
","
","
","""event"",""trial"",""time""
""fullscreenenter"",""0"",""2020""
","
","null","<p></p>","null","","","","","","","","","","","","","","","","","","","","","","","",""
"","do_trial","223","604652","0.0-120.0-0.0","""event"",""trial"",""time""
""fullscreenenter"",""0"",""2020""
","
","
","""event"",""trial"",""time""
""fullscreenenter"",""0"",""2020""
","
","340.40000000037253","","","","","","","","49","0,0,0","6","blank","331","null","0.22014360283696432","0.08967622842408857","0.6554945030926974","0","","","","","","","","",""
"","html-keyboard-response","224","605666","0.0-120.0-1.0","""event"",""trial"",""time""
""fullscreenenter"",""0"",""2020""
","
","
","""event"",""trial"",""time""
""fullscreenenter"",""0"",""2020""
","
","null","<p></p>","null","","","","","","","","","","","","","","","","","","","","","","","",""
"","do_recog","225","608682","0.0-121.0-0.0","""event"",""trial"",""time""
""fullscreenenter"",""0"",""2020""
","
","
","""event"",""trial"",""time""
""fullscreenenter"",""0"",""2020""
","
","1508.800000000745","","","","","","","","53","","","","332","probe-77","","","","","1","[object Object]","33","0","1","","","",""
"","html-keyboard-response","226","609698","0.0-121.0-1.0","""event"",""trial"",""time""
""fullscreenenter"",""0"",""2020""
","
","
","""event"",""trial"",""time""
""fullscreenenter"",""0"",""2020""
","
","null","<p></p>","null","","","","","","","","","","","","","","","","","","","","","","","",""
"","do_trial","227","612744","0.0-122.0-0.0","""event"",""trial"",""time""
""fullscreenenter"",""0"",""2020""
","
","
","""event"",""trial"",""time""
""fullscreenenter"",""0"",""2020""
","
","510","","","","","","","","51","1,0,1","6","blank","333","null","0.31526721386534656","0.19831477169023465","0.689694059608378","1","","","","","","","","",""
"","html-keyboard-response","228","613751","0.0-122.0-1.0","""event"",""trial"",""time""
""fullscreenenter"",""0"",""2020""
","
","
","""event"",""trial"",""time""
""fullscreenenter"",""0"",""2020""
","
","null","<p></p>","null","","","","","","","","","","","","","","","","","","","","","","","",""
"","do_trial","229","616726","0.0-123.0-0.0","""event"",""trial"",""time""
""fullscreenenter"",""0"",""2020""
","
","
","""event"",""trial"",""time""
""fullscreenenter"",""0"",""2020""
","
","427.2999999988824","","","","","","","","50","0,0,0","6","blank","334","null","0.18195336296844808","0.19968119233466858","0.6555210136808484","0","","","","","","","","",""
"","html-keyboard-response","230","617731","0.0-123.0-1.0","""event"",""trial"",""time""
""fullscreenenter"",""0"",""2020""
","
","
","""event"",""trial"",""time""
""fullscreenenter"",""0"",""2020""
","
","null","<p></p>","null","","","","","","","","","","","","","","","","","","","","","","","",""
"","do_trial","231","620551","0.0-124.0-0.0","""event"",""trial"",""time""
""fullscreenenter"",""0"",""2020""
","
","
","""event"",""trial"",""time""
""fullscreenenter"",""0"",""2020""
","
","277.59999999962747","","","","","","","","50","1,0,1","6","blank","335","null","0.05761172523805765","0.11733251677839451","0.7511284851710694","0","","","","","","","","",""
"","html-keyboard-response","232","621566","0.0-124.0-1.0","""event"",""trial"",""time""
""fullscreenenter"",""0"",""2020""
","
","
","""event"",""trial"",""time""
""fullscreenenter"",""0"",""2020""
","
","null","<p></p>","null","","","","","","","","","","","","","","","","","","","","","","","",""
"","do_trial","233","624472","0.0-125.0-0.0","""event"",""trial"",""time""
""fullscreenenter"",""0"",""2020""
","
","
","""event"",""trial"",""time""
""fullscreenenter"",""0"",""2020""
","
","373.30000000074506","","","","","","","","49","0,0,1","6","blank","336","null","0.22133703123284007","0.13579877195183981","0.8077891890271175","0","","","","","","","","",""
"","html-keyboard-response","234","625474","0.0-125.0-1.0","""event"",""trial"",""time""
""fullscreenenter"",""0"",""2020""
","
","
","""event"",""trial"",""time""
""fullscreenenter"",""0"",""2020""
","
","null","<p></p>","null","","","","","","","","","","","","","","","","","","","","","","","",""
"","do_trial","235","628238","0.0-126.0-0.0","""event"",""trial"",""time""
""fullscreenenter"",""0"",""2020""
","
","
","""event"",""trial"",""time""
""fullscreenenter"",""0"",""2020""
","
","228.80000000074506","","","","","","","","51","0,0,1","6","blank","337","null","0.2866072344963659","0.05736208640273387","0.7999815033563382","1","","","","","","","","",""
"","html-keyboard-response","236","629241","0.0-126.0-1.0","""event"",""trial"",""time""
""fullscreenenter"",""0"",""2020""
","
","
","""event"",""trial"",""time""
""fullscreenenter"",""0"",""2020""
","
","null","<p></p>","null","","","","","","","","","","","","","","","","","","","","","","","",""
"","do_trial","237","632112","0.0-127.0-0.0","""event"",""trial"",""time""
""fullscreenenter"",""0"",""2020""
","
","
","""event"",""trial"",""time""
""fullscreenenter"",""0"",""2020""
","
","329.59999999962747","","","","","","","","51","0,0,0","6","blank","338","null","0.3676562407997811","0.17204270599086002","0.7931486175437382","0","","","","","","","","",""
"","html-keyboard-response","238","633124","0.0-127.0-1.0","""event"",""trial"",""time""
""fullscreenenter"",""0"",""2020""
","
","
","""event"",""trial"",""time""
""fullscreenenter"",""0"",""2020""
","
","null","<p></p>","null","","","","","","","","","","","","","","","","","","","","","","","",""
"","do_recog","239","635970","0.0-128.0-0.0","""event"",""trial"",""time""
""fullscreenenter"",""0"",""2020""
","
","
","""event"",""trial"",""time""
""fullscreenenter"",""0"",""2020""
","
","1339.2000000011176","","","","","","","","53","","","","339","probe-211","","","","","1","[object Object]","32","0","1","","","",""
"","html-keyboard-response","240","636975","0.0-128.0-1.0","""event"",""trial"",""time""
""fullscreenenter"",""0"",""2020""
","
","
","""event"",""trial"",""time""
""fullscreenenter"",""0"",""2020""
","
","null","<p></p>","null","","","","","","","","","","","","","","","","","","","","","","","",""
"","do_trial","241","639910","0.0-129.0-0.0","""event"",""trial"",""time""
""fullscreenenter"",""0"",""2020""
","
","
","""event"",""trial"",""time""
""fullscreenenter"",""0"",""2020""
","
","395.09999999962747","","","","","","","","50","1,0,1","6","blank","340","null","0.33219470999152606","0.061401620276913746","0.6130857901122306","0","","","","","","","","",""
"","html-keyboard-response","242","640914","0.0-129.0-1.0","""event"",""trial"",""time""
""fullscreenenter"",""0"",""2020""
","
","
","""event"",""trial"",""time""
""fullscreenenter"",""0"",""2020""
","
","null","<p></p>","null","","","","","","","","","","","","","","","","","","","","","","","",""
"","do_trial","243","643693","0.0-130.0-0.0","""event"",""trial"",""time""
""fullscreenenter"",""0"",""2020""
","
","
","""event"",""trial"",""time""
""fullscreenenter"",""0"",""2020""
","
","241.40000000037253","","","","","","","","50","0,0,1","6","blank","341","null","0.24996115495630825","0.12233132795784973","0.7470021525598024","0","","","","","","","","",""
"","html-keyboard-response","244","644709","0.0-130.0-1.0","""event"",""trial"",""time""
""fullscreenenter"",""0"",""2020""
","
","
","""event"",""trial"",""time""
""fullscreenenter"",""0"",""2020""
","
","null","<p></p>","null","","","","","","","","","","","","","","","","","","","","","","","",""
"","do_trial","245","647273","0.0-131.0-0.0","""event"",""trial"",""time""
""fullscreenenter"",""0"",""2020""
","
","
","""event"",""trial"",""time""
""fullscreenenter"",""0"",""2020""
","
","29.09999999962747","","","","","","","","49","0,0,1","6","blank","342","null","0.1459470391434151","0.12831921008336625","0.575188308967559","0","","","","","","","","",""
"","html-keyboard-response","246","648288","0.0-131.0-1.0","""event"",""trial"",""time""
""fullscreenenter"",""0"",""2020""
","
","
","""event"",""trial"",""time""
""fullscreenenter"",""0"",""2020""
","
","null","<p></p>","null","","","","","","","","","","","","","","","","","","","","","","","",""
"","do_trial","247","651123","0.0-132.0-0.0","""event"",""trial"",""time""
""fullscreenenter"",""0"",""2020""
","
","
","""event"",""trial"",""time""
""fullscreenenter"",""0"",""2020""
","
","300.09999999962747","","","","","","","","51","0,0,0","6","blank","343","null","0.19432113630502598","0.12960861987754926","0.6019384516903545","0","","","","","","","","",""
"","html-keyboard-response","248","652139","0.0-132.0-1.0","""event"",""trial"",""time""
""fullscreenenter"",""0"",""2020""
","
","
","""event"",""trial"",""time""
""fullscreenenter"",""0"",""2020""
","
","null","<p></p>","null","","","","","","","","","","","","","","","","","","","","","","","",""
"","do_trial","249","654692","0.0-133.0-0.0","""event"",""trial"",""time""
""fullscreenenter"",""0"",""2020""
","
","
","""event"",""trial"",""time""
""fullscreenenter"",""0"",""2020""
","
","16.300000000745058","","","","","","","","49","0,0,0","6","blank","344","null","0.339343616993994","0.1863297727404708","0.6439642293389316","0","","","","","","","","",""
"","html-keyboard-response","250","655708","0.0-133.0-1.0","""event"",""trial"",""time""
""fullscreenenter"",""0"",""2020""
","
","
","""event"",""trial"",""time""
""fullscreenenter"",""0"",""2020""
","
","null","<p></p>","null","","","","","","","","","","","","","","","","","","","","","","","",""
"","do_recog","251","659270","0.0-134.0-0.0","""event"",""trial"",""time""
""fullscreenenter"",""0"",""2020""
","
","
","""event"",""trial"",""time""
""fullscreenenter"",""0"",""2020""
","
","2043","","","","","","","","56","","","","345","probe-186","","","","","1","[object Object]","151","3","0","","","",""
"","html-keyboard-response","252","660284","0.0-134.0-1.0","""event"",""trial"",""time""
""fullscreenenter"",""0"",""2020""
","
","
","""event"",""trial"",""time""
""fullscreenenter"",""0"",""2020""
","
","null","<p></p>","null","","","","","","","","","","","","","","","","","","","","","","","",""
"","do_trial","253","663378","0.0-135.0-0.0","""event"",""trial"",""time""
""fullscreenenter"",""0"",""2020""
","
","
","""event"",""trial"",""time""
""fullscreenenter"",""0"",""2020""
","
","559.2999999988824","","","","","","","","51","1,1,1","6","blank","346","null","0.3586217340962087","0.21891165987863379","0.5055318991933677","1","","","","","","","","",""
"","html-keyboard-response","254","664392","0.0-135.0-1.0","""event"",""trial"",""time""
""fullscreenenter"",""0"",""2020""
","
","
","""event"",""trial"",""time""
""fullscreenenter"",""0"",""2020""
","
","null","<p></p>","null","","","","","","","","","","","","","","","","","","","","","","","",""
"","do_trial","255","666940","0.0-136.0-0.0","""event"",""trial"",""time""
""fullscreenenter"",""0"",""2020""
","
","
","""event"",""trial"",""time""
""fullscreenenter"",""0"",""2020""
","
","0.10000000149011612","","","","","","","","51","0,0,1","6","blank","347","null","0.30665051976637797","0.29170964420687057","0.5029692882217759","1","","","","","","","","",""
"","html-keyboard-response","256","667956","0.0-136.0-1.0","""event"",""trial"",""time""
""fullscreenenter"",""0"",""2020""
","
","
","""event"",""trial"",""time""
""fullscreenenter"",""0"",""2020""
","
","null","<p></p>","null","","","","","","","","","","","","","","","","","","","","","","","",""
"","do_trial","257","670742","0.0-137.0-0.0","""event"",""trial"",""time""
""fullscreenenter"",""0"",""2020""
","
","
","""event"",""trial"",""time""
""fullscreenenter"",""0"",""2020""
","
","239.40000000037253","","","","","","","","51","1,1,0","6","blank","348","null","0.36063414434108354","0.4420895237701701","0.4361678162971473","0","","","","","","","","",""
"","html-keyboard-response","258","671747","0.0-137.0-1.0","""event"",""trial"",""time""
""fullscreenenter"",""0"",""2020""
""blur"",""259"",""673473""
""focus"",""259"",""682602""
","""event"",""trial"",""time""
""blur"",""259"",""673473""
","""event"",""trial"",""time""
""focus"",""259"",""682602""
","""event"",""trial"",""time""
""fullscreenenter"",""0"",""2020""
","
","null","<p></p>","null","","","","","","","","","","","","","","","","","","","","","","","",""
"","break","259","683234","0.0-138.0-0.0","""event"",""trial"",""time""
""fullscreenenter"",""0"",""2020""
""blur"",""259"",""673473""
""focus"",""259"",""682602""
","""event"",""trial"",""time""
""blur"",""259"",""673473""
","""event"",""trial"",""time""
""focus"",""259"",""682602""
","""event"",""trial"",""time""
""fullscreenenter"",""0"",""2020""
","
","11486.900000000373","<div class='center'><p>Time to take a quick break! You have 2 minutes to rest, but you can move on sooner if you'd like.</p><p> Press the <b>space bar</b> to continue.</p></div>","32","","","","","","","","","","","","","","","","","","","","","","","",""
"","do_trial","260","686624","0.0-138.0-1.0","""event"",""trial"",""time""
""fullscreenenter"",""0"",""2020""
""blur"",""259"",""673473""
""focus"",""259"",""682602""
","""event"",""trial"",""time""
""blur"",""259"",""673473""
","""event"",""trial"",""time""
""focus"",""259"",""682602""
","""event"",""trial"",""time""
""fullscreenenter"",""0"",""2020""
","
","848.1999999992549","","","","","","","","50","0,1,0","6","blank","349","null","0.39264791597303833","0.5514167918807854","0.20738114712359335","1","","","","","","","","",""
"","html-keyboard-response","261","687639","0.0-138.0-2.0","""event"",""trial"",""time""
""fullscreenenter"",""0"",""2020""
""blur"",""259"",""673473""
""focus"",""259"",""682602""
","""event"",""trial"",""time""
""blur"",""259"",""673473""
","""event"",""trial"",""time""
""focus"",""259"",""682602""
","""event"",""trial"",""time""
""fullscreenenter"",""0"",""2020""
","
","null","<p></p>","null","","","","","","","","","","","","","","","","","","","","","","","",""
"","do_trial","262","690841","0.0-139.0-0.0","""event"",""trial"",""time""
""fullscreenenter"",""0"",""2020""
""blur"",""259"",""673473""
""focus"",""259"",""682602""
","""event"",""trial"",""time""
""blur"",""259"",""673473""
","""event"",""trial"",""time""
""focus"",""259"",""682602""
","""event"",""trial"",""time""
""fullscreenenter"",""0"",""2020""
","
","656.1999999992549","","","","","","","","49","1,0,0","6","blank","350","null","0.38824380777216677","0.6284970653715771","0.07370521123867631","1","","","","","","","","",""
"","html-keyboard-response","263","691846","0.0-139.0-1.0","""event"",""trial"",""time""
""fullscreenenter"",""0"",""2020""
""blur"",""259"",""673473""
""focus"",""259"",""682602""
","""event"",""trial"",""time""
""blur"",""259"",""673473""
","""event"",""trial"",""time""
""focus"",""259"",""682602""
","""event"",""trial"",""time""
""fullscreenenter"",""0"",""2020""
","
","null","<p></p>","null","","","","","","","","","","","","","","","","","","","","","","","",""
"","do_recog","264","695941","0.0-140.0-0.0","""event"",""trial"",""time""
""fullscreenenter"",""0"",""2020""
""blur"",""259"",""673473""
""focus"",""259"",""682602""
","""event"",""trial"",""time""
""blur"",""259"",""673473""
","""event"",""trial"",""time""
""focus"",""259"",""682602""
","""event"",""trial"",""time""
""fullscreenenter"",""0"",""2020""
","
","2585.699999999255","","","","","","","","55","","","","351","probe-240","","","","","0","[object Object]","null","null","1","","","",""
"","html-keyboard-response","265","696956","0.0-140.0-1.0","""event"",""trial"",""time""
""fullscreenenter"",""0"",""2020""
""blur"",""259"",""673473""
""focus"",""259"",""682602""
","""event"",""trial"",""time""
""blur"",""259"",""673473""
","""event"",""trial"",""time""
""focus"",""259"",""682602""
","""event"",""trial"",""time""
""fullscreenenter"",""0"",""2020""
","
","null","<p></p>","null","","","","","","","","","","","","","","","","","","","","","","","",""
"","do_trial","266","699857","0.0-141.0-0.0","""event"",""trial"",""time""
""fullscreenenter"",""0"",""2020""
""blur"",""259"",""673473""
""focus"",""259"",""682602""
","""event"",""trial"",""time""
""blur"",""259"",""673473""
","""event"",""trial"",""time""
""focus"",""259"",""682602""
","""event"",""trial"",""time""
""fullscreenenter"",""0"",""2020""
","
","366.40000000037253","","","","","","","","51","0,0,0","6","blank","352","null","0.3473795219040048","0.7379060298911065","0.15964024391308504","0","","","","","","","","",""
"","html-keyboard-response","267","700871","0.0-141.0-1.0","""event"",""trial"",""time""
""fullscreenenter"",""0"",""2020""
""blur"",""259"",""673473""
""focus"",""259"",""682602""
","""event"",""trial"",""time""
""blur"",""259"",""673473""
","""event"",""trial"",""time""
""focus"",""259"",""682602""
","""event"",""trial"",""time""
""fullscreenenter"",""0"",""2020""
","
","null","<p></p>","null","","","","","","","","","","","","","","","","","","","","","","","",""
"","do_recog","268","703809","0.0-142.0-0.0","""event"",""trial"",""time""
""fullscreenenter"",""0"",""2020""
""blur"",""259"",""673473""
""focus"",""259"",""682602""
","""event"",""trial"",""time""
""blur"",""259"",""673473""
","""event"",""trial"",""time""
""focus"",""259"",""682602""
","""event"",""trial"",""time""
""fullscreenenter"",""0"",""2020""
","
","1424.1000000014901","","","","","","","","53","","","","353","probe-104","","","","","1","[object Object]","114","2","1","","","",""
"","html-keyboard-response","269","704815","0.0-142.0-1.0","""event"",""trial"",""time""
""fullscreenenter"",""0"",""2020""
""blur"",""259"",""673473""
""focus"",""259"",""682602""
","""event"",""trial"",""time""
""blur"",""259"",""673473""
","""event"",""trial"",""time""
""focus"",""259"",""682602""
","""event"",""trial"",""time""
""fullscreenenter"",""0"",""2020""
","
","null","<p></p>","null","","","","","","","","","","","","","","","","","","","","","","","",""
"","do_trial","270","709579","0.0-143.0-0.0","""event"",""trial"",""time""
""fullscreenenter"",""0"",""2020""
""blur"",""259"",""673473""
""focus"",""259"",""682602""
","""event"",""trial"",""time""
""blur"",""259"",""673473""
","""event"",""trial"",""time""
""focus"",""259"",""682602""
","""event"",""trial"",""time""
""fullscreenenter"",""0"",""2020""
","
