success,trial_type,trial_index,time_elapsed,internal_node_id,rt,stimulus,subject_id,key_press,response,choice_outcomes,context_n,context_img_id,trial_n,probe_img_id,pR_red,pR_white,pR_black,outcome,is_valid,image_to_show,probed_trial,probed_context,correct,context_id
TRUE,fullscreen,0,24483,0.0-0.0,,,,,,,,,,,,,,,,,,,,
,pavlovia,1,24485,0.0-1.0,,,,,,,,,,,,,,,,,,,,
,html-keyboard-response,2,27466,0.0-2.0,2980.3,"<div class='center'><p>Like yesterday,as the head captain of the ship, you have one important things to do: </p><b><p> Pick the pirate who you think will be most successful at robbing the next ship.</p></b><p>This is important in determining how much bonus money you’ll win.</p><br><p>The game will start by showing you the pirates. First pick a pirate using the <b> 1, 2, 3 </b> buttons on your keyboard. </p><p> Press <b>'1'</b> to choose red beard, <b>'2'</b> to choose white beard, and <b>'3'</b> to choose black beard</p><p> You only have 3 seconds to pick a pirate, so please make a choice quickly! If you are too slow, you’ll have to wait a bit during the time out.</p><p> Don’t feel rushed, but please do try to make a choice every time.</p><p>How good a pirate is at robbing a ship will change depending on the place they are in and how good the defenses are of the ship.</p><p><b>[Press the space bar to begin the practice game]</b></p></div>",59306fc35f170a00014358da,32,,,,,,,,,,,,,,,,
,html-keyboard-response,3,45742,0.0-3.0,18275.3,"<div class='center'><p>You’ve arrived at the final island of your journey! Unfortunately, it’s very foggy out, so you won’t be able to see it in the distance like the previous islands you've visited.</p><p>You’ll still be deciding which pirate you want to rob a ship like before. However, because of the fog, you also won’t be able to see the ship.</p><p>This means you do not have to remember the ships you rob on this island.</p><p><b>[Press the space bar to continue]</b></p></div>",,32,,,,,,,,,,,,,,,,
,html-keyboard-response,4,45984,0.0-4.0,241.4,"<div class='center'><p> Sometimes you’ll be shown a ship, and you will be asked if you saw this ship on a past island.</p><p> Here is an example of what you will see.</p><p><b>[Press the space bar to continue]</b></p><p><img src='run_exp/static/images/tutorial/example_recog_trial.png' height='500'></p></div>",,32,,,,,,,,,,,,,,,,
,html-keyboard-response,5,46892,0.0-5.0,907.3,"<div class='center'><p> You will press the 5, 6, 7, 8 buttons on your keyboard to respond.</p><p>If you are very sure saw the ship, press <b>5</b> on your keyboard.</p><p> If you think you  saw it before but are not sure, then press <b>6</b>.</p><p> If you think you have not seen it before but are not sure, then press <b>7</b>.</p><p> If you are sure you did not see the ship before, then press <b>8</b>.</p><p><b>[Press the space bar to continue]</b></p><p><img src='run_exp/static/images/tutorial/example_recog_trial.png' height='500'></p></div>",,32,,,,,,,,,,,,,,,,
,html-keyboard-response,6,51961,0.0-6.0,5067.4,"<div class='center'><p> If you remember correctly, then you’ll get a gold coin like this: </p><p><img src='run_exp/static/images/tutorial/reward_small.png' height='200'></p><p>If you do not remember correctly, then you'll see a red x like this: </p><p><img src='run_exp/static/images/tutorial/reward_no.png' height='200'></p><p>Importantly, when you are shown a ship, take the time to remind yourself which island you saw it on. This will help you in the next part of the study.</p><p><b>[Press the space bar to continue]</b></p></div>",,32,,,,,,,,,,,,,,,,
,html-keyboard-response,7,60205,0.0-7.0,8243.9,"<div class='center'><p>Let's go over the important points again. Your job is to: </p><p>1. Pick the pirate who is best at robbing ships and will bring you back gold coins. </p><p>2. Correctly remember whether or not you saw a ship before. If you did see the ship before, remind yourself on which island you saw the ship. </p><p><b>[Press the space bar to begin the next part of the study]</b></p></div>",,32,,,,,,,,,,,,,,,,
,do_welcome,8,61712,0.0-8.0,null,,,,null,,,,,,,,,,,,,,,
,do_trial,9,67749,0.0-9.0-0.0,null,,,,null,"0,0,0",6,blank,230,null,0.494192442,0.201906835,0.071167517,,,,,,,
,html-keyboard-response,10,68751,0.0-9.0-1.0,null,<p></p>,,null,,,,,,,,,,,,,,,,
,do_trial,11,71735,0.0-10.0-0.0,461,,,,49,"1,0,0",6,blank,231,null,0.552168083,0.196922078,0.072501289,1,,,,,,
,html-keyboard-response,12,72737,0.0-10.0-1.0,null,<p></p>,,null,,,,,,,,,,,,,,,,
,do_trial,13,75365,0.0-11.0-0.0,106.4,,,,49,"1,0,0",6,blank,232,null,0.477650895,0.141424316,0.214965471,1,,,,,,
,html-keyboard-response,14,76367,0.0-11.0-1.0,null,<p></p>,,null,,,,,,,,,,,,,,,,
,do_trial,15,79092,0.0-12.0-0.0,200,,,,49,"1,0,0",6,blank,233,null,0.403275553,0.15738704,0.204379193,1,,,,,,
,html-keyboard-response,16,80093,0.0-12.0-1.0,null,<p></p>,,null,,,,,,,,,,,,,,,,
,do_trial,17,82770,0.0-13.0-0.0,154.7,,,,49,"1,0,0",6,blank,234,null,0.597449683,0.163518208,0.228469061,1,,,,,,
,html-keyboard-response,18,83772,0.0-13.0-1.0,null,<p></p>,,null,,,,,,,,,,,,,,,,
,do_trial,19,86483,0.0-14.0-0.0,189.7,,,,49,"1,0,0",6,blank,235,null,0.559091828,0.274994816,0.354196771,1,,,,,,
,html-keyboard-response,20,87485,0.0-14.0-1.0,null,<p></p>,,null,,,,,,,,,,,,,,,,
,do_trial,21,90214,0.0-15.0-0.0,206.1,,,,49,"0,0,0",6,blank,236,null,0.545295996,0.307572545,0.396202887,0,,,,,,
,html-keyboard-response,22,91216,0.0-15.0-1.0,null,<p></p>,,null,,,,,,,,,,,,,,,,
,do_trial,23,93902,0.0-16.0-0.0,164.4,,,,49,"1,0,0",6,blank,237,null,0.615475128,0.195410651,0.386703281,1,,,,,,
,html-keyboard-response,24,94904,0.0-16.0-1.0,null,<p></p>,,null,,,,,,,,,,,,,,,,
,do_trial,25,97741,0.0-17.0-0.0,313.5,,,,49,"0,0,0",6,blank,238,null,0.761710174,0.122843903,0.399159368,0,,,,,,
,html-keyboard-response,26,98743,0.0-17.0-1.0,null,<p></p>,,null,,,,,,,,,,,,,,,,
,do_trial,27,101723,0.0-18.0-0.0,458.7,,,,49,"1,0,0",6,blank,239,null,0.810100398,0.101762101,0.204775594,1,,,,,,
,html-keyboard-response,28,102726,0.0-18.0-1.0,null,<p></p>,,null,,,,,,,,,,,,,,,,
,do_trial,29,105584,0.0-19.0-0.0,335.5,,,,49,"0,0,1",6,blank,240,null,0.754474885,0.124244423,0.210603752,0,,,,,,
,html-keyboard-response,30,106586,0.0-19.0-1.0,null,<p></p>,,null,,,,,,,,,,,,,,,,
,do_recog,31,112600,0.0-20.0-0.0,null,,,,null,,,,241,probe-202,,,,,1,[object Object],81,2,0,
,html-keyboard-response,32,113602,0.0-20.0-1.0,null,<p></p>,,null,,,,,,,,,,,,,,,,
,do_trial,33,116889,0.0-21.0-0.0,765.3,,,,49,"1,0,0",6,blank,242,null,0.703925236,0.066766729,0.24687171,1,,,,,,
,html-keyboard-response,34,117891,0.0-21.0-1.0,null,<p></p>,,null,,,,,,,,,,,,,,,,
,do_recog,35,120163,0.0-22.0-0.0,769.4,,,,53,,,,243,probe-133,,,,,1,[object Object],163,4,1,
,html-keyboard-response,36,121164,0.0-22.0-1.0,null,<p></p>,,null,,,,,,,,,,,,,,,,
,do_trial,37,124202,0.0-23.0-0.0,514.5,,,,49,"1,0,1",6,blank,244,null,0.542624304,0.115997496,0.378110663,1,,,,,,
,html-keyboard-response,38,125205,0.0-23.0-1.0,null,<p></p>,,null,,,,,,,,,,,,,,,,
,do_recog,39,127185,0.0-24.0-0.0,477.5,,,,53,,,,245,probe-99,,,,,1,[object Object],88,2,1,
,html-keyboard-response,40,128186,0.0-24.0-1.0,null,<p></p>,,null,,,,,,,,,,,,,,,,
,do_trial,41,130855,0.0-25.0-0.0,146.1,,,,49,"0,0,0",6,blank,246,null,0.273896164,0.128786887,0.441893127,0,,,,,,
,html-keyboard-response,42,131864,0.0-25.0-1.0,null,<p></p>,,null,,,,,,,,,,,,,,,,
,do_trial,43,134649,0.0-26.0-0.0,262.9,,,,49,"0,0,0",6,blank,247,null,0.25115938,0.289787745,0.516435866,0,,,,,,
,html-keyboard-response,44,135651,0.0-26.0-1.0,null,<p></p>,,null,,,,,,,,,,,,,,,,
,do_trial,45,138395,0.0-27.0-0.0,222.6,,,,49,"0,0,1",6,blank,248,null,0.427668885,0.100880155,0.676120507,0,,,,,,
,html-keyboard-response,46,139395,0.0-27.0-1.0,null,<p></p>,,null,,,,,,,,,,,,,,,,
,do_trial,47,142150,0.0-28.0-0.0,232.6,,,,49,"0,0,1",6,blank,249,null,0.343565847,0.117521056,0.550718182,0,,,,,,
,html-keyboard-response,48,143152,0.0-28.0-1.0,null,<p></p>,,null,,,,,,,,,,,,,,,,
,do_trial,49,146212,0.0-29.0-0.0,536.9,,,,49,"1,0,1",6,blank,250,null,0.338248314,0.090540526,0.623718574,1,,,,,,
,html-keyboard-response,50,147213,0.0-29.0-1.0,null,<p></p>,,null,,,,,,,,,,,,,,,,
,do_trial,51,150070,0.0-30.0-0.0,334.2,,,,49,"0,1,0",6,blank,251,null,0.292631557,0.13926201,0.504005933,0,,,,,,
,html-keyboard-response,52,151072,0.0-30.0-1.0,null,<p></p>,,null,,,,,,,,,,,,,,,,
,do_trial,53,154474,0.0-31.0-0.0,878.9,,,,49,"1,0,1",6,blank,252,null,0.193063664,0.214567172,0.518950154,1,,,,,,
,html-keyboard-response,54,155476,0.0-31.0-1.0,null,<p></p>,,null,,,,,,,,,,,,,,,,
,do_recog,55,157783,0.0-32.0-0.0,803.9,,,,53,,,,253,probe-03,,,,,1,[object Object],122,3,1,
,html-keyboard-response,56,158786,0.0-32.0-1.0,null,<p></p>,,null,,,,,,,,,,,,,,,,
,do_trial,57,161660,0.0-33.0-0.0,351.9,,,,49,"0,0,1",6,blank,254,null,0.242270549,0.138532343,0.502415597,0,,,,,,
,html-keyboard-response,58,162661,0.0-33.0-1.0,null,<p></p>,,null,,,,,,,,,,,,,,,,
,do_trial,59,165646,0.0-34.0-0.0,462.7,,,,49,"0,1,0",6,blank,255,null,0.291545717,0.074752968,0.607688103,0,,,,,,
,html-keyboard-response,60,166648,0.0-34.0-1.0,null,<p></p>,,null,,,,,,,,,,,,,,,,
,do_trial,61,169594,0.0-35.0-0.0,423.5,,,,49,"1,1,0",6,blank,256,null,0.235062442,0.112885572,0.592810056,1,,,,,,
,html-keyboard-response,62,170596,0.0-35.0-1.0,null,<p></p>,,null,,,,,,,,,,,,,,,,
,do_trial,63,173510,0.0-36.0-0.0,392.2,,,,49,"0,0,0",6,blank,257,null,0.181836015,0.073899841,0.574670858,0,,,,,,
,html-keyboard-response,64,174525,0.0-36.0-1.0,null,<p></p>,,null,,,,,,,,,,,,,,,,
,do_trial,65,177518,0.0-37.0-0.0,470.4,,,,49,"1,0,1",6,blank,258,null,0.269219193,0.116304256,0.600684061,1,,,,,,
,html-keyboard-response,66,178520,0.0-37.0-1.0,null,<p></p>,,null,,,,,,,,,,,,,,,,
,do_trial,67,181437,0.0-38.0-0.0,395.5,,,,49,"0,0,0",6,blank,259,null,0.352505011,0.059414192,0.45496085,0,,,,,,
,html-keyboard-response,68,182438,0.0-38.0-1.0,null,<p></p>,,null,,,,,,,,,,,,,,,,
,do_trial,69,185415,0.0-39.0-0.0,454.5,,,,49,"0,1,0",6,blank,260,null,0.217581797,0.263427522,0.466834972,0,,,,,,
,html-keyboard-response,70,186417,0.0-39.0-1.0,null,<p></p>,,null,,,,,,,,,,,,,,,,
,do_recog,71,188684,0.0-40.0-0.0,747.8,,,,53,,,,261,probe-123,,,,,1,[object Object],162,4,1,
,html-keyboard-response,72,189686,0.0-40.0-1.0,null,<p></p>,,null,,,,,,,,,,,,,,,,
,do_trial,73,192479,0.0-41.0-0.0,271.5,,,,49,"0,0,0",6,blank,262,null,0.214847595,0.167315741,0.529542072,0,,,,,,
,html-keyboard-response,74,193480,0.0-41.0-1.0,null,<p></p>,,null,,,,,,,,,,,,,,,,
,do_trial,75,196304,0.0-42.0-0.0,301.4,,,,49,"1,0,0",6,blank,263,null,0.288601923,0.106389704,0.572139384,1,,,,,,
,html-keyboard-response,76,197306,0.0-42.0-1.0,null,<p></p>,,null,,,,,,,,,,,,,,,,
,do_trial,77,200112,0.0-43.0-0.0,284.4,,,,49,"0,0,1",6,blank,264,null,0.387998141,0.172143329,0.567974295,0,,,,,,
,html-keyboard-response,78,201114,0.0-43.0-1.0,null,<p></p>,,null,,,,,,,,,,,,,,,,
,do_recog,79,203094,0.0-44.0-0.0,475.7,,,,53,,,,265,probe-22,,,,,1,[object Object],123,3,1,
,html-keyboard-response,80,204096,0.0-44.0-1.0,null,<p></p>,,null,,,,,,,,,,,,,,,,
,do_trial,81,207075,0.0-45.0-0.0,455.3,,,,49,"1,0,0",6,blank,266,null,0.362726837,0.077121383,0.568285562,1,,,,,,
,html-keyboard-response,82,208076,0.0-45.0-1.0,null,<p></p>,,null,,,,,,,,,,,,,,,,
,do_recog,83,209997,0.0-46.0-0.0,405.8,,,,53,,,,267,probe-189,,,,,1,[object Object],200,5,1,
,html-keyboard-response,84,210998,0.0-46.0-1.0,null,<p></p>,,null,,,,,,,,,,,,,,,,
,do_trial,85,213878,0.0-47.0-0.0,357.8,,,,49,"0,0,1",6,blank,268,null,0.312150819,0.267899616,0.483008003,0,,,,,,
,html-keyboard-response,86,214881,0.0-47.0-1.0,null,<p></p>,,null,,,,,,,,,,,,,,,,
,do_trial,87,217822,0.0-48.0-0.0,418.3,,,,49,"0,1,1",6,blank,269,null,0.270974293,0.180015629,0.481356103,0,,,,,,
,html-keyboard-response,88,218823,0.0-48.0-1.0,null,<p></p>,,null,,,,,,,,,,,,,,,,
,do_recog,89,220896,0.0-49.0-0.0,554.1,,,,53,,,,270,probe-59,,,,,1,[object Object],129,3,1,
,html-keyboard-response,90,221897,0.0-49.0-1.0,null,<p></p>,,null,,,,,,,,,,,,,,,,
,do_trial,91,225161,0.0-50.0-0.0,742.3,,,,49,"0,0,0",6,blank,271,null,0.250802452,0.213501576,0.483719302,0,,,,,,
,html-keyboard-response,92,226163,0.0-50.0-1.0,null,<p></p>,,null,,,,,,,,,,,,,,,,
,do_trial,93,229280,0.0-51.0-0.0,594.1,,,,49,"1,0,0",6,blank,272,null,0.333884895,0.264694641,0.452523345,1,,,,,,
,html-keyboard-response,94,230282,0.0-51.0-1.0,null,<p></p>,,null,,,,,,,,,,,,,,,,
,do_trial,95,233128,0.0-52.0-0.0,324.2,,,,49,"1,0,1",6,blank,273,null,0.487116588,0.268911131,0.427362416,1,,,,,,
,html-keyboard-response,96,234130,0.0-52.0-1.0,null,<p></p>,,null,,,,,,,,,,,,,,,,
,do_trial,97,237199,0.0-53.0-0.0,546.8,,,,49,"0,0,1",6,blank,274,null,0.40010519,0.115961017,0.433661664,0,,,,,,
,html-keyboard-response,98,238201,0.0-53.0-1.0,null,<p></p>,,null,,,,,,,,,,,,,,,,
,do_recog,99,240227,0.0-54.0-0.0,523.7,,,,53,,,,275,probe-103,,,,,1,[object Object],121,3,1,
,html-keyboard-response,100,241229,0.0-54.0-1.0,null,<p></p>,,null,,,,,,,,,,,,,,,,
,do_trial,101,244172,0.0-55.0-0.0,420,,,,49,"0,0,1",6,blank,276,null,0.352487258,0.112451255,0.500197695,0,,,,,,
,html-keyboard-response,102,245174,0.0-55.0-1.0,null,<p></p>,,null,,,,,,,,,,,,,,,,
,do_recog,103,247247,0.0-56.0-0.0,569.3,,,,53,,,,277,probe-234,,,,,0,[object Object],null,null,0,
,html-keyboard-response,104,248249,0.0-56.0-1.0,null,<p></p>,,null,,,,,,,,,,,,,,,,
,do_trial,105,251081,0.0-57.0-0.0,309.8,,,,49,"0,0,0",6,blank,278,null,0.29786146,0.064526477,0.676814525,0,,,,,,
,html-keyboard-response,106,252082,0.0-57.0-1.0,null,<p></p>,,null,,,,,,,,,,,,,,,,
,do_recog,107,254044,0.0-58.0-0.0,458.3,,,,53,,,,279,probe-132,,,,,1,[object Object],166,4,1,
,html-keyboard-response,108,255046,0.0-58.0-1.0,null,<p></p>,,null,,,,,,,,,,,,,,,,
,do_trial,109,257971,0.0-59.0-0.0,403,,,,49,"0,0,1",6,blank,280,null,0.192596224,0.092806808,0.665476552,0,,,,,,
,html-keyboard-response,110,258974,0.0-59.0-1.0,null,<p></p>,,null,,,,,,,,,,,,,,,,
,do_recog,111,261092,0.0-60.0-0.0,614.9,,,,53,,,,281,probe-47,,,,,1,[object Object],85,2,1,
,html-keyboard-response,112,262093,0.0-60.0-1.0,null,<p></p>,,null,,,,,,,,,,,,,,,,
,do_trial,113,265117,0.0-61.0-0.0,500.8,,,,49,"0,0,1",6,blank,282,null,0.253733092,0.082376897,0.828187205,0,,,,,,
,html-keyboard-response,114,266118,0.0-61.0-1.0,null,<p></p>,,null,,,,,,,,,,,,,,,,
,do_trial,115,268996,0.0-62.0-0.0,356.3,,,,49,"0,1,1",6,blank,283,null,0.228262734,0.137189074,0.776861281,0,,,,,,
,html-keyboard-response,116,269998,0.0-62.0-1.0,null,<p></p>,,null,,,,,,,,,,,,,,,,
,do_trial,117,272954,0.0-63.0-0.0,431.8,,,,49,"1,1,1",6,blank,284,null,0.254864596,0.101439651,0.62163973,1,,,,,,
,html-keyboard-response,118,273955,0.0-63.0-1.0,null,<p></p>,,null,,,,,,,,,,,,,,,,
,do_trial,119,277418,0.0-64.0-0.0,941.1,,,,49,"0,0,1",6,blank,285,null,0.300702164,0.149408888,0.701020952,0,,,,,,
,html-keyboard-response,120,278419,0.0-64.0-1.0,null,<p></p>,,null,,,,,,,,,,,,,,,,
,do_trial,121,281404,0.0-65.0-0.0,461.7,,,,49,"0,0,0",6,blank,286,null,0.335745168,0.06953496,0.572500311,0,,,,,,
,html-keyboard-response,122,282407,0.0-65.0-1.0,null,<p></p>,,null,,,,,,,,,,,,,,,,
,do_trial,123,285376,0.0-66.0-0.0,446.8,,,,49,"0,0,0",6,blank,287,null,0.611699718,0.10088725,0.573650666,0,,,,,,
,html-keyboard-response,124,286377,0.0-66.0-1.0,null,<p></p>,,null,,,,,,,,,,,,,,,,
,do_recog,125,288473,0.0-67.0-0.0,591.7,,,,53,,,,288,probe-09,,,,,1,[object Object],82,2,1,
,html-keyboard-response,126,289475,0.0-67.0-1.0,null,<p></p>,,null,,,,,,,,,,,,,,,,
,do_trial,127,293760,0.0-68.0-0.0,1763.2,,,,49,"0,0,0",6,blank,289,null,0.446973404,0.095245603,0.49989723,0,,,,,,
,html-keyboard-response,128,294761,0.0-68.0-1.0,null,<p></p>,,null,,,,,,,,,,,,,,,,
,do_trial,129,297679,0.0-69.0-0.0,393.8,,,,49,"0,0,0",6,blank,290,null,0.466406368,0.133213377,0.417086033,0,,,,,,
,html-keyboard-response,130,298681,0.0-69.0-1.0,null,<p></p>,,null,,,,,,,,,,,,,,,,
,do_trial,131,301590,0.0-70.0-0.0,386.1,,,,49,"1,0,0",6,blank,291,null,0.375464981,0.143911891,0.336276409,1,,,,,,
,html-keyboard-response,132,302594,0.0-70.0-1.0,null,<p></p>,,null,,,,,,,,,,,,,,,,
,do_recog,133,304725,0.0-71.0-0.0,627.7,,,,53,,,,292,probe-155,,,,,1,[object Object],206,5,1,
,html-keyboard-response,134,305726,0.0-71.0-1.0,null,<p></p>,,null,,,,,,,,,,,,,,,,
,do_trial,135,308660,0.0-72.0-0.0,410.6,,,,49,"0,0,1",6,blank,293,null,0.326680796,0.155800827,0.51757324,0,,,,,,
,html-keyboard-response,136,309661,0.0-72.0-1.0,null,<p></p>,,null,,,,,,,,,,,,,,,,
,do_trial,137,312539,0.0-73.0-0.0,354.8,,,,49,"0,0,1",6,blank,294,null,0.283010966,0.281059783,0.599410198,0,,,,,,
,html-keyboard-response,138,313540,0.0-73.0-1.0,null,<p></p>,,null,,,,,,,,,,,,,,,,
,do_trial,139,316493,0.0-74.0-0.0,431.7,,,,49,"0,0,1",6,blank,295,null,0.279970651,0.2694371,0.584096783,0,,,,,,
,html-keyboard-response,140,317496,0.0-74.0-1.0,null,<p></p>,,null,,,,,,,,,,,,,,,,
,do_recog,141,320216,0.0-75.0-0.0,1216.5,,,,53,,,,296,probe-177,,,,,1,[object Object],203,5,1,
,html-keyboard-response,142,321218,0.0-75.0-1.0,null,<p></p>,,null,,,,,,,,,,,,,,,,
,do_trial,143,324527,0.0-76.0-0.0,785.5,,,,49,"0,1,0",6,blank,297,null,0.212879825,0.46169941,0.380246771,0,,,,,,
,html-keyboard-response,144,325528,0.0-76.0-1.0,null,<p></p>,,null,,,,,,,,,,,,,,,,
,do_recog,145,327951,0.0-77.0-0.0,920.2,,,,53,,,,298,probe-134,,,,,1,[object Object],89,2,1,
,html-keyboard-response,146,328953,0.0-77.0-1.0,null,<p></p>,,null,,,,,,,,,,,,,,,,
,do_trial,147,331830,0.0-78.0-0.0,354.7,,,,49,"0,1,0",6,blank,299,null,0.198007569,0.519411445,0.253412364,0,,,,,,
,html-keyboard-response,148,332831,0.0-78.0-1.0,null,<p></p>,,null,,,,,,,,,,,,,,,,
,do_trial,149,335980,0.0-79.0-0.0,626.8,,,,49,"0,1,0",6,blank,300,null,0.177669559,0.533513779,0.055157404,0,,,,,,
,html-keyboard-response,150,336981,0.0-79.0-1.0,null,<p></p>,,null,,,,,,,,,,,,,,,,
,do_trial,151,340006,0.0-80.0-0.0,502.3,,,,49,"0,1,0",6,blank,301,null,0.26201092,0.75647301,0.166542831,0,,,,,,
,html-keyboard-response,152,341007,0.0-80.0-1.0,null,<p></p>,,null,,,,,,,,,,,,,,,,
,do_trial,153,343976,0.0-81.0-0.0,445.8,,,,49,"0,0,0",6,blank,302,null,0.325933641,0.651058899,0.166540627,0,,,,,,
,html-keyboard-response,154,344977,0.0-81.0-1.0,null,<p></p>,,null,,,,,,,,,,,,,,,,
,do_trial,155,347910,0.0-82.0-0.0,409.5,,,,49,"0,1,0",6,blank,303,null,0.360999776,0.76171501,0.161448849,0,,,,,,
,html-keyboard-response,156,348912,0.0-82.0-1.0,null,<p></p>,,null,,,,,,,,,,,,,,,,
,do_recog,157,351219,0.0-83.0-0.0,804.4,,,,53,,,,304,probe-113,,,,,1,[object Object],169,4,1,
,html-keyboard-response,158,352221,0.0-83.0-1.0,null,<p></p>,,null,,,,,,,,,,,,,,,,
,do_trial,159,355302,0.0-84.0-0.0,559.4,,,,49,"1,1,0",6,blank,305,null,0.363925819,0.748092495,0.063638641,1,,,,,,
,html-keyboard-response,160,356303,0.0-84.0-1.0,null,<p></p>,,null,,,,,,,,,,,,,,,,
,do_trial,161,359265,0.0-85.0-0.0,439.6,,,,49,"1,1,0",6,blank,306,null,0.30060417,0.711536348,0.083208411,1,,,,,,
,html-keyboard-response,162,360266,0.0-85.0-1.0,null,<p></p>,,null,,,,,,,,,,,,,,,,
,do_trial,163,363809,0.0-86.0-0.0,1020.5,,,,49,"0,0,1",6,blank,307,null,0.223934946,0.493129496,0.156734648,0,,,,,,
,html-keyboard-response,164,364811,0.0-86.0-1.0,null,<p></p>,,null,,,,,,,,,,,,,,,,
,do_trial,165,367699,0.0-87.0-0.0,366.2,,,,49,"0,0,1",6,blank,308,null,0.303861668,0.650561047,0.19686308,0,,,,,,
,html-keyboard-response,166,368700,0.0-87.0-1.0,null,<p></p>,,null,,,,,,,,,,,,,,,,
,do_trial,167,371703,0.0-88.0-0.0,480.4,,,,49,"0,0,0",6,blank,309,null,0.345018249,0.664266076,0.109169898,0,,,,,,
,html-keyboard-response,168,372704,0.0-88.0-1.0,null,<p></p>,,null,,,,,,,,,,,,,,,,
,do_trial,169,375621,0.0-89.0-0.0,388.7,,,,49,"0,0,0",6,blank,310,null,0.196624842,0.621992332,0.206096383,0,,,,,,
,html-keyboard-response,170,376623,0.0-89.0-1.0,null,<p></p>,,null,,,,,,,,,,,,,,,,
,do_trial,171,379659,0.0-90.0-0.0,514.1,,,,49,"0,0,0",6,blank,311,null,0.343772394,0.540322373,0.238215819,0,,,,,,
,html-keyboard-response,172,380662,0.0-90.0-1.0,null,<p></p>,,null,,,,,,,,,,,,,,,,
,do_recog,173,382775,0.0-91.0-0.0,609.9,,,,53,,,,312,probe-212,,,,,1,[object Object],86,2,1,
,html-keyboard-response,174,383776,0.0-91.0-1.0,null,<p></p>,,null,,,,,,,,,,,,,,,,
,do_trial,175,386522,0.0-92.0-0.0,223.3,,,,49,"0,0,0",6,blank,313,null,0.425105936,0.595622343,0.190073044,0,,,,,,
,html-keyboard-response,176,387524,0.0-92.0-1.0,null,<p></p>,,null,,,,,,,,,,,,,,,,
,do_recog,177,389544,0.0-93.0-0.0,515.4,,,,53,,,,314,probe-214,,,,,1,[object Object],207,5,1,
,html-keyboard-response,178,390546,0.0-93.0-1.0,null,<p></p>,,null,,,,,,,,,,,,,,,,
,do_trial,179,393324,0.0-94.0-0.0,256.2,,,,49,"0,1,0",6,blank,315,null,0.361007496,0.449682175,0.186192806,0,,,,,,
,html-keyboard-response,180,394326,0.0-94.0-1.0,null,<p></p>,,null,,,,,,,,,,,,,,,,
,do_recog,181,396008,0.0-95.0-0.0,179.7,,,,53,,,,316,probe-146,,,,,1,[object Object],42,1,1,
,html-keyboard-response,182,397010,0.0-95.0-1.0,null,<p></p>,,null,,,,,,,,,,,,,,,,
,do_trial,183,399726,0.0-96.0-0.0,192.3,,,,50,"1,1,0",6,blank,317,null,0.405684989,0.486550561,0.135023596,1,,,,,,
,html-keyboard-response,184,400727,0.0-96.0-1.0,null,<p></p>,,null,,,,,,,,,,,,,,,,
,do_recog,185,402678,0.0-97.0-0.0,446.1,,,,53,,,,318,probe-139,,,,,1,[object Object],44,1,1,
,html-keyboard-response,186,403680,0.0-97.0-1.0,null,<p></p>,,null,,,,,,,,,,,,,,,,
,do_trial,187,406368,0.0-98.0-0.0,165.8,,,,50,"1,1,0",6,blank,319,null,0.432705326,0.622151772,0.060708325,1,,,,,,
,html-keyboard-response,188,407370,0.0-98.0-1.0,null,<p></p>,,null,,,,,,,,,,,,,,,,
,do_trial,189,410543,0.0-99.0-0.0,651.4,,,,50,"0,0,0",6,blank,320,null,0.513802155,0.667050972,0.088546243,0,,,,,,
,html-keyboard-response,190,411546,0.0-99.0-1.0,null,<p></p>,,null,,,,,,,,,,,,,,,,
,do_trial,191,414128,0.0-100.0-0.0,60.09999999,,,,51,"0,1,1",6,blank,321,null,0.478968275,0.702576903,0.226335686,1,,,,,,
,html-keyboard-response,192,415129,0.0-100.0-1.0,null,<p></p>,,null,,,,,,,,,,,,,,,,
,do_trial,193,417949,0.0-101.0-0.0,298.3,,,,51,"0,1,0",6,blank,322,null,0.512381456,0.537421198,0.13770287,0,,,,,,
,html-keyboard-response,194,418951,0.0-101.0-1.0,null,<p></p>,,null,,,,,,,,,,,,,,,,
,do_trial,195,421627,0.0-102.0-0.0,153.7,,,,49,"1,1,1",6,blank,323,null,0.528013054,0.519609208,0.242478031,1,,,,,,
,html-keyboard-response,196,422629,0.0-102.0-1.0,null,<p></p>,,null,,,,,,,,,,,,,,,,
,do_trial,197,425152,0.0-103.0-0.0,0.100000024,,,,49,"0,0,0",6,blank,324,null,0.416344391,0.548378062,0.204444814,0,,,,,,
,html-keyboard-response,198,426154,0.0-103.0-1.0,null,<p></p>,,null,,,,,,,,,,,,,,,,
,do_trial,199,428923,0.0-104.0-0.0,247,,,,49,"0,0,0",6,blank,325,null,0.260344555,0.658091149,0.226185313,0,,,,,,
,html-keyboard-response,200,429925,0.0-104.0-1.0,null,<p></p>,,null,,,,,,,,,,,,,,,,
,do_recog,201,432184,0.0-105.0-0.0,754.7,,,,53,,,,326,probe-195,,,,,1,[object Object],83,2,1,
,html-keyboard-response,202,433186,0.0-105.0-1.0,null,<p></p>,,null,,,,,,,,,,,,,,,,
,do_trial,203,436120,0.0-106.0-0.0,411.9,,,,49,"0,1,0",6,blank,327,null,0.30255245,0.620774648,0.210061346,0,,,,,,
,html-keyboard-response,204,437125,0.0-106.0-1.0,null,<p></p>,,null,,,,,,,,,,,,,,,,
,do_recog,205,439137,0.0-107.0-0.0,508.2,,,,53,,,,328,probe-78,,,,,1,[object Object],160,4,1,
,html-keyboard-response,206,440139,0.0-107.0-1.0,null,<p></p>,,null,,,,,,,,,,,,,,,,
,do_trial,207,442990,0.0-108.0-0.0,329.6,,,,49,"0,0,0",6,blank,329,null,0.258062185,0.582892181,0.054643149,0,,,,,,
,html-keyboard-response,208,443992,0.0-108.0-1.0,null,<p></p>,,null,,,,,,,,,,,,,,,,
,do_trial,209,446957,0.0-109.0-0.0,442.4,,,,49,"1,1,0",6,blank,330,null,0.274145183,0.524627714,0.122497625,1,,,,,,
,html-keyboard-response,210,447959,0.0-109.0-1.0,null,<p></p>,,null,,,,,,,,,,,,,,,,
,do_trial,211,452222,0.0-110.0-0.0,1740.2,,,,49,"0,1,0",6,blank,331,null,0.221854902,0.519714879,0.13103852,0,,,,,,
,html-keyboard-response,212,453224,0.0-110.0-1.0,null,<p></p>,,null,,,,,,,,,,,,,,,,
,do_trial,213,456430,0.0-111.0-0.0,683.9,,,,49,"0,1,0",6,blank,332,null,0.248085229,0.562993162,0.098087433,0,,,,,,
,html-keyboard-response,214,457433,0.0-111.0-1.0,null,<p></p>,,null,,,,,,,,,,,,,,,,
,do_trial,215,461598,0.0-112.0-0.0,1641.3,,,,49,"0,1,0",6,blank,333,null,0.313628048,0.614986236,0.132059355,0,,,,,,
,html-keyboard-response,216,462600,0.0-112.0-1.0,null,<p></p>,,null,,,,,,,,,,,,,,,,
,do_trial,217,465536,0.0-113.0-0.0,413.4,,,,49,"0,1,0",6,blank,334,null,0.242871922,0.513161251,0.14920897,0,,,,,,
,html-keyboard-response,218,466538,0.0-113.0-1.0,null,<p></p>,,null,,,,,,,,,,,,,,,,
,do_recog,219,469116,0.0-114.0-0.0,1073.5,,,,53,,,,335,probe-02,,,,,1,[object Object],209,5,1,
,html-keyboard-response,220,470117,0.0-114.0-1.0,null,<p></p>,,null,,,,,,,,,,,,,,,,
,do_trial,221,473129,0.0-115.0-0.0,489.9,,,,49,"0,0,0",6,blank,336,null,0.295045131,0.569692575,0.112410853,0,,,,,,
,html-keyboard-response,222,474131,0.0-115.0-1.0,null,<p></p>,,null,,,,,,,,,,,,,,,,
,do_trial,223,476984,0.0-116.0-0.0,330,,,,49,"0,1,0",6,blank,337,null,0.266281923,0.46997616,0.128606022,0,,,,,,
,html-keyboard-response,224,477986,0.0-116.0-1.0,null,<p></p>,,null,,,,,,,,,,,,,,,,
,do_trial,225,480954,0.0-117.0-0.0,445.9,,,,49,"1,1,0",6,blank,338,null,0.353489934,0.508994294,0.082496409,1,,,,,,
,html-keyboard-response,226,481956,0.0-117.0-1.0,null,<p></p>,,null,,,,,,,,,,,,,,,,
,do_recog,227,484617,0.0-118.0-0.0,1156.4,,,,53,,,,339,probe-42,,,,,1,[object Object],208,5,1,
,html-keyboard-response,228,485618,0.0-118.0-1.0,null,<p></p>,,null,,,,,,,,,,,,,,,,
,do_trial,229,488288,0.0-119.0-0.0,147.3,,,,49,"0,1,1",6,blank,340,null,0.334736324,0.546161626,0.131975292,0,,,,,,
,html-keyboard-response,230,489289,0.0-119.0-1.0,null,<p></p>,,null,,,,,,,,,,,,,,,,
,do_trial,231,492022,0.0-120.0-0.0,210.2,,,,49,"0,0,0",6,blank,341,null,0.390359671,0.656033235,0.342475887,0,,,,,,
,html-keyboard-response,232,493023,0.0-120.0-1.0,null,<p></p>,,null,,,,,,,,,,,,,,,,
,do_trial,233,495798,0.0-121.0-0.0,251.9,,,,49,"1,0,0",6,blank,342,null,0.237455602,0.555556182,0.233142079,1,,,,,,
,html-keyboard-response,234,496800,0.0-121.0-1.0,null,<p></p>,,null,,,,,,,,,,,,,,,,
,do_trial,235,499604,0.0-122.0-0.0,280.8,,,,49,"0,0,0",6,blank,343,null,0.217027489,0.693277719,0.099855633,0,,,,,,
,html-keyboard-response,236,500605,0.0-122.0-1.0,null,<p></p>,,null,,,,,,,,,,,,,,,,
,do_recog,237,502912,0.0-123.0-0.0,803,,,,53,,,,344,probe-226,,,,,1,[object Object],40,1,1,
,html-keyboard-response,238,503914,0.0-123.0-1.0,null,<p></p>,,null,,,,,,,,,,,,,,,,
,do_trial,239,506724,0.0-124.0-0.0,287.8,,,,49,"1,1,0",6,blank,345,null,0.352404446,0.661817514,0.23189825,1,,,,,,
,html-keyboard-response,240,507726,0.0-124.0-1.0,null,<p></p>,,null,,,,,,,,,,,,,,,,
,do_recog,241,509681,0.0-125.0-0.0,451.8,,,,53,,,,346,probe-173,,,,,1,[object Object],202,5,1,
,html-keyboard-response,242,510683,0.0-125.0-1.0,null,<p></p>,,null,,,,,,,,,,,,,,,,
,do_trial,243,513758,0.0-126.0-0.0,540.4,,,,49,"0,0,1",6,blank,347,null,0.249278613,0.475845388,0.293798396,0,,,,,,
,html-keyboard-response,244,514760,0.0-126.0-1.0,null,<p></p>,,null,,,,,,,,,,,,,,,,
,do_trial,245,517639,0.0-127.0-0.0,357.1,,,,49,"0,0,0",6,blank,348,null,0.257140663,0.585315831,0.207505561,0,,,,,,
,html-keyboard-response,246,518641,0.0-127.0-1.0,null,<p></p>,,null,,,,,,,,,,,,,,,,
,do_recog,247,520712,0.0-128.0-0.0,567.7,,,,53,,,,349,probe-55,,,,,1,[object Object],127,3,1,
,html-keyboard-response,248,521714,0.0-128.0-1.0,null,<p></p>,,null,,,,,,,,,,,,,,,,
,do_trial,249,524578,0.0-129.0-0.0,342.2,,,,49,"0,1,0",6,blank,350,null,0.322051681,0.422332045,0.413441044,0,,,,,,
,html-keyboard-response,250,525592,0.0-129.0-1.0,null,<p></p>,,null,,,,,,,,,,,,,,,,
,do_trial,251,528559,0.0-130.0-0.0,443,,,,49,"0,0,1",6,blank,351,null,0.236339865,0.241421424,0.554844686,0,,,,,,
,html-keyboard-response,252,529561,0.0-130.0-1.0,null,<p></p>,,null,,,,,,,,,,,,,,,,
,do_trial,253,533055,0.0-131.0-0.0,971.2,,,,49,"0,0,1",6,blank,352,null,0.184763827,0.18188321,0.599751594,0,,,,,,
,html-keyboard-response,254,534056,0.0-131.0-1.0,null,<p></p>,,null,,,,,,,,,,,,,,,,
,do_trial,255,536983,0.0-132.0-0.0,402.9,,,,49,"0,0,1",6,blank,353,null,0.146372395,0.336014636,0.560929899,0,,,,,,
,html-keyboard-response,256,537986,0.0-132.0-1.0,null,<p></p>,,null,,,,,,,,,,,,,,,,
,do_recog,257,540180,0.0-133.0-0.0,691.1,,,,53,,,,354,probe-76,,,,,1,[object Object],165,4,1,
,html-keyboard-response,258,541182,0.0-133.0-1.0,null,<p></p>,,null,,,,,,,,,,,,,,,,
,do_trial,259,544118,0.0-134.0-0.0,412.8,,,,49,"0,0,1",6,blank,355,null,0.091731888,0.330525248,0.57751207,0,,,,,,
,html-keyboard-response,260,545134,0.0-134.0-1.0,null,<p></p>,,null,,,,,,,,,,,,,,,,
,do_trial,261,547908,0.0-135.0-0.0,252.1,,,,49,"0,0,0",6,blank,356,null,0.151058055,0.394661135,0.493837321,0,,,,,,
,html-keyboard-response,262,548909,0.0-135.0-1.0,null,<p></p>,,null,,,,,,,,,,,,,,,,
,do_trial,263,552513,0.0-136.0-0.0,1082.6,,,,49,"0,1,0",6,blank,357,null,0.109143794,0.385477817,0.492260826,0,,,,,,
,html-keyboard-response,264,553515,0.0-136.0-1.0,null,<p></p>,,null,,,,,,,,,,,,,,,,
,do_trial,265,556254,0.0-137.0-0.0,217.4,,,,49,"0,0,1",6,blank,358,null,0.066871703,0.19085452,0.667869727,0,,,,,,
,html-keyboard-response,266,557256,0.0-137.0-1.0,null,<p></p>,,null,,,,,,,,,,,,,,,,
,do_trial,267,560143,0.0-138.0-0.0,364.3,,,,49,"0,0,0",6,blank,359,null,0.137501119,0.231272946,0.686401859,0,,,,,,
,html-keyboard-response,268,561144,0.0-138.0-1.0,null,<p></p>,,null,,,,,,,,,,,,,,,,
,do_trial,269,564092,0.0-139.0-0.0,425.4,,,,49,"0,0,1",6,blank,360,null,0.195868454,0.185210938,0.717347737,0,,,,,,
,html-keyboard-response,270,565095,0.0-139.0-1.0,null,<p></p>,,null,,,,,,,,,,,,,,,,
,do_trial,271,567863,0.0-140.0-0.0,246.7,,,,49,"1,0,1",6,blank,361,null,0.182349142,0.235208624,0.732318999,1,,,,,,
,html-keyboard-response,272,568865,0.0-140.0-1.0,null,<p></p>,,null,,,,,,,,,,,,,,,,
,do_recog,273,570923,0.0-141.0-0.0,555.5,,,,53,,,,362,probe-191,,,,,1,[object Object],164,4,1,
,html-keyboard-response,274,571925,0.0-141.0-1.0,null,<p></p>,,null,,,,,,,,,,,,,,,,
,do_trial,275,574690,0.0-142.0-0.0,242.5,,,,49,"0,0,0",6,blank,363,null,0.074416928,0.084808054,0.651953059,0,,,,,,
,html-keyboard-response,276,575692,0.0-142.0-1.0,null,<p></p>,,null,,,,,,,,,,,,,,,,
,do_trial,277,578464,0.0-143.0-0.0,249.4,,,,49,"1,0,1",6,blank,364,null,0.068626937,0.144848236,0.762413998,1,,,,,,
,html-keyboard-response,278,579466,0.0-143.0-1.0,null,<p></p>,,null,,,,,,,,,,,,,,,,
,do_trial,279,582420,0.0-144.0-0.0,431.6,,,,49,"0,1,1",6,blank,365,null,0.111768855,0.190403982,0.824165901,0,,,,,,
,html-keyboard-response,280,583422,0.0-144.0-1.0,null,<p></p>,,null,,,,,,,,,,,,,,,,
,do_recog,281,585600,0.0-145.0-0.0,674.3,,,,53,,,,366,probe-162,,,,,1,[object Object],161,4,1,
,html-keyboard-response,282,586602,0.0-145.0-1.0,null,<p></p>,,null,,,,,,,,,,,,,,,,
,do_trial,283,589200,0.0-146.0-0.0,75.79999998,,,,49,"0,0,0",6,blank,367,null,0.089364044,0.211161997,0.607402691,0,,,,,,
,html-keyboard-response,284,590202,0.0-146.0-1.0,null,<p></p>,,null,,,,,,,,,,,,,,,,
,do_trial,285,593039,0.0-147.0-0.0,314.5,,,,49,"0,1,1",6,blank,368,null,0.080675114,0.330895119,0.686872139,0,,,,,,
,html-keyboard-response,286,594041,0.0-147.0-1.0,null,<p></p>,,null,,,,,,,,,,,,,,,,
,do_recog,287,596048,0.0-148.0-0.0,504.9,,,,53,,,,369,probe-92,,,,,1,[object Object],43,1,1,
,html-keyboard-response,288,597050,0.0-148.0-1.0,null,<p></p>,,null,,,,,,,,,,,,,,,,
,do_trial,289,599993,0.0-149.0-0.0,418.5,,,,49,"0,1,1",6,blank,370,null,0.143522597,0.3645751,0.675287459,0,,,,,,
,html-keyboard-response,290,600995,0.0-149.0-1.0,null,<p></p>,,null,,,,,,,,,,,,,,,,
,do_recog,291,603064,0.0-150.0-0.0,566.2,,,,53,,,,371,probe-158,,,,,1,[object Object],168,4,1,
,html-keyboard-response,292,604066,0.0-150.0-1.0,null,<p></p>,,null,,,,,,,,,,,,,,,,
,do_trial,293,607101,0.0-151.0-0.0,512.6,,,,49,"0,1,0",6,blank,372,null,0.102188862,0.306905504,0.385648585,0,,,,,,
,html-keyboard-response,294,608117,0.0-151.0-1.0,null,<p></p>,,null,,,,,,,,,,,,,,,,
,do_trial,295,610973,0.0-152.0-0.0,332.8,,,,49,"0,1,0",6,blank,373,null,0.094221461,0.365549017,0.458202526,0,,,,,,
,html-keyboard-response,296,611988,0.0-152.0-1.0,null,<p></p>,,null,,,,,,,,,,,,,,,,
,do_trial,297,615052,0.0-153.0-0.0,540.6,,,,49,"0,1,1",6,blank,374,null,0.053540623,0.427572689,0.54398626,0,,,,,,
,html-keyboard-response,298,616054,0.0-153.0-1.0,null,<p></p>,,null,,,,,,,,,,,,,,,,
,do_trial,299,618960,0.0-154.0-0.0,384,,,,49,"0,1,0",6,blank,375,null,0.054115534,0.38014973,0.550994493,0,,,,,,
,html-keyboard-response,300,619962,0.0-154.0-1.0,null,<p></p>,,null,,,,,,,,,,,,,,,,
,do_recog,301,621988,0.0-155.0-0.0,522.8,,,,53,,,,376,probe-244,,,,,0,[object Object],null,null,0,
,html-keyboard-response,302,622990,0.0-155.0-1.0,null,<p></p>,,null,,,,,,,,,,,,,,,,
,do_trial,303,625952,0.0-156.0-0.0,440.3,,,,49,"0,0,1",6,blank,377,null,0.081306625,0.384657648,0.660409399,0,,,,,,
,html-keyboard-response,304,626954,0.0-156.0-1.0,null,<p></p>,,null,,,,,,,,,,,,,,,,
,do_recog,305,629010,0.0-157.0-0.0,552.3,,,,53,,,,378,probe-169,,,,,1,[object Object],205,5,1,
,html-keyboard-response,306,630011,0.0-157.0-1.0,null,<p></p>,,null,,,,,,,,,,,,,,,,
,do_trial,307,632830,0.0-158.0-0.0,296.4,,,,49,"1,1,1",6,blank,379,null,0.110136669,0.270881651,0.665341934,1,,,,,,
,html-keyboard-response,308,633832,0.0-158.0-1.0,null,<p></p>,,null,,,,,,,,,,,,,,,,
,do_recog,309,636052,0.0-159.0-0.0,716.6,,,,53,,,,380,probe-08,,,,,1,[object Object],87,2,1,
,html-keyboard-response,310,637054,0.0-159.0-1.0,null,<p></p>,,null,,,,,,,,,,,,,,,,
,do_trial,311,640008,0.0-160.0-0.0,431.8,,,,49,"1,0,1",6,blank,381,null,0.208968852,0.297322635,0.70475208,1,,,,,,
,html-keyboard-response,312,641012,0.0-160.0-1.0,null,<p></p>,,null,,,,,,,,,,,,,,,,
,do_trial,313,644099,0.0-161.0-0.0,564.3,,,,49,"0,0,1",6,blank,382,null,0.243601026,0.398288278,0.738891937,0,,,,,,
,html-keyboard-response,314,645102,0.0-161.0-1.0,null,<p></p>,,null,,,,,,,,,,,,,,,,
,do_trial,315,648003,0.0-162.0-0.0,379.9,,,,49,"0,1,0",6,blank,383,null,0.332821026,0.452103694,0.659484444,0,,,,,,
,html-keyboard-response,316,649005,0.0-162.0-1.0,null,<p></p>,,null,,,,,,,,,,,,,,,,
,do_trial,317,651957,0.0-163.0-0.0,430.7,,,,49,"0,0,0",6,blank,384,null,0.299178272,0.363042606,0.668969875,0,,,,,,
,html-keyboard-response,318,652959,0.0-163.0-1.0,null,<p></p>,,null,,,,,,,,,,,,,,,,
,do_trial,319,655805,0.0-164.0-0.0,322.4,,,,49,"0,0,0",6,blank,385,null,0.159673632,0.242406886,0.632266884,0,,,,,,
,html-keyboard-response,320,656807,0.0-164.0-1.0,null,<p></p>,,null,,,,,,,,,,,,,,,,
,do_recog,321,659182,0.0-165.0-0.0,871.7,,,,53,,,,386,probe-63,,,,,1,[object Object],126,3,1,
,html-keyboard-response,322,660184,0.0-165.0-1.0,null,<p></p>,,null,,,,,,,,,,,,,,,,
,do_trial,323,663241,0.0-166.0-0.0,535.2,,,,49,"1,0,0",6,blank,387,null,0.133108289,0.299288751,0.551598865,1,,,,,,
,html-keyboard-response,324,664244,0.0-166.0-1.0,null,<p></p>,,null,,,,,,,,,,,,,,,,
,do_trial,325,667101,0.0-167.0-0.0,333.9,,,,49,"0,0,1",6,blank,388,null,0.101303542,0.262415228,0.615379366,0,,,,,,
,html-keyboard-response,326,668103,0.0-167.0-1.0,null,<p></p>,,null,,,,,,,,,,,,,,,,
,do_recog,327,670325,0.0-168.0-0.0,717.7,,,,53,,,,389,probe-46,,,,,1,[object Object],47,1,1,
,html-keyboard-response,328,671327,0.0-168.0-1.0,null,<p></p>,,null,,,,,,,,,,,,,,,,
,do_trial,329,674211,0.0-169.0-0.0,361.3,,,,49,"0,1,0",6,blank,390,null,0.119872952,0.305678526,0.700105368,0,,,,,,
,html-keyboard-response,330,675223,0.0-169.0-1.0,null,<p></p>,,null,,,,,,,,,,,,,,,,
,do_trial,331,678148,0.0-170.0-0.0,402.7,,,,49,"0,0,1",6,blank,391,null,0.094668515,0.31127582,0.739583627,0,,,,,,
,html-keyboard-response,332,679150,0.0-170.0-1.0,null,<p></p>,,null,,,,,,,,,,,,,,,,
,do_trial,333,681930,0.0-171.0-0.0,256.9,,,,49,"0,1,0",6,blank,392,null,0.262231267,0.353687749,0.60315135,0,,,,,,
,html-keyboard-response,334,682932,0.0-171.0-1.0,null,<p></p>,,null,,,,,,,,,,,,,,,,
,do_trial,335,685838,0.0-172.0-0.0,383.9,,,,49,"0,0,1",6,blank,393,null,0.226665826,0.322022372,0.717825363,0,,,,,,
,html-keyboard-response,336,686840,0.0-172.0-1.0,null,<p></p>,,null,,,,,,,,,,,,,,,,
,do_trial,337,689949,0.0-173.0-0.0,587.5,,,,49,"0,0,1",6,blank,394,null,0.27908188,0.338331358,0.727250846,0,,,,,,
,html-keyboard-response,338,690951,0.0-173.0-1.0,null,<p></p>,,null,,,,,,,,,,,,,,,,
,do_recog,339,693252,0.0-174.0-0.0,797.5,,,,53,,,,395,probe-124,,,,,1,[object Object],128,3,1,
,html-keyboard-response,340,694254,0.0-174.0-1.0,null,<p></p>,,null,,,,,,,,,,,,,,,,
,do_trial,341,697405,0.0-175.0-0.0,627.8,,,,49,"0,1,0",6,blank,396,null,0.169229334,0.390371728,0.596230809,0,,,,,,
,html-keyboard-response,342,698407,0.0-175.0-1.0,null,<p></p>,,null,,,,,,,,,,,,,,,,
,do_trial,343,701330,0.0-176.0-0.0,400.2,,,,49,"1,1,0",6,blank,397,null,0.053501136,0.360358775,0.587682348,1,,,,,,
,html-keyboard-response,344,702332,0.0-176.0-1.0,null,<p></p>,,null,,,,,,,,,,,,,,,,
,do_trial,345,705204,0.0-177.0-0.0,349.8,,,,49,"0,0,1",6,blank,398,null,0.135013203,0.325787806,0.567760182,0,,,,,,
,html-keyboard-response,346,706206,0.0-177.0-1.0,null,<p></p>,,null,,,,,,,,,,,,,,,,
,do_trial,347,709000,0.0-178.0-0.0,272.2,,,,49,"0,1,1",6,blank,399,null,0.151630387,0.281286528,0.53454646,0,,,,,,
,html-keyboard-response,348,710003,0.0-178.0-1.0,null,<p></p>,,null,,,,,,,,,,,,,,,,
,do_trial,349,712779,0.0-179.0-0.0,253,,,,49,"0,1,1",6,blank,400,null,0.187863163,0.295976004,0.359104263,0,,,,,,
,html-keyboard-response,350,713781,0.0-179.0-1.0,null,<p></p>,,null,,,,,,,,,,,,,,,,
,do_recog,351,715814,0.0-180.0-0.0,529.9,,,,53,,,,401,probe-57,,,,,1,[object Object],84,2,1,
,html-keyboard-response,352,716817,0.0-180.0-1.0,null,<p></p>,,null,,,,,,,,,,,,,,,,
,do_trial,353,719520,0.0-181.0-0.0,181.2,,,,49,"0,1,0",6,blank,402,null,0.156137289,0.446635928,0.220991132,0,,,,,,
,html-keyboard-response,354,720522,0.0-181.0-1.0,null,<p></p>,,null,,,,,,,,,,,,,,,,
,do_trial,355,723790,0.0-182.0-0.0,745.3,,,,51,"0,1,0",6,blank,403,null,0.193952491,0.562811825,0.158533539,0,,,,,,
,html-keyboard-response,356,724792,0.0-182.0-1.0,null,<p></p>,,null,,,,,,,,,,,,,,,,
,do_trial,357,728089,0.0-183.0-0.0,774.8,,,,50,"1,1,1",6,blank,404,null,0.291359624,0.622410277,0.1481405,1,,,,,,
,html-keyboard-response,358,729091,0.0-183.0-1.0,null,<p></p>,,null,,,,,,,,,,,,,,,,
,do_trial,359,731826,0.0-184.0-0.0,213.4,,,,50,"0,1,0",6,blank,405,null,0.295611898,0.73066775,0.091231425,1,,,,,,
,html-keyboard-response,360,732843,0.0-184.0-1.0,null,<p></p>,,null,,,,,,,,,,,,,,,,
,do_recog,361,734745,0.0-185.0-0.0,398,,,,53,,,,406,probe-104,,,,,1,[object Object],80,2,1,
,html-keyboard-response,362,735747,0.0-185.0-1.0,null,<p></p>,,null,,,,,,,,,,,,,,,,
,do_trial,363,738461,0.0-186.0-0.0,192.6,,,,50,"1,1,0",6,blank,407,null,0.338447955,0.63729232,0.147156181,1,,,,,,
,html-keyboard-response,364,739464,0.0-186.0-1.0,null,<p></p>,,null,,,,,,,,,,,,,,,,
,do_trial,365,742531,0.0-187.0-0.0,543.5,,,,50,"0,0,0",6,blank,408,null,0.443714637,0.635177064,0.123811647,0,,,,,,
,html-keyboard-response,366,743532,0.0-187.0-1.0,null,<p></p>,,null,,,,,,,,,,,,,,,,
,do_recog,367,745561,0.0-188.0-0.0,524.2,,,,53,,,,409,probe-75,,,,,1,[object Object],45,1,1,
,html-keyboard-response,368,746563,0.0-188.0-1.0,null,<p></p>,,null,,,,,,,,,,,,,,,,
,do_trial,369,749586,0.0-189.0-0.0,499.3,,,,50,"0,1,1",6,blank,410,null,0.427366789,0.675970549,0.247366104,1,,,,,,
,html-keyboard-response,370,750588,0.0-189.0-1.0,null,<p></p>,,null,,,,,,,,,,,,,,,,
,do_trial,371,753390,0.0-190.0-0.0,279.3,,,,50,"0,1,0",6,blank,411,null,0.233844432,0.542158302,0.180938958,1,,,,,,
,html-keyboard-response,372,754392,0.0-190.0-1.0,null,<p></p>,,null,,,,,,,,,,,,,,,,
,do_trial,373,757263,0.0-191.0-0.0,349.9,,,,50,"1,1,0",6,blank,412,null,0.345504973,0.610080401,0.151028169,1,,,,,,
,html-keyboard-response,374,758265,0.0-191.0-1.0,null,<p></p>,,null,,,,,,,,,,,,,,,,
,do_trial,375,760999,0.0-192.0-0.0,210.7,,,,50,"1,1,0",6,blank,413,null,0.298922998,0.543463689,0.067233728,1,,,,,,
,html-keyboard-response,376,762000,0.0-192.0-1.0,null,<p></p>,,null,,,,,,,,,,,,,,,,
,do_trial,377,764972,0.0-193.0-0.0,449,,,,50,"0,0,0",6,blank,414,null,0.297048905,0.551755827,0.129120415,0,,,,,,
,html-keyboard-response,378,765974,0.0-193.0-1.0,null,<p></p>,,null,,,,,,,,,,,,,,,,
,do_trial,379,768702,0.0-194.0-0.0,204.9,,,,50,"0,0,0",6,blank,415,null,0.312896549,0.540698538,0.263630678,0,,,,,,
,html-keyboard-response,380,769704,0.0-194.0-1.0,null,<p></p>,,null,,,,,,,,,,,,,,,,
,do_recog,381,771815,0.0-195.0-0.0,602.7,,,,53,,,,416,probe-16,,,,,1,[object Object],125,3,1,
,html-keyboard-response,382,772817,0.0-195.0-1.0,null,<p></p>,,null,,,,,,,,,,,,,,,,
,do_trial,383,775864,0.0-196.0-0.0,523.4,,,,50,"0,0,0",6,blank,417,null,0.257681065,0.639876457,0.094507518,0,,,,,,
,html-keyboard-response,384,776866,0.0-196.0-1.0,null,<p></p>,,null,,,,,,,,,,,,,,,,
,do_trial,385,780122,0.0-197.0-0.0,734,,,,49,"0,1,1",6,blank,418,null,0.087755427,0.671535011,0.256802902,0,,,,,,
,html-keyboard-response,386,781124,0.0-197.0-1.0,null,<p></p>,,null,,,,,,,,,,,,,,,,
,do_trial,387,783822,0.0-198.0-0.0,176,,,,50,"0,0,0",6,blank,419,null,0.101757952,0.65000522,0.131440371,0,,,,,,
,html-keyboard-response,388,784824,0.0-198.0-1.0,null,<p></p>,,null,,,,,,,,,,,,,,,,
,do_trial,389,787719,0.0-199.0-0.0,372.3,,,,50,"0,0,0",6,blank,420,null,0.26325527,0.733684004,0.202479277,0,,,,,,
,html-keyboard-response,390,788721,0.0-199.0-1.0,null,<p></p>,,null,,,,,,,,,,,,,,,,
,do_trial,391,791542,0.0-200.0-0.0,299.2,,,,50,"1,0,0",6,blank,421,null,0.326491721,0.693377371,0.183350306,0,,,,,,
,html-keyboard-response,392,792544,0.0-200.0-1.0,null,<p></p>,,null,,,,,,,,,,,,,,,,
,do_trial,393,795158,0.0-201.0-0.0,90.79999998,,,,49,"1,1,0",6,blank,422,null,0.261982767,0.783105588,0.134413968,1,,,,,,
,html-keyboard-response,394,796159,0.0-201.0-1.0,null,<p></p>,,null,,,,,,,,,,,,,,,,
,do_trial,395,798908,0.0-202.0-0.0,226.6,,,,49,"1,1,1",6,blank,423,null,0.188544717,0.576881008,0.150743942,1,,,,,,
,html-keyboard-response,396,799910,0.0-202.0-1.0,null,<p></p>,,null,,,,,,,,,,,,,,,,
,do_recog,397,801876,0.0-203.0-0.0,462.4,,,,53,,,,424,probe-49,,,,,1,[object Object],41,1,1,
,html-keyboard-response,398,802879,0.0-203.0-1.0,null,<p></p>,,null,,,,,,,,,,,,,,,,
,do_trial,399,805666,0.0-204.0-0.0,266,,,,49,"0,1,0",6,blank,425,null,0.25092395,0.580120007,0.102404362,0,,,,,,
,html-keyboard-response,400,806668,0.0-204.0-1.0,null,<p></p>,,null,,,,,,,,,,,,,,,,
,do_trial,401,809272,0.0-205.0-0.0,81.5,,,,50,"0,0,0",6,blank,426,null,0.25886369,0.615352163,0.144644362,0,,,,,,
,html-keyboard-response,402,810275,0.0-205.0-1.0,null,<p></p>,,null,,,,,,,,,,,,,,,,
,do_trial,403,812856,0.0-206.0-0.0,59.19999999,,,,49,"0,0,1",6,blank,427,null,0.241737163,0.66941125,0.061306194,0,,,,,,
,html-keyboard-response,404,813858,0.0-206.0-1.0,null,<p></p>,,null,,,,,,,,,,,,,,,,
,do_trial,405,816408,0.0-207.0-0.0,28.30000001,,,,50,"0,1,0",6,blank,428,null,0.207125435,0.676584854,0.177023696,1,,,,,,
,html-keyboard-response,406,817410,0.0-207.0-1.0,null,<p></p>,,null,,,,,,,,,,,,,,,,
,do_trial,407,820293,0.0-208.0-0.0,358.8,,,,50,"0,1,1",6,blank,429,null,0.152001918,0.618926758,0.08309388,1,,,,,,
,html-keyboard-response,408,821295,0.0-208.0-1.0,null,<p></p>,,null,,,,,,,,,,,,,,,,
,do_trial,409,824201,0.0-209.0-0.0,375.3,,,,50,"0,0,0",6,blank,430,null,0.195820744,0.661426325,0.088836245,0,,,,,,
,html-keyboard-response,410,825203,0.0-209.0-1.0,null,<p></p>,,null,,,,,,,,,,,,,,,,
,do_trial,411,827870,0.0-210.0-0.0,145.6,,,,49,"0,0,0",6,blank,431,null,0.3013579,0.655272624,0.095092374,0,,,,,,
,html-keyboard-response,412,828872,0.0-210.0-1.0,null,<p></p>,,null,,,,,,,,,,,,,,,,
,do_recog,413,831044,0.0-211.0-0.0,667.7,,,,53,,,,432,probe-80,,,,,1,[object Object],48,1,1,
,html-keyboard-response,414,832046,0.0-211.0-1.0,null,<p></p>,,null,,,,,,,,,,,,,,,,
,do_trial,415,834916,0.0-212.0-0.0,347.4,,,,50,"0,0,0",6,blank,433,null,0.280454964,0.532770388,0.06877628,0,,,,,,
,html-keyboard-response,416,835917,0.0-212.0-1.0,null,<p></p>,,null,,,,,,,,,,,,,,,,
,do_recog,417,837934,0.0-213.0-0.0,514,,,,53,,,,434,probe-170,,,,,1,[object Object],124,3,1,
,html-keyboard-response,418,838936,0.0-213.0-1.0,null,<p></p>,,null,,,,,,,,,,,,,,,,
,do_trial,419,841762,0.0-214.0-0.0,303.9,,,,49,"0,0,1",6,blank,435,null,0.289735295,0.523740947,0.0670042,0,,,,,,
,html-keyboard-response,420,842764,0.0-214.0-1.0,null,<p></p>,,null,,,,,,,,,,,,,,,,
,do_recog,421,844884,0.0-215.0-0.0,616.7,,,,53,,,,436,probe-205,,,,,1,[object Object],167,4,1,
,html-keyboard-response,422,845885,0.0-215.0-1.0,null,<p></p>,,null,,,,,,,,,,,,,,,,
,do_trial,423,848507,0.0-216.0-0.0,99.59999999,,,,49,"0,1,0",6,blank,437,null,0.371317731,0.733339563,0.132204734,0,,,,,,
,html-keyboard-response,424,849509,0.0-216.0-1.0,null,<p></p>,,null,,,,,,,,,,,,,,,,
,do_recog,425,851462,0.0-217.0-0.0,448.6,,,,53,,,,438,probe-172,,,,,1,[object Object],49,1,1,
,html-keyboard-response,426,852463,0.0-217.0-1.0,null,<p></p>,,null,,,,,,,,,,,,,,,,
,do_trial,427,855192,0.0-218.0-0.0,205.1,,,,49,"1,0,0",6,blank,439,null,0.348412917,0.481253343,0.15948749,1,,,,,,
,html-keyboard-response,428,856193,0.0-218.0-1.0,null,<p></p>,,null,,,,,,,,,,,,,,,,
,do_recog,429,858474,0.0-219.0-0.0,777.8,,,,53,,,,440,probe-188,,,,,1,[object Object],201,5,1,
,html-keyboard-response,430,859477,0.0-219.0-1.0,null,<p></p>,,null,,,,,,,,,,,,,,,,
,do_trial,431,862350,0.0-220.0-0.0,350.8,,,,49,"0,0,0",6,blank,441,null,0.405700377,0.56586162,0.055868628,0,,,,,,
,html-keyboard-response,432,863352,0.0-220.0-1.0,null,<p></p>,,null,,,,,,,,,,,,,,,,
,do_trial,433,866098,0.0-221.0-0.0,220.7,,,,50,"1,1,0",6,blank,442,null,0.314401757,0.411148428,0.12679296,1,,,,,,
,html-keyboard-response,434,867099,0.0-221.0-1.0,null,<p></p>,,null,,,,,,,,,,,,,,,,
,do_trial,435,869914,0.0-222.0-0.0,293.2,,,,50,"0,1,0",6,blank,443,null,0.348212746,0.722543674,0.116027579,1,,,,,,
,html-keyboard-response,436,870916,0.0-222.0-1.0,null,<p></p>,,null,,,,,,,,,,,,,,,,
,do_trial,437,873757,0.0-223.0-0.0,317.8,,,,51,"0,1,0",6,blank,444,null,0.246059079,0.653528225,0.214055011,0,,,,,,
,html-keyboard-response,438,874758,0.0-223.0-1.0,null,<p></p>,,null,,,,,,,,,,,,,,,,
,do_recog,439,876860,0.0-224.0-0.0,597.4,,,,53,,,,445,probe-06,,,,,1,[object Object],46,1,1,
,html-keyboard-response,440,877861,0.0-224.0-1.0,null,<p></p>,,null,,,,,,,,,,,,,,,,
,do_trial,441,880723,0.0-225.0-0.0,339.4,,,,50,"0,1,0",6,blank,446,null,0.262325826,0.597845568,0.112322313,1,,,,,,
,html-keyboard-response,442,881725,0.0-225.0-1.0,null,<p></p>,,null,,,,,,,,,,,,,,,,
,do_recog,443,884103,0.0-226.0-0.0,873.3,,,,53,,,,447,probe-109,,,,,1,[object Object],120,3,1,
,html-keyboard-response,444,885105,0.0-226.0-1.0,null,<p></p>,,null,,,,,,,,,,,,,,,,
,do_trial,445,887971,0.0-227.0-0.0,342,,,,50,"0,0,0",6,blank,448,null,0.243894902,0.463945764,0.099163833,0,,,,,,
,html-keyboard-response,446,888972,0.0-227.0-1.0,null,<p></p>,,null,,,,,,,,,,,,,,,,
,do_recog,447,890889,0.0-228.0-0.0,412.6,,,,53,,,,449,probe-66,,,,,1,[object Object],204,5,1,
,html-keyboard-response,448,891891,0.0-228.0-1.0,null,<p></p>,,null,,,,,,,,,,,,,,,,
,do_trial,449,894757,0.0-229.0-0.0,344.8,,,,50,"0,1,0",6,blank,450,null,0.191033605,0.58251421,0.078621149,1,,,,,,
,html-keyboard-response,450,895759,0.0-229.0-1.0,null,<p></p>,,null,,,,,,,,,,,,,,,,
,do_recog,451,898247,0.0-230.0-0.0,985.5,,,,53,,,,451,probe-233,,,,,0,[object Object],null,null,0,
,html-keyboard-response,452,899249,0.0-230.0-1.0,null,<p></p>,,null,,,,,,,,,,,,,,,,
,do_trial,453,902136,0.0-231.0-0.0,364.3,,,,50,"1,0,0",6,blank,452,null,0.155626733,0.488615831,0.055660388,0,,,,,,
,html-keyboard-response,454,903137,0.0-231.0-1.0,null,<p></p>,,null,,,,,,,,,,,,,,,,
,do_trial,455,905924,0.0-232.0-0.0,264.2,,,,49,"0,0,0",6,blank,453,null,0.185333276,0.488592489,0.146605798,0,,,,,,
,html-keyboard-response,456,906925,0.0-232.0-1.0,null,<p></p>,,null,,,,,,,,,,,,,,,,
,do_trial,457,909760,0.0-233.0-0.0,312.5,,,,50,"0,0,0",6,blank,454,null,0.185736466,0.513123148,0.132700051,0,,,,,,
,html-keyboard-response,458,910762,0.0-233.0-1.0,null,<p></p>,,null,,,,,,,,,,,,,,,,
,do_recog,459,912750,0.0-234.0-0.0,484.7,,,,53,,,,455,probe-243,,,,,0,[object Object],null,null,0,
,html-keyboard-response,460,913751,0.0-234.0-1.0,null,<p></p>,,null,,,,,,,,,,,,,,,,
,do_trial,461,916520,0.0-235.0-0.0,245.8,,,,50,"0,0,0",6,blank,456,null,0.344880861,0.398484502,0.340420277,0,,,,,,
,html-keyboard-response,462,917522,0.0-235.0-1.0,null,<p></p>,,null,,,,,,,,,,,,,,,,
,do_trial,463,920091,0.0-236.0-0.0,47.30000001,,,,49,"0,1,0",6,blank,457,null,0.100253416,0.299322533,0.488490773,0,,,,,,
,html-keyboard-response,464,921092,0.0-236.0-1.0,null,<p></p>,,null,,,,,,,,,,,,,,,,
,do_trial,465,923838,0.0-237.0-0.0,222.9,,,,51,"1,1,0",6,blank,458,null,0.16706527,0.405438145,0.499090179,0,,,,,,
,html-keyboard-response,466,924839,0.0-237.0-1.0,null,<p></p>,,null,,,,,,,,,,,,,,,,
,do_trial,467,927765,0.0-238.0-0.0,404.8,,,,50,"0,0,0",6,blank,459,null,0.120707955,0.228255068,0.442528295,0,,,,,,
,html-keyboard-response,468,928767,0.0-238.0-1.0,null,<p></p>,,null,,,,,,,,,,,,,,,,
,do_trial,469,931849,0.0-239.0-0.0,560,,,,50,"0,1,0",6,blank,460,null,0.164627899,0.244092062,0.523227605,1,,,,,,
,html-keyboard-response,470,932852,0.0-239.0-1.0,null,<p></p>,,null,,,,,,,,,,,,,,,,
,do_recog,471,934907,0.0-240.0-0.0,551.2,,,,53,,,,461,probe-232,,,,,0,[object Object],null,null,0,
,html-keyboard-response,472,935908,0.0-240.0-1.0,null,<p></p>,,null,,,,,,,,,,,,,,,,
,do_trial,473,938869,0.0-241.0-0.0,439.6,,,,50,"0,0,0",6,blank,462,null,0.271097383,0.148926633,0.506450366,0,,,,,,
,html-keyboard-response,474,939871,0.0-241.0-1.0,null,<p></p>,,null,,,,,,,,,,,,,,,,
,do_trial,475,942964,0.0-242.0-0.0,569.8,,,,50,"0,0,1",6,blank,463,null,0.154654616,0.269090774,0.612105963,0,,,,,,
,html-keyboard-response,476,943966,0.0-242.0-1.0,null,<p></p>,,null,,,,,,,,,,,,,,,,
,do_trial,477,946863,0.0-243.0-0.0,374.9,,,,50,"0,0,1",6,blank,464,null,0.215813532,0.294660721,0.537796381,0,,,,,,
,html-keyboard-response,478,947866,0.0-243.0-1.0,null,<p></p>,,null,,,,,,,,,,,,,,,,
,do_trial,479,950590,0.0-244.0-0.0,202.7,,,,50,"0,0,0",6,blank,465,null,0.327129654,0.206816001,0.487649362,0,,,,,,
,html-keyboard-response,480,951592,0.0-244.0-1.0,null,<p></p>,,null,,,,,,,,,,,,,,,,
,do_trial,481,954436,0.0-245.0-0.0,322.4,,,,49,"0,1,0",6,blank,466,null,0.238371921,0.186445007,0.587539969,0,,,,,,
,html-keyboard-response,482,955437,0.0-245.0-1.0,null,<p></p>,,null,,,,,,,,,,,,,,,,
,do_trial,483,958132,0.0-246.0-0.0,172.1,,,,50,"0,0,0",6,blank,467,null,0.128590916,0.105996469,0.590173438,0,,,,,,
,html-keyboard-response,484,959133,0.0-246.0-1.0,null,<p></p>,,null,,,,,,,,,,,,,,,,
,do_recog,485,961392,0.0-247.0-0.0,756.1,,,,53,,,,468,probe-245,,,,,0,[object Object],null,null,0,
,html-keyboard-response,486,962394,0.0-247.0-1.0,null,<p></p>,,null,,,,,,,,,,,,,,,,
,do_trial,487,964924,0.0-248.0-0.0,8.199999988,,,,50,"0,0,0",6,blank,469,null,0.108034242,0.244329711,0.532976885,0,,,,,,
,html-keyboard-response,488,965925,0.0-248.0-1.0,null,<p></p>,,null,,,,,,,,,,,,,,,,
,do_trial,489,968735,0.0-249.0-0.0,277.1,,,,49,"0,0,1",6,blank,470,null,0.195435549,0.326491195,0.561781478,0,,,,,,
,html-keyboard-response,490,969737,0.0-249.0-1.0,null,<p></p>,,null,,,,,,,,,,,,,,,,
,do_trial,491,972330,0.0-250.0-0.0,71.19999999,,,,51,"0,1,1",6,blank,471,null,0.153698519,0.329076178,0.436575307,1,,,,,,
,html-keyboard-response,492,973332,0.0-250.0-1.0,null,<p></p>,,null,,,,,,,,,,,,,,,,
,do_trial,493,975917,0.0-251.0-0.0,62.69999999,,,,51,"0,1,1",6,blank,472,null,0.081874659,0.374656762,0.521586463,1,,,,,,
,html-keyboard-response,494,976919,0.0-251.0-1.0,null,<p></p>,,null,,,,,,,,,,,,,,,,
,do_recog,495,978914,0.0-252.0-0.0,491.7,,,,53,,,,473,probe-239,,,,,0,[object Object],null,null,0,
,html-keyboard-response,496,979915,0.0-252.0-1.0,null,<p></p>,,null,,,,,,,,,,,,,,,,
,do_trial,497,982580,0.0-253.0-0.0,142.8,,,,51,"0,0,1",6,blank,474,null,0.152302547,0.428287839,0.579242236,1,,,,,,
,html-keyboard-response,498,983582,0.0-253.0-1.0,null,<p></p>,,null,,,,,,,,,,,,,,,,
,do_recog,499,986383,0.0-254.0-0.0,1296.9,,,,53,,,,475,probe-249,,,,,0,[object Object],null,null,0,
,html-keyboard-response,500,987386,0.0-254.0-1.0,null,<p></p>,,null,,,,,,,,,,,,,,,,
,do_trial,501,990009,0.0-255.0-0.0,99.90000001,,,,51,"0,0,0",6,blank,476,null,0.152602826,0.448064719,0.598072576,0,,,,,,
,html-keyboard-response,502,991010,0.0-255.0-1.0,null,<p></p>,,null,,,,,,,,,,,,,,,,
,do_recog,503,993628,0.0-256.0-0.0,1114.3,,,,53,,,,477,probe-255,,,,,0,[object Object],null,null,0,
,html-keyboard-response,504,994640,0.0-256.0-1.0,null,<p></p>,,null,,,,,,,,,,,,,,,,
,do_trial,505,997539,0.0-257.0-0.0,376.9,,,,50,"0,0,1",6,blank,478,null,0.136166239,0.529110266,0.625980618,0,,,,,,
,html-keyboard-response,506,998540,0.0-257.0-1.0,null,<p></p>,,null,,,,,,,,,,,,,,,,
,do_recog,507,1001423,0.0-258.0-0.0,1379,,,,56,,,,479,probe-236,,,,,0,[object Object],null,null,1,
,html-keyboard-response,508,1002425,0.0-258.0-1.0,null,<p></p>,,null,,,,,,,,,,,,,,,,
,do_pick_best_pirate,509,1003860,0.0-259.0-0.0,430.8,,,,49,,,,,,,,,,,,,,,
,do_pick_best_pirate,510,1007575,0.0-260.0-0.0,2712.2,,,,49,,,,,,,,,,,,,,,
,do_pick_best_pirate,511,1009034,0.0-261.0-0.0,456.1,,,,49,,,,,,,,,,,,,,,
,do_pick_best_pirate,512,1017933,0.0-262.0-0.0,7894.8,,,,50,,,,,,,,,,,,,,,
,do_pick_best_pirate,513,1019747,0.0-263.0-0.0,811,,,,49,,,,,,,,,,,,,,,
,do_pick_best_pirate,514,1022179,0.0-264.0-0.0,1427.4,,,,50,,,,,,,,,,,,,,,
,html-keyboard-response,515,1026760,0.0-265.0-0.0,4580.2,<p>You are all done with the experiment!</p><p> You made $15 plus $3 in bonus payment!</p><p>Thank you for participating. You will recieve your payment within 3 days.<p><b>[Press the space bar to end the experiment]</b></p></div>,,32,,,,,,,,,,,,,,,,