"success","trial_type","trial_index","time_elapsed","internal_node_id","interactions","blur_events","focus_events","fullscreenenter_events","fullscreenexit_events","rt","stimulus","key_press","subject_id","participant_id","age","gender","prompt","response","choice_outcomes","context_n","context_img_id","trial_n","probe_img_id","pR_red","pR_white","pR_black","outcome","is_valid","image_to_show","probed_trial","probed_context","correct","probe","probed_trial_n","probed_context_n","context_im"
"true","fullscreen","0","3797","0.0-0.0","""event"",""trial"",""time""
""blur"",""0"",""0""
""focus"",""0"",""0""
""fullscreenenter"",""0"",""2799""
","""event"",""trial"",""time""
""blur"",""0"",""0""
","""event"",""trial"",""time""
""focus"",""0"",""0""
","""event"",""trial"",""time""
""fullscreenenter"",""0"",""2799""
","
","","","","","","","","","","","","","","","","","","","","","","","","","","",""
"","pavlovia","1","3799","0.0-1.0","""event"",""trial"",""time""
""blur"",""0"",""0""
""focus"",""0"",""0""
""fullscreenenter"",""0"",""2799""
","""event"",""trial"",""time""
""blur"",""0"",""0""
","""event"",""trial"",""time""
""focus"",""0"",""0""
","""event"",""trial"",""time""
""fullscreenenter"",""0"",""2799""
","
","","","","","","","","","","","","","","","","","","","","","","","","","","",""
"","welc_back","2","13555","0.0-2.0","""event"",""trial"",""time""
""blur"",""0"",""0""
""focus"",""0"",""0""
""fullscreenenter"",""0"",""2799""
","""event"",""trial"",""time""
""blur"",""0"",""0""
","""event"",""trial"",""time""
""focus"",""0"",""0""
","""event"",""trial"",""time""
""fullscreenenter"",""0"",""2799""
","
","null","run_exp/static/audio/clip_29_welcome_back.m4a","null","1481","1692","19","Male","<div class='center'><p>Welcome to day 2!</p><p> Yesterday, you were the head captain of a pirate ship. You asked your fellow pirates to rob other ships of their gold across six different islands.</p></div>","","","","","","","","","","","","","","","","","","",""
"","html-keyboard-response","3","14939","0.0-3.0","""event"",""trial"",""time""
""blur"",""0"",""0""
""focus"",""0"",""0""
""fullscreenenter"",""0"",""2799""
","""event"",""trial"",""time""
""blur"",""0"",""0""
","""event"",""trial"",""time""
""focus"",""0"",""0""
","""event"",""trial"",""time""
""fullscreenenter"",""0"",""2799""
","
","1382.8999999761581","<div class='center'><p>Welcome to day 2!</p><p> Yesterday, you were the head captain of a pirate ship. You asked your fellow pirates to rob other ships of their gold across six different islands.</p><p><b>[Press the space bar to continue]</b></p></div>","32","","","","","","","","","","","","","","","","","","","","","","","",""
"","day_1_summary_goal","4","32134","0.0-4.0","""event"",""trial"",""time""
""blur"",""0"",""0""
""focus"",""0"",""0""
""fullscreenenter"",""0"",""2799""
","""event"",""trial"",""time""
""blur"",""0"",""0""
","""event"",""trial"",""time""
""focus"",""0"",""0""
","""event"",""trial"",""time""
""fullscreenenter"",""0"",""2799""
","
","null","run_exp/static/audio/clip_30_goal_of_game.m4a","null","","","","","<div class='center'><p>Today, like yesterday, you get to pick which pirate you want to rob the next ship.</p><p>If the pirate is successful in robbing a ship, you get gold coins that look like this: </p><p><img src='run_exp/static/images/tutorial/reward.png' height='150'></p><p> If they were not successful in robbing the ship, then you will get no gold coins and you'll see a big red x like this: </p><p><img src='run_exp/static/images/tutorial/reward_no.png' height='150'></p></div>","","","","","","","","","","","","","","","","","","",""
"","html-keyboard-response","5","38509","0.0-5.0","""event"",""trial"",""time""
""blur"",""0"",""0""
""focus"",""0"",""0""
""fullscreenenter"",""0"",""2799""
","""event"",""trial"",""time""
""blur"",""0"",""0""
","""event"",""trial"",""time""
""focus"",""0"",""0""
","""event"",""trial"",""time""
""fullscreenenter"",""0"",""2799""
","
","6374","<div class='center'><p>Today, like yesterday, you get to pick which pirate you want to rob the next ship.</p><p>If the pirate is successful in robbing a ship, you get gold coins that look like this: </p><p><img src='run_exp/static/images/tutorial/reward.png' height='150'></p><p> If they were not successful in robbing the ship, then you will get no gold coins and you'll see a big red x like this: </p><p><img src='run_exp/static/images/tutorial/reward_no.png' height='150'></p><p><b>[Press the space bar to continue]</b></p></div>","32","","","","","","","","","","","","","","","","","","","","","","","",""
"","day_1_summary_pick","6","53195","0.0-6.0","""event"",""trial"",""time""
""blur"",""0"",""0""
""focus"",""0"",""0""
""fullscreenenter"",""0"",""2799""
","""event"",""trial"",""time""
""blur"",""0"",""0""
","""event"",""trial"",""time""
""focus"",""0"",""0""
","""event"",""trial"",""time""
""fullscreenenter"",""0"",""2799""
","
","null","run_exp/static/audio/clip_31_how_to_pick_a_pirate.m4a","null","","","","","<div class='center'><p>Also, just like yesterday, you will use the 1,2,3 keys on your keyboard to pick a pirate. Press '1' to choose red beard, '2' to choose white beard, and '3' to choose black beard . You only have 3 seconds to pick a pirate, so please make a choice quickly!</p></div>","","","","","","","","","","","","","","","","","","",""
"","html-keyboard-response","7","72960","0.0-7.0","""event"",""trial"",""time""
""blur"",""0"",""0""
""focus"",""0"",""0""
""fullscreenenter"",""0"",""2799""
","""event"",""trial"",""time""
""blur"",""0"",""0""
","""event"",""trial"",""time""
""focus"",""0"",""0""
","""event"",""trial"",""time""
""fullscreenenter"",""0"",""2799""
","
","19764.69999998808","<div class='center'><p>Also, just like yesterday, you will use the 1,2,3 keys on your keyboard to pick a pirate. Press '1' to choose red beard, '2' to choose white beard, and '3' to choose black beard . You only have 3 seconds to pick a pirate, so please make a choice quickly!</p><p><b>[Press the space bar to continue]</b></p></div>","32","","","","","","","","","","","","","","","","","","","","","","","",""
"","test_phase_begin","8","103314","0.0-8.0","""event"",""trial"",""time""
""blur"",""0"",""0""
""focus"",""0"",""0""
""fullscreenenter"",""0"",""2799""
""blur"",""9"",""109330""
""focus"",""9"",""111778""
""blur"",""9"",""112073""
""focus"",""9"",""114302""
""blur"",""9"",""114319""
""focus"",""9"",""117853""
","""event"",""trial"",""time""
""blur"",""0"",""0""
""blur"",""9"",""109330""
""blur"",""9"",""112073""
""blur"",""9"",""114319""
","""event"",""trial"",""time""
""focus"",""0"",""0""
""focus"",""9"",""111778""
""focus"",""9"",""114302""
""focus"",""9"",""117853""
","""event"",""trial"",""time""
""fullscreenenter"",""0"",""2799""
","
","null","run_exp/static/audio/clip_32_final_place.m4a","null","","","","","<div class='center'><p>You’ve arrived at the final island of your journey! Unfortunately, it’s very foggy out, so you won’t be able to see it in the distance like the other islands you've visited.</p><p>You’ll still be deciding which pirate you want to rob a ship like before. However, because of the fog, you also won’t be able to see the ship.</p><p>This means you do not have to remember the ships you rob on this island.</p><p>Unlike yesterday, you won't be visiting multiple islands today. You will stay on this island for the entire game. This game will last ~30 minutes.</p></div>","","","","","","","","","","","","","","","","","","",""
"","html-keyboard-response","9","119134","0.0-9.0","""event"",""trial"",""time""
""blur"",""0"",""0""
""focus"",""0"",""0""
""fullscreenenter"",""0"",""2799""
""blur"",""9"",""109330""
""focus"",""9"",""111778""
""blur"",""9"",""112073""
""focus"",""9"",""114302""
""blur"",""9"",""114319""
""focus"",""9"",""117853""
","""event"",""trial"",""time""
""blur"",""0"",""0""
""blur"",""9"",""109330""
""blur"",""9"",""112073""
""blur"",""9"",""114319""
","""event"",""trial"",""time""
""focus"",""0"",""0""
""focus"",""9"",""111778""
""focus"",""9"",""114302""
""focus"",""9"",""117853""
","""event"",""trial"",""time""
""fullscreenenter"",""0"",""2799""
","
","15819.300000011921","<div class='center'><p>You’ve arrived at the final island of your journey! Unfortunately, it’s very foggy out, so you won’t be able to see it in the distance like the other islands you've visited.</p><p>You’ll still be deciding which pirate you want to rob a ship like before. However, because of the fog, you also won’t be able to see the ship.</p><p>This means you do not have to remember the ships you rob on this island.</p><p>Unlike yesterday, you won't be visiting multiple islands today. You will stay on this island for the entire game. This game will last ~30 minutes.</p><p><b>[Press the space bar to continue]</b></p></div>","32","","","","","","","","","","","","","","","","","","","","","","","",""
"","explain_probe_1","10","126799","0.0-10.0","""event"",""trial"",""time""
""blur"",""0"",""0""
""focus"",""0"",""0""
""fullscreenenter"",""0"",""2799""
""blur"",""9"",""109330""
""focus"",""9"",""111778""
""blur"",""9"",""112073""
""focus"",""9"",""114302""
""blur"",""9"",""114319""
""focus"",""9"",""117853""
","""event"",""trial"",""time""
""blur"",""0"",""0""
""blur"",""9"",""109330""
""blur"",""9"",""112073""
""blur"",""9"",""114319""
","""event"",""trial"",""time""
""focus"",""0"",""0""
""focus"",""9"",""111778""
""focus"",""9"",""114302""
""focus"",""9"",""117853""
","""event"",""trial"",""time""
""fullscreenenter"",""0"",""2799""
","
","null","run_exp/static/audio/clip_33_recognition_1.m4a","null","","","","","<div class='center'><p> Sometimes you’ll be shown a ship, and you will be asked if you saw this ship on a past island.</p><p> Here is an example of what you will see.</p><p><img src='run_exp/static/images/tutorial/example_recog_trial.png' height='500'></p></div>","","","","","","","","","","","","","","","","","","",""
"","html-keyboard-response","11","130182","0.0-11.0","""event"",""trial"",""time""
""blur"",""0"",""0""
""focus"",""0"",""0""
""fullscreenenter"",""0"",""2799""
""blur"",""9"",""109330""
""focus"",""9"",""111778""
""blur"",""9"",""112073""
""focus"",""9"",""114302""
""blur"",""9"",""114319""
""focus"",""9"",""117853""
","""event"",""trial"",""time""
""blur"",""0"",""0""
""blur"",""9"",""109330""
""blur"",""9"",""112073""
""blur"",""9"",""114319""
","""event"",""trial"",""time""
""focus"",""0"",""0""
""focus"",""9"",""111778""
""focus"",""9"",""114302""
""focus"",""9"",""117853""
","""event"",""trial"",""time""
""fullscreenenter"",""0"",""2799""
","
","3382.5","<div class='center'><p> Sometimes you’ll be shown a ship, and you will be asked if you saw this ship on a past island.</p><p> Here is an example of what you will see.</p><p><img src='run_exp/static/images/tutorial/example_recog_trial.png' height='500'></p><p><b>[Press the space bar to continue]</b></p></div>","32","","","","","","","","","","","","","","","","","","","","","","","",""
"","explain_probe_2","12","151878","0.0-12.0","""event"",""trial"",""time""
""blur"",""0"",""0""
""focus"",""0"",""0""
""fullscreenenter"",""0"",""2799""
""blur"",""9"",""109330""
""focus"",""9"",""111778""
""blur"",""9"",""112073""
""focus"",""9"",""114302""
""blur"",""9"",""114319""
""focus"",""9"",""117853""
","""event"",""trial"",""time""
""blur"",""0"",""0""
""blur"",""9"",""109330""
""blur"",""9"",""112073""
""blur"",""9"",""114319""
","""event"",""trial"",""time""
""focus"",""0"",""0""
""focus"",""9"",""111778""
""focus"",""9"",""114302""
""focus"",""9"",""117853""
","""event"",""trial"",""time""
""fullscreenenter"",""0"",""2799""
","
","null","run_exp/static/audio/clip_34_recognition_2.m4a","null","","","","","<div class='center'><p> You will press the 5, 6, 7, 8 keys on your keyboard to respond.</p><p>If you are sure you saw the ship, press <b>5</b> on your keyboard.</p><p> If you think you saw it before but aren't sure, then press <b>6</b>.</p><p> If you think you have <b>not</b> seen it before but aren't sure, then press <b>7</b>.</p><p> If you are sure you did <b>not</b> see the ship before, then press <b>8</b>.</p><p><img src='run_exp/static/images/tutorial/example_recog_trial.png' height='500'></p></div>","","","","","","","","","","","","","","","","","","",""
"","html-keyboard-response","13","153592","0.0-13.0","""event"",""trial"",""time""
""blur"",""0"",""0""
""focus"",""0"",""0""
""fullscreenenter"",""0"",""2799""
""blur"",""9"",""109330""
""focus"",""9"",""111778""
""blur"",""9"",""112073""
""focus"",""9"",""114302""
""blur"",""9"",""114319""
""focus"",""9"",""117853""
","""event"",""trial"",""time""
""blur"",""0"",""0""
""blur"",""9"",""109330""
""blur"",""9"",""112073""
""blur"",""9"",""114319""
","""event"",""trial"",""time""
""focus"",""0"",""0""
""focus"",""9"",""111778""
""focus"",""9"",""114302""
""focus"",""9"",""117853""
","""event"",""trial"",""time""
""fullscreenenter"",""0"",""2799""
","
","1713.1000000238419","<div class='center'><p> You will press the 5, 6, 7, 8 keys on your keyboard to respond.</p><p>If you are sure you saw the ship, press <b>5</b> on your keyboard.</p><p> If you think you saw it before but aren't sure, then press <b>6</b>.</p><p> If you think you have <b>not</b> seen it before but aren't sure, then press <b>7</b>.</p><p> If you are sure you did <b>not</b> see the ship before, then press <b>8</b>.</p><p><img src='run_exp/static/images/tutorial/example_recog_trial.png' height='500'></p><p><b>[Press the space bar to continue]</b></p></div>","32","","","","","","","","","","","","","","","","","","","","","","","",""
"","explain_outcome","14","170778","0.0-14.0","""event"",""trial"",""time""
""blur"",""0"",""0""
""focus"",""0"",""0""
""fullscreenenter"",""0"",""2799""
""blur"",""9"",""109330""
""focus"",""9"",""111778""
""blur"",""9"",""112073""
""focus"",""9"",""114302""
""blur"",""9"",""114319""
""focus"",""9"",""117853""
","""event"",""trial"",""time""
""blur"",""0"",""0""
""blur"",""9"",""109330""
""blur"",""9"",""112073""
""blur"",""9"",""114319""
","""event"",""trial"",""time""
""focus"",""0"",""0""
""focus"",""9"",""111778""
""focus"",""9"",""114302""
""focus"",""9"",""117853""
","""event"",""trial"",""time""
""fullscreenenter"",""0"",""2799""
","
","null","run_exp/static/audio/clip_35_recognition_3.m4a","null","","","","","<div class='center'><p> If you remember correctly, then you’ll get a gold coin like this: </p><p><img src='run_exp/static/images/tutorial/reward_small.png' height='200'></p><p>If you do not remember correctly, then you'll see a red x like this: </p><p><img src='run_exp/static/images/tutorial/reward_no.png' height='200'></p><p>Importantly, when you are shown a ship, take the time to remind yourself which island you saw it on. This will help you in the next part of the study.</p></div>","","","","","","","","","","","","","","","","","","",""
"","html-keyboard-response","15","179954","0.0-15.0","""event"",""trial"",""time""
""blur"",""0"",""0""
""focus"",""0"",""0""
""fullscreenenter"",""0"",""2799""
""blur"",""9"",""109330""
""focus"",""9"",""111778""
""blur"",""9"",""112073""
""focus"",""9"",""114302""
""blur"",""9"",""114319""
""focus"",""9"",""117853""
","""event"",""trial"",""time""
""blur"",""0"",""0""
""blur"",""9"",""109330""
""blur"",""9"",""112073""
""blur"",""9"",""114319""
","""event"",""trial"",""time""
""focus"",""0"",""0""
""focus"",""9"",""111778""
""focus"",""9"",""114302""
""focus"",""9"",""117853""
","""event"",""trial"",""time""
""fullscreenenter"",""0"",""2799""
","
","9176","<div class='center'><p> If you remember correctly, then you’ll get a gold coin like this: </p><p><img src='run_exp/static/images/tutorial/reward_small.png' height='200'></p><p>If you do not remember correctly, then you'll see a red x like this: </p><p><img src='run_exp/static/images/tutorial/reward_no.png' height='200'></p><p>Importantly, when you are shown a ship, take the time to remind yourself which island you saw it on. This will help you in the next part of the study.</p><p><b>[Press the space bar to continue]</b></p></div>","32","","","","","","","","","","","","","","","","","","","","","","","",""
"","begin_test_phase","16","195758","0.0-16.0","""event"",""trial"",""time""
""blur"",""0"",""0""
""focus"",""0"",""0""
""fullscreenenter"",""0"",""2799""
""blur"",""9"",""109330""
""focus"",""9"",""111778""
""blur"",""9"",""112073""
""focus"",""9"",""114302""
""blur"",""9"",""114319""
""focus"",""9"",""117853""
","""event"",""trial"",""time""
""blur"",""0"",""0""
""blur"",""9"",""109330""
""blur"",""9"",""112073""
""blur"",""9"",""114319""
","""event"",""trial"",""time""
""focus"",""0"",""0""
""focus"",""9"",""111778""
""focus"",""9"",""114302""
""focus"",""9"",""117853""
","""event"",""trial"",""time""
""fullscreenenter"",""0"",""2799""
","
","null","run_exp/static/audio/clip_36_begin_final.m4a","null","","","","","<div class='center'><p>Let's go over the important points again. Your job is to: </p><p>1. Pick the pirate who is best at robbing ships and will bring you back gold coins. </p><p>2. Correctly remember whether or not you saw a ship before. If you did see the ship before, remind yourself on which island you saw it. </p></div>","","","","","","","","","","","","","","","","","","",""
"","html-keyboard-response","17","204733","0.0-17.0","""event"",""trial"",""time""
""blur"",""0"",""0""
""focus"",""0"",""0""
""fullscreenenter"",""0"",""2799""
""blur"",""9"",""109330""
""focus"",""9"",""111778""
""blur"",""9"",""112073""
""focus"",""9"",""114302""
""blur"",""9"",""114319""
""focus"",""9"",""117853""
","""event"",""trial"",""time""
""blur"",""0"",""0""
""blur"",""9"",""109330""
""blur"",""9"",""112073""
""blur"",""9"",""114319""
","""event"",""trial"",""time""
""focus"",""0"",""0""
""focus"",""9"",""111778""
""focus"",""9"",""114302""
""focus"",""9"",""117853""
","""event"",""trial"",""time""
""fullscreenenter"",""0"",""2799""
","
","8956.600000023842","<div class='center'><p>Let's go over the important points again. Your job is to: </p><p>1. Pick the pirate who is best at robbing ships and will bring you back gold coins. </p><p>2. Correctly remember whether or not you saw a ship before. If you did see the ship before, remind yourself on which island you saw it. </p><p><b>[Press the space bar to continue]</b></p></div>","32","","","","","","","","","","","","","","","","","","","","","","","",""
"","do_welcome","18","208737","0.0-18.0","""event"",""trial"",""time""
""blur"",""0"",""0""
""focus"",""0"",""0""
""fullscreenenter"",""0"",""2799""
""blur"",""9"",""109330""
""focus"",""9"",""111778""
""blur"",""9"",""112073""
""focus"",""9"",""114302""
""blur"",""9"",""114319""
""focus"",""9"",""117853""
","""event"",""trial"",""time""
""blur"",""0"",""0""
""blur"",""9"",""109330""
""blur"",""9"",""112073""
""blur"",""9"",""114319""
","""event"",""trial"",""time""
""focus"",""0"",""0""
""focus"",""9"",""111778""
""focus"",""9"",""114302""
""focus"",""9"",""117853""
","""event"",""trial"",""time""
""fullscreenenter"",""0"",""2799""
","
","null","","","","","","","","null","","","","","","","","","","","","","","","","","",""
"","do_trial","19","214770","0.0-19.0-0.0","""event"",""trial"",""time""
""blur"",""0"",""0""
""focus"",""0"",""0""
""fullscreenenter"",""0"",""2799""
""blur"",""9"",""109330""
""focus"",""9"",""111778""
""blur"",""9"",""112073""
""focus"",""9"",""114302""
""blur"",""9"",""114319""
""focus"",""9"",""117853""
","""event"",""trial"",""time""
""blur"",""0"",""0""
""blur"",""9"",""109330""
""blur"",""9"",""112073""
""blur"",""9"",""114319""
","""event"",""trial"",""time""
""focus"",""0"",""0""
""focus"",""9"",""111778""
""focus"",""9"",""114302""
""focus"",""9"",""117853""
","""event"",""trial"",""time""
""fullscreenenter"",""0"",""2799""
","
","null","","","","","","","","null","0,1,1","6","blank","230","null","0.43024208728432783","0.23586856220612745","0.40403692664788166","","","","","","","","","",""
"","html-keyboard-response","20","215773","0.0-19.0-1.0","""event"",""trial"",""time""
""blur"",""0"",""0""
""focus"",""0"",""0""
""fullscreenenter"",""0"",""2799""
""blur"",""9"",""109330""
""focus"",""9"",""111778""
""blur"",""9"",""112073""
""focus"",""9"",""114302""
""blur"",""9"",""114319""
""focus"",""9"",""117853""
","""event"",""trial"",""time""
""blur"",""0"",""0""
""blur"",""9"",""109330""
""blur"",""9"",""112073""
""blur"",""9"",""114319""
","""event"",""trial"",""time""
""focus"",""0"",""0""
""focus"",""9"",""111778""
""focus"",""9"",""114302""
""focus"",""9"",""117853""
","""event"",""trial"",""time""
""fullscreenenter"",""0"",""2799""
","
","null","<p></p>","null","","","","","","","","","","","","","","","","","","","","","","","",""
"","do_trial","21","218714","0.0-20.0-0.0","""event"",""trial"",""time""
""blur"",""0"",""0""
""focus"",""0"",""0""
""fullscreenenter"",""0"",""2799""
""blur"",""9"",""109330""
""focus"",""9"",""111778""
""blur"",""9"",""112073""
""focus"",""9"",""114302""
""blur"",""9"",""114319""
""focus"",""9"",""117853""
","""event"",""trial"",""time""
""blur"",""0"",""0""
""blur"",""9"",""109330""
""blur"",""9"",""112073""
""blur"",""9"",""114319""
","""event"",""trial"",""time""
""focus"",""0"",""0""
""focus"",""9"",""111778""
""focus"",""9"",""114302""
""focus"",""9"",""117853""
","""event"",""trial"",""time""
""fullscreenenter"",""0"",""2799""
","
","412.69999998807907","","","","","","","","51","1,0,1","6","blank","231","null","0.5774656932241603","0.1979826624110283","0.3481415324302088","1","","","","","","","","",""
"","html-keyboard-response","22","219716","0.0-20.0-1.0","""event"",""trial"",""time""
""blur"",""0"",""0""
""focus"",""0"",""0""
""fullscreenenter"",""0"",""2799""
""blur"",""9"",""109330""
""focus"",""9"",""111778""
""blur"",""9"",""112073""
""focus"",""9"",""114302""
""blur"",""9"",""114319""
""focus"",""9"",""117853""
","""event"",""trial"",""time""
""blur"",""0"",""0""
""blur"",""9"",""109330""
""blur"",""9"",""112073""
""blur"",""9"",""114319""
","""event"",""trial"",""time""
""focus"",""0"",""0""
""focus"",""9"",""111778""
""focus"",""9"",""114302""
""focus"",""9"",""117853""
","""event"",""trial"",""time""
""fullscreenenter"",""0"",""2799""
","
","null","<p></p>","null","","","","","","","","","","","","","","","","","","","","","","","",""
"","do_trial","23","222682","0.0-21.0-0.0","""event"",""trial"",""time""
""blur"",""0"",""0""
""focus"",""0"",""0""
""fullscreenenter"",""0"",""2799""
""blur"",""9"",""109330""
""focus"",""9"",""111778""
""blur"",""9"",""112073""
""focus"",""9"",""114302""
""blur"",""9"",""114319""
""focus"",""9"",""117853""
","""event"",""trial"",""time""
""blur"",""0"",""0""
""blur"",""9"",""109330""
""blur"",""9"",""112073""
""blur"",""9"",""114319""
","""event"",""trial"",""time""
""focus"",""0"",""0""
""focus"",""9"",""111778""
""focus"",""9"",""114302""
""focus"",""9"",""117853""
","""event"",""trial"",""time""
""fullscreenenter"",""0"",""2799""
","
","438","","","","","","","","50","1,0,1","6","blank","232","null","0.7316188221848805","0.15292047391080935","0.3701322493054569","0","","","","","","","","",""
"","html-keyboard-response","24","223689","0.0-21.0-1.0","""event"",""trial"",""time""
""blur"",""0"",""0""
""focus"",""0"",""0""
""fullscreenenter"",""0"",""2799""
""blur"",""9"",""109330""
""focus"",""9"",""111778""
""blur"",""9"",""112073""
""focus"",""9"",""114302""
""blur"",""9"",""114319""
""focus"",""9"",""117853""
","""event"",""trial"",""time""
""blur"",""0"",""0""
""blur"",""9"",""109330""
""blur"",""9"",""112073""
""blur"",""9"",""114319""
","""event"",""trial"",""time""
""focus"",""0"",""0""
""focus"",""9"",""111778""
""focus"",""9"",""114302""
""focus"",""9"",""117853""
","""event"",""trial"",""time""
""fullscreenenter"",""0"",""2799""
","
","null","<p></p>","null","","","","","","","","","","","","","","","","","","","","","","","",""
"","do_trial","25","226297","0.0-22.0-0.0","""event"",""trial"",""time""
""blur"",""0"",""0""
""focus"",""0"",""0""
""fullscreenenter"",""0"",""2799""
""blur"",""9"",""109330""
""focus"",""9"",""111778""
""blur"",""9"",""112073""
""focus"",""9"",""114302""
""blur"",""9"",""114319""
""focus"",""9"",""117853""
","""event"",""trial"",""time""
""blur"",""0"",""0""
""blur"",""9"",""109330""
""blur"",""9"",""112073""
""blur"",""9"",""114319""
","""event"",""trial"",""time""
""focus"",""0"",""0""
""focus"",""9"",""111778""
""focus"",""9"",""114302""
""focus"",""9"",""117853""
","""event"",""trial"",""time""
""fullscreenenter"",""0"",""2799""
","
","81.40000003576279","","","","","","","","49","1,0,0","6","blank","233","null","0.6966169755776371","0.17354713856618617","0.4799724172981446","1","","","","","","","","",""
"","html-keyboard-response","26","227306","0.0-22.0-1.0","""event"",""trial"",""time""
""blur"",""0"",""0""
""focus"",""0"",""0""
""fullscreenenter"",""0"",""2799""
""blur"",""9"",""109330""
""focus"",""9"",""111778""
""blur"",""9"",""112073""
""focus"",""9"",""114302""
""blur"",""9"",""114319""
""focus"",""9"",""117853""
","""event"",""trial"",""time""
""blur"",""0"",""0""
""blur"",""9"",""109330""
""blur"",""9"",""112073""
""blur"",""9"",""114319""
","""event"",""trial"",""time""
""focus"",""0"",""0""
""focus"",""9"",""111778""
""focus"",""9"",""114302""
""focus"",""9"",""117853""
","""event"",""trial"",""time""
""fullscreenenter"",""0"",""2799""
","
","null","<p></p>","null","","","","","","","","","","","","","","","","","","","","","","","",""
"","do_trial","27","230114","0.0-23.0-0.0","""event"",""trial"",""time""
""blur"",""0"",""0""
""focus"",""0"",""0""
""fullscreenenter"",""0"",""2799""
""blur"",""9"",""109330""
""focus"",""9"",""111778""
""blur"",""9"",""112073""
""focus"",""9"",""114302""
""blur"",""9"",""114319""
""focus"",""9"",""117853""
","""event"",""trial"",""time""
""blur"",""0"",""0""
""blur"",""9"",""109330""
""blur"",""9"",""112073""
""blur"",""9"",""114319""
","""event"",""trial"",""time""
""focus"",""0"",""0""
""focus"",""9"",""111778""
""focus"",""9"",""114302""
""focus"",""9"",""117853""
","""event"",""trial"",""time""
""fullscreenenter"",""0"",""2799""
","
","273.4000000357628","","","","","","","","51","1,0,0","6","blank","234","null","0.5619786744551462","0.2868566047154581","0.35029326785620785","0","","","","","","","","",""
"","html-keyboard-response","28","231122","0.0-23.0-1.0","""event"",""trial"",""time""
""blur"",""0"",""0""
""focus"",""0"",""0""
""fullscreenenter"",""0"",""2799""
""blur"",""9"",""109330""
""focus"",""9"",""111778""
""blur"",""9"",""112073""
""focus"",""9"",""114302""
""blur"",""9"",""114319""
""focus"",""9"",""117853""
","""event"",""trial"",""time""
""blur"",""0"",""0""
""blur"",""9"",""109330""
""blur"",""9"",""112073""
""blur"",""9"",""114319""
","""event"",""trial"",""time""
""focus"",""0"",""0""
""focus"",""9"",""111778""
""focus"",""9"",""114302""
""focus"",""9"",""117853""
","""event"",""trial"",""time""
""fullscreenenter"",""0"",""2799""
","
","null","<p></p>","null","","","","","","","","","","","","","","","","","","","","","","","",""
"","do_trial","29","233807","0.0-24.0-0.0","""event"",""trial"",""time""
""blur"",""0"",""0""
""focus"",""0"",""0""
""fullscreenenter"",""0"",""2799""
""blur"",""9"",""109330""
""focus"",""9"",""111778""
""blur"",""9"",""112073""
""focus"",""9"",""114302""
""blur"",""9"",""114319""
""focus"",""9"",""117853""
","""event"",""trial"",""time""
""blur"",""0"",""0""
""blur"",""9"",""109330""
""blur"",""9"",""112073""
""blur"",""9"",""114319""
","""event"",""trial"",""time""
""focus"",""0"",""0""
""focus"",""9"",""111778""
""focus"",""9"",""114302""
""focus"",""9"",""117853""
","""event"",""trial"",""time""
""fullscreenenter"",""0"",""2799""
","
","162.69999998807907","","","","","","","","50","0,0,0","6","blank","235","null","0.5748752455471405","0.14129031147118568","0.28373779903440566","0","","","","","","","","",""
"","html-keyboard-response","30","234815","0.0-24.0-1.0","""event"",""trial"",""time""
""blur"",""0"",""0""
""focus"",""0"",""0""
""fullscreenenter"",""0"",""2799""
""blur"",""9"",""109330""
""focus"",""9"",""111778""
""blur"",""9"",""112073""
""focus"",""9"",""114302""
""blur"",""9"",""114319""
""focus"",""9"",""117853""
","""event"",""trial"",""time""
""blur"",""0"",""0""
""blur"",""9"",""109330""
""blur"",""9"",""112073""
""blur"",""9"",""114319""
","""event"",""trial"",""time""
""focus"",""0"",""0""
""focus"",""9"",""111778""
""focus"",""9"",""114302""
""focus"",""9"",""117853""
","""event"",""trial"",""time""
""fullscreenenter"",""0"",""2799""
","
","null","<p></p>","null","","","","","","","","","","","","","","","","","","","","","","","",""
"","do_trial","31","237740","0.0-25.0-0.0","""event"",""trial"",""time""
""blur"",""0"",""0""
""focus"",""0"",""0""
""fullscreenenter"",""0"",""2799""
""blur"",""9"",""109330""
""focus"",""9"",""111778""
""blur"",""9"",""112073""
""focus"",""9"",""114302""
""blur"",""9"",""114319""
""focus"",""9"",""117853""
","""event"",""trial"",""time""
""blur"",""0"",""0""
""blur"",""9"",""109330""
""blur"",""9"",""112073""
""blur"",""9"",""114319""
","""event"",""trial"",""time""
""focus"",""0"",""0""
""focus"",""9"",""111778""
""focus"",""9"",""114302""
""focus"",""9"",""117853""
","""event"",""trial"",""time""
""fullscreenenter"",""0"",""2799""
","
","397.19999998807907","","","","","","","","49","1,0,0","6","blank","236","null","0.6727785835580471","0.0992608672696085","0.37718894350224264","1","","","","","","","","",""
"","html-keyboard-response","32","238744","0.0-25.0-1.0","""event"",""trial"",""time""
""blur"",""0"",""0""
""focus"",""0"",""0""
""fullscreenenter"",""0"",""2799""
""blur"",""9"",""109330""
""focus"",""9"",""111778""
""blur"",""9"",""112073""
""focus"",""9"",""114302""
""blur"",""9"",""114319""
""focus"",""9"",""117853""
","""event"",""trial"",""time""
""blur"",""0"",""0""
""blur"",""9"",""109330""
""blur"",""9"",""112073""
""blur"",""9"",""114319""
","""event"",""trial"",""time""
""focus"",""0"",""0""
""focus"",""9"",""111778""
""focus"",""9"",""114302""
""focus"",""9"",""117853""
","""event"",""trial"",""time""
""fullscreenenter"",""0"",""2799""
","
","null","<p></p>","null","","","","","","","","","","","","","","","","","","","","","","","",""
"","do_trial","33","241511","0.0-26.0-0.0","""event"",""trial"",""time""
""blur"",""0"",""0""
""focus"",""0"",""0""
""fullscreenenter"",""0"",""2799""
""blur"",""9"",""109330""
""focus"",""9"",""111778""
""blur"",""9"",""112073""
""focus"",""9"",""114302""
""blur"",""9"",""114319""
""focus"",""9"",""117853""
","""event"",""trial"",""time""
""blur"",""0"",""0""
""blur"",""9"",""109330""
""blur"",""9"",""112073""
""blur"",""9"",""114319""
","""event"",""trial"",""time""
""focus"",""0"",""0""
""focus"",""9"",""111778""
""focus"",""9"",""114302""
""focus"",""9"",""117853""
","""event"",""trial"",""time""
""fullscreenenter"",""0"",""2799""
","
","235.89999997615814","","","","","","","","51","1,0,0","6","blank","237","null","0.6593895353068051","0.07883061973549127","0.35116602143200043","0","","","","","","","","",""
"","html-keyboard-response","34","242517","0.0-26.0-1.0","""event"",""trial"",""time""
""blur"",""0"",""0""
""focus"",""0"",""0""
""fullscreenenter"",""0"",""2799""
""blur"",""9"",""109330""
""focus"",""9"",""111778""
""blur"",""9"",""112073""
""focus"",""9"",""114302""
""blur"",""9"",""114319""
""focus"",""9"",""117853""
","""event"",""trial"",""time""
""blur"",""0"",""0""
""blur"",""9"",""109330""
""blur"",""9"",""112073""
""blur"",""9"",""114319""
","""event"",""trial"",""time""
""focus"",""0"",""0""
""focus"",""9"",""111778""
""focus"",""9"",""114302""
""focus"",""9"",""117853""
","""event"",""trial"",""time""
""fullscreenenter"",""0"",""2799""
","
","null","<p></p>","null","","","","","","","","","","","","","","","","","","","","","","","",""
"","do_trial","35","245150","0.0-27.0-0.0","""event"",""trial"",""time""
""blur"",""0"",""0""
""focus"",""0"",""0""
""fullscreenenter"",""0"",""2799""
""blur"",""9"",""109330""
""focus"",""9"",""111778""
""blur"",""9"",""112073""
""focus"",""9"",""114302""
""blur"",""9"",""114319""
""focus"",""9"",""117853""
","""event"",""trial"",""time""
""blur"",""0"",""0""
""blur"",""9"",""109330""
""blur"",""9"",""112073""
""blur"",""9"",""114319""
","""event"",""trial"",""time""
""focus"",""0"",""0""
""focus"",""9"",""111778""
""focus"",""9"",""114302""
""focus"",""9"",""117853""
","""event"",""trial"",""time""
""fullscreenenter"",""0"",""2799""
","
","112.39999997615814","","","","","","","","50","1,0,1","6","blank","238","null","0.5495524062167576","0.07117856905293121","0.34284162892258335","0","","","","","","","","",""
"","html-keyboard-response","36","246158","0.0-27.0-1.0","""event"",""trial"",""time""
""blur"",""0"",""0""
""focus"",""0"",""0""
""fullscreenenter"",""0"",""2799""
""blur"",""9"",""109330""
""focus"",""9"",""111778""
""blur"",""9"",""112073""
""focus"",""9"",""114302""
""blur"",""9"",""114319""
""focus"",""9"",""117853""
","""event"",""trial"",""time""
""blur"",""0"",""0""
""blur"",""9"",""109330""
""blur"",""9"",""112073""
""blur"",""9"",""114319""
","""event"",""trial"",""time""
""focus"",""0"",""0""
""focus"",""9"",""111778""
""focus"",""9"",""114302""
""focus"",""9"",""117853""
","""event"",""trial"",""time""
""fullscreenenter"",""0"",""2799""
","
","null","<p></p>","null","","","","","","","","","","","","","","","","","","","","","","","",""
"","do_trial","37","248870","0.0-28.0-0.0","""event"",""trial"",""time""
""blur"",""0"",""0""
""focus"",""0"",""0""
""fullscreenenter"",""0"",""2799""
""blur"",""9"",""109330""
""focus"",""9"",""111778""
""blur"",""9"",""112073""
""focus"",""9"",""114302""
""blur"",""9"",""114319""
""focus"",""9"",""117853""
","""event"",""trial"",""time""
""blur"",""0"",""0""
""blur"",""9"",""109330""
""blur"",""9"",""112073""
""blur"",""9"",""114319""
","""event"",""trial"",""time""
""focus"",""0"",""0""
""focus"",""9"",""111778""
""focus"",""9"",""114302""
""focus"",""9"",""117853""
","""event"",""trial"",""time""
""fullscreenenter"",""0"",""2799""
","
","184.89999997615814","","","","","","","","49","0,1,0","6","blank","239","null","0.6794839680924403","0.1525302846055358","0.299285015992624","0","","","","","","","","",""
"","html-keyboard-response","38","249877","0.0-28.0-1.0","""event"",""trial"",""time""
""blur"",""0"",""0""
""focus"",""0"",""0""
""fullscreenenter"",""0"",""2799""
""blur"",""9"",""109330""
""focus"",""9"",""111778""
""blur"",""9"",""112073""
""focus"",""9"",""114302""
""blur"",""9"",""114319""
""focus"",""9"",""117853""
","""event"",""trial"",""time""
""blur"",""0"",""0""
""blur"",""9"",""109330""
""blur"",""9"",""112073""
""blur"",""9"",""114319""
","""event"",""trial"",""time""
""focus"",""0"",""0""
""focus"",""9"",""111778""
""focus"",""9"",""114302""
""focus"",""9"",""117853""
","""event"",""trial"",""time""
""fullscreenenter"",""0"",""2799""
","
","null","<p></p>","null","","","","","","","","","","","","","","","","","","","","","","","",""
"","do_trial","39","252899","0.0-29.0-0.0","""event"",""trial"",""time""
""blur"",""0"",""0""
""focus"",""0"",""0""
""fullscreenenter"",""0"",""2799""
""blur"",""9"",""109330""
""focus"",""9"",""111778""
""blur"",""9"",""112073""
""focus"",""9"",""114302""
""blur"",""9"",""114319""
""focus"",""9"",""117853""
","""event"",""trial"",""time""
""blur"",""0"",""0""
""blur"",""9"",""109330""
""blur"",""9"",""112073""
""blur"",""9"",""114319""
","""event"",""trial"",""time""
""focus"",""0"",""0""
""focus"",""9"",""111778""
""focus"",""9"",""114302""
""focus"",""9"",""117853""
","""event"",""trial"",""time""
""fullscreenenter"",""0"",""2799""
","
","496.5","","","","","","","","49","1,0,1","6","blank","240","null","0.8700629403214213","0.20534023191024176","0.3855624255201011","1","","","","","","","","",""
"","html-keyboard-response","40","253905","0.0-29.0-1.0","""event"",""trial"",""time""
""blur"",""0"",""0""
""focus"",""0"",""0""
""fullscreenenter"",""0"",""2799""
""blur"",""9"",""109330""
""focus"",""9"",""111778""
""blur"",""9"",""112073""
""focus"",""9"",""114302""
""blur"",""9"",""114319""
""focus"",""9"",""117853""
","""event"",""trial"",""time""
""blur"",""0"",""0""
""blur"",""9"",""109330""
""blur"",""9"",""112073""
""blur"",""9"",""114319""
","""event"",""trial"",""time""
""focus"",""0"",""0""
""focus"",""9"",""111778""
""focus"",""9"",""114302""
""focus"",""9"",""117853""
","""event"",""trial"",""time""
""fullscreenenter"",""0"",""2799""
","
","null","<p></p>","null","","","","","","","","","","","","","","","","","","","","","","","",""
"","do_trial","41","256699","0.0-30.0-0.0","""event"",""trial"",""time""
""blur"",""0"",""0""
""focus"",""0"",""0""
""fullscreenenter"",""0"",""2799""
""blur"",""9"",""109330""
""focus"",""9"",""111778""
""blur"",""9"",""112073""
""focus"",""9"",""114302""
""blur"",""9"",""114319""
""focus"",""9"",""117853""
","""event"",""trial"",""time""
""blur"",""0"",""0""
""blur"",""9"",""109330""
""blur"",""9"",""112073""
""blur"",""9"",""114319""
","""event"",""trial"",""time""
""focus"",""0"",""0""
""focus"",""9"",""111778""
""focus"",""9"",""114302""
""focus"",""9"",""117853""
","""event"",""trial"",""time""
""fullscreenenter"",""0"",""2799""
","
","268.39999997615814","","","","","","","","50","0,0,0","6","blank","241","null","0.9126312310592476","0.2161550812713518","0.3504093958089571","0","","","","","","","","",""
"","html-keyboard-response","42","257701","0.0-30.0-1.0","""event"",""trial"",""time""
""blur"",""0"",""0""
""focus"",""0"",""0""
""fullscreenenter"",""0"",""2799""
""blur"",""9"",""109330""
""focus"",""9"",""111778""
""blur"",""9"",""112073""
""focus"",""9"",""114302""
""blur"",""9"",""114319""
""focus"",""9"",""117853""
","""event"",""trial"",""time""
""blur"",""0"",""0""
""blur"",""9"",""109330""
""blur"",""9"",""112073""
""blur"",""9"",""114319""
","""event"",""trial"",""time""
""focus"",""0"",""0""
""focus"",""9"",""111778""
""focus"",""9"",""114302""
""focus"",""9"",""117853""
","""event"",""trial"",""time""
""fullscreenenter"",""0"",""2799""
","
","null","<p></p>","null","","","","","","","","","","","","","","","","","","","","","","","",""
"","do_trial","43","260450","0.0-31.0-0.0","""event"",""trial"",""time""
""blur"",""0"",""0""
""focus"",""0"",""0""
""fullscreenenter"",""0"",""2799""
""blur"",""9"",""109330""
""focus"",""9"",""111778""
""blur"",""9"",""112073""
""focus"",""9"",""114302""
""blur"",""9"",""114319""
""focus"",""9"",""117853""
","""event"",""trial"",""time""
""blur"",""0"",""0""
""blur"",""9"",""109330""
""blur"",""9"",""112073""
""blur"",""9"",""114319""
","""event"",""trial"",""time""
""focus"",""0"",""0""
""focus"",""9"",""111778""
""focus"",""9"",""114302""
""focus"",""9"",""117853""
","""event"",""trial"",""time""
""fullscreenenter"",""0"",""2799""
","
","224.4000000357628","","","","","","","","51","1,0,0","6","blank","242","null","0.6683590136582942","0.35960018711983643","0.10210487072973902","0","","","","","","","","",""
"","html-keyboard-response","44","261452","0.0-31.0-1.0","""event"",""trial"",""time""
""blur"",""0"",""0""
""focus"",""0"",""0""
""fullscreenenter"",""0"",""2799""
""blur"",""9"",""109330""
""focus"",""9"",""111778""
""blur"",""9"",""112073""
""focus"",""9"",""114302""
""blur"",""9"",""114319""
""focus"",""9"",""117853""
","""event"",""trial"",""time""
""blur"",""0"",""0""
""blur"",""9"",""109330""
""blur"",""9"",""112073""
""blur"",""9"",""114319""
","""event"",""trial"",""time""
""focus"",""0"",""0""
""focus"",""9"",""111778""
""focus"",""9"",""114302""
""focus"",""9"",""117853""
","""event"",""trial"",""time""
""fullscreenenter"",""0"",""2799""
","
","null","<p></p>","null","","","","","","","","","","","","","","","","","","","","","","","",""
"","do_trial","45","264203","0.0-32.0-0.0","""event"",""trial"",""time""
""blur"",""0"",""0""
""focus"",""0"",""0""
""fullscreenenter"",""0"",""2799""
""blur"",""9"",""109330""
""focus"",""9"",""111778""
""blur"",""9"",""112073""
""focus"",""9"",""114302""
""blur"",""9"",""114319""
""focus"",""9"",""117853""
","""event"",""trial"",""time""
""blur"",""0"",""0""
""blur"",""9"",""109330""
""blur"",""9"",""112073""
""blur"",""9"",""114319""
","""event"",""trial"",""time""
""focus"",""0"",""0""
""focus"",""9"",""111778""
""focus"",""9"",""114302""
""focus"",""9"",""117853""
","""event"",""trial"",""time""
""fullscreenenter"",""0"",""2799""
","
","226.80000001192093","","","","","","","","49","1,1,0","6","blank","243","null","0.5813306704485203","0.542889664909491","0.10006332332751526","1","","","","","","","","",""
"","html-keyboard-response","46","265211","0.0-32.0-1.0","""event"",""trial"",""time""
""blur"",""0"",""0""
""focus"",""0"",""0""
""fullscreenenter"",""0"",""2799""
""blur"",""9"",""109330""
""focus"",""9"",""111778""
""blur"",""9"",""112073""
""focus"",""9"",""114302""
""blur"",""9"",""114319""
""focus"",""9"",""117853""
","""event"",""trial"",""time""
""blur"",""0"",""0""
""blur"",""9"",""109330""
""blur"",""9"",""112073""
""blur"",""9"",""114319""
","""event"",""trial"",""time""
""focus"",""0"",""0""
""focus"",""9"",""111778""
""focus"",""9"",""114302""
""focus"",""9"",""117853""
","""event"",""trial"",""time""
""fullscreenenter"",""0"",""2799""
","
","null","<p></p>","null","","","","","","","","","","","","","","","","","","","","","","","",""
"","do_trial","47","267843","0.0-33.0-0.0","""event"",""trial"",""time""
""blur"",""0"",""0""
""focus"",""0"",""0""
""fullscreenenter"",""0"",""2799""
""blur"",""9"",""109330""
""focus"",""9"",""111778""
""blur"",""9"",""112073""
""focus"",""9"",""114302""
""blur"",""9"",""114319""
""focus"",""9"",""117853""
","""event"",""trial"",""time""
""blur"",""0"",""0""
""blur"",""9"",""109330""
""blur"",""9"",""112073""
""blur"",""9"",""114319""
","""event"",""trial"",""time""
""focus"",""0"",""0""
""focus"",""9"",""111778""
""focus"",""9"",""114302""
""focus"",""9"",""117853""
","""event"",""trial"",""time""
""fullscreenenter"",""0"",""2799""
","
","100.10000002384186","","","","","","","","49","0,1,0","6","blank","244","null","0.491083762802055","0.628362414985485","0.10436067248584063","0","","","","","","","","",""
"","html-keyboard-response","48","268851","0.0-33.0-1.0","""event"",""trial"",""time""
""blur"",""0"",""0""
""focus"",""0"",""0""
""fullscreenenter"",""0"",""2799""
""blur"",""9"",""109330""
""focus"",""9"",""111778""
""blur"",""9"",""112073""
""focus"",""9"",""114302""
""blur"",""9"",""114319""
""focus"",""9"",""117853""
","""event"",""trial"",""time""
""blur"",""0"",""0""
""blur"",""9"",""109330""
""blur"",""9"",""112073""
""blur"",""9"",""114319""
","""event"",""trial"",""time""
""focus"",""0"",""0""
""focus"",""9"",""111778""
""focus"",""9"",""114302""
""focus"",""9"",""117853""
","""event"",""trial"",""time""
""fullscreenenter"",""0"",""2799""
","
","null","<p></p>","null","","","","","","","","","","","","","","","","","","","","","","","",""
"","do_trial","49","271672","0.0-34.0-0.0","""event"",""trial"",""time""
""blur"",""0"",""0""
""focus"",""0"",""0""
""fullscreenenter"",""0"",""2799""
""blur"",""9"",""109330""
""focus"",""9"",""111778""
""blur"",""9"",""112073""
""focus"",""9"",""114302""
""blur"",""9"",""114319""
""focus"",""9"",""117853""
","""event"",""trial"",""time""
""blur"",""0"",""0""
""blur"",""9"",""109330""
""blur"",""9"",""112073""
""blur"",""9"",""114319""
","""event"",""trial"",""time""
""focus"",""0"",""0""
""focus"",""9"",""111778""
""focus"",""9"",""114302""
""focus"",""9"",""117853""
","""event"",""trial"",""time""
""fullscreenenter"",""0"",""2799""
","
","300.89999997615814","","","","","","","","49","0,0,0","6","blank","245","null","0.49656228251440937","0.53199391459535","0.10702280653513793","0","","","","","","","","",""
"","html-keyboard-response","50","272678","0.0-34.0-1.0","""event"",""trial"",""time""
""blur"",""0"",""0""
""focus"",""0"",""0""
""fullscreenenter"",""0"",""2799""
""blur"",""9"",""109330""
""focus"",""9"",""111778""
""blur"",""9"",""112073""
""focus"",""9"",""114302""
""blur"",""9"",""114319""
""focus"",""9"",""117853""
","""event"",""trial"",""time""
""blur"",""0"",""0""
""blur"",""9"",""109330""
""blur"",""9"",""112073""
""blur"",""9"",""114319""
","""event"",""trial"",""time""
""focus"",""0"",""0""
""focus"",""9"",""111778""
""focus"",""9"",""114302""
""focus"",""9"",""117853""
","""event"",""trial"",""time""
""fullscreenenter"",""0"",""2799""
","
","null","<p></p>","null","","","","","","","","","","","","","","","","","","","","","","","",""
"","do_recog","51","278688","0.0-35.0-0.0","""event"",""trial"",""time""
""blur"",""0"",""0""
""focus"",""0"",""0""
""fullscreenenter"",""0"",""2799""
""blur"",""9"",""109330""
""focus"",""9"",""111778""
""blur"",""9"",""112073""
""focus"",""9"",""114302""
""blur"",""9"",""114319""
""focus"",""9"",""117853""
","""event"",""trial"",""time""
""blur"",""0"",""0""
""blur"",""9"",""109330""
""blur"",""9"",""112073""
""blur"",""9"",""114319""
","""event"",""trial"",""time""
""focus"",""0"",""0""
""focus"",""9"",""111778""
""focus"",""9"",""114302""
""focus"",""9"",""117853""
","""event"",""trial"",""time""
""fullscreenenter"",""0"",""2799""
","
","null","","","","","","","","null","","","","246","probe-08","","","","","1","[object Object]","198","4","0","","","",""
"","html-keyboard-response","52","279694","0.0-35.0-1.0","""event"",""trial"",""time""
""blur"",""0"",""0""
""focus"",""0"",""0""
""fullscreenenter"",""0"",""2799""
""blur"",""9"",""109330""
""focus"",""9"",""111778""
""blur"",""9"",""112073""
""focus"",""9"",""114302""
""blur"",""9"",""114319""
""focus"",""9"",""117853""
","""event"",""trial"",""time""
""blur"",""0"",""0""
""blur"",""9"",""109330""
""blur"",""9"",""112073""
""blur"",""9"",""114319""
","""event"",""trial"",""time""
""focus"",""0"",""0""
""focus"",""9"",""111778""
""focus"",""9"",""114302""
""focus"",""9"",""117853""
","""event"",""trial"",""time""
""fullscreenenter"",""0"",""2799""
","
","null","<p></p>","null","","","","","","","","","","","","","","","","","","","","","","","",""
"","do_trial","53","282938","0.0-36.0-0.0","""event"",""trial"",""time""
""blur"",""0"",""0""
""focus"",""0"",""0""
""fullscreenenter"",""0"",""2799""
""blur"",""9"",""109330""
""focus"",""9"",""111778""
""blur"",""9"",""112073""
""focus"",""9"",""114302""
""blur"",""9"",""114319""
""focus"",""9"",""117853""
","""event"",""trial"",""time""
""blur"",""0"",""0""
""blur"",""9"",""109330""
""blur"",""9"",""112073""
""blur"",""9"",""114319""
","""event"",""trial"",""time""
""focus"",""0"",""0""
""focus"",""9"",""111778""
""focus"",""9"",""114302""
""focus"",""9"",""117853""
","""event"",""trial"",""time""
""fullscreenenter"",""0"",""2799""
","
","724.4000000357628","","","","","","","","49","0,1,0","6","blank","247","null","0.38821946367999494","0.5889135638656788","0.055709471123806954","0","","","","","","","","",""
"","html-keyboard-response","54","283947","0.0-36.0-1.0","""event"",""trial"",""time""
""blur"",""0"",""0""
""focus"",""0"",""0""
""fullscreenenter"",""0"",""2799""
""blur"",""9"",""109330""
""focus"",""9"",""111778""
""blur"",""9"",""112073""
""focus"",""9"",""114302""
""blur"",""9"",""114319""
""focus"",""9"",""117853""
","""event"",""trial"",""time""
""blur"",""0"",""0""
""blur"",""9"",""109330""
""blur"",""9"",""112073""
""blur"",""9"",""114319""
","""event"",""trial"",""time""
""focus"",""0"",""0""
""focus"",""9"",""111778""
""focus"",""9"",""114302""
""focus"",""9"",""117853""
","""event"",""trial"",""time""
""fullscreenenter"",""0"",""2799""
","
","null","<p></p>","null","","","","","","","","","","","","","","","","","","","","","","","",""
"","do_trial","55","286551","0.0-37.0-0.0","""event"",""trial"",""time""
""blur"",""0"",""0""
""focus"",""0"",""0""
""fullscreenenter"",""0"",""2799""
""blur"",""9"",""109330""
""focus"",""9"",""111778""
""blur"",""9"",""112073""
""focus"",""9"",""114302""
""blur"",""9"",""114319""
""focus"",""9"",""117853""
","""event"",""trial"",""time""
""blur"",""0"",""0""
""blur"",""9"",""109330""
""blur"",""9"",""112073""
""blur"",""9"",""114319""
","""event"",""trial"",""time""
""focus"",""0"",""0""
""focus"",""9"",""111778""
""focus"",""9"",""114302""
""focus"",""9"",""117853""
","""event"",""trial"",""time""
""fullscreenenter"",""0"",""2799""
","
","70.09999996423721","","","","","","","","49","0,0,0","6","blank","248","null","0.29598082205951765","0.6169622820394186","0.07435959422103011","0","","","","","","","","",""
"","html-keyboard-response","56","287560","0.0-37.0-1.0","""event"",""trial"",""time""
""blur"",""0"",""0""
""focus"",""0"",""0""
""fullscreenenter"",""0"",""2799""
""blur"",""9"",""109330""
""focus"",""9"",""111778""
""blur"",""9"",""112073""
""focus"",""9"",""114302""
""blur"",""9"",""114319""
""focus"",""9"",""117853""
","""event"",""trial"",""time""
""blur"",""0"",""0""
""blur"",""9"",""109330""
""blur"",""9"",""112073""
""blur"",""9"",""114319""
","""event"",""trial"",""time""
""focus"",""0"",""0""
""focus"",""9"",""111778""
""focus"",""9"",""114302""
""focus"",""9"",""117853""
","""event"",""trial"",""time""
""fullscreenenter"",""0"",""2799""
","
","null","<p></p>","null","","","","","","","","","","","","","","","","","","","","","","","",""
"","do_trial","57","290606","0.0-38.0-0.0","""event"",""trial"",""time""
""blur"",""0"",""0""
""focus"",""0"",""0""
""fullscreenenter"",""0"",""2799""
""blur"",""9"",""109330""
""focus"",""9"",""111778""
""blur"",""9"",""112073""
""focus"",""9"",""114302""
""blur"",""9"",""114319""
""focus"",""9"",""117853""
","""event"",""trial"",""time""
""blur"",""0"",""0""
""blur"",""9"",""109330""
""blur"",""9"",""112073""
""blur"",""9"",""114319""
","""event"",""trial"",""time""
""focus"",""0"",""0""
""focus"",""9"",""111778""
""focus"",""9"",""114302""
""focus"",""9"",""117853""
","""event"",""trial"",""time""
""fullscreenenter"",""0"",""2799""
","
","523.4000000357628","","","","","","","","49","1,1,0","6","blank","249","null","0.24523151471092378","0.5875676780432483","0.2428271275694469","1","","","","","","","","",""
"","html-keyboard-response","58","291614","0.0-38.0-1.0","""event"",""trial"",""time""
""blur"",""0"",""0""
""focus"",""0"",""0""
""fullscreenenter"",""0"",""2799""
""blur"",""9"",""109330""
""focus"",""9"",""111778""
""blur"",""9"",""112073""
""focus"",""9"",""114302""
""blur"",""9"",""114319""
""focus"",""9"",""117853""
","""event"",""trial"",""time""
""blur"",""0"",""0""
""blur"",""9"",""109330""
""blur"",""9"",""112073""
""blur"",""9"",""114319""
","""event"",""trial"",""time""
""focus"",""0"",""0""
""focus"",""9"",""111778""
""focus"",""9"",""114302""
""focus"",""9"",""117853""
","""event"",""trial"",""time""
""fullscreenenter"",""0"",""2799""
","
","null","<p></p>","null","","","","","","","","","","","","","","","","","","","","","","","",""
"","do_trial","59","294343","0.0-39.0-0.0","""event"",""trial"",""time""
""blur"",""0"",""0""
""focus"",""0"",""0""
""fullscreenenter"",""0"",""2799""
""blur"",""9"",""109330""
""focus"",""9"",""111778""
""blur"",""9"",""112073""
""focus"",""9"",""114302""
""blur"",""9"",""114319""
""focus"",""9"",""117853""
","""event"",""trial"",""time""
""blur"",""0"",""0""
""blur"",""9"",""109330""
""blur"",""9"",""112073""
""blur"",""9"",""114319""
","""event"",""trial"",""time""
""focus"",""0"",""0""
""focus"",""9"",""111778""
""focus"",""9"",""114302""
""focus"",""9"",""117853""
","""event"",""trial"",""time""
""fullscreenenter"",""0"",""2799""
","
","194.89999997615814","","","","","","","","49","0,0,1","6","blank","250","null","0.24838780683290473","0.6812425539595327","0.19578964048630332","0","","","","","","","","",""
"","html-keyboard-response","60","295349","0.0-39.0-1.0","""event"",""trial"",""time""
""blur"",""0"",""0""
""focus"",""0"",""0""
""fullscreenenter"",""0"",""2799""
""blur"",""9"",""109330""
""focus"",""9"",""111778""
""blur"",""9"",""112073""
""focus"",""9"",""114302""
""blur"",""9"",""114319""
""focus"",""9"",""117853""
","""event"",""trial"",""time""
""blur"",""0"",""0""
""blur"",""9"",""109330""
""blur"",""9"",""112073""
""blur"",""9"",""114319""
","""event"",""trial"",""time""
""focus"",""0"",""0""
""focus"",""9"",""111778""
""focus"",""9"",""114302""
""focus"",""9"",""117853""
","""event"",""trial"",""time""
""fullscreenenter"",""0"",""2799""
","
","null","<p></p>","null","","","","","","","","","","","","","","","","","","","","","","","",""
"","do_recog","61","298894","0.0-40.0-0.0","""event"",""trial"",""time""
""blur"",""0"",""0""
""focus"",""0"",""0""
""fullscreenenter"",""0"",""2799""
""blur"",""9"",""109330""
""focus"",""9"",""111778""
""blur"",""9"",""112073""
""focus"",""9"",""114302""
""blur"",""9"",""114319""
""focus"",""9"",""117853""
","""event"",""trial"",""time""
""blur"",""0"",""0""
""blur"",""9"",""109330""
""blur"",""9"",""112073""
""blur"",""9"",""114319""
","""event"",""trial"",""time""
""focus"",""0"",""0""
""focus"",""9"",""111778""
""focus"",""9"",""114302""
""focus"",""9"",""117853""
","""event"",""trial"",""time""
""fullscreenenter"",""0"",""2799""
","
","2038.6000000238419","","","","","","","","55","","","","251","probe-129","","","","","1","[object Object]","190","4","0","","","",""
"","html-keyboard-response","62","299900","0.0-40.0-1.0","""event"",""trial"",""time""
""blur"",""0"",""0""
""focus"",""0"",""0""
""fullscreenenter"",""0"",""2799""
""blur"",""9"",""109330""
""focus"",""9"",""111778""
""blur"",""9"",""112073""
""focus"",""9"",""114302""
""blur"",""9"",""114319""
""focus"",""9"",""117853""
","""event"",""trial"",""time""
""blur"",""0"",""0""
""blur"",""9"",""109330""
""blur"",""9"",""112073""
""blur"",""9"",""114319""
","""event"",""trial"",""time""
""focus"",""0"",""0""
""focus"",""9"",""111778""
""focus"",""9"",""114302""
""focus"",""9"",""117853""
","""event"",""trial"",""time""
""fullscreenenter"",""0"",""2799""
","
","null","<p></p>","null","","","","","","","","","","","","","","","","","","","","","","","",""
"","do_trial","63","303292","0.0-41.0-0.0","""event"",""trial"",""time""
""blur"",""0"",""0""
""focus"",""0"",""0""
""fullscreenenter"",""0"",""2799""
""blur"",""9"",""109330""
""focus"",""9"",""111778""
""blur"",""9"",""112073""
""focus"",""9"",""114302""
""blur"",""9"",""114319""
""focus"",""9"",""117853""
","""event"",""trial"",""time""
""blur"",""0"",""0""
""blur"",""9"",""109330""
""blur"",""9"",""112073""
""blur"",""9"",""114319""
","""event"",""trial"",""time""
""focus"",""0"",""0""
""focus"",""9"",""111778""
""focus"",""9"",""114302""
""focus"",""9"",""117853""
","""event"",""trial"",""time""
""fullscreenenter"",""0"",""2799""
","
","869.6999999880791","","","","","","","","51","0,1,0","6","blank","252","null","0.19312394523978987","0.6278111150495918","0.06542386595737806","0","","","","","","","","",""
"","html-keyboard-response","64","304298","0.0-41.0-1.0","""event"",""trial"",""time""
""blur"",""0"",""0""
""focus"",""0"",""0""
""fullscreenenter"",""0"",""2799""
""blur"",""9"",""109330""
""focus"",""9"",""111778""
""blur"",""9"",""112073""
""focus"",""9"",""114302""
""blur"",""9"",""114319""
""focus"",""9"",""117853""
","""event"",""trial"",""time""
""blur"",""0"",""0""
""blur"",""9"",""109330""
""blur"",""9"",""112073""
""blur"",""9"",""114319""
","""event"",""trial"",""time""
""focus"",""0"",""0""
""focus"",""9"",""111778""
""focus"",""9"",""114302""
""focus"",""9"",""117853""
","""event"",""trial"",""time""
""fullscreenenter"",""0"",""2799""
","
","null","<p></p>","null","","","","","","","","","","","","","","","","","","","","","","","",""
"","do_recog","65","307779","0.0-42.0-0.0","""event"",""trial"",""time""
""blur"",""0"",""0""
""focus"",""0"",""0""
""fullscreenenter"",""0"",""2799""
""blur"",""9"",""109330""
""focus"",""9"",""111778""
""blur"",""9"",""112073""
""focus"",""9"",""114302""
""blur"",""9"",""114319""
""focus"",""9"",""117853""
","""event"",""trial"",""time""
""blur"",""0"",""0""
""blur"",""9"",""109330""
""blur"",""9"",""112073""
""blur"",""9"",""114319""
","""event"",""trial"",""time""
""focus"",""0"",""0""
""focus"",""9"",""111778""
""focus"",""9"",""114302""
""focus"",""9"",""117853""
","""event"",""trial"",""time""
""fullscreenenter"",""0"",""2799""
","
","1971.2999999523163","","","","","","","","53","","","","253","probe-161","","","","","1","[object Object]","195","4","1","","","",""
"","html-keyboard-response","66","308783","0.0-42.0-1.0","""event"",""trial"",""time""
""blur"",""0"",""0""
""focus"",""0"",""0""
""fullscreenenter"",""0"",""2799""
""blur"",""9"",""109330""
""focus"",""9"",""111778""
""blur"",""9"",""112073""
""focus"",""9"",""114302""
""blur"",""9"",""114319""
""focus"",""9"",""117853""
","""event"",""trial"",""time""
""blur"",""0"",""0""
""blur"",""9"",""109330""
""blur"",""9"",""112073""
""blur"",""9"",""114319""
","""event"",""trial"",""time""
""focus"",""0"",""0""
""focus"",""9"",""111778""
""focus"",""9"",""114302""
""focus"",""9"",""117853""
","""event"",""trial"",""time""
""fullscreenenter"",""0"",""2799""
","
","null","<p></p>","null","","","","","","","","","","","","","","","","","","","","","","","",""
"","do_trial","67","311720","0.0-43.0-0.0","""event"",""trial"",""time""
""blur"",""0"",""0""
""focus"",""0"",""0""
""fullscreenenter"",""0"",""2799""
""blur"",""9"",""109330""
""focus"",""9"",""111778""
""blur"",""9"",""112073""
""focus"",""9"",""114302""
""blur"",""9"",""114319""
""focus"",""9"",""117853""
","""event"",""trial"",""time""
""blur"",""0"",""0""
""blur"",""9"",""109330""
""blur"",""9"",""112073""
""blur"",""9"",""114319""
","""event"",""trial"",""time""
""focus"",""0"",""0""
""focus"",""9"",""111778""
""focus"",""9"",""114302""
""focus"",""9"",""117853""
","""event"",""trial"",""time""
""fullscreenenter"",""0"",""2799""
","
","412.39999997615814","","","","","","","","49","1,0,0","6","blank","254","null","0.2411272158352901","0.5492870886223268","0.10669288831852201","1","","","","","","","","",""
"","html-keyboard-response","68","312728","0.0-43.0-1.0","""event"",""trial"",""time""
""blur"",""0"",""0""
""focus"",""0"",""0""
""fullscreenenter"",""0"",""2799""
""blur"",""9"",""109330""
""focus"",""9"",""111778""
""blur"",""9"",""112073""
""focus"",""9"",""114302""
""blur"",""9"",""114319""
""focus"",""9"",""117853""
","""event"",""trial"",""time""
""blur"",""0"",""0""
""blur"",""9"",""109330""
""blur"",""9"",""112073""
""blur"",""9"",""114319""
","""event"",""trial"",""time""
""focus"",""0"",""0""
""focus"",""9"",""111778""
""focus"",""9"",""114302""
""focus"",""9"",""117853""
","""event"",""trial"",""time""
""fullscreenenter"",""0"",""2799""
","
","null","<p></p>","null","","","","","","","","","","","","","","","","","","","","","","","",""
"","do_recog","69","316562","0.0-44.0-0.0","""event"",""trial"",""time""
""blur"",""0"",""0""
""focus"",""0"",""0""
""fullscreenenter"",""0"",""2799""
""blur"",""9"",""109330""
""focus"",""9"",""111778""
""blur"",""9"",""112073""
""focus"",""9"",""114302""
""blur"",""9"",""114319""
""focus"",""9"",""117853""
","""event"",""trial"",""time""
""blur"",""0"",""0""
""blur"",""9"",""109330""
""blur"",""9"",""112073""
""blur"",""9"",""114319""
","""event"",""trial"",""time""
""focus"",""0"",""0""
""focus"",""9"",""111778""
""focus"",""9"",""114302""
""focus"",""9"",""117853""
","""event"",""trial"",""time""
""fullscreenenter"",""0"",""2799""
","
","2326.199999988079","","","","","","","","55","","","","255","probe-240","","","","","0","[object Object]","null","null","1","","","",""
"","html-keyboard-response","70","317568","0.0-44.0-1.0","""event"",""trial"",""time""
""blur"",""0"",""0""
""focus"",""0"",""0""
""fullscreenenter"",""0"",""2799""
""blur"",""9"",""109330""
""focus"",""9"",""111778""
""blur"",""9"",""112073""
""focus"",""9"",""114302""
""blur"",""9"",""114319""
""focus"",""9"",""117853""
","""event"",""trial"",""time""
""blur"",""0"",""0""
""blur"",""9"",""109330""
""blur"",""9"",""112073""
""blur"",""9"",""114319""
","""event"",""trial"",""time""
""focus"",""0"",""0""
""focus"",""9"",""111778""
""focus"",""9"",""114302""
""focus"",""9"",""117853""
","""event"",""trial"",""time""
""fullscreenenter"",""0"",""2799""
","
","null","<p></p>","null","","","","","","","","","","","","","","","","","","","","","","","",""
"","do_trial","71","320890","0.0-45.0-0.0","""event"",""trial"",""time""
""blur"",""0"",""0""
""focus"",""0"",""0""
""fullscreenenter"",""0"",""2799""
""blur"",""9"",""109330""
""focus"",""9"",""111778""
""blur"",""9"",""112073""
""focus"",""9"",""114302""
""blur"",""9"",""114319""
""focus"",""9"",""117853""
","""event"",""trial"",""time""
""blur"",""0"",""0""
""blur"",""9"",""109330""
""blur"",""9"",""112073""
""blur"",""9"",""114319""
","""event"",""trial"",""time""
""focus"",""0"",""0""
""focus"",""9"",""111778""
""focus"",""9"",""114302""
""focus"",""9"",""117853""
","""event"",""trial"",""time""
""fullscreenenter"",""0"",""2799""
","
","796","","","","","","","","49","0,1,0","6","blank","256","null","0.2789255671766943","0.5790683580105793","0.1939930138509161","0","","","","","","","","",""
"","html-keyboard-response","72","321898","0.0-45.0-1.0","""event"",""trial"",""time""
""blur"",""0"",""0""
""focus"",""0"",""0""
""fullscreenenter"",""0"",""2799""
""blur"",""9"",""109330""
""focus"",""9"",""111778""
""blur"",""9"",""112073""
""focus"",""9"",""114302""
""blur"",""9"",""114319""
""focus"",""9"",""117853""
","""event"",""trial"",""time""
""blur"",""0"",""0""
""blur"",""9"",""109330""
""blur"",""9"",""112073""
""blur"",""9"",""114319""
","""event"",""trial"",""time""
""focus"",""0"",""0""
""focus"",""9"",""111778""
""focus"",""9"",""114302""
""focus"",""9"",""117853""
","""event"",""trial"",""time""
""fullscreenenter"",""0"",""2799""
","
","null","<p></p>","null","","","","","","","","","","","","","","","","","","","","","","","",""
"","do_recog","73","325117","0.0-46.0-0.0","""event"",""trial"",""time""
""blur"",""0"",""0""
""focus"",""0"",""0""
""fullscreenenter"",""0"",""2799""
""blur"",""9"",""109330""
""focus"",""9"",""111778""
""blur"",""9"",""112073""
""focus"",""9"",""114302""
""blur"",""9"",""114319""
""focus"",""9"",""117853""
","""event"",""trial"",""time""
""blur"",""0"",""0""
""blur"",""9"",""109330""
""blur"",""9"",""112073""
""blur"",""9"",""114319""
","""event"",""trial"",""time""
""focus"",""0"",""0""
""focus"",""9"",""111778""
""focus"",""9"",""114302""
""focus"",""9"",""117853""
","""event"",""trial"",""time""
""fullscreenenter"",""0"",""2799""
","
","1708.5","","","","","","","","55","","","","257","probe-239","","","","","0","[object Object]","null","null","1","","","",""
"","html-keyboard-response","74","326123","0.0-46.0-1.0","""event"",""trial"",""time""
""blur"",""0"",""0""
""focus"",""0"",""0""
""fullscreenenter"",""0"",""2799""
""blur"",""9"",""109330""
""focus"",""9"",""111778""
""blur"",""9"",""112073""
""focus"",""9"",""114302""
""blur"",""9"",""114319""
""focus"",""9"",""117853""
","""event"",""trial"",""time""
""blur"",""0"",""0""
""blur"",""9"",""109330""
""blur"",""9"",""112073""
""blur"",""9"",""114319""
","""event"",""trial"",""time""
""focus"",""0"",""0""
""focus"",""9"",""111778""
""focus"",""9"",""114302""
""focus"",""9"",""117853""
","""event"",""trial"",""time""
""fullscreenenter"",""0"",""2799""
","
","null","<p></p>","null","","","","","","","","","","","","","","","","","","","","","","","",""
"","do_trial","75","329244","0.0-47.0-0.0","""event"",""trial"",""time""
""blur"",""0"",""0""
""focus"",""0"",""0""
""fullscreenenter"",""0"",""2799""
""blur"",""9"",""109330""
""focus"",""9"",""111778""
""blur"",""9"",""112073""
""focus"",""9"",""114302""
""blur"",""9"",""114319""
""focus"",""9"",""117853""
","""event"",""trial"",""time""
""blur"",""0"",""0""
""blur"",""9"",""109330""
""blur"",""9"",""112073""
""blur"",""9"",""114319""
","""event"",""trial"",""time""
""focus"",""0"",""0""
""focus"",""9"",""111778""
""focus"",""9"",""114302""
""focus"",""9"",""117853""
","""event"",""trial"",""time""
""fullscreenenter"",""0"",""2799""
","
","585.4000000357628","","","","","","","","51","1,1,1","6","blank","258","null","0.3752134526299013","0.5276466262440997","0.06675820831299985","1","","","","","","","","",""
"","html-keyboard-response","76","330249","0.0-47.0-1.0","""event"",""trial"",""time""
""blur"",""0"",""0""
""focus"",""0"",""0""
""fullscreenenter"",""0"",""2799""
""blur"",""9"",""109330""
""focus"",""9"",""111778""
""blur"",""9"",""112073""
""focus"",""9"",""114302""
""blur"",""9"",""114319""
""focus"",""9"",""117853""
","""event"",""trial"",""time""
""blur"",""0"",""0""
""blur"",""9"",""109330""
""blur"",""9"",""112073""
""blur"",""9"",""114319""
","""event"",""trial"",""time""
""focus"",""0"",""0""
""focus"",""9"",""111778""
""focus"",""9"",""114302""
""focus"",""9"",""117853""
","""event"",""trial"",""time""
""fullscreenenter"",""0"",""2799""
","
","null","<p></p>","null","","","","","","","","","","","","","","","","","","","","","","","",""
"","do_trial","77","333041","0.0-48.0-0.0","""event"",""trial"",""time""
""blur"",""0"",""0""
""focus"",""0"",""0""
""fullscreenenter"",""0"",""2799""
""blur"",""9"",""109330""
""focus"",""9"",""111778""
""blur"",""9"",""112073""
""focus"",""9"",""114302""
""blur"",""9"",""114319""
""focus"",""9"",""117853""
","""event"",""trial"",""time""
""blur"",""0"",""0""
""blur"",""9"",""109330""
""blur"",""9"",""112073""
""blur"",""9"",""114319""
","""event"",""trial"",""time""
""focus"",""0"",""0""
""focus"",""9"",""111778""
""focus"",""9"",""114302""
""focus"",""9"",""117853""
","""event"",""trial"",""time""
""fullscreenenter"",""0"",""2799""
","
","269","","","","","","","","50","0,1,0","6","blank","259","null","0.3416033709941323","0.5579553283015102","0.06646365021759519","1","","","","","","","","",""
"","html-keyboard-response","78","334043","0.0-48.0-1.0","""event"",""trial"",""time""
""blur"",""0"",""0""
""focus"",""0"",""0""
""fullscreenenter"",""0"",""2799""
""blur"",""9"",""109330""
""focus"",""9"",""111778""
""blur"",""9"",""112073""
""focus"",""9"",""114302""
""blur"",""9"",""114319""
""focus"",""9"",""117853""
","""event"",""trial"",""time""
""blur"",""0"",""0""
""blur"",""9"",""109330""
""blur"",""9"",""112073""
""blur"",""9"",""114319""
","""event"",""trial"",""time""
""focus"",""0"",""0""
""focus"",""9"",""111778""
""focus"",""9"",""114302""
""focus"",""9"",""117853""
","""event"",""trial"",""time""
""fullscreenenter"",""0"",""2799""
","
","null","<p></p>","null","","","","","","","","","","","","","","","","","","","","","","","",""
"","do_trial","79","336952","0.0-49.0-0.0","""event"",""trial"",""time""
""blur"",""0"",""0""
""focus"",""0"",""0""
""fullscreenenter"",""0"",""2799""
""blur"",""9"",""109330""
""focus"",""9"",""111778""
""blur"",""9"",""112073""
""focus"",""9"",""114302""
""blur"",""9"",""114319""
""focus"",""9"",""117853""
","""event"",""trial"",""time""
""blur"",""0"",""0""
""blur"",""9"",""109330""
""blur"",""9"",""112073""
""blur"",""9"",""114319""
","""event"",""trial"",""time""
""focus"",""0"",""0""
""focus"",""9"",""111778""
""focus"",""9"",""114302""
""focus"",""9"",""117853""
","""event"",""trial"",""time""
""fullscreenenter"",""0"",""2799""
","
","372.7000000476837","","","","","","","","51","0,0,0","6","blank","260","null","0.37477764452882445","0.5777999994031842","0.08226642120187982","0","","","","","","","","",""
"","html-keyboard-response","80","337956","0.0-49.0-1.0","""event"",""trial"",""time""
""blur"",""0"",""0""
""focus"",""0"",""0""
""fullscreenenter"",""0"",""2799""
""blur"",""9"",""109330""
""focus"",""9"",""111778""
""blur"",""9"",""112073""
""focus"",""9"",""114302""
""blur"",""9"",""114319""
""focus"",""9"",""117853""
","""event"",""trial"",""time""
""blur"",""0"",""0""
""blur"",""9"",""109330""
""blur"",""9"",""112073""
""blur"",""9"",""114319""
","""event"",""trial"",""time""
""focus"",""0"",""0""
""focus"",""9"",""111778""
""focus"",""9"",""114302""
""focus"",""9"",""117853""
","""event"",""trial"",""time""
""fullscreenenter"",""0"",""2799""
","
","null","<p></p>","null","","","","","","","","","","","","","","","","","","","","","","","",""
"","do_trial","81","340721","0.0-50.0-0.0","""event"",""trial"",""time""
""blur"",""0"",""0""
""focus"",""0"",""0""
""fullscreenenter"",""0"",""2799""
""blur"",""9"",""109330""
""focus"",""9"",""111778""
""blur"",""9"",""112073""
""focus"",""9"",""114302""
""blur"",""9"",""114319""
""focus"",""9"",""117853""
","""event"",""trial"",""time""
""blur"",""0"",""0""
""blur"",""9"",""109330""
""blur"",""9"",""112073""
""blur"",""9"",""114319""
","""event"",""trial"",""time""
""focus"",""0"",""0""
""focus"",""9"",""111778""
""focus"",""9"",""114302""
""focus"",""9"",""117853""
","""event"",""trial"",""time""
""fullscreenenter"",""0"",""2799""
","
","234","","","","","","","","49","0,1,0","6","blank","261","null","0.3568061762157331","0.5558401715884357","0.05950761622225776","0","","","","","","","","",""
"","html-keyboard-response","82","341727","0.0-50.0-1.0","""event"",""trial"",""time""
""blur"",""0"",""0""
""focus"",""0"",""0""
""fullscreenenter"",""0"",""2799""
""blur"",""9"",""109330""
""focus"",""9"",""111778""
""blur"",""9"",""112073""
""focus"",""9"",""114302""
""blur"",""9"",""114319""
""focus"",""9"",""117853""
","""event"",""trial"",""time""
""blur"",""0"",""0""
""blur"",""9"",""109330""
""blur"",""9"",""112073""
""blur"",""9"",""114319""
","""event"",""trial"",""time""
""focus"",""0"",""0""
""focus"",""9"",""111778""
""focus"",""9"",""114302""
""focus"",""9"",""117853""
","""event"",""trial"",""time""
""fullscreenenter"",""0"",""2799""
","
","null","<p></p>","null","","","","","","","","","","","","","","","","","","","","","","","",""
"","do_trial","83","344483","0.0-51.0-0.0","""event"",""trial"",""time""
""blur"",""0"",""0""
""focus"",""0"",""0""
""fullscreenenter"",""0"",""2799""
""blur"",""9"",""109330""
""focus"",""9"",""111778""
""blur"",""9"",""112073""
""focus"",""9"",""114302""
""blur"",""9"",""114319""
""focus"",""9"",""117853""
","""event"",""trial"",""time""
""blur"",""0"",""0""
""blur"",""9"",""109330""
""blur"",""9"",""112073""
""blur"",""9"",""114319""
","""event"",""trial"",""time""
""focus"",""0"",""0""
""focus"",""9"",""111778""
""focus"",""9"",""114302""
""focus"",""9"",""117853""
","""event"",""trial"",""time""
""fullscreenenter"",""0"",""2799""
","
","232.19999998807907","","","","","","","","50","1,1,0","6","blank","262","null","0.459613584593613","0.5985097996189728","0.11527581519344782","1","","","","","","","","",""
"","html-keyboard-response","84","345488","0.0-51.0-1.0","""event"",""trial"",""time""
""blur"",""0"",""0""
""focus"",""0"",""0""
""fullscreenenter"",""0"",""2799""
""blur"",""9"",""109330""
""focus"",""9"",""111778""
""blur"",""9"",""112073""
""focus"",""9"",""114302""
""blur"",""9"",""114319""
""focus"",""9"",""117853""
","""event"",""trial"",""time""
""blur"",""0"",""0""
""blur"",""9"",""109330""
""blur"",""9"",""112073""
""blur"",""9"",""114319""
","""event"",""trial"",""time""
""focus"",""0"",""0""
""focus"",""9"",""111778""
""focus"",""9"",""114302""
""focus"",""9"",""117853""
","""event"",""trial"",""time""
""fullscreenenter"",""0"",""2799""
","
","null","<p></p>","null","","","","","","","","","","","","","","","","","","","","","","","",""
"","do_trial","85","348268","0.0-52.0-0.0","""event"",""trial"",""time""
""blur"",""0"",""0""
""focus"",""0"",""0""
""fullscreenenter"",""0"",""2799""
""blur"",""9"",""109330""
""focus"",""9"",""111778""
""blur"",""9"",""112073""
""focus"",""9"",""114302""
""blur"",""9"",""114319""
""focus"",""9"",""117853""
","""event"",""trial"",""time""
""blur"",""0"",""0""
""blur"",""9"",""109330""
""blur"",""9"",""112073""
""blur"",""9"",""114319""
","""event"",""trial"",""time""
""focus"",""0"",""0""
""focus"",""9"",""111778""
""focus"",""9"",""114302""
""focus"",""9"",""117853""
","""event"",""trial"",""time""
""fullscreenenter"",""0"",""2799""
","
","255.5999999642372","","","","","","","","51","1,1,0","6","blank","263","null","0.3531544080590032","0.558563572405444","0.06444416296321384","0","","","","","","","","",""
"","html-keyboard-response","86","349275","0.0-52.0-1.0","""event"",""trial"",""time""
""blur"",""0"",""0""
""focus"",""0"",""0""
""fullscreenenter"",""0"",""2799""
""blur"",""9"",""109330""
""focus"",""9"",""111778""
""blur"",""9"",""112073""
""focus"",""9"",""114302""
""blur"",""9"",""114319""
""focus"",""9"",""117853""
","""event"",""trial"",""time""
""blur"",""0"",""0""
""blur"",""9"",""109330""
""blur"",""9"",""112073""
""blur"",""9"",""114319""
","""event"",""trial"",""time""
""focus"",""0"",""0""
""focus"",""9"",""111778""
""focus"",""9"",""114302""
""focus"",""9"",""117853""
","""event"",""trial"",""time""
""fullscreenenter"",""0"",""2799""
","
","null","<p></p>","null","","","","","","","","","","","","","","","","","","","","","","","",""
"","do_recog","87","352401","0.0-53.0-0.0","""event"",""trial"",""time""
""blur"",""0"",""0""
""focus"",""0"",""0""
""fullscreenenter"",""0"",""2799""
""blur"",""9"",""109330""
""focus"",""9"",""111778""
""blur"",""9"",""112073""
""focus"",""9"",""114302""
""blur"",""9"",""114319""
""focus"",""9"",""117853""
","""event"",""trial"",""time""
""blur"",""0"",""0""
""blur"",""9"",""109330""
""blur"",""9"",""112073""
""blur"",""9"",""114319""
","""event"",""trial"",""time""
""focus"",""0"",""0""
""focus"",""9"",""111778""
""focus"",""9"",""114302""
""focus"",""9"",""117853""
","""event"",""trial"",""time""
""fullscreenenter"",""0"",""2799""
","
","1622.300000011921","","","","","","","","55","","","","264","probe-104","","","","","1","[object Object]","152","3","0","","","",""
"","html-keyboard-response","88","353403","0.0-53.0-1.0","""event"",""trial"",""time""
""blur"",""0"",""0""
""focus"",""0"",""0""
""fullscreenenter"",""0"",""2799""
""blur"",""9"",""109330""
""focus"",""9"",""111778""
""blur"",""9"",""112073""
""focus"",""9"",""114302""
""blur"",""9"",""114319""
""focus"",""9"",""117853""
","""event"",""trial"",""time""
""blur"",""0"",""0""
""blur"",""9"",""109330""
""blur"",""9"",""112073""
""blur"",""9"",""114319""
","""event"",""trial"",""time""
""focus"",""0"",""0""
""focus"",""9"",""111778""
""focus"",""9"",""114302""
""focus"",""9"",""117853""
","""event"",""trial"",""time""
""fullscreenenter"",""0"",""2799""
","
","null","<p></p>","null","","","","","","","","","","","","","","","","","","","","","","","",""
"","do_trial","89","356616","0.0-54.0-0.0","""event"",""trial"",""time""
""blur"",""0"",""0""
""focus"",""0"",""0""
""fullscreenenter"",""0"",""2799""
""blur"",""9"",""109330""
""focus"",""9"",""111778""
""blur"",""9"",""112073""
""focus"",""9"",""114302""
""blur"",""9"",""114319""
""focus"",""9"",""117853""
","""event"",""trial"",""time""
""blur"",""0"",""0""
""blur"",""9"",""109330""
""blur"",""9"",""112073""
""blur"",""9"",""114319""
","""event"",""trial"",""time""
""focus"",""0"",""0""
""focus"",""9"",""111778""
""focus"",""9"",""114302""
""focus"",""9"",""117853""
","""event"",""trial"",""time""
""fullscreenenter"",""0"",""2799""
","
","685.6999999880791","","","","","","","","49","0,1,1","6","blank","265","null","0.3868141030710317","0.5061774362755811","0.16153126570081444","0","","","","","","","","",""
"","html-keyboard-response","90","357622","0.0-54.0-1.0","""event"",""trial"",""time""
""blur"",""0"",""0""
""focus"",""0"",""0""
""fullscreenenter"",""0"",""2799""
""blur"",""9"",""109330""
""focus"",""9"",""111778""
""blur"",""9"",""112073""
""focus"",""9"",""114302""
""blur"",""9"",""114319""
""focus"",""9"",""117853""
","""event"",""trial"",""time""
""blur"",""0"",""0""
""blur"",""9"",""109330""
""blur"",""9"",""112073""
""blur"",""9"",""114319""
","""event"",""trial"",""time""
""focus"",""0"",""0""
""focus"",""9"",""111778""
""focus"",""9"",""114302""
""focus"",""9"",""117853""
","""event"",""trial"",""time""
""fullscreenenter"",""0"",""2799""
","
","null","<p></p>","null","","","","","","","","","","","","","","","","","","","","","","","",""
"","do_trial","91","360733","0.0-55.0-0.0","""event"",""trial"",""time""
""blur"",""0"",""0""
""focus"",""0"",""0""
""fullscreenenter"",""0"",""2799""
""blur"",""9"",""109330""
""focus"",""9"",""111778""
""blur"",""9"",""112073""
""focus"",""9"",""114302""
""blur"",""9"",""114319""
""focus"",""9"",""117853""
","""event"",""trial"",""time""
""blur"",""0"",""0""
""blur"",""9"",""109330""
""blur"",""9"",""112073""
""blur"",""9"",""114319""
","""event"",""trial"",""time""
""focus"",""0"",""0""
""focus"",""9"",""111778""
""focus"",""9"",""114302""
""focus"",""9"",""117853""
","""event"",""trial"",""time""
""fullscreenenter"",""0"",""2799""
","
","578.2000000476837","","","","","","","","49","1,0,0","6","blank","266","null","0.42605320435682814","0.5856988074990145","0.12222957960407616","1","","","","","","","","",""
"","html-keyboard-response","92","361739","0.0-55.0-1.0","""event"",""trial"",""time""
""blur"",""0"",""0""
""focus"",""0"",""0""
""fullscreenenter"",""0"",""2799""
""blur"",""9"",""109330""
""focus"",""9"",""111778""
""blur"",""9"",""112073""
""focus"",""9"",""114302""
""blur"",""9"",""114319""
""focus"",""9"",""117853""
","""event"",""trial"",""time""
""blur"",""0"",""0""
""blur"",""9"",""109330""
""blur"",""9"",""112073""
""blur"",""9"",""114319""
","""event"",""trial"",""time""
""focus"",""0"",""0""
""focus"",""9"",""111778""
""focus"",""9"",""114302""
""focus"",""9"",""117853""
","""event"",""trial"",""time""
""fullscreenenter"",""0"",""2799""
","
","null","<p></p>","null","","","","","","","","","","","","","","","","","","","","","","","",""
"","do_recog","93","365096","0.0-56.0-0.0","""event"",""trial"",""time""
""blur"",""0"",""0""
""focus"",""0"",""0""
""fullscreenenter"",""0"",""2799""
""blur"",""9"",""109330""
""focus"",""9"",""111778""
""blur"",""9"",""112073""
""focus"",""9"",""114302""
""blur"",""9"",""114319""
""focus"",""9"",""117853""
","""event"",""trial"",""time""
""blur"",""0"",""0""
""blur"",""9"",""109330""
""blur"",""9"",""112073""
""blur"",""9"",""114319""
","""event"",""trial"",""time""
""focus"",""0"",""0""
""focus"",""9"",""111778""
""focus"",""9"",""114302""
""focus"",""9"",""117853""
","""event"",""trial"",""time""
""fullscreenenter"",""0"",""2799""
","
","1847.7999999523163","","","","","","","","54","","","","267","probe-207","","","","","1","[object Object]","196","4","1","","","",""
"","html-keyboard-response","94","366104","0.0-56.0-1.0","""event"",""trial"",""time""
""blur"",""0"",""0""
""focus"",""0"",""0""
""fullscreenenter"",""0"",""2799""
""blur"",""9"",""109330""
""focus"",""9"",""111778""
""blur"",""9"",""112073""
""focus"",""9"",""114302""
""blur"",""9"",""114319""
""focus"",""9"",""117853""
","""event"",""trial"",""time""
""blur"",""0"",""0""
""blur"",""9"",""109330""
""blur"",""9"",""112073""
""blur"",""9"",""114319""
","""event"",""trial"",""time""
""focus"",""0"",""0""
""focus"",""9"",""111778""
""focus"",""9"",""114302""
""focus"",""9"",""117853""
","""event"",""trial"",""time""
""fullscreenenter"",""0"",""2799""
","
","null","<p></p>","null","","","","","","","","","","","","","","","","","","","","","","","",""
"","do_trial","95","369251","0.0-57.0-0.0","""event"",""trial"",""time""
""blur"",""0"",""0""
""focus"",""0"",""0""
""fullscreenenter"",""0"",""2799""
""blur"",""9"",""109330""
""focus"",""9"",""111778""
""blur"",""9"",""112073""
""focus"",""9"",""114302""
""blur"",""9"",""114319""
""focus"",""9"",""117853""
","""event"",""trial"",""time""
""blur"",""0"",""0""
""blur"",""9"",""109330""
""blur"",""9"",""112073""
""blur"",""9"",""114319""
","""event"",""trial"",""time""
""focus"",""0"",""0""
""focus"",""9"",""111778""
""focus"",""9"",""114302""
""focus"",""9"",""117853""
","""event"",""trial"",""time""
""fullscreenenter"",""0"",""2799""
","
","618.1999999880791","","","","","","","","49","1,0,0","6","blank","268","null","0.40182204431662777","0.621803420672211","0.2267721910971181","1","","","","","","","","",""
"","html-keyboard-response","96","370257","0.0-57.0-1.0","""event"",""trial"",""time""
""blur"",""0"",""0""
""focus"",""0"",""0""
""fullscreenenter"",""0"",""2799""
""blur"",""9"",""109330""
""focus"",""9"",""111778""
""blur"",""9"",""112073""
""focus"",""9"",""114302""
""blur"",""9"",""114319""
""focus"",""9"",""117853""
","""event"",""trial"",""time""
""blur"",""0"",""0""
""blur"",""9"",""109330""
""blur"",""9"",""112073""
""blur"",""9"",""114319""
","""event"",""trial"",""time""
""focus"",""0"",""0""
""focus"",""9"",""111778""
""focus"",""9"",""114302""
""focus"",""9"",""117853""
","""event"",""trial"",""time""
""fullscreenenter"",""0"",""2799""
","
","null","<p></p>","null","","","","","","","","","","","","","","","","","","","","","","","",""
"","break","97","423707","0.0-58.0-0.0","""event"",""trial"",""time""
""blur"",""0"",""0""
""focus"",""0"",""0""
""fullscreenenter"",""0"",""2799""
""blur"",""9"",""109330""
""focus"",""9"",""111778""
""blur"",""9"",""112073""
""focus"",""9"",""114302""
""blur"",""9"",""114319""
""focus"",""9"",""117853""
","""event"",""trial"",""time""
""blur"",""0"",""0""
""blur"",""9"",""109330""
""blur"",""9"",""112073""
""blur"",""9"",""114319""
","""event"",""trial"",""time""
""focus"",""0"",""0""
""focus"",""9"",""111778""
""focus"",""9"",""114302""
""focus"",""9"",""117853""
","""event"",""trial"",""time""
""fullscreenenter"",""0"",""2799""
","
","53450.30000001192","<div class='center'><p>Time to take a quick break! You have 2 minutes to rest, but you can move on sooner if you'd like.</p><p> Press the <b>space bar</b> to continue.</p></div>","32","","","","","","","","","","","","","","","","","","","","","","","",""
"","do_recog","98","427575","0.0-58.0-1.0","""event"",""trial"",""time""
""blur"",""0"",""0""
""focus"",""0"",""0""
""fullscreenenter"",""0"",""2799""
""blur"",""9"",""109330""
""focus"",""9"",""111778""
""blur"",""9"",""112073""
""focus"",""9"",""114302""
""blur"",""9"",""114319""
""focus"",""9"",""117853""
","""event"",""trial"",""time""
""blur"",""0"",""0""
""blur"",""9"",""109330""
""blur"",""9"",""112073""
""blur"",""9"",""114319""
","""event"",""trial"",""time""
""focus"",""0"",""0""
""focus"",""9"",""111778""
""focus"",""9"",""114302""
""focus"",""9"",""117853""
","""event"",""trial"",""time""
""fullscreenenter"",""0"",""2799""
","
","2351","","","","","","","","53","","","","269","probe-215","","","","","1","[object Object]","74","1","1","","","",""
"","html-keyboard-response","99","428579","0.0-58.0-2.0","""event"",""trial"",""time""
""blur"",""0"",""0""
""focus"",""0"",""0""
""fullscreenenter"",""0"",""2799""
""blur"",""9"",""109330""
""focus"",""9"",""111778""
""blur"",""9"",""112073""
""focus"",""9"",""114302""
""blur"",""9"",""114319""
""focus"",""9"",""117853""
","""event"",""trial"",""time""
""blur"",""0"",""0""
""blur"",""9"",""109330""
""blur"",""9"",""112073""
""blur"",""9"",""114319""
","""event"",""trial"",""time""
""focus"",""0"",""0""
""focus"",""9"",""111778""
""focus"",""9"",""114302""
""focus"",""9"",""117853""
","""event"",""trial"",""time""
""fullscreenenter"",""0"",""2799""
","
","null","<p></p>","null","","","","","","","","","","","","","","","","","","","","","","","",""
"","do_trial","100","431906","0.0-59.0-0.0","""event"",""trial"",""time""
""blur"",""0"",""0""
""focus"",""0"",""0""
""fullscreenenter"",""0"",""2799""
""blur"",""9"",""109330""
""focus"",""9"",""111778""
""blur"",""9"",""112073""
""focus"",""9"",""114302""
""blur"",""9"",""114319""
""focus"",""9"",""117853""
","""event"",""trial"",""time""
""blur"",""0"",""0""
""blur"",""9"",""109330""
""blur"",""9"",""112073""
""blur"",""9"",""114319""
","""event"",""trial"",""time""
""focus"",""0"",""0""
""focus"",""9"",""111778""
""focus"",""9"",""114302""
""focus"",""9"",""117853""
","""event"",""trial"",""time""
""fullscreenenter"",""0"",""2799""
","
","803.5","","","","","","","","49","0,1,0","6","blank","270","null","0.4309409759026702","0.4281971993773745","0.10169752642614696","0","","","","","","","","",""
"","html-keyboard-response","101","432914","0.0-59.0-1.0","""event"",""trial"",""time""
""blur"",""0"",""0""
""focus"",""0"",""0""
""fullscreenenter"",""0"",""2799""
""blur"",""9"",""109330""
""focus"",""9"",""111778""
""blur"",""9"",""112073""
""focus"",""9"",""114302""
""blur"",""9"",""114319""
""focus"",""9"",""117853""
","""event"",""trial"",""time""
""blur"",""0"",""0""
""blur"",""9"",""109330""
""blur"",""9"",""112073""
""blur"",""9"",""114319""
","""event"",""trial"",""time""
""focus"",""0"",""0""
""focus"",""9"",""111778""
""focus"",""9"",""114302""
""focus"",""9"",""117853""
","""event"",""trial"",""time""
""fullscreenenter"",""0"",""2799""
","
","null","<p></p>","null","","","","","","","","","","","","","","","","","","","","","","","",""
"","do_trial","102","435724","0.0-60.0-0.0","""event"",""trial"",""time""
""blur"",""0"",""0""
""focus"",""0"",""0""
""fullscreenenter"",""0"",""2799""
""blur"",""9"",""109330""
""focus"",""9"",""111778""
""blur"",""9"",""112073""
""focus"",""9"",""114302""
""blur"",""9"",""114319""
""focus"",""9"",""117853""
","""event"",""trial"",""time""
""blur"",""0"",""0""
""blur"",""9"",""109330""
""blur"",""9"",""112073""
""blur"",""9"",""114319""
","""event"",""trial"",""time""
""focus"",""0"",""0""
""focus"",""9"",""111778""
""focus"",""9"",""114302""
""focus"",""9"",""117853""
","""event"",""trial"",""time""
""fullscreenenter"",""0"",""2799""
","
","287.60000002384186","","","","","","","","50","0,1,0","6","blank","271","null","0.32580667179642225","0.4948237429892512","0.2501342426549296","1","","","","","","","","",""
"","html-keyboard-response","103","436733","0.0-60.0-1.0","""event"",""trial"",""time""
""blur"",""0"",""0""
""focus"",""0"",""0""
""fullscreenenter"",""0"",""2799""
""blur"",""9"",""109330""
""focus"",""9"",""111778""
""blur"",""9"",""112073""
""focus"",""9"",""114302""
""blur"",""9"",""114319""
""focus"",""9"",""117853""
","""event"",""trial"",""time""
""blur"",""0"",""0""
""blur"",""9"",""109330""
""blur"",""9"",""112073""
""blur"",""9"",""114319""
","""event"",""trial"",""time""
""focus"",""0"",""0""
""focus"",""9"",""111778""
""focus"",""9"",""114302""
""focus"",""9"",""117853""
","""event"",""trial"",""time""
""fullscreenenter"",""0"",""2799""
","
","null","<p></p>","null","","","","","","","","","","","","","","","","","","","","","","","",""
"","do_trial","104","439481","0.0-61.0-0.0","""event"",""trial"",""time""
""blur"",""0"",""0""
""focus"",""0"",""0""
""fullscreenenter"",""0"",""2799""
""blur"",""9"",""109330""
""focus"",""9"",""111778""
""blur"",""9"",""112073""
""focus"",""9"",""114302""
""blur"",""9"",""114319""
""focus"",""9"",""117853""
","""event"",""trial"",""time""
""blur"",""0"",""0""
""blur"",""9"",""109330""
""blur"",""9"",""112073""
""blur"",""9"",""114319""
","""event"",""trial"",""time""
""focus"",""0"",""0""
""focus"",""9"",""111778""
""focus"",""9"",""114302""
""focus"",""9"",""117853""
","""event"",""trial"",""time""
""fullscreenenter"",""0"",""2799""
","
","218.9000000357628","","","","","","","","51","0,1,0","6","blank","272","null","0.22643836483580582","0.5009552418186989","0.13421541731996586","0","","","","","","","","",""
"","html-keyboard-response","105","440490","0.0-61.0-1.0","""event"",""trial"",""time""
""blur"",""0"",""0""
""focus"",""0"",""0""
""fullscreenenter"",""0"",""2799""
""blur"",""9"",""109330""
""focus"",""9"",""111778""
""blur"",""9"",""112073""
""focus"",""9"",""114302""
""blur"",""9"",""114319""
""focus"",""9"",""117853""
","""event"",""trial"",""time""
""blur"",""0"",""0""
""blur"",""9"",""109330""
""blur"",""9"",""112073""
""blur"",""9"",""114319""
","""event"",""trial"",""time""
""focus"",""0"",""0""
""focus"",""9"",""111778""
""focus"",""9"",""114302""
""focus"",""9"",""117853""
","""event"",""trial"",""time""
""fullscreenenter"",""0"",""2799""
","
","null","<p></p>","null","","","","","","","","","","","","","","","","","","","","","","","",""
"","do_trial","106","443266","0.0-62.0-0.0","""event"",""trial"",""time""
""blur"",""0"",""0""
""focus"",""0"",""0""
""fullscreenenter"",""0"",""2799""
""blur"",""9"",""109330""
""focus"",""9"",""111778""
""blur"",""9"",""112073""
""focus"",""9"",""114302""
""blur"",""9"",""114319""
""focus"",""9"",""117853""
","""event"",""trial"",""time""
""blur"",""0"",""0""
""blur"",""9"",""109330""
""blur"",""9"",""112073""
""blur"",""9"",""114319""
","""event"",""trial"",""time""
""focus"",""0"",""0""
""focus"",""9"",""111778""
""focus"",""9"",""114302""
""focus"",""9"",""117853""
","""event"",""trial"",""time""
""fullscreenenter"",""0"",""2799""
","
","254.30000001192093","","","","","","","","49","0,1,0","6","blank","273","null","0.09052342072048454","0.610267238583621","0.17921332991312647","0","","","","","","","","",""
"","html-keyboard-response","107","444270","0.0-62.0-1.0","""event"",""trial"",""time""
""blur"",""0"",""0""
""focus"",""0"",""0""
""fullscreenenter"",""0"",""2799""
""blur"",""9"",""109330""
""focus"",""9"",""111778""
""blur"",""9"",""112073""
""focus"",""9"",""114302""
""blur"",""9"",""114319""
""focus"",""9"",""117853""
","""event"",""trial"",""time""
""blur"",""0"",""0""
""blur"",""9"",""109330""
""blur"",""9"",""112073""
""blur"",""9"",""114319""
","""event"",""trial"",""time""
""focus"",""0"",""0""
""focus"",""9"",""111778""
""focus"",""9"",""114302""
""focus"",""9"",""117853""
","""event"",""trial"",""time""
""fullscreenenter"",""0"",""2799""
","
","null","<p></p>","null","","","","","","","","","","","","","","","","","","","","","","","",""
"","do_trial","108","447039","0.0-63.0-0.0","""event"",""trial"",""time""
""blur"",""0"",""0""
""focus"",""0"",""0""
""fullscreenenter"",""0"",""2799""
""blur"",""9"",""109330""
""focus"",""9"",""111778""
""blur"",""9"",""112073""
""focus"",""9"",""114302""
""blur"",""9"",""114319""
""focus"",""9"",""117853""
","""event"",""trial"",""time""
""blur"",""0"",""0""
""blur"",""9"",""109330""
""blur"",""9"",""112073""
""blur"",""9"",""114319""
","""event"",""trial"",""time""
""focus"",""0"",""0""
""focus"",""9"",""111778""
""focus"",""9"",""114302""
""focus"",""9"",""117853""
","""event"",""trial"",""time""
""fullscreenenter"",""0"",""2799""
","
","233.79999995231628","","","","","","","","49","0,0,1","6","blank","274","null","0.058709204138343164","0.5972292231252155","0.22258485101160788","0","","","","","","","","",""
"","html-keyboard-response","109","448047","0.0-63.0-1.0","""event"",""trial"",""time""
""blur"",""0"",""0""
""focus"",""0"",""0""
""fullscreenenter"",""0"",""2799""
""blur"",""9"",""109330""
""focus"",""9"",""111778""
""blur"",""9"",""112073""
""focus"",""9"",""114302""
""blur"",""9"",""114319""
""focus"",""9"",""117853""
","""event"",""trial"",""time""
""blur"",""0"",""0""
""blur"",""9"",""109330""
""blur"",""9"",""112073""
""blur"",""9"",""114319""
","""event"",""trial"",""time""
""focus"",""0"",""0""
""focus"",""9"",""111778""
""focus"",""9"",""114302""
""focus"",""9"",""117853""
","""event"",""trial"",""time""
""fullscreenenter"",""0"",""2799""
","
","null","<p></p>","null","","","","","","","","","","","","","","","","","","","","","","","",""
"","do_recog","110","451534","0.0-64.0-0.0","""event"",""trial"",""time""
""blur"",""0"",""0""
""focus"",""0"",""0""
""fullscreenenter"",""0"",""2799""
""blur"",""9"",""109330""
""focus"",""9"",""111778""
""blur"",""9"",""112073""
""focus"",""9"",""114302""
""blur"",""9"",""114319""
""focus"",""9"",""117853""
","""event"",""trial"",""time""
""blur"",""0"",""0""
""blur"",""9"",""109330""
""blur"",""9"",""112073""
""blur"",""9"",""114319""
","""event"",""trial"",""time""
""focus"",""0"",""0""
""focus"",""9"",""111778""
""focus"",""9"",""114302""
""focus"",""9"",""117853""
","""event"",""trial"",""time""
""fullscreenenter"",""0"",""2799""
","
","1980.1000000238419","","","","","","","","54","","","","275","probe-206","","","","","1","[object Object]","34","0","1","","","",""
"","html-keyboard-response","111","452540","0.0-64.0-1.0","""event"",""trial"",""time""
""blur"",""0"",""0""
""focus"",""0"",""0""
""fullscreenenter"",""0"",""2799""
""blur"",""9"",""109330""
""focus"",""9"",""111778""
""blur"",""9"",""112073""
""focus"",""9"",""114302""
""blur"",""9"",""114319""
""focus"",""9"",""117853""
","""event"",""trial"",""time""
""blur"",""0"",""0""
""blur"",""9"",""109330""
""blur"",""9"",""112073""
""blur"",""9"",""114319""
","""event"",""trial"",""time""
""focus"",""0"",""0""
""focus"",""9"",""111778""
""focus"",""9"",""114302""
""focus"",""9"",""117853""
","""event"",""trial"",""time""
""fullscreenenter"",""0"",""2799""
","
","null","<p></p>","null","","","","","","","","","","","","","","","","","","","","","","","",""
"","do_trial","112","455410","0.0-65.0-0.0","""event"",""trial"",""time""
""blur"",""0"",""0""
""focus"",""0"",""0""
""fullscreenenter"",""0"",""2799""
""blur"",""9"",""109330""
""focus"",""9"",""111778""
""blur"",""9"",""112073""
""focus"",""9"",""114302""
""blur"",""9"",""114319""
""focus"",""9"",""117853""
","""event"",""trial"",""time""
""blur"",""0"",""0""
""blur"",""9"",""109330""
""blur"",""9"",""112073""
""blur"",""9"",""114319""
","""event"",""trial"",""time""
""focus"",""0"",""0""
""focus"",""9"",""111778""
""focus"",""9"",""114302""
""focus"",""9"",""117853""
","""event"",""trial"",""time""
""fullscreenenter"",""0"",""2799""
","
","341.30000001192093","","","","","","","","49","0,0,0","6","blank","276","null","0.0581140470099594","0.6316456928497667","0.1970726558935565","0","","","","","","","","",""
"","html-keyboard-response","113","456418","0.0-65.0-1.0","""event"",""trial"",""time""
""blur"",""0"",""0""
""focus"",""0"",""0""
""fullscreenenter"",""0"",""2799""
""blur"",""9"",""109330""
""focus"",""9"",""111778""
""blur"",""9"",""112073""
""focus"",""9"",""114302""
""blur"",""9"",""114319""
""focus"",""9"",""117853""
","""event"",""trial"",""time""
""blur"",""0"",""0""
""blur"",""9"",""109330""
""blur"",""9"",""112073""
""blur"",""9"",""114319""
","""event"",""trial"",""time""
""focus"",""0"",""0""
""focus"",""9"",""111778""
""focus"",""9"",""114302""
""focus"",""9"",""117853""
","""event"",""trial"",""time""
""fullscreenenter"",""0"",""2799""
","
","null","<p></p>","null","","","","","","","","","","","","","","","","","","","","","","","",""
"","do_trial","114","459277","0.0-66.0-0.0","""event"",""trial"",""time""
""blur"",""0"",""0""
""focus"",""0"",""0""
""fullscreenenter"",""0"",""2799""
""blur"",""9"",""109330""
""focus"",""9"",""111778""
""blur"",""9"",""112073""
""focus"",""9"",""114302""
""blur"",""9"",""114319""
""focus"",""9"",""117853""
","""event"",""trial"",""time""
""blur"",""0"",""0""
""blur"",""9"",""109330""
""blur"",""9"",""112073""
""blur"",""9"",""114319""
","""event"",""trial"",""time""
""focus"",""0"",""0""
""focus"",""9"",""111778""
""focus"",""9"",""114302""
""focus"",""9"",""117853""
","""event"",""trial"",""time""
""fullscreenenter"",""0"",""2799""
","
","336.80000001192093","","","","","","","","50","0,1,1","6","blank","277","null","0.27004340034055857","0.7408670497902233","0.1003647641556185","1","","","","","","","","",""
"","html-keyboard-response","115","460283","0.0-66.0-1.0","""event"",""trial"",""time""
""blur"",""0"",""0""
""focus"",""0"",""0""
""fullscreenenter"",""0"",""2799""
""blur"",""9"",""109330""
""focus"",""9"",""111778""
""blur"",""9"",""112073""
""focus"",""9"",""114302""
""blur"",""9"",""114319""
""focus"",""9"",""117853""
","""event"",""trial"",""time""
""blur"",""0"",""0""
""blur"",""9"",""109330""
""blur"",""9"",""112073""
""blur"",""9"",""114319""
","""event"",""trial"",""time""
""focus"",""0"",""0""
""focus"",""9"",""111778""
""focus"",""9"",""114302""
""focus"",""9"",""117853""
","""event"",""trial"",""time""
""fullscreenenter"",""0"",""2799""
","
","null","<p></p>","null","","","","","","","","","","","","","","","","","","","","","","","",""
"","do_trial","116","463028","0.0-67.0-0.0","""event"",""trial"",""time""
""blur"",""0"",""0""
""focus"",""0"",""0""
""fullscreenenter"",""0"",""2799""
""blur"",""9"",""109330""
""focus"",""9"",""111778""
""blur"",""9"",""112073""
""focus"",""9"",""114302""
""blur"",""9"",""114319""
""focus"",""9"",""117853""
","""event"",""trial"",""time""
""blur"",""0"",""0""
""blur"",""9"",""109330""
""blur"",""9"",""112073""
""blur"",""9"",""114319""
","""event"",""trial"",""time""
""focus"",""0"",""0""
""focus"",""9"",""111778""
""focus"",""9"",""114302""
""focus"",""9"",""117853""
","""event"",""trial"",""time""
""fullscreenenter"",""0"",""2799""
","
","222.70000004768372","","","","","","","","50","0,1,0","6","blank","278","null","0.1834546749275461","0.6420946439707899","0.13968189011519005","1","","","","","","","","",""
"","html-keyboard-response","117","464035","0.0-67.0-1.0","""event"",""trial"",""time""
""blur"",""0"",""0""
""focus"",""0"",""0""
""fullscreenenter"",""0"",""2799""
""blur"",""9"",""109330""
""focus"",""9"",""111778""
""blur"",""9"",""112073""
""focus"",""9"",""114302""
""blur"",""9"",""114319""
""focus"",""9"",""117853""
","""event"",""trial"",""time""
""blur"",""0"",""0""
""blur"",""9"",""109330""
""blur"",""9"",""112073""
""blur"",""9"",""114319""
","""event"",""trial"",""time""
""focus"",""0"",""0""
""focus"",""9"",""111778""
""focus"",""9"",""114302""
""focus"",""9"",""117853""
","""event"",""trial"",""time""
""fullscreenenter"",""0"",""2799""
","
","null","<p></p>","null","","","","","","","","","","","","","","","","","","","","","","","",""
"","do_trial","118","466704","0.0-68.0-0.0","""event"",""trial"",""time""
""blur"",""0"",""0""
""focus"",""0"",""0""
