"success","trial_type","trial_index","time_elapsed","internal_node_id","rt","stimulus","key_press","subject_id","participant_id","age","gender","prompt","response","choice_outcomes","context_n","context_img_id","trial_n","probe_img_id","pR_red","pR_white","pR_black","outcome","is_valid","image_to_show","probed_trial","probed_context","correct","probe","probed_trial_n","probed_context_n","context_im"
"true","fullscreen","0","2991","0.0-0.0","","","","","","","","","","","","","","","","","","","","","","","","","","",""
"","pavlovia","1","2995","0.0-1.0","","","","","","","","","","","","","","","","","","","","","","","","","","",""
"","welc_back","2","15684","0.0-2.0","null","run_exp/static/audio/clip_29_welcome_back.m4a","null","67","521","10","male","<div class='center'><p>Welcome to day 2!</p><p> Yesterday, you were the head captain of a pirate ship. You and your fellow pirates robbed ships for their gold and traveled to six different islands .</p></div>","","","","","","","","","","","","","","","","","","",""
"","html-keyboard-response","3","17084","0.0-3.0","1398.2999999523163","<div class='center'><p>Welcome to day 2!</p><p> Yesterday, you were the head captain of a pirate ship. You and your fellow pirates robbed ships for their gold and traveled to six different islands .</p><p><b>[Press the space bar to continue]</b></p></div>","32","","","","","","","","","","","","","","","","","","","","","","","",""
"","day_1_summary_goal","4","37092","0.0-4.0","null","run_exp/static/audio/clip_30_goal_of_game.m4a","null","","","","","<div class='center'><p>Today, like yesterday, you get to pick which pirate you want to rob the next ship.</p><p>If the pirate is successful in robbing a ship, you get gold coins that look like this: </p><p><img src='run_exp/static/images/tutorial/reward.png' height='150'></p><p> If they were not successful in robbing the ship, then you will get no gold coins and you'll see a big red x like this: </p><p><img src='run_exp/static/images/tutorial/reward_no.png' height='150'></p></div>","","","","","","","","","","","","","","","","","","",""
"","html-keyboard-response","5","39164","0.0-5.0","2071","<div class='center'><p>Today, like yesterday, you get to pick which pirate you want to rob the next ship.</p><p>If the pirate is successful in robbing a ship, you get gold coins that look like this: </p><p><img src='run_exp/static/images/tutorial/reward.png' height='150'></p><p> If they were not successful in robbing the ship, then you will get no gold coins and you'll see a big red x like this: </p><p><img src='run_exp/static/images/tutorial/reward_no.png' height='150'></p><p><b>[Press the space bar to continue]</b></p></div>","32","","","","","","","","","","","","","","","","","","","","","","","",""
"","day_1_summary_pick","6","57015","0.0-6.0","null","run_exp/static/audio/clip_31_how_to_pick_a_pirate.m4a","null","","","","","<div class='center'><p>Also, just like yesterday, you will use the 1,2,3 keys on your keyboard to pick a pirate. Press '1' to choose red beard, '2' to choose white beard, and '3' to choose black beard . You only have 3 seconds to pick a pirate, so please make a choice quickly!</p></div>","","","","","","","","","","","","","","","","","","",""
"","html-keyboard-response","7","57363","0.0-7.0","346.69999998807907","<div class='center'><p>Also, just like yesterday, you will use the 1,2,3 keys on your keyboard to pick a pirate. Press '1' to choose red beard, '2' to choose white beard, and '3' to choose black beard . You only have 3 seconds to pick a pirate, so please make a choice quickly!</p><p><b>[Press the space bar to continue]</b></p></div>","32","","","","","","","","","","","","","","","","","","","","","","","",""
"","test_phase_begin","8","81791","0.0-8.0","null","run_exp/static/audio/clip_32_final_place.m4a","null","","","","","<div class='center'><p>You’ve arrived at the final island of your journey! Unfortunately, it’s very foggy out, so you won’t be able to see it in the distance like the other islands you've visited.</p><p>You’ll still be deciding which pirate you want to rob a ship like before. However, because of the fog, you also won’t be able to see the ship.</p><p>This means you do not have to remember the ships you rob on this island.</p></p></div>","","","","","","","","","","","","","","","","","","",""
"","html-keyboard-response","9","83131","0.0-9.0","1339.0999999642372","<div class='center'><p>You’ve arrived at the final island of your journey! Unfortunately, it’s very foggy out, so you won’t be able to see it in the distance like the other islands you've visited.</p><p>You’ll still be deciding which pirate you want to rob a ship like before. However, because of the fog, you also won’t be able to see the ship.</p><p>This means you do not have to remember the ships you rob on this island.</p></p><p><b>[Press the space bar to continue]</b></p></div>","32","","","","","","","","","","","","","","","","","","","","","","","",""
"","explain_probe_1","10","92588","0.0-10.0","null","run_exp/static/audio/clip_33_recognition_1.m4a","null","","","","","<div class='center'><p> Sometimes you’ll be shown a ship, and you will be asked if you saw this ship on a past island.</p><p> Here is an example of what you will see.</p><p><img src='run_exp/static/images/tutorial/example_recog_trial.png' height='500'></p></div>","","","","","","","","","","","","","","","","","","",""
"","html-keyboard-response","11","93496","0.0-11.0","906.4000000357628","<div class='center'><p> Sometimes you’ll be shown a ship, and you will be asked if you saw this ship on a past island.</p><p> Here is an example of what you will see.</p><p><img src='run_exp/static/images/tutorial/example_recog_trial.png' height='500'></p><p><b>[Press the space bar to continue]</b></p></div>","32","","","","","","","","","","","","","","","","","","","","","","","",""
"","explain_probe_2","12","120336","0.0-12.0","null","run_exp/static/audio/clip_34_recognition_2.m4a","null","","","","","<div class='center'><p> You will press the 5, 6, 7, 8 keys on your keyboard to respond.</p><p>If you are very sure saw the ship, press <b>5</b> on your keyboard.</p><p> If you think you  saw it before but are not sure, then press <b>6</b>.</p><p> If you think you have <b>not</b> seen it before but are not sure, then press <b>7</b>.</p><p> If you are sure you did <b>not</b> see the ship before, then press <b>8</b>.</p><p><img src='run_exp/static/images/tutorial/example_recog_trial.png' height='500'></p></div>","","","","","","","","","","","","","","","","","","",""
"","html-keyboard-response","13","120788","0.0-13.0","451","<div class='center'><p> You will press the 5, 6, 7, 8 keys on your keyboard to respond.</p><p>If you are very sure saw the ship, press <b>5</b> on your keyboard.</p><p> If you think you  saw it before but are not sure, then press <b>6</b>.</p><p> If you think you have <b>not</b> seen it before but are not sure, then press <b>7</b>.</p><p> If you are sure you did <b>not</b> see the ship before, then press <b>8</b>.</p><p><img src='run_exp/static/images/tutorial/example_recog_trial.png' height='500'></p><p><b>[Press the space bar to continue]</b></p></div>","32","","","","","","","","","","","","","","","","","","","","","","","",""
"","explain_outcome","14","142326","0.0-14.0","null","run_exp/static/audio/clip_35_recognition_3.m4a","null","","","","","<div class='center'><p> If you remember correctly, then you’ll get a gold coin like this: </p><p><img src='run_exp/static/images/tutorial/reward_small.png' height='200'></p><p>If you do not remember correctly, then you'll see a red x like this: </p><p><img src='run_exp/static/images/tutorial/reward_no.png' height='200'></p><p>Importantly, when you are shown a ship, take the time to remind yourself which island you saw it on. This will help you in the next part of the study.</p></div>","","","","","","","","","","","","","","","","","","",""
"","html-keyboard-response","15","143117","0.0-15.0","790.0999999642372","<div class='center'><p> If you remember correctly, then you’ll get a gold coin like this: </p><p><img src='run_exp/static/images/tutorial/reward_small.png' height='200'></p><p>If you do not remember correctly, then you'll see a red x like this: </p><p><img src='run_exp/static/images/tutorial/reward_no.png' height='200'></p><p>Importantly, when you are shown a ship, take the time to remind yourself which island you saw it on. This will help you in the next part of the study.</p><p><b>[Press the space bar to continue]</b></p></div>","32","","","","","","","","","","","","","","","","","","","","","","","",""
"","begin_test_phase","16","167659","0.0-16.0","null","run_exp/static/audio/clip_36_begin_final.m4a","null","","","","","<div class='center'><p>Let's go over the important points again. Your job is to: </p><p>1. Pick the pirate who is best at robbing ships and will bring you back gold coins. </p><p>2. Correctly remember whether or not you saw a ship before. If you did see the ship before, remind yourself on which island you saw the ship. </p></div>","","","","","","","","","","","","","","","","","","",""
"","html-keyboard-response","17","168177","0.0-17.0","465.60000002384186","<div class='center'><p>Let's go over the important points again. Your job is to: </p><p>1. Pick the pirate who is best at robbing ships and will bring you back gold coins. </p><p>2. Correctly remember whether or not you saw a ship before. If you did see the ship before, remind yourself on which island you saw the ship. </p><p><b>[Press the space bar to continue]</b></p></div>","32","","","","","","","","","","","","","","","","","","","","","","","",""
"","do_welcome","18","169683","0.0-18.0","null","","","","","","","","null","","","","","","","","","","","","","","","","","",""
"","do_trial","19","173584","0.0-19.0-0.0","1359","","","","","","","","49","0,1,0","6","blank","230","null","0.21903554295640312","0.7956953243957547","0.33504836585945436","0","","","","","","","","",""
"","html-keyboard-response","20","174590","0.0-19.0-1.0","null","<p></p>","null","","","","","","","","","","","","","","","","","","","","","","","",""
"","do_trial","21","177366","0.0-20.0-0.0","237.19999998807907","","","","","","","","50","0,0,0","6","blank","231","null","0.17896499910293237","0.7272110468208668","0.2457382685465278","0","","","","","","","","",""
"","html-keyboard-response","22","178369","0.0-20.0-1.0","null","<p></p>","null","","","","","","","","","","","","","","","","","","","","","","","",""
"","do_trial","23","181015","0.0-21.0-0.0","108.09999996423721","","","","","","","","51","0,1,1","6","blank","232","null","0.09523086220882132","0.6608191610399489","0.2224377643575115","1","","","","","","","","",""
"","html-keyboard-response","24","182021","0.0-21.0-1.0","null","<p></p>","null","","","","","","","","","","","","","","","","","","","","","","","",""
"","do_trial","25","184562","0.0-22.0-0.0","0.09999996423721313","","","","","","","","51","0,0,0","6","blank","233","null","0.08000883753540425","0.5259040618330413","0.14570977349825667","0","","","","","","","","",""
"","html-keyboard-response","26","185566","0.0-22.0-1.0","null","<p></p>","null","","","","","","","","","","","","","","","","","","","","","","","",""
"","do_trial","27","188125","0.0-23.0-0.0","20.599999964237213","","","","","","","","50","0,1,0","6","blank","234","null","0.13497591135733258","0.7288676291614385","0.20790433949120257","1","","","","","","","","",""
"","html-keyboard-response","28","189129","0.0-23.0-1.0","null","<p></p>","null","","","","","","","","","","","","","","","","","","","","","","","",""
"","do_trial","29","192159","0.0-24.0-0.0","488.5","","","","","","","","51","0,1,0","6","blank","235","null","0.11973164668564903","0.5611822569933212","0.18272971915265146","0","","","","","","","","",""
"","html-keyboard-response","30","193163","0.0-24.0-1.0","null","<p></p>","null","","","","","","","","","","","","","","","","","","","","","","","",""
"","do_trial","31","195708","0.0-25.0-0.0","7.600000023841858","","","","","","","","49","0,1,0","6","blank","236","null","0.06723180202196896","0.6656760346986795","0.1614549319304632","0","","","","","","","","",""
"","html-keyboard-response","32","196711","0.0-25.0-1.0","null","<p></p>","null","","","","","","","","","","","","","","","","","","","","","","","",""
"","do_trial","33","200078","0.0-26.0-0.0","826.5999999642372","","","","","","","","51","1,1,0","6","blank","237","null","0.12736870733725822","0.6300552158850254","0.26190151025427627","0","","","","","","","","",""
"","html-keyboard-response","34","201082","0.0-26.0-1.0","null","<p></p>","null","","","","","","","","","","","","","","","","","","","","","","","",""
"","do_trial","35","203654","0.0-27.0-0.0","30.69999998807907","","","","","","","","50","0,1,0","6","blank","238","null","0.13313299884054336","0.6332427331176864","0.3548341355932981","1","","","","","","","","",""
"","html-keyboard-response","36","204656","0.0-27.0-1.0","null","<p></p>","null","","","","","","","","","","","","","","","","","","","","","","","",""
"","do_trial","37","207578","0.0-28.0-0.0","384","","","","","","","","50","0,0,1","6","blank","239","null","0.06210098594902443","0.6251825059942963","0.40428099105123977","0","","","","","","","","",""
"","html-keyboard-response","38","208581","0.0-28.0-1.0","null","<p></p>","null","","","","","","","","","","","","","","","","","","","","","","","",""
"","do_trial","39","211123","0.0-29.0-0.0","0.20000004768371582","","","","","","","","51","0,0,1","6","blank","240","null","0.07970963190219697","0.4941271944836079","0.5355882084226039","1","","","","","","","","",""
"","html-keyboard-response","40","212125","0.0-29.0-1.0","null","<p></p>","null","","","","","","","","","","","","","","","","","","","","","","","",""
"","do_recog","41","218131","0.0-30.0-0.0","null","","","","","","","","null","","","","241","probe-104","","","","","1","[object Object]","85","2","0","","","",""
"","html-keyboard-response","42","219135","0.0-30.0-1.0","null","<p></p>","null","","","","","","","","","","","","","","","","","","","","","","","",""
"","do_trial","43","222955","0.0-31.0-0.0","1281.6000000238419","","","","","","","","49","0,1,0","6","blank","242","null","0.16571727058210947","0.47635305035909914","0.5316293269563015","0","","","","","","","","",""
"","html-keyboard-response","44","223958","0.0-31.0-1.0","null","<p></p>","null","","","","","","","","","","","","","","","","","","","","","","","",""
"","do_trial","45","227042","0.0-32.0-0.0","547.6000000238419","","","","","","","","50","0,1,1","6","blank","243","null","0.24158434281883648","0.4552735216811716","0.5703742691639189","1","","","","","","","","",""
"","html-keyboard-response","46","228046","0.0-32.0-1.0","null","<p></p>","null","","","","","","","","","","","","","","","","","","","","","","","",""
"","do_trial","47","230666","0.0-33.0-0.0","81.89999997615814","","","","","","","","50","0,0,0","6","blank","244","null","0.1291278177432953","0.41864677382121235","0.6212581948555514","0","","","","","","","","",""
"","html-keyboard-response","48","231671","0.0-33.0-1.0","null","<p></p>","null","","","","","","","","","","","","","","","","","","","","","","","",""
"","do_trial","49","234315","0.0-34.0-0.0","105.19999998807907","","","","","","","","50","1,0,1","6","blank","245","null","0.21713753604214675","0.2517101537886159","0.8491600395180845","0","","","","","","","","",""
"","html-keyboard-response","50","235318","0.0-34.0-1.0","null","<p></p>","null","","","","","","","","","","","","","","","","","","","","","","","",""
"","do_trial","51","238029","0.0-35.0-0.0","171","","","","","","","","51","0,1,1","6","blank","246","null","0.20941411110340005","0.12947097993668216","0.7697332456987118","1","","","","","","","","",""
"","html-keyboard-response","52","239033","0.0-35.0-1.0","null","<p></p>","null","","","","","","","","","","","","","","","","","","","","","","","",""
"","do_trial","53","241605","0.0-36.0-0.0","31.69999998807907","","","","","","","","51","0,0,1","6","blank","247","null","0.23432174246642334","0.14870424701281706","0.6905867959343411","1","","","","","","","","",""
"","html-keyboard-response","54","242610","0.0-36.0-1.0","null","<p></p>","null","","","","","","","","","","","","","","","","","","","","","","","",""
"","do_trial","55","245155","0.0-37.0-0.0","4.099999964237213","","","","","","","","51","0,1,1","6","blank","248","null","0.14800132867129498","0.20475551917909507","0.7990032337321087","1","","","","","","","","",""
"","html-keyboard-response","56","246158","0.0-37.0-1.0","null","<p></p>","null","","","","","","","","","","","","","","","","","","","","","","","",""
"","do_recog","57","249526","0.0-38.0-0.0","1858.9000000357628","","","","","","","","56","","","","249","probe-79","","","","","1","[object Object]","45","1","0","","","",""
"","html-keyboard-response","58","250531","0.0-38.0-1.0","null","<p></p>","null","","","","","","","","","","","","","","","","","","","","","","","",""
"","do_trial","59","254018","0.0-39.0-0.0","950.5","","","","","","","","50","1,0,0","6","blank","250","null","0.24698270313902856","0.10750076824613021","0.7498969929279717","0","","","","","","","","",""
"","html-keyboard-response","60","255023","0.0-39.0-1.0","null","<p></p>","null","","","","","","","","","","","","","","","","","","","","","","","",""
"","do_recog","61","257692","0.0-40.0-0.0","1161.5","","","","","","","","56","","","","251","probe-01","","","","","1","[object Object]","128","3","0","","","",""
"","html-keyboard-response","62","258697","0.0-40.0-1.0","null","<p></p>","null","","","","","","","","","","","","","","","","","","","","","","","",""
"","do_trial","63","262098","0.0-41.0-0.0","864.3000000119209","","","","","","","","51","0,0,1","6","blank","252","null","0.3014638175664506","0.20449460643189013","0.604920773061159","1","","","","","","","","",""
"","html-keyboard-response","64","263102","0.0-41.0-1.0","null","<p></p>","null","","","","","","","","","","","","","","","","","","","","","","","",""
"","do_recog","65","265798","0.0-42.0-0.0","1187.2999999523163","","","","","","","","56","","","","253","probe-58","","","","","1","[object Object]","129","3","0","","","",""
"","html-keyboard-response","66","266801","0.0-42.0-1.0","null","<p></p>","null","","","","","","","","","","","","","","","","","","","","","","","",""
"","do_trial","67","270006","0.0-43.0-0.0","663.1999999880791","","","","","","","","51","0,0,1","6","blank","254","null","0.3572415693963896","0.14838933659749218","0.5624156952256144","1","","","","","","","","",""
"","html-keyboard-response","68","271010","0.0-43.0-1.0","null","<p></p>","null","","","","","","","","","","","","","","","","","","","","","","","",""
"","do_trial","69","274045","0.0-44.0-0.0","494.19999998807907","","","","","","","","51","0,0,1","6","blank","255","null","0.26003104578196345","0.1466851829930557","0.6495719313391384","1","","","","","","","","",""
"","html-keyboard-response","70","275048","0.0-44.0-1.0","null","<p></p>","null","","","","","","","","","","","","","","","","","","","","","","","",""
"","do_trial","71","278202","0.0-45.0-0.0","616.5","","","","","","","","50","0,0,1","6","blank","256","null","0.2810379258756765","0.19113049638400026","0.7130502669077027","0","","","","","","","","",""
"","html-keyboard-response","72","279206","0.0-45.0-1.0","null","<p></p>","null","","","","","","","","","","","","","","","","","","","","","","","",""
"","do_trial","73","281744","0.0-46.0-0.0","0.10000002384185791","","","","","","","","51","0,0,0","6","blank","257","null","0.4221875452082098","0.05072525535027889","0.6801332857679608","0","","","","","","","","",""
"","html-keyboard-response","74","282747","0.0-46.0-1.0","null","<p></p>","null","","","","","","","","","","","","","","","","","","","","","","","",""
"","do_trial","75","285434","0.0-47.0-0.0","149.20000004768372","","","","","","","","49","1,0,1","6","blank","258","null","0.34507674402015626","0.1030439960905362","0.8152118327155752","1","","","","","","","","",""
"","html-keyboard-response","76","286439","0.0-47.0-1.0","null","<p></p>","null","","","","","","","","","","","","","","","","","","","","","","","",""
"","do_trial","77","289043","0.0-48.0-0.0","65.5","","","","","","","","49","0,0,1","6","blank","259","null","0.37340768097498994","0.16534368398994942","0.8635353083565142","0","","","","","","","","",""
"","html-keyboard-response","78","290045","0.0-48.0-1.0","null","<p></p>","null","","","","","","","","","","","","","","","","","","","","","","","",""
"","do_recog","79","292341","0.0-49.0-0.0","786.8000000119209","","","","","","","","56","","","","260","probe-162","","","","","1","[object Object]","82","2","0","","","",""
"","html-keyboard-response","80","293344","0.0-49.0-1.0","null","<p></p>","null","","","","","","","","","","","","","","","","","","","","","","","",""
"","do_trial","81","296571","0.0-50.0-0.0","687.6000000238419","","","","","","","","49","0,0,1","6","blank","261","null","0.28250906990621333","0.2140694921907928","0.8280822911527369","0","","","","","","","","",""
"","html-keyboard-response","82","297573","0.0-50.0-1.0","null","<p></p>","null","","","","","","","","","","","","","","","","","","","","","","","",""
"","do_recog","83","299802","0.0-51.0-0.0","723.6000000238419","","","","","","","","53","","","","262","probe-55","","","","","1","[object Object]","122","3","1","","","",""
"","html-keyboard-response","84","300806","0.0-51.0-1.0","null","<p></p>","null","","","","","","","","","","","","","","","","","","","","","","","",""
"","do_trial","85","304141","0.0-52.0-0.0","795.6000000238419","","","","","","","","50","0,1,1","6","blank","263","null","0.30268583733730914","0.22677146435991585","0.5579932161213444","1","","","","","","","","",""
"","html-keyboard-response","86","305144","0.0-52.0-1.0","null","<p></p>","null","","","","","","","","","","","","","","","","","","","","","","","",""
"","do_trial","87","308210","0.0-53.0-0.0","529.3000000119209","","","","","","","","51","0,0,1","6","blank","264","null","0.06558655919465047","0.14553734390276324","0.5649974182971447","1","","","","","","","","",""
"","html-keyboard-response","88","309214","0.0-53.0-1.0","null","<p></p>","null","","","","","","","","","","","","","","","","","","","","","","","",""
"","do_trial","89","312230","0.0-54.0-0.0","480","","","","","","","","51","1,0,0","6","blank","265","null","0.3427489597922177","0.09102941135576334","0.4135619259845194","0","","","","","","","","",""
"","html-keyboard-response","90","313236","0.0-54.0-1.0","null","<p></p>","null","","","","","","","","","","","","","","","","","","","","","","","",""
"","do_recog","91","316392","0.0-55.0-0.0","1649.199999988079","","","","","","","","53","","","","266","probe-60","","","","","1","[object Object]","88","2","1","","","",""
"","html-keyboard-response","92","317396","0.0-55.0-1.0","null","<p></p>","null","","","","","","","","","","","","","","","","","","","","","","","",""
"","do_trial","93","320577","0.0-56.0-0.0","642","","","","","","","","49","0,1,0","6","blank","267","null","0.3893296113679843","0.09952146956161456","0.580305423938228","0","","","","","","","","",""
"","html-keyboard-response","94","321581","0.0-56.0-1.0","null","<p></p>","null","","","","","","","","","","","","","","","","","","","","","","","",""
"","do_recog","95","323722","0.0-57.0-0.0","632.3999999761581","","","","","","","","53","","","","268","probe-172","","","","","1","[object Object]","126","3","1","","","",""
"","html-keyboard-response","96","324726","0.0-57.0-1.0","null","<p></p>","null","","","","","","","","","","","","","","","","","","","","","","","",""
"","do_trial","97","327753","0.0-58.0-0.0","487.60000002384186","","","","","","","","51","1,0,1","6","blank","269","null","0.32463239680392847","0.1322176245875212","0.699461839597981","1","","","","","","","","",""
"","html-keyboard-response","98","328757","0.0-58.0-1.0","null","<p></p>","null","","","","","","","","","","","","","","","","","","","","","","","",""
"","do_trial","99","332036","0.0-59.0-0.0","736.7000000476837","","","","","","","","50","1,0,0","6","blank","270","null","0.32117333332813114","0.1851348143889085","0.6283521461376774","0","","","","","","","","",""
"","html-keyboard-response","100","333041","0.0-59.0-1.0","null","<p></p>","null","","","","","","","","","","","","","","","","","","","","","","","",""
"","do_trial","101","335714","0.0-60.0-0.0","130.9000000357628","","","","","","","","51","1,0,1","6","blank","271","null","0.3007434421066013","0.13249964505307923","0.6124068306649572","1","","","","","","","","",""
"","html-keyboard-response","102","336719","0.0-60.0-1.0","null","<p></p>","null","","","","","","","","","","","","","","","","","","","","","","","",""
"","do_trial","103","339652","0.0-61.0-0.0","391","","","","","","","","51","1,0,1","6","blank","272","null","0.4094746848114395","0.09910655392387248","0.5790200192829315","1","","","","","","","","",""
"","html-keyboard-response","104","340657","0.0-61.0-1.0","null","<p></p>","null","","","","","","","","","","","","","","","","","","","","","","","",""
"","do_recog","105","342927","0.0-62.0-0.0","764.8000000119209","","","","","","","","53","","","","273","probe-203","","","","","1","[object Object]","161","4","1","","","",""
"","html-keyboard-response","106","343932","0.0-62.0-1.0","null","<p></p>","null","","","","","","","","","","","","","","","","","","","","","","","",""
"","do_trial","107","347211","0.0-63.0-0.0","738.1000000238419","","","","","","","","51","0,0,1","6","blank","274","null","0.4769175447005125","0.15633814351308203","0.6545557122879638","1","","","","","","","","",""
"","html-keyboard-response","108","348216","0.0-63.0-1.0","null","<p></p>","null","","","","","","","","","","","","","","","","","","","","","","","",""
"","do_recog","109","350456","0.0-64.0-0.0","733.3999999761581","","","","","","","","53","","","","275","probe-61","","","","","1","[object Object]","207","5","1","","","",""
"","html-keyboard-response","110","351460","0.0-64.0-1.0","null","<p></p>","null","","","","","","","","","","","","","","","","","","","","","","","",""
"","do_trial","111","354799","0.0-65.0-0.0","801.6999999880791","","","","","","","","50","0,0,1","6","blank","276","null","0.45712399318130237","0.15658309214115368","0.7376610995115762","0","","","","","","","","",""
"","html-keyboard-response","112","355805","0.0-65.0-1.0","null","<p></p>","null","","","","","","","","","","","","","","","","","","","","","","","",""
"","do_recog","113","357834","0.0-66.0-0.0","520.6999999880791","","","","","","","","54","","","","277","probe-23","","","","","1","[object Object]","46","1","1","","","",""
"","html-keyboard-response","114","358838","0.0-66.0-1.0","null","<p></p>","null","","","","","","","","","","","","","","","","","","","","","","","",""
"","do_trial","115","361855","0.0-67.0-0.0","477.7000000476837","","","","","","","","51","0,0,0","6","blank","278","null","0.4530726586337152","0.13791155902998914","0.6235439739902899","0","","","","","","","","",""
"","html-keyboard-response","116","362858","0.0-67.0-1.0","null","<p></p>","null","","","","","","","","","","","","","","","","","","","","","","","",""
"","do_recog","117","365079","0.0-68.0-0.0","715.7999999523163","","","","","","","","55","","","","279","probe-252","","","","","0","[object Object]","null","null","1","","","",""
"","html-keyboard-response","118","366084","0.0-68.0-1.0","null","<p></p>","null","","","","","","","","","","","","","","","","","","","","","","","",""
"","do_trial","119","369050","0.0-69.0-0.0","424.19999998807907","","","","","","","","49","1,1,0","6","blank","280","null","0.341968423225121","0.23734254210185426","0.6444579164665063","1","","","","","","","","",""
"","html-keyboard-response","120","370051","0.0-69.0-1.0","null","<p></p>","null","","","","","","","","","","","","","","","","","","","","","","","",""
"","do_recog","121","372382","0.0-70.0-0.0","825.4000000357628","","","","","","","","56","","","","281","probe-44","","","","","1","[object Object]","167","4","0","","","",""
"","html-keyboard-response","122","373386","0.0-70.0-1.0","null","<p></p>","null","","","","","","","","","","","","","","","","","","","","","","","",""
"","do_trial","123","376401","0.0-71.0-0.0","475","","","","","","","","49","0,0,1","6","blank","282","null","0.24886257758315644","0.19349891503167121","0.6280970509611735","0","","","","","","","","",""
"","html-keyboard-response","124","377402","0.0-71.0-1.0","null","<p></p>","null","","","","","","","","","","","","","","","","","","","","","","","",""
"","do_recog","125","379743","0.0-72.0-0.0","835.3999999761581","","","","","","","","54","","","","283","probe-205","","","","","1","[object Object]","164","4","1","","","",""
"","html-keyboard-response","126","380746","0.0-72.0-1.0","null","<p></p>","null","","","","","","","","","","","","","","","","","","","","","","","",""
"","do_trial","127","383855","0.0-73.0-0.0","569.8999999761581","","","","","","","","51","0,0,1","6","blank","284","null","0.2649525040257859","0.3036302139037909","0.6015947759060553","1","","","","","","","","",""
"","html-keyboard-response","128","384859","0.0-73.0-1.0","null","<p></p>","null","","","","","","","","","","","","","","","","","","","","","","","",""
"","do_trial","129","387897","0.0-74.0-0.0","498.2999999523163","","","","","","","","51","1,0,0","6","blank","285","null","0.44779314548885363","0.27511139767888076","0.6925217620913122","0","","","","","","","","",""
"","html-keyboard-response","130","388900","0.0-74.0-1.0","null","<p></p>","null","","","","","","","","","","","","","","","","","","","","","","","",""
"","do_trial","131","392394","0.0-75.0-0.0","951","","","","","","","","50","0,0,0","6","blank","286","null","0.5312642000911548","0.13137339568639575","0.5478141019485335","0","","","","","","","","",""
"","html-keyboard-response","132","393398","0.0-75.0-1.0","null","<p></p>","null","","","","","","","","","","","","","","","","","","","","","","","",""
"","do_trial","133","396391","0.0-76.0-0.0","454.4000000357628","","","","","","","","50","0,0,1","6","blank","287","null","0.3251355858056638","0.1267452461355731","0.5474541571077952","0","","","","","","","","",""
"","html-keyboard-response","134","397396","0.0-76.0-1.0","null","<p></p>","null","","","","","","","","","","","","","","","","","","","","","","","",""
"","do_trial","135","400560","0.0-77.0-0.0","625.6999999880791","","","","","","","","51","0,1,1","6","blank","288","null","0.3481557813627628","0.10573698256445396","0.5312205294980885","1","","","","","","","","",""
"","html-keyboard-response","136","401565","0.0-77.0-1.0","null","<p></p>","null","","","","","","","","","","","","","","","","","","","","","","","",""
"","do_trial","137","404792","0.0-78.0-0.0","687.5","","","","","","","","51","0,0,0","6","blank","289","null","0.32005745862193585","0.051237815350839926","0.44448614382850005","0","","","","","","","","",""
"","html-keyboard-response","138","405794","0.0-78.0-1.0","null","<p></p>","null","","","","","","","","","","","","","","","","","","","","","","","",""
"","do_recog","139","408548","0.0-79.0-0.0","1243.5","","","","","","","","53","","","","290","probe-241","","","","","0","[object Object]","null","null","0","","","",""
"","html-keyboard-response","140","409549","0.0-79.0-1.0","null","<p></p>","null","","","","","","","","","","","","","","","","","","","","","","","",""
"","do_trial","141","412786","0.0-80.0-0.0","694.9000000357628","","","","","","","","51","1,0,1","6","blank","291","null","0.36614148583345296","0.08627261197437051","0.5315841327675497","1","","","","","","","","",""
"","html-keyboard-response","142","413788","0.0-80.0-1.0","null","<p></p>","null","","","","","","","","","","","","","","","","","","","","","","","",""
"","do_recog","143","416384","0.0-81.0-0.0","1089.800000011921","","","","","","","","54","","","","292","probe-219","","","","","1","[object Object]","205","5","1","","","",""
"","html-keyboard-response","144","417390","0.0-81.0-1.0","null","<p></p>","null","","","","","","","","","","","","","","","","","","","","","","","",""
"","do_trial","145","420339","0.0-82.0-0.0","406.80000001192093","","","","","","","","50","1,0,0","6","blank","293","null","0.46112446678190516","0.11820884701785865","0.5344879255988962","0","","","","","","","","",""
"","html-keyboard-response","146","421342","0.0-82.0-1.0","null","<p></p>","null","","","","","","","","","","","","","","","","","","","","","","","",""
"","do_trial","147","424067","0.0-83.0-0.0","184","","","","","","","","51","0,0,1","6","blank","294","null","0.4449270465379434","0.1294549383311031","0.5072369768490349","1","","","","","","","","",""
"","html-keyboard-response","148","425070","0.0-83.0-1.0","null","<p></p>","null","","","","","","","","","","","","","","","","","","","","","","","",""
"","do_trial","149","427809","0.0-84.0-0.0","199","","","","","","","","49","0,0,0","6","blank","295","null","0.4565274380310962","0.06578227652190724","0.5220081142129991","0","","","","","","","","",""
"","html-keyboard-response","150","428812","0.0-84.0-1.0","null","<p></p>","null","","","","","","","","","","","","","","","","","","","","","","","",""
"","do_recog","151","432058","0.0-85.0-0.0","1738.3999999761581","","","","","","","","55","","","","296","probe-189","","","","","1","[object Object]","127","3","0","","","",""
"","html-keyboard-response","152","433059","0.0-85.0-1.0","null","<p></p>","null","","","","","","","","","","","","","","","","","","","","","","","",""
"","do_trial","153","436217","0.0-86.0-0.0","619","","","","","","","","50","1,1,0","6","blank","297","null","0.4241668755450389","0.10781965578782755","0.4985839393691237","1","","","","","","","","",""
"","html-keyboard-response","154","437223","0.0-86.0-1.0","null","<p></p>","null","","","","","","","","","","","","","","","","","","","","","","","",""
"","do_recog","155","438866","0.0-87.0-0.0","134.5","","","","","","","","54","","","","298","probe-108","","","","","1","[object Object]","162","4","1","","","",""
"","html-keyboard-response","156","439868","0.0-87.0-1.0","null","<p></p>","null","","","","","","","","","","","","","","","","","","","","","","","",""
"","do_trial","157","443369","0.0-88.0-0.0","961.5999999642372","","","","","","","","51","0,0,0","6","blank","299","null","0.5878602442440141","0.13838821510609023","0.54262126465549","0","","","","","","","","",""
"","html-keyboard-response","158","444375","0.0-88.0-1.0","null","<p></p>","null","","","","","","","","","","","","","","","","","","","","","","","",""
"","do_trial","159","447313","0.0-89.0-0.0","399.89999997615814","","","","","","","","50","0,1,0","6","blank","300","null","0.4933436814205823","0.48510998325306437","0.202528014109548","1","","","","","","","","",""
"","html-keyboard-response","160","448317","0.0-89.0-1.0","null","<p></p>","null","","","","","","","","","","","","","","","","","","","","","","","",""
"","do_trial","161","450961","0.0-90.0-0.0","105.19999998807907","","","","","","","","49","1,1,0","6","blank","301","null","0.45729203185076794","0.43098318736958685","0.26294766699038025","1","","","","","","","","",""
"","html-keyboard-response","162","451967","0.0-90.0-1.0","null","<p></p>","null","","","","","","","","","","","","","","","","","","","","","","","",""
"","do_trial","163","454507","0.0-91.0-0.0","0.10000002384185791","","","","","","","","51","1,1,1","6","blank","302","null","0.4650791026316828","0.48502679500238927","0.12141511570839297","1","","","","","","","","",""
"","html-keyboard-response","164","455508","0.0-91.0-1.0","null","<p></p>","null","","","","","","","","","","","","","","","","","","","","","","","",""
"","do_trial","165","458164","0.0-92.0-0.0","113.70000004768372","","","","","","","","51","1,0,0","6","blank","303","null","0.4535147543769043","0.4234757202398675","0.09460464971130016","0","","","","","","","","",""
"","html-keyboard-response","166","459166","0.0-92.0-1.0","null","<p></p>","null","","","","","","","","","","","","","","","","","","","","","","","",""
"","do_recog","167","461680","0.0-93.0-0.0","1007.8000000119209","","","","","","","","54","","","","304","probe-64","","","","","1","[object Object]","169","4","1","","","",""
"","html-keyboard-response","168","462683","0.0-93.0-1.0","null","<p></p>","null","","","","","","","","","","","","","","","","","","","","","","","",""
"","do_trial","169","465844","0.0-94.0-0.0","616.9000000357628","","","","","","","","51","1,1,0","6","blank","305","null","0.3708435350448171","0.5109425624972637","0.1824614541942857","0","","","","","","","","",""
"","html-keyboard-response","170","466847","0.0-94.0-1.0","null","<p></p>","null","","","","","","","","","","","","","","","","","","","","","","","",""
"","do_trial","171","470017","0.0-95.0-0.0","630.3999999761581","","","","","","","","50","1,0,0","6","blank","306","null","0.46614021012470147","0.4563067869302422","0.17424794986871445","0","","","","","","","","",""
"","html-keyboard-response","172","471023","0.0-95.0-1.0","null","<p></p>","null","","","","","","","","","","","","","","","","","","","","","","","",""
"","do_trial","173","474040","0.0-96.0-0.0","478.60000002384186","","","","","","","","49","0,1,0","6","blank","307","null","0.41321731352243596","0.5228132556419431","0.12167836018563043","0","","","","","","","","",""
"","html-keyboard-response","174","475043","0.0-96.0-1.0","null","<p></p>","null","","","","","","","","","","","","","","","","","","","","","","","",""
"","do_trial","175","477736","0.0-97.0-0.0","155","","","","","","","","51","0,0,0","6","blank","308","null","0.38825043051875596","0.6384273781714361","0.21293932022109155","0","","","","","","","","",""
"","html-keyboard-response","176","478738","0.0-97.0-1.0","null","<p></p>","null","","","","","","","","","","","","","","","","","","","","","","","",""
"","do_trial","177","481432","0.0-98.0-0.0","154.10000002384186","","","","","","","","51","1,0,0","6","blank","309","null","0.5159046139012203","0.6373469677758936","0.09259549428575568","0","","","","","","","","",""
"","html-keyboard-response","178","482437","0.0-98.0-1.0","null","<p></p>","null","","","","","","","","","","","","","","","","","","","","","","","",""
"","do_trial","179","485128","0.0-99.0-0.0","152.39999997615814","","","","","","","","50","0,0,0","6","blank","310","null","0.41236120975758367","0.6912126498629474","0.12135854723762263","0","","","","","","","","",""
"","html-keyboard-response","180","486134","0.0-99.0-1.0","null","<p></p>","null","","","","","","","","","","","","","","","","","","","","","","","",""
"","do_recog","181","487688","0.0-100.0-0.0","47.80000001192093","","","","","","","","54","","","","311","probe-145","","","","","1","[object Object]","86","2","1","","","",""
"","html-keyboard-response","182","488691","0.0-100.0-1.0","null","<p></p>","null","","","","","","","","","","","","","","","","","","","","","","","",""
"","do_trial","183","491609","0.0-101.0-0.0","379.19999998807907","","","","","","","","49","0,1,0","6","blank","312","null","0.2690389675554395","0.5761636924413475","0.1242918746864852","0","","","","","","","","",""
"","html-keyboard-response","184","492613","0.0-101.0-1.0","null","<p></p>","null","","","","","","","","","","","","","","","","","","","","","","","",""
"","do_recog","185","494322","0.0-102.0-0.0","202.60000002384186","","","","","","","","54","","","","313","probe-50","","","","","1","[object Object]","125","3","1","","","",""
"","html-keyboard-response","186","495326","0.0-102.0-1.0","null","<p></p>","null","","","","","","","","","","","","","","","","","","","","","","","",""
"","do_trial","187","498393","0.0-103.0-0.0","528.1000000238419","","","","","","","","51","0,1,0","6","blank","314","null","0.23576759438681763","0.573030206654992","0.16465786397880003","0","","","","","","","","",""
"","html-keyboard-response","188","499399","0.0-103.0-1.0","null","<p></p>","null","","","","","","","","","","","","","","","","","","","","","","","",""
"","do_trial","189","502194","0.0-104.0-0.0","254.89999997615814","","","","","","","","50","1,1,0","6","blank","315","null","0.479982647066674","0.5586969639284727","0.17161031725625148","1","","","","","","","","",""
"","html-keyboard-response","190","503200","0.0-104.0-1.0","null","<p></p>","null","","","","","","","","","","","","","","","","","","","","","","","",""
"","do_trial","191","506146","0.0-105.0-0.0","406","","","","","","","","51","0,0,0","6","blank","316","null","0.42038948799415204","0.5005811690526281","0.05527409913056957","0","","","","","","","","",""
"","html-keyboard-response","192","507148","0.0-105.0-1.0","null","<p></p>","null","","","","","","","","","","","","","","","","","","","","","","","",""
"","do_recog","193","508800","0.0-106.0-0.0","145.80000001192093","","","","","","","","54","","","","317","probe-67","","","","","1","[object Object]","43","1","1","","","",""
"","html-keyboard-response","194","509803","0.0-106.0-1.0","null","<p></p>","null","","","","","","","","","","","","","","","","","","","","","","","",""
"","do_trial","195","512449","0.0-107.0-0.0","105","","","","","","","","49","0,1,0","6","blank","318","null","0.22559575544444102","0.5605432467524479","0.13229609018682598","0","","","","","","","","",""
"","html-keyboard-response","196","513453","0.0-107.0-1.0","null","<p></p>","null","","","","","","","","","","","","","","","","","","","","","","","",""
"","do_trial","197","516097","0.0-108.0-0.0","103.30000001192093","","","","","","","","50","0,1,1","6","blank","319","null","0.21438908280830354","0.7246441954676323","0.2452272573183813","1","","","","","","","","",""
"","html-keyboard-response","198","517103","0.0-108.0-1.0","null","<p></p>","null","","","","","","","","","","","","","","","","","","","","","","","",""
"","do_trial","199","519791","0.0-109.0-0.0","150","","","","","","","","50","0,1,0","6","blank","320","null","0.19105862315057864","0.5438932925086908","0.16414019076573927","1","","","","","","","","",""
"","html-keyboard-response","200","520793","0.0-109.0-1.0","null","<p></p>","null","","","","","","","","","","","","","","","","","","","","","","","",""
"","do_trial","201","523392","0.0-110.0-0.0","61.69999998807907","","","","","","","","51","0,0,0","6","blank","321","null","0.3629077306827136","0.450659710680449","0.15636468791656405","0","","","","","","","","",""
"","html-keyboard-response","202","524395","0.0-110.0-1.0","null","<p></p>","null","","","","","","","","","","","","","","","","","","","","","","","",""
"","do_recog","203","526138","0.0-111.0-0.0","236.30000001192093","","","","","","","","54","","","","322","probe-254","","","","","0","[object Object]","null","null","0","","","",""
"","html-keyboard-response","204","527144","0.0-111.0-1.0","null","<p></p>","null","","","","","","","","","","","","","","","","","","","","","","","",""
"","do_trial","205","530023","0.0-112.0-0.0","343.19999998807907","","","","","","","","50","0,1,1","6","blank","323","null","0.37914055296350463","0.5449169256550043","0.11346932607824016","1","","","","","","","","",""
"","html-keyboard-response","206","531026","0.0-112.0-1.0","null","<p></p>","null","","","","","","","","","","","","","","","","","","","","","","","",""
"","do_recog","207","533067","0.0-113.0-0.0","532","","","","","","","","54","","","","324","probe-147","","","","","1","[object Object]","120","3","1","","","",""
"","html-keyboard-response","208","534074","0.0-113.0-1.0","null","<p></p>","null","","","","","","","","","","","","","","","","","","","","","","","",""
"","do_trial","209","536962","0.0-114.0-0.0","349.30000001192093","","","","","","","","50","0,1,0","6","blank","325","null","0.4636165237987397","0.7029275450886902","0.1431002982480404","1","","","","","","","","",""
"","html-keyboard-response","210","537964","0.0-114.0-1.0","null","<p></p>","null","","","","","","","","","","","","","","","","","","","","","","","",""
"","do_recog","211","539633","0.0-115.0-0.0","161.89999997615814","","","","","","","","54","","","","326","probe-32","","","","","1","[object Object]","202","5","1","","","",""
"","html-keyboard-response","212","540639","0.0-115.0-1.0","null","<p></p>","null","","","","","","","","","","","","","","","","","","","","","","","",""
"","do_trial","213","543412","0.0-116.0-0.0","230.69999998807907","","","","","","","","51","1,0,0","6","blank","327","null","0.29854522713178183","0.5735403711758703","0.06066889971211098","0","","","","","","","","",""
"","html-keyboard-response","214","544417","0.0-116.0-1.0","null","<p></p>","null","","","","","","","","","","","","","","","","","","","","","","","",""
"","do_trial","215","546958","0.0-117.0-0.0","0.19999998807907104","","","","","","","","51","0,1,0","6","blank","328","null","0.27824318963948375","0.7685659711262145","0.1910405679156633","0","","","","","","","","",""
"","html-keyboard-response","216","547961","0.0-117.0-1.0","null","<p></p>","null","","","","","","","","","","","","","","","","","","","","","","","",""
"","do_trial","217","550501","0.0-118.0-0.0","0.6000000238418579","","","","","","","","50","0,1,0","6","blank","329","null","0.3113502947536096","0.7160240887409096","0.15320588043451838","1","","","","","","","","",""
"","html-keyboard-response","218","551507","0.0-118.0-1.0","null","<p></p>","null","","","","","","","","","","","","","","","","","","","","","","","",""
"","do_trial","219","554128","0.0-119.0-0.0","82","","","","","","","","50","0,0,0","6","blank","330","null","0.29396878920354796","0.7912328454073245","0.07650510166049107","0","","","","","","","","",""
"","html-keyboard-response","220","555132","0.0-119.0-1.0","null","<p></p>","null","","","","","","","","","","","","","","","","","","","","","","","",""
"","do_trial","221","558274","0.0-120.0-0.0","602.3999999761581","","","","","","","","49","0,1,0","6","blank","331","null","0.196707529380448","0.5953316756651783","0.1756177448694704","0","","","","","","","","",""
"","html-keyboard-response","222","559280","0.0-120.0-1.0","null","<p></p>","null","","","","","","","","","","","","","","","","","","","","","","","",""
"","do_trial","223","561857","0.0-121.0-0.0","38.90000003576279","","","","","","","","49","0,1,0","6","blank","332","null","0.20222552408918798","0.7591867404382344","0.08980973043328817","0","","","","","","","","",""
"","html-keyboard-response","224","562860","0.0-121.0-1.0","null","<p></p>","null","","","","","","","","","","","","","","","","","","","","","","","",""
"","do_recog","225","564656","0.0-122.0-0.0","290.80000001192093","","","","","","","","54","","","","333","probe-234","","","","","0","[object Object]","null","null","0","","","",""
"","html-keyboard-response","226","565662","0.0-122.0-1.0","null","<p></p>","null","","","","","","","","","","","","","","","","","","","","","","","",""
"","do_trial","227","568368","0.0-123.0-0.0","169.10000002384186","","","","","","","","50","1,1,0","6","blank","334","null","0.2970488333431948","0.6991174251034172","0.10366607861960646","1","","","","","","","","",""
"","html-keyboard-response","228","569372","0.0-123.0-1.0","null","<p></p>","null","","","","","","","","","","","","","","","","","","","","","","","",""
"","do_recog","229","571460","0.0-124.0-0.0","578.5","","","","","","","","54","","","","335","probe-157","","","","","1","[object Object]","80","2","1","","","",""
"","html-keyboard-response","230","572464","0.0-124.0-1.0","null","<p></p>","null","","","","","","","","","","","","","","","","","","","","","","","",""
"","do_trial","231","575769","0.0-125.0-0.0","765.6000000238419","","","","","","","","50","0,1,0","6","blank","336","null","0.4386409906805939","0.6316634707162944","0.08611393676747632","1","","","","","","","","",""
"","html-keyboard-response","232","576773","0.0-125.0-1.0","null","<p></p>","null","","","","","","","","","","","","","","","","","","","","","","","",""
"","do_trial","233","579676","0.0-126.0-0.0","361.69999998807907","","","","","","","","51","0,0,0","6","blank","337","null","0.3819676678178582","0.6258990997872308","0.18498371824172832","0","","","","","","","","",""
"","html-keyboard-response","234","580681","0.0-126.0-1.0","null","<p></p>","null","","","","","","","","","","","","","","","","","","","","","","","",""
"","do_trial","235","583897","0.0-127.0-0.0","677.8000000119209","","","","","","","","49","0,1,1","6","blank","338","null","0.37203416273673007","0.6380365247917533","0.11678955963816093","0","","","","","","","","",""
"","html-keyboard-response","236","584902","0.0-127.0-1.0","null","<p></p>","null","","","","","","","","","","","","","","","","","","","","","","","",""
"","do_trial","237","587810","0.0-128.0-0.0","368.10000002384186","","","","","","","","50","1,1,0","6","blank","339","null","0.30445579538348727","0.5522310342291707","0.058365448653939785","1","","","","","","","","",""
"","html-keyboard-response","238","588815","0.0-128.0-1.0","null","<p></p>","null","","","","","","","","","","","","","","","","","","","","","","","",""
"","do_trial","239","591543","0.0-129.0-0.0","191.9000000357628","","","","","","","","50","0,1,0","6","blank","340","null","0.33321670076347154","0.5242600698826745","0.09290775434100716","1","","","","","","","","",""
"","html-keyboard-response","240","592545","0.0-129.0-1.0","null","<p></p>","null","","","","","","","","","","","","","","","","","","","","","","","",""
"","do_trial","241","595283","0.0-130.0-0.0","197.89999997615814","","","","","","","","51","0,0,0","6","blank","341","null","0.34128276892081116","0.4817796049805641","0.13289232025636968","0","","","","","","","","",""
"","html-keyboard-response","242","596287","0.0-130.0-1.0","null","<p></p>","null","","","","","","","","","","","","","","","","","","","","","","","",""
"","do_trial","243","598921","0.0-131.0-0.0","95.59999996423721","","","","","","","","50","0,1,0","6","blank","342","null","0.3141851987666668","0.5933603722233243","0.17329821217480498","1","","","","","","","","",""
"","html-keyboard-response","244","599923","0.0-131.0-1.0","null","<p></p>","null","","","","","","","","","","","","","","","","","","","","","","","",""
"","do_recog","245","601962","0.0-132.0-0.0","532.2999999523163","","","","","","","","54","","","","343","probe-29","","","","","1","[object Object]","165","4","1","","","",""
"","html-keyboard-response","246","602965","0.0-132.0-1.0","null","<p></p>","null","","","","","","","","","","","","","","","","","","","","","","","",""
"","do_trial","247","606057","0.0-133.0-0.0","550.8000000119209","","","","","","","","50","0,1,1","6","blank","344","null","0.3351144109692733","0.587004408335427","0.13512917629767943","1","","","","","","","","",""
"","html-keyboard-response","248","607060","0.0-133.0-1.0","null","<p></p>","null","","","","","","","","","","","","","","","","","","","","","","","",""
"","do_trial","249","610104","0.0-134.0-0.0","503.39999997615814","","","","","","","","50","1,1,0","6","blank","345","null","0.21799637536703834","0.6645516622542297","0.10935304171193756","1","","","","","","","","",""
"","html-keyboard-response","250","611107","0.0-134.0-1.0","null","<p></p>","null","","","","","","","","","","","","","","","","","","","","","","","",""
"","do_trial","251","613996","0.0-135.0-0.0","347.69999998807907","","","","","","","","51","1,0,0","6","blank","346","null","0.2017145540175453","0.7163341780701219","0.07922689127876781","0","","","","","","","","",""
"","html-keyboard-response","252","614998","0.0-135.0-1.0","null","<p></p>","null","","","","","","","","","","","","","","","","","","","","","","","",""
"","do_trial","253","618088","0.0-136.0-0.0","553.1000000238419","","","","","","","","50","0,1,0","6","blank","347","null","0.28993555362898304","0.735009411636492","0.11234607189015329","1","","","","","","","","",""
"","html-keyboard-response","254","619091","0.0-136.0-1.0","null","<p></p>","null","","","","","","","","","","","","","","","","","","","","","","","",""
"","do_trial","255","621707","0.0-137.0-0.0","74.10000002384186","","","","","","","","50","0,0,1","6","blank","348","null","0.2720587753017291","0.5407050679418973","0.18287345732980353","0","","","","","","","","",""
"","html-keyboard-response","256","622712","0.0-137.0-1.0","null","<p></p>","null","","","","","","","","","","","","","","","","","","","","","","","",""
"","do_recog","257","624650","0.0-138.0-0.0","432","","","","","","","","54","","","","349","probe-227","","","","","1","[object Object]","204","5","1","","","",""
"","html-keyboard-response","258","625655","0.0-138.0-1.0","null","<p></p>","null","","","","","","","","","","","","","","","","","","","","","","","",""
"","do_trial","259","628809","0.0-139.0-0.0","615.1999999880791","","","","","","","","49","0,0,1","6","blank","350","null","0.3607111400216722","0.5431932927453074","0.14746852252380324","0","","","","","","","","",""
"","html-keyboard-response","260","629811","0.0-139.0-1.0","null","<p></p>","null","","","","","","","","","","","","","","","","","","","","","","","",""
"","do_trial","261","632354","0.0-140.0-0.0","4.599999964237213","","","","","","","","50","0,1,0","6","blank","351","null","0.4750604697093466","0.33363185324145905","0.10364341120062649","1","","","","","","","","",""
"","html-keyboard-response","262","633359","0.0-140.0-1.0","null","<p></p>","null","","","","","","","","","","","","","","","","","","","","","","","",""
"","do_trial","263","636476","0.0-141.0-0.0","575.8999999761581","","","","","","","","50","0,0,0","6","blank","352","null","0.545676464281516","0.20888975202042318","0.15025123922952235","0","","","","","","","","",""
"","html-keyboard-response","264","637479","0.0-141.0-1.0","null","<p></p>","null","","","","","","","","","","","","","","","","","","","","","","","",""
"","do_trial","265","640176","0.0-142.0-0.0","159.39999997615814","","","","","","","","50","1,1,0","6","blank","353","null","0.47383519074979885","0.2482016514414491","0.11420884780536966","1","","","","","","","","",""
"","html-keyboard-response","266","641183","0.0-142.0-1.0","null","<p></p>","null","","","","","","","","","","","","","","","","","","","","","","","",""
"","do_recog","267","643667","0.0-143.0-0.0","975.9000000357628","","","","","","","","54","","","","354","probe-10","","","","","1","[object Object]","123","3","1","","","",""
"","html-keyboard-response","268","644672","0.0-143.0-1.0","null","<p></p>","null","","","","","","","","","","","","","","","","","","","","","","","",""
"","do_trial","269","647211","0.0-144.0-0.0","0.10000002384185791","","","","","","","","51","1,0,0","6","blank","355","null","0.5309938008427528","0.30206694530926004","0.20012966201067425","0","","","","","","","","",""
"","html-keyboard-response","270","648212","0.0-144.0-1.0","null","<p></p>","null","","","","","","","","","","","","","","","","","","","","","","","",""
"","do_trial","271","650849","0.0-145.0-0.0","99.60000002384186","","","","","","","","50","1,0,0","6","blank","356","null","0.47222788181004305","0.14465861917554318","0.12677472598902365","0","","","","","","","","",""
"","html-keyboard-response","272","651852","0.0-145.0-1.0","null","<p></p>","null","","","","","","","","","","","","","","","","","","","","","","","",""
"","do_recog","273","653403","0.0-146.0-0.0","42","","","","","","","","53","","","","357","probe-141","","","","","1","[object Object]","42","1","1","","","",""
"","html-keyboard-response","274","654405","0.0-146.0-1.0","null","<p></p>","null","","","","","","","","","","","","","","","","","","","","","","","",""
"","do_trial","275","657268","0.0-147.0-0.0","320.9000000357628","","","","","","","","50","0,0,0","6","blank","358","null","0.46631625939382704","0.1636784043933823","0.13320284081421133","0","","","","","","","","",""
"","html-keyboard-response","276","658270","0.0-147.0-1.0","null","<p></p>","null","","","","","","","","","","","","","","","","","","","","","","","",""
"","do_trial","277","661216","0.0-148.0-0.0","408.2999999523163","","","","","","","","50","0,0,0","6","blank","359","null","0.5389233816585514","0.0655336236566207","0.1091566671630601","0","","","","","","","","",""
"","html-keyboard-response","278","662222","0.0-148.0-1.0","null","<p></p>","null","","","","","","","","","","","","","","","","","","","","","","","",""
"","do_trial","279","665307","0.0-149.0-0.0","545.1000000238419","","","","","","","","50","1,0,0","6","blank","360","null","0.6358886797515001","0.24997396554493748","0.054330309172119395","0","","","","","","","","",""
"","html-keyboard-response","280","666309","0.0-149.0-1.0","null","<p></p>","null","","","","","","","","","","","","","","","","","","","","","","","",""
"","do_recog","281","667985","0.0-150.0-0.0","169.0999999642372","","","","","","","","54","","","","361","probe-16","","","","","1","[object Object]","49","1","1","","","",""
"","html-keyboard-response","282","668988","0.0-150.0-1.0","null","<p></p>","null","","","","","","","","","","","","","","","","","","","","","","","",""
"","do_trial","283","671796","0.0-151.0-0.0","266.69999998807907","","","","","","","","49","0,0,1","6","blank","362","null","0.696663131807058","0.25769248157015295","0.11848812404520462","0","","","","","","","","",""
"","html-keyboard-response","284","672799","0.0-151.0-1.0","null","<p></p>","null","","","","","","","","","","","","","","","","","","","","","","","",""
"","do_trial","285","675912","0.0-152.0-0.0","573.2000000476837","","","","","","","","51","1,0,0","6","blank","363","null","0.5715885198469007","0.18394961651811195","0.1965649552499324","0","","","","","","","","",""
"","html-keyboard-response","286","676914","0.0-152.0-1.0","null","<p></p>","null","","","","","","","","","","","","","","","","","","","","","","","",""
"","do_trial","287","679683","0.0-153.0-0.0","225.79999995231628","","","","","","","","51","0,0,0","6","blank","364","null","0.6469816746507567","0.23598108531597695","0.18831540095424268","0","","","","","","","","",""
"","html-keyboard-response","288","680686","0.0-153.0-1.0","null","<p></p>","null","","","","","","","","","","","","","","","","","","","","","","","",""
"","do_trial","289","683225","0.0-154.0-0.0","0.19999998807907104","","","","","","","","50","0,0,0","6","blank","365","null","0.5942409590876953","0.2687750424083686","0.061678229728856185","0","","","","","","","","",""
"","html-keyboard-response","290","684229","0.0-154.0-1.0","null","<p></p>","null","","","","","","","","","","","","","","","","","","","","","","","",""
"","do_trial","291","686826","0.0-155.0-0.0","57.10000002384186","","","","","","","","50","1,0,0","6","blank","366","null","0.7496445846331113","0.24001125600783746","0.1477943528815661","0","","","","","","","","",""
"","html-keyboard-response","292","687830","0.0-155.0-1.0","null","<p></p>","null","","","","","","","","","","","","","","","","","","","","","","","",""
"","do_recog","293","689514","0.0-156.0-0.0","177.69999998807907","","","","","","","","54","","","","367","probe-37","","","","","1","[object Object]","200","5","1","","","",""
"","html-keyboard-response","294","690518","0.0-156.0-1.0","null","<p></p>","null","","","","","","","","","","","","","","","","","","","","","","","",""
"","do_trial","295","693228","0.0-157.0-0.0","170","","","","","","","","50","1,0,0","6","blank","368","null","0.6583623970150434","0.304971388183201","0.20679765928634758","0","","","","","","","","",""
"","html-keyboard-response","296","694231","0.0-157.0-1.0","null","<p></p>","null","","","","","","","","","","","","","","","","","","","","","","","",""
"","do_trial","297","697428","0.0-158.0-0.0","657.8999999761581","","","","","","","","50","1,0,0","6","blank","369","null","0.7081639180324819","0.22333591111720588","0.12168526283366607","0","","","","","","","","",""
"","html-keyboard-response","298","698432","0.0-158.0-1.0","null","<p></p>","null","","","","","","","","","","","","","","","","","","","","","","","",""
"","do_trial","299","701406","0.0-159.0-0.0","434.5999999642372","","","","","","","","50","0,1,0","6","blank","370","null","0.7328726873622499","0.3189139104024238","0.13725717128181125","1","","","","","","","","",""
"","html-keyboard-response","300","702408","0.0-159.0-1.0","null","<p></p>","null","","","","","","","","","","","","","","","","","","","","","","","",""
"","do_trial","301","705487","0.0-160.0-0.0","536.9000000357628","","","","","","","","51","1,0,0","6","blank","371","null","0.6687347577818014","0.2713408403079248","0.10283781301377792","0","","","","","","","","",""
"","html-keyboard-response","302","706491","0.0-160.0-1.0","null","<p></p>","null","","","","","","","","","","","","","","","","","","","","","","","",""
"","do_trial","303","709621","0.0-161.0-0.0","591.0999999642372","","","","","","","","50","1,0,0","6","blank","372","null","0.5606360141522049","0.213026940595402","0.18664945604405028","0","","","","","","","","",""
"","html-keyboard-response","304","710625","0.0-161.0-1.0","null","<p></p>","null","","","","","","","","","","","","","","","","","","","","","","","",""
"","do_trial","305","713253","0.0-162.0-0.0","90.10000002384186","","","","","","","","49","1,0,1","6","blank","373","null","0.5471868797425166","0.31343566401670725","0.11753968007400671","1","","","","","","","","",""
"","html-keyboard-response","306","714254","0.0-162.0-1.0","null","<p></p>","null","","","","","","","","","","","","","","","","","","","","","","","",""
"","do_recog","307","715909","0.0-163.0-0.0","150.5","","","","","","","","54","","","","374","probe-76","","","","","1","[object Object]","84","2","1","","","",""
"","html-keyboard-response","308","716915","0.0-163.0-1.0","null","<p></p>","null","","","","","","","","","","","","","","","","","","","","","","","",""
"","do_trial","309","719536","0.0-164.0-0.0","78.69999998807907","","","","","","","","50","0,0,0","6","blank","375","null","0.5758101698718454","0.2799265371902562","0.12753044854265544","0","","","","","","","","",""
"","html-keyboard-response","310","720540","0.0-164.0-1.0","null","<p></p>","null","","","","","","","","","","","","","","","","","","","","","","","",""
"","do_recog","311","722149","0.0-165.0-0.0","103.10000002384186","","","","","","","","54","","","","376","probe-68","","","","","1","[object Object]","163","4","1","","","",""
"","html-keyboard-response","312","723151","0.0-165.0-1.0","null","<p></p>","null","","","","","","","","","","","","","","","","","","","","","","","",""
"","do_trial","313","726582","0.0-166.0-0.0","890.7999999523163","","","","","","","","51","1,0,0","6","blank","377","null","0.7103070351277566","0.301613097416149","0.13198450558355415","0","","","","","","","","",""
"","html-keyboard-response","314","727585","0.0-166.0-1.0","null","<p></p>","null","","","","","","","","","","","","","","","","","","","","","","","",""
"","do_trial","315","730341","0.0-167.0-0.0","216.69999998807907","","","","","","","","49","0,0,0","6","blank","378","null","0.7478346678883575","0.2992028174432611","0.15819461340999907","0","","","","","","","","",""
"","html-keyboard-response","316","731342","0.0-167.0-1.0","null","<p></p>","null","","","","","","","","","","","","","","","","","","","","","","","",""
"","do_trial","317","734038","0.0-168.0-0.0","155.5","","","","","","","","50","1,1,1","6","blank","379","null","0.7419190068782604","0.45891413512231255","0.08118462629161767","1","","","","","","","","",""
"","html-keyboard-response","318","735039","0.0-168.0-1.0","null","<p></p>","null","","","","","","","","","","","","","","","","","","","","","","","",""
"","do_trial","319","737645","0.0-169.0-0.0","67.40000003576279","","","","","","","","50","1,1,0","6","blank","380","null","0.724831686312313","0.44384681296223966","0.14583072608106912","1","","","","","","","","",""
"","html-keyboard-response","320","738649","0.0-169.0-1.0","null","<p></p>","null","","","","","","","","","","","","","","","","","","","","","","","",""
"","do_recog","321","740366","0.0-170.0-0.0","210.69999998807907","","","","","","","","54","","","","381","probe-238","","","","","0","[object Object]","null","null","0","","","",""
"","html-keyboard-response","322","741368","0.0-170.0-1.0","null","<p></p>","null","","","","","","","","","","","","","","","","","","","","","","","",""
"","do_trial","323","744150","0.0-171.0-0.0","241.89999997615814","","","","","","","","51","1,1,1","6","blank","382","null","0.6977189171552304","0.3720446784995557","0.12528567194158763","1","","","","","","","","",""
"","html-keyboard-response","324","745152","0.0-171.0-1.0","null","<p></p>","null","","","","","","","","","","","","","","","","","","","","","","","",""
"","do_trial","325","748878","0.0-172.0-0.0","1187.9000000357628","","","","","","","","50","1,0,0","6","blank","383","null","0.6676247651163131","0.4503321105465463","0.05128507069641417","0","","","","","","","","",""
"","html-keyboard-response","326","749881","0.0-172.0-1.0","null","<p></p>","null","","","","","","","","","","","","","","","","","","","","","","","",""
"","do_recog","327","751550","0.0-173.0-0.0","163.20000004768372","","","","","","","","54","","","","384","probe-178","","","","","1","[object Object]","121","3","1","","","",""
"","html-keyboard-response","328","752556","0.0-173.0-1.0","null","<p></p>","null","","","","","","","","","","","","","","","","","","","","","","","",""
"","do_trial","329","755255","0.0-174.0-0.0","159","","","","","","","","51","0,0,0","6","blank","385","null","0.6321315633919963","0.36099476959796617","0.154288594758369","0","","","","","","","","",""
"","html-keyboard-response","330","756256","0.0-174.0-1.0","null","<p></p>","null","","","","","","","","","","","","","","","","","","","","","","","",""
"","do_trial","331","759102","0.0-175.0-0.0","306.5","","","","","","","","49","1,1,0","6","blank","386","null","0.6768924092341161","0.3832294815599995","0.05918281192458595","1","","","","","","","","",""
"","html-keyboard-response","332","760104","0.0-175.0-1.0","null","<p></p>","null","","","","","","","","","","","","","","","","","","","","","","","",""
"","do_trial","333","762895","0.0-176.0-0.0","249.5999999642372","","","","","","","","50","1,0,0","6","blank","387","null","0.5054216253531989","0.5014415340795358","0.11264406279632974","0","","","","","","","","",""
"","html-keyboard-response","334","763897","0.0-176.0-1.0","null","<p></p>","null","","","","","","","","","","","","","","","","","","","","","","","",""
"","do_trial","335","766706","0.0-177.0-0.0","267.19999998807907","","","","","","","","49","0,0,1","6","blank","388","null","0.451409925360298","0.35559283876658365","0.1450718828125784","0","","","","","","","","",""
"","html-keyboard-response","336","767708","0.0-177.0-1.0","null","<p></p>","null","","","","","","","","","","","","","","","","","","","","","","","",""
"","do_trial","337","770264","0.0-178.0-0.0","15.600000023841858","","","","","","","","51","0,0,0","6","blank","389","null","0.3862277166672139","0.38867848999756077","0.07801905272682245","0","","","","","","","","",""
"","html-keyboard-response","338","771266","0.0-178.0-1.0","null","<p></p>","null","","","","","","","","","","","","","","","","","","","","","","","",""
"","do_recog","339","772895","0.0-179.0-0.0","121.5","","","","","","","","54","","","","390","probe-119","","","","","1","[object Object]","40","1","1","","","",""
"","html-keyboard-response","340","773899","0.0-179.0-1.0","null","<p></p>","null","","","","","","","","","","","","","","","","","","","","","","","",""
"","do_trial","341","776765","0.0-180.0-0.0","329.10000002384186","","","","","","","","50","0,0,0","6","blank","391","null","0.3244779559345075","0.36239140219900934","0.24630555451880162","0","","","","","","","","",""
"","html-keyboard-response","342","777767","0.0-180.0-1.0","null","<p></p>","null","","","","","","","","","","","","","","","","","","","","","","","",""
"","do_trial","343","780847","0.0-181.0-0.0","541","","","","","","","","51","0,0,0","6","blank","392","null","0.45450788590135494","0.3718375095711496","0.1766168192837798","0","","","","","","","","",""
"","html-keyboard-response","344","781851","0.0-181.0-1.0","null","<p></p>","null","","","","","","","","","","","","","","","","","","","","","","","",""
"","do_trial","345","784567","0.0-182.0-0.0","178.4000000357628","","","","","","","","51","0,0,0","6","blank","393","null","0.4434955005923662","0.45119485861451347","0.163155550886142","0","","","","","","","","",""
"","html-keyboard-response","346","785571","0.0-182.0-1.0","null","<p></p>","null","","","","","","","","","","","","","","","","","","","","","","","",""
"","do_trial","347","788664","0.0-183.0-0.0","552.2999999523163","","","","","","","","49","1,0,0","6","blank","394","null","0.4987650525939126","0.4646940796054291","0.11307008670012908","1","","","","","","","","",""
"","html-keyboard-response","348","789667","0.0-183.0-1.0","null","<p></p>","null","","","","","","","","","","","","","","","","","","","","","","","",""
"","do_trial","349","792294","0.0-184.0-0.0","89.39999997615814","","","","","","","","49","0,0,1","6","blank","395","null","0.517502587526622","0.37301709775357944","0.12038324060928679","0","","","","","","","","",""
"","html-keyboard-response","350","793297","0.0-184.0-1.0","null","<p></p>","null","","","","","","","","","","","","","","","","","","","","","","","",""
"","do_trial","351","795917","0.0-185.0-0.0","81","","","","","","","","50","0,0,0","6","blank","396","null","0.5060193366876929","0.330463015194711","0.10379189469735932","0","","","","","","","","",""
"","html-keyboard-response","352","796924","0.0-185.0-1.0","null","<p></p>","null","","","","","","","","","","","","","","","","","","","","","","","",""
"","do_trial","353","799545","0.0-186.0-0.0","81.19999998807907","","","","","","","","49","0,1,0","6","blank","397","null","0.4485632792477863","0.4944766565889188","0.06754545949613049","0","","","","","","","","",""
"","html-keyboard-response","354","800546","0.0-186.0-1.0","null","<p></p>","null","","","","","","","","","","","","","","","","","","","","","","","",""
"","do_recog","355","802682","0.0-187.0-0.0","628.3000000119209","","","","","","","","54","","","","398","probe-183","","","","","1","[object Object]","83","2","1","","","",""
"","html-keyboard-response","356","803685","0.0-187.0-1.0","null","<p></p>","null","","","","","","","","","","","","","","","","","","","","","","","",""
"","do_trial","357","807055","0.0-188.0-0.0","831.8999999761581","","","","","","","","51","0,0,0","6","blank","399","null","0.47373601534415977","0.4791832507572692","0.1579950336621405","0","","","","","","","","",""
"","html-keyboard-response","358","808059","0.0-188.0-1.0","null","<p></p>","null","","","","","","","","","","","","","","","","","","","","","","","",""
"","do_trial","359","810622","0.0-189.0-0.0","25.600000023841858","","","","","","","","50","0,1,0","6","blank","400","null","0.4026482054371557","0.604963628245822","0.21986130238535154","1","","","","","","","","",""
"","html-keyboard-response","360","811626","0.0-189.0-1.0","null","<p></p>","null","","","","","","","","","","","","","","","","","","","","","","","",""
"","do_trial","361","814656","0.0-190.0-0.0","490.2000000476837","","","","","","","","50","1,0,1","6","blank","401","null","0.3729007581357752","0.4722773080245492","0.1867164211570809","0","","","","","","","","",""
"","html-keyboard-response","362","815660","0.0-190.0-1.0","null","<p></p>","null","","","","","","","","","","","","","","","","","","","","","","","",""
"","do_trial","363","818223","0.0-191.0-0.0","22.69999998807907","","","","","","","","49","0,0,0","6","blank","402","null","0.2966778882487525","0.6097885209818351","0.33924890011007386","0","","","","","","","","",""
"","html-keyboard-response","364","819225","0.0-191.0-1.0","null","<p></p>","null","","","","","","","","","","","","","","","","","","","","","","","",""
"","do_trial","365","822057","0.0-192.0-0.0","287.19999998807907","","","","","","","","51","0,0,1","6","blank","403","null","0.14672660714942867","0.4306739910507102","0.4255179593243033","1","","","","","","","","",""
"","html-keyboard-response","366","823061","0.0-192.0-1.0","null","<p></p>","null","","","","","","","","","","","","","","","","","","","","","","","",""
"","do_trial","367","826281","0.0-193.0-0.0","679.6000000238419","","","","","","","","51","0,0,1","6","blank","404","null","0.09461871259664863","0.28790504108832815","0.5179559125367899","1","","","","","","","","",""
"","html-keyboard-response","368","827284","0.0-193.0-1.0","null","<p></p>","null","","","","","","","","","","","","","","","","","","","","","","","",""
"","do_recog","369","829095","0.0-194.0-0.0","305.60000002384186","","","","","","","","54","","","","405","probe-113","","","","","1","[object Object]","160","4","1","","","",""
"","html-keyboard-response","370","830098","0.0-194.0-1.0","null","<p></p>","null","","","","","","","","","","","","","","","","","","","","","","","",""
"","do_trial","371","833400","0.0-195.0-0.0","763.5","","","","","","","","51","0,0,1","6","blank","406","null","0.15751861453174182","0.2569887359777909","0.5349762349289436","1","","","","","","","","",""
"","html-keyboard-response","372","834403","0.0-195.0-1.0","null","<p></p>","null","","","","","","","","","","","","","","","","","","","","","","","",""
"","do_recog","373","836174","0.0-196.0-0.0","266.19999998807907","","","","","","","","54","","","","407","probe-190","","","","","1","[object Object]","47","1","1","","","",""
"","html-keyboard-response","374","837180","0.0-196.0-1.0","null","<p></p>","null","","","","","","","","","","","","","","","","","","","","","","","",""
"","do_trial","375","839920","0.0-197.0-0.0","201","","","","","","","","49","0,1,0","6","blank","408","null","0.17753772657239517","0.24527764119711357","0.55078533666036","0","","","","","","","","",""
"","html-keyboard-response","376","840923","0.0-197.0-1.0","null","<p></p>","null","","","","","","","","","","","","","","","","","","","","","","","",""
"","do_recog","377","842583","0.0-198.0-0.0","153.69999998807907","","","","","","","","54","","","","409","probe-165","","","","","1","[object Object]","206","5","1","","","",""
"","html-keyboard-response","378","843586","0.0-198.0-1.0","null","<p></p>","null","","","","","","","","","","","","","","","","","","","","","","","",""
"","do_trial","379","846305","0.0-199.0-0.0","177.9000000357628","","","","","","","","51","0,0,1","6","blank","410","null","0.16063516313932114","0.2502671406121861","0.6071961607380864","1","","","","","","","","",""
"","html-keyboard-response","380","847308","0.0-199.0-1.0","null","<p></p>","null","","","","","","","","","","","","","","","","","","","","","","","",""
"","do_recog","381","848840","0.0-200.0-0.0","26.299999952316284","","","","","","","","54","","","","411","probe-123","","","","","1","[object Object]","81","2","1","","","",""
"","html-keyboard-response","382","849843","0.0-200.0-1.0","null","<p></p>","null","","","","","","","","","","","","","","","","","","","","","","","",""
"","do_trial","383","852672","0.0-201.0-0.0","290.69999998807907","","","","","","","","50","0,0,1","6","blank","412","null","0.09611831540933553","0.29263946773649585","0.43073920385441883","0","","","","","","","","",""
"","html-keyboard-response","384","853673","0.0-201.0-1.0","null","<p></p>","null","","","","","","","","","","","","","","","","","","","","","","","",""
"","do_trial","385","856319","0.0-202.0-0.0","107.40000003576279","","","","","","","","51","0,0,1","6","blank","413","null","0.0869996014356567","0.3245878360255177","0.518321749597392","1","","","","","","","","",""
"","html-keyboard-response","386","857323","0.0-202.0-1.0","null","<p></p>","null","","","","","","","","","","","","","","","","","","","","","","","",""
"","do_trial","387","859920","0.0-203.0-0.0","57.80000001192093","","","","","","","","51","0,0,0","6","blank","414","null","0.07730877613242815","0.26256119797811595","0.45704217443316647","0","","","","","","","","",""
"","html-keyboard-response","388","860923","0.0-203.0-1.0","null","<p></p>","null","","","","","","","","","","","","","","","","","","","","","","","",""
"","do_recog","389","862433","0.0-204.0-0.0","2.199999988079071","","","","","","","","54","","","","415","probe-130","","","","","1","[object Object]","201","5","1","","","",""
"","html-keyboard-response","390","863436","0.0-204.0-1.0","null","<p></p>","null","","","","","","","","","","","","","","","","","","","","","","","",""
"","do_trial","391","866026","0.0-205.0-0.0","50.10000002384186","","","","","","","","49","0,0,1","6","blank","416","null","0.10559563595126242","0.40235906487231005","0.5576028912635078","0","","","","","","","","",""
"","html-keyboard-response","392","867030","0.0-205.0-1.0","null","<p></p>","null","","","","","","","","","","","","","","","","","","","","","","","",""
"","do_recog","393","869305","0.0-206.0-0.0","768.1999999880791","","","","","","","","54","","","","417","probe-89","","","","","1","[object Object]","168","4","1","","","",""
"","html-keyboard-response","394","870308","0.0-206.0-1.0","null","<p></p>","null","","","","","","","","","","","","","","","","","","","","","","","",""
"","do_trial","395","873275","0.0-207.0-0.0","426.19999998807907","","","","","","","","51","0,1,1","6","blank","418","null","0.10525593416504216","0.45637191543596906","0.5976232079385746","1","","","","","","","","",""
"","html-keyboard-response","396","874276","0.0-207.0-1.0","null","<p></p>","null","","","","","","","","","","","","","","","","","","","","","","","",""
"","do_recog","397","876516","0.0-208.0-0.0","730.1999999880791","","","","","","","","54","","","","419","probe-05","","","","","1","[object Object]","208","5","1","","","",""
"","html-keyboard-response","398","877519","0.0-208.0-1.0","null","<p></p>","null","","","","","","","","","","","","","","","","","","","","","","","",""
"","do_trial","399","880196","0.0-209.0-0.0","134.60000002384186","","","","","","","","51","1,0,0","6","blank","420","null","0.1958562194356393","0.46309447008048793","0.5397446015717425","0","","","","","","","","",""
"","html-keyboard-response","400","881199","0.0-209.0-1.0","null","<p></p>","null","","","","","","","","","","","","","","","","","","","","","","","",""
"","do_trial","401","884583","0.0-210.0-0.0","845.6000000238419","","","","","","","","49","0,1,1","6","blank","421","null","0.05855829677517271","0.4605717371240655","0.6444396655712227","0","","","","","","","","",""
"","html-keyboard-response","402","885588","0.0-210.0-1.0","null","<p></p>","null","","","","","","","","","","","","","","","","","","","","","","","",""
"","do_trial","403","888995","0.0-211.0-0.0","865.6000000238419","","","","","","","","50","0,0,1","6","blank","422","null","0.105904981213226","0.43447731827960795","0.6322999757492719","0","","","","","","","","",""
"","html-keyboard-response","404","889997","0.0-211.0-1.0","null","<p></p>","null","","","","","","","","","","","","","","","","","","","","","","","",""
"","do_trial","405","892584","0.0-212.0-0.0","49.5","","","","","","","","51","0,0,0","6","blank","423","null","0.17346358001856968","0.4978397012731476","0.6661369218992385","0","","","","","","","","",""
"","html-keyboard-response","406","893587","0.0-212.0-1.0","null","<p></p>","null","","","","","","","","","","","","","","","","","","","","","","","",""
"","do_trial","407","896288","0.0-213.0-0.0","162.5999999642372","","","","","","","","51","1,1,1","6","blank","424","null","0.09088692955013603","0.39528457339056994","0.4944130105573897","1","","","","","","","","",""
"","html-keyboard-response","408","897291","0.0-213.0-1.0","null","<p></p>","null","","","","","","","","","","","","","","","","","","","","","","","",""
"","do_recog","409","898944","0.0-214.0-0.0","147.19999998807907","","","","","","","","54","","","","425","probe-18","","","","","1","[object Object]","209","5","1","","","",""
"","html-keyboard-response","410","899947","0.0-214.0-1.0","null","<p></p>","null","","","","","","","","","","","","","","","","","","","","","","","",""
"","do_trial","411","902706","0.0-215.0-0.0","218.69999998807907","","","","","","","","51","0,1,0","6","blank","426","null","0.052835532546752995","0.39666907476472857","0.5828071908573094","0","","","","","","","","",""
"","html-keyboard-response","412","903712","0.0-215.0-1.0","null","<p></p>","null","","","","","","","","","","","","","","","","","","","","","","","",""
"","do_recog","413","905938","0.0-216.0-0.0","718.6999999880791","","","","","","","","54","","","","427","probe-200","","","","","1","[object Object]","89","2","1","","","",""
"","html-keyboard-response","414","906941","0.0-216.0-1.0","null","<p></p>","null","","","","","","","","","","","","","","","","","","","","","","","",""
"","do_trial","415","909755","0.0-217.0-0.0","273.60000002384186","","","","","","","","49","1,0,0","6","blank","428","null","0.07906082397720779","0.33902021560693146","0.5323985204444653","1","","","","","","","","",""
"","html-keyboard-response","416","910759","0.0-217.0-1.0","null","<p></p>","null","","","","","","","","","","","","","","","","","","","","","","","",""
"","do_trial","417","914042","0.0-218.0-0.0","741.6999999880791","","","","","","","","51","0,0,1","6","blank","429","null","0.06369063402117937","0.2265208041167442","0.55202689494363","1","","","","","","","","",""
"","html-keyboard-response","418","915048","0.0-218.0-1.0","null","<p></p>","null","","","","","","","","","","","","","","","","","","","","","","","",""
"","do_trial","419","918544","0.0-219.0-0.0","958.6999999880791","","","","","","","","51","1,0,1","6","blank","430","null","0.08705870656024661","0.3263242083971947","0.5393569588184682","1","","","","","","","","",""
"","html-keyboard-response","420","919549","0.0-219.0-1.0","null","<p></p>","null","","","","","","","","","","","","","","","","","","","","","","","",""
"","do_trial","421","922434","0.0-220.0-0.0","345","","","","","","","","49","0,0,0","6","blank","431","null","0.08925422253115167","0.3663842340060134","0.6042959288408517","0","","","","","","","","",""
"","html-keyboard-response","422","923437","0.0-220.0-1.0","null","<p></p>","null","","","","","","","","","","","","","","","","","","","","","","","",""
"","do_trial","423","926603","0.0-221.0-0.0","624.4000000357628","","","","","","","","50","0,0,0","6","blank","432","null","0.056225457221466865","0.393703431010237","0.46858510727744246","0","","","","","","","","",""
"","html-keyboard-response","424","927605","0.0-221.0-1.0","null","<p></p>","null","","","","","","","","","","","","","","","","","","","","","","","",""
"","do_recog","425","929796","0.0-222.0-0.0","681.5","","","","","","","","54","","","","433","probe-111","","","","","1","[object Object]","203","5","1","","","",""
"","html-keyboard-response","426","930800","0.0-222.0-1.0","null","<p></p>","null","","","","","","","","","","","","","","","","","","","","","","","",""
"","do_trial","427","933497","0.0-223.0-0.0","158.30000001192093","","","","","","","","49","1,1,0","6","blank","434","null","0.14589856143132335","0.3819957577129252","0.56128569192311","1","","","","","","","","",""
"","html-keyboard-response","428","934500","0.0-223.0-1.0","null","<p></p>","null","","","","","","","","","","","","","","","","","","","","","","","",""
"","do_trial","429","937041","0.0-224.0-0.0","0.09999996423721313","","","","","","","","51","0,0,1","6","blank","435","null","0.133301292663267","0.26185030161698153","0.6515266817246862","1","","","","","","","","",""
"","html-keyboard-response","430","938043","0.0-224.0-1.0","null","<p></p>","null","","","","","","","","","","","","","","","","","","","","","","","",""
"","do_trial","431","940954","0.0-225.0-0.0","372.60000002384186","","","","","","","","51","0,0,0","6","blank","436","null","0.09823552917249746","0.19258534439650327","0.5876734798644991","0","","","","","","","","",""
"","html-keyboard-response","432","941957","0.0-225.0-1.0","null","<p></p>","null","","","","","","","","","","","","","","","","","","","","","","","",""
"","do_recog","433","943538","0.0-226.0-0.0","72.60000002384186","","","","","","","","54","","","","437","probe-38","","","","","1","[object Object]","41","1","1","","","",""
"","html-keyboard-response","434","944539","0.0-226.0-1.0","null","<p></p>","null","","","","","","","","","","","","","","","","","","","","","","","",""
"","do_trial","435","947720","0.0-227.0-0.0","643.2999999523163","","","","","","","","49","0,0,0","6","blank","438","null","0.08727054063586427","0.2956857212348904","0.6186218114788103","0","","","","","","","","",""
"","html-keyboard-response","436","948724","0.0-227.0-1.0","null","<p></p>","null","","","","","","","","","","","","","","","","","","","","","","","",""
"","do_trial","437","951696","0.0-228.0-0.0","434.2000000476837","","","","","","","","50","0,0,0","6","blank","439","null","0.05455535422696262","0.3400792746163307","0.8380526499477376","0","","","","","","","","",""
"","html-keyboard-response","438","952700","0.0-228.0-1.0","null","<p></p>","null","","","","","","","","","","","","","","","","","","","","","","","",""
"","do_trial","439","955425","0.0-229.0-0.0","187.5","","","","","","","","51","0,0,1","6","blank","440","null","0.2324385000547452","0.22858817443289797","0.7074917044255637","1","","","","","","","","",""
"","html-keyboard-response","440","956428","0.0-229.0-1.0","null","<p></p>","null","","","","","","","","","","","","","","","","","","","","","","","",""
"","do_trial","441","960258","0.0-230.0-0.0","1290.5999999642372","","","","","","","","51","0,0,1","6","blank","441","null","0.19027687466951596","0.27811421113210816","0.7181351849677325","1","","","","","","","","",""
"","html-keyboard-response","442","961262","0.0-230.0-1.0","null","<p></p>","null","","","","","","","","","","","","","","","","","","","","","","","",""
"","do_trial","443","964265","0.0-231.0-0.0","464.39999997615814","","","","","","","","51","0,0,1","6","blank","442","null","0.10476057298857232","0.2692695692981761","0.5967246618513817","1","","","","","","","","",""
"","html-keyboard-response","444","965267","0.0-231.0-1.0","null","<p></p>","null","","","","","","","","","","","","","","","","","","","","","","","",""
"","do_trial","445","967939","0.0-232.0-0.0","132","","","","","","","","51","0,0,1","6","blank","443","null","0.059886438792372085","0.3720750924209874","0.6067169709191229","1","","","","","","","","",""
"","html-keyboard-response","446","968941","0.0-232.0-1.0","null","<p></p>","null","","","","","","","","","","","","","","","","","","","","","","","",""
"","do_recog","447","971235","0.0-233.0-0.0","786.8000000119209","","","","","","","","54","","","","444","probe-33","","","","","1","[object Object]","166","4","1","","","",""
"","html-keyboard-response","448","972237","0.0-233.0-1.0","null","<p></p>","null","","","","","","","","","","","","","","","","","","","","","","","",""
"","do_trial","449","975265","0.0-234.0-0.0","490.5","","","","","","","","51","0,1,1","6","blank","445","null","0.12524721056101348","0.3500189463902077","0.4736942658588885","1","","","","","","","","",""
"","html-keyboard-response","450","976267","0.0-234.0-1.0","null","<p></p>","null","","","","","","","","","","","","","","","","","","","","","","","",""
"","do_trial","451","979355","0.0-235.0-0.0","547.8000000119209","","","","","","","","51","0,0,0","6","blank","446","null","0.1256570934799569","0.27529309343484554","0.31910184817851744","0","","","","","","","","",""
"","html-keyboard-response","452","980359","0.0-235.0-1.0","null","<p></p>","null","","","","","","","","","","","","","","","","","","","","","","","",""
"","do_trial","453","983305","0.0-236.0-0.0","406.60000002384186","","","","","","","","51","0,0,1","6","blank","447","null","0.1365985634392621","0.36878013691415346","0.4608957329275887","1","","","","","","","","",""
"","html-keyboard-response","454","984309","0.0-236.0-1.0","null","<p></p>","null","","","","","","","","","","","","","","","","","","","","","","","",""
"","do_trial","455","987346","0.0-237.0-0.0","499","","","","","","","","51","0,1,0","6","blank","448","null","0.054905419440903956","0.3955639712838031","0.4929580908286096","0","","","","","","","","",""
"","html-keyboard-response","456","988350","0.0-237.0-1.0","null","<p></p>","null","","","","","","","","","","","","","","","","","","","","","","","",""
"","do_trial","457","990952","0.0-238.0-0.0","66.10000002384186","","","","","","","","50","0,1,1","6","blank","449","null","0.10387699527543565","0.2163283549681746","0.6222904430136728","1","","","","","","","","",""
"","html-keyboard-response","458","991958","0.0-238.0-1.0","null","<p></p>","null","","","","","","","","","","","","","","","","","","","","","","","",""
"","do_trial","459","994809","0.0-239.0-0.0","313.19999998807907","","","","","","","","49","0,0,0","6","blank","450","null","0.08644770228941173","0.2571681674990168","0.6820840291268698","0","","","","","","","","",""
"","html-keyboard-response","460","995811","0.0-239.0-1.0","null","<p></p>","null","","","","","","","","","","","","","","","","","","","","","","","",""
"","do_trial","461","998492","0.0-240.0-0.0","139.39999997615814","","","","","","","","50","0,0,1","6","blank","451","null","0.058919227263222185","0.22995412652247202","0.5170845607455599","0","","","","","","","","",""
"","html-keyboard-response","462","999497","0.0-240.0-1.0","null","<p></p>","null","","","","","","","","","","","","","","","","","","","","","","","",""
"","do_recog","463","1001182","0.0-241.0-0.0","175.39999997615814","","","","","","","","54","","","","452","probe-125","","","","","1","[object Object]","87","2","1","","","",""
"","html-keyboard-response","464","1002185","0.0-241.0-1.0","null","<p></p>","null","","","","","","","","","","","","","","","","","","","","","","","",""
"","do_trial","465","1005194","0.0-242.0-0.0","470.19999998807907","","","","","","","","51","0,0,1","6","blank","453","null","0.2636538789913938","0.20517536862480723","0.4892560004567579","1","","","","","","","","",""
"","html-keyboard-response","466","1006198","0.0-242.0-1.0","null","<p></p>","null","","","","","","","","","","","","","","","","","","","","","","","",""
"","do_recog","467","1008349","0.0-243.0-0.0","642.1999999880791","","","","","","","","54","","","","454","probe-194","","","","","1","[object Object]","48","1","1","","","",""
"","html-keyboard-response","468","1009353","0.0-243.0-1.0","null","<p></p>","null","","","","","","","","","","","","","","","","","","","","","","","",""
"","do_trial","469","1012309","0.0-244.0-0.0","413.30000001192093","","","","","","","","51","1,0,0","6","blank","455","null","0.42470419566726764","0.3090677956934588","0.32415535573176774","0","","","","","","","","",""
"","html-keyboard-response","470","1013311","0.0-244.0-1.0","null","<p></p>","null","","","","","","","","","","","","","","","","","","","","","","","",""
"","do_trial","471","1016685","0.0-245.0-0.0","831.8000000119209","","","","","","","","51","0,0,1","6","blank","456","null","0.4399093534229752","0.2123481340820215","0.21131462193514033","1","","","","","","","","",""
"","html-keyboard-response","472","1017689","0.0-245.0-1.0","null","<p></p>","null","","","","","","","","","","","","","","","","","","","","","","","",""
"","do_recog","473","1019333","0.0-246.0-0.0","135","","","","","","","","54","","","","457","probe-98","","","","","1","[object Object]","44","1","1","","","",""
"","html-keyboard-response","474","1020335","0.0-246.0-1.0","null","<p></p>","null","","","","","","","","","","","","","","","","","","","","","","","",""
"","do_trial","475","1023146","0.0-247.0-0.0","272.7000000476837","","","","","","","","50","0,0,0","6","blank","458","null","0.5278210630131396","0.23453619167348727","0.09724747124169214","0","","","","","","","","",""
"","html-keyboard-response","476","1024149","0.0-247.0-1.0","null","<p></p>","null","","","","","","","","","","","","","","","","","","","","","","","",""
"","do_trial","477","1026797","0.0-248.0-0.0","107.5","","","","","","","","49","1,0,0","6","blank","459","null","0.6359499860859201","0.24772629054709616","0.058218037413985346","1","","","","","","","","",""
"","html-keyboard-response","478","1027801","0.0-248.0-1.0","null","<p></p>","null","","","","","","","","","","","","","","","","","","","","","","","",""
"","do_trial","479","1030363","0.0-249.0-0.0","21.19999998807907","","","","","","","","51","1,1,0","6","blank","460","null","0.5141036749139194","0.30473446666487036","0.09292884163641268","0","","","","","","","","",""
"","html-keyboard-response","480","1031365","0.0-249.0-1.0","null","<p></p>","null","","","","","","","","","","","","","","","","","","","","","","","",""
"","do_trial","481","1034474","0.0-250.0-0.0","571.5999999642372","","","","","","","","50","1,0,0","6","blank","461","null","0.6963717116187622","0.3413649685465795","0.09506139023743954","0","","","","","","","","",""
"","html-keyboard-response","482","1035479","0.0-250.0-1.0","null","<p></p>","null","","","","","","","","","","","","","","","","","","","","","","","",""
"","do_recog","483","1037718","0.0-251.0-0.0","729.8999999761581","","","","","","","","54","","","","462","probe-163","","","","","1","[object Object]","124","3","1","","","",""
"","html-keyboard-response","484","1038720","0.0-251.0-1.0","null","<p></p>","null","","","","","","","","","","","","","","","","","","","","","","","",""
"","do_trial","485","1041653","0.0-252.0-0.0","393.19999998807907","","","","","","","","51","0,0,0","6","blank","463","null","0.6745812721229474","0.3125017138981026","0.17639066828556302","0","","","","","","","","",""
"","html-keyboard-response","486","1042658","0.0-252.0-1.0","null","<p></p>","null","","","","","","","","","","","","","","","","","","","","","","","",""
"","do_recog","487","1044330","0.0-253.0-0.0","166.39999997615814","","","","","","","","54","","","","464","probe-246","","","","","0","[object Object]","null","null","0","","","",""
"","html-keyboard-response","488","1045335","0.0-253.0-1.0","null","<p></p>","null","","","","","","","","","","","","","","","","","","","","","","","",""
"","do_trial","489","1048186","0.0-254.0-0.0","312.30000001192093","","","","","","","","51","0,0,0","6","blank","465","null","0.6026078035272683","0.3952330337026252","0.11865703864157347","0","","","","","","","","",""
"","html-keyboard-response","490","1049189","0.0-254.0-1.0","null","<p></p>","null","","","","","","","","","","","","","","","","","","","","","","","",""
"","do_trial","491","1052644","0.0-255.0-0.0","914.8999999761581","","","","","","","","49","1,0,0","6","blank","466","null","0.5052865141140233","0.32134784223088253","0.0697538032910247","1","","","","","","","","",""
"","html-keyboard-response","492","1053645","0.0-255.0-1.0","null","<p></p>","null","","","","","","","","","","","","","","","","","","","","","","","",""
"","do_trial","493","1056299","0.0-256.0-0.0","115.5","","","","","","","","50","1,0,1","6","blank","467","null","0.6287288130711965","0.32081082401508504","0.10013294539213316","0","","","","","","","","",""
"","html-keyboard-response","494","1057302","0.0-256.0-1.0","null","<p></p>","null","","","","","","","","","","","","","","","","","","","","","","","",""
"","do_recog","495","1058865","0.0-257.0-0.0","57.59999996423721","","","","","","","","54","","","","468","probe-248","","","","","0","[object Object]","null","null","0","","","",""
"","html-keyboard-response","496","1059870","0.0-257.0-1.0","null","<p></p>","null","","","","","","","","","","","","","","","","","","","","","","","",""
"","do_trial","497","1062686","0.0-258.0-0.0","272.10000002384186","","","","","","","","51","1,0,1","6","blank","469","null","0.610243779238833","0.2936782411796079","0.10127400072973529","1","","","","","","","","",""
"","html-keyboard-response","498","1063687","0.0-258.0-1.0","null","<p></p>","null","","","","","","","","","","","","","","","","","","","","","","","",""
"","do_trial","499","1066781","0.0-259.0-0.0","552.5","","","","","","","","51","0,1,0","6","blank","470","null","0.6207173280860301","0.30450721577187556","0.2207865171848966","0","","","","","","","","",""
"","html-keyboard-response","500","1067785","0.0-259.0-1.0","null","<p></p>","null","","","","","","","","","","","","","","","","","","","","","","","",""
"","do_trial","501","1070340","0.0-260.0-0.0","14.600000023841858","","","","","","","","50","1,0,1","6","blank","471","null","0.619739215724613","0.24266752388476587","0.07849931788556273","0","","","","","","","","",""
"","html-keyboard-response","502","1071346","0.0-260.0-1.0","null","<p></p>","null","","","","","","","","","","","","","","","","","","","","","","","",""
"","do_trial","503","1073907","0.0-261.0-0.0","18","","","","","","","","49","1,0,0","6","blank","472","null","0.668159667450662","0.311612216605556","0.06721976857256474","1","","","","","","","","",""
"","html-keyboard-response","504","1074910","0.0-261.0-1.0","null","<p></p>","null","","","","","","","","","","","","","","","","","","","","","","","",""
"","do_trial","505","1077853","0.0-262.0-0.0","401.19999998807907","","","","","","","","51","1,0,0","6","blank","473","null","0.6431717189651777","0.1988974641024106","0.17414779039123565","0","","","","","","","","",""
"","html-keyboard-response","506","1078856","0.0-262.0-1.0","null","<p></p>","null","","","","","","","","","","","","","","","","","","","","","","","",""
"","do_trial","507","1081934","0.0-263.0-0.0","537.1000000238419","","","","","","","","51","1,0,0","6","blank","474","null","0.5391332207544314","0.22330493333455084","0.11395747155894986","0","","","","","","","","",""
"","html-keyboard-response","508","1082936","0.0-263.0-1.0","null","<p></p>","null","","","","","","","","","","","","","","","","","","","","","","","",""
"","do_recog","509","1084755","0.0-264.0-0.0","313.10000002384186","","","","","","","","55","","","","475","probe-249","","","","","0","[object Object]","null","null","1","","","",""
"","html-keyboard-response","510","1085759","0.0-264.0-1.0","null","<p></p>","null","","","","","","","","","","","","","","","","","","","","","","","",""
"","do_trial","511","1088406","0.0-265.0-0.0","108","","","","","","","","50","0,1,0","6","blank","476","null","0.5543702946633595","0.34049784834949576","0.08361051170873296","1","","","","","","","","",""
"","html-keyboard-response","512","1089407","0.0-265.0-1.0","null","<p></p>","null","","","","","","","","","","","","","","","","","","","","","","","",""
"","do_recog","513","1091636","0.0-266.0-0.0","722.3000000119209","","","","","","","","55","","","","477","probe-243","","","","","0","[object Object]","null","null","1","","","",""
"","html-keyboard-response","514","1092638","0.0-266.0-1.0","null","<p></p>","null","","","","","","","","","","","","","","","","","","","","","","","",""
