"success","trial_type","trial_index","time_elapsed","internal_node_id","interactions","blur_events","focus_events","fullscreenenter_events","fullscreenexit_events","rt","stimulus","key_press","subject_id","participant_id","age","gender","prompt","response","choice_outcomes","context_n","context_img_id","trial_n","probe_img_id","pR_red","pR_white","pR_black","outcome","is_valid","image_to_show","probed_trial","probed_context","correct","probe","probed_trial_n","probed_context_n","context_im"
"true","fullscreen","0","4160","0.0-0.0","
","
","
","
","
","","","","","","","","","","","","","","","","","","","","","","","","","","",""
"","pavlovia","1","4162","0.0-1.0","""event"",""trial"",""time""
""fullscreenenter"",""2"",""4318""
","
","
","""event"",""trial"",""time""
""fullscreenenter"",""2"",""4318""
","
","","","","","","","","","","","","","","","","","","","","","","","","","","",""
"","welc_back","2","14350","0.0-2.0","""event"",""trial"",""time""
""fullscreenenter"",""2"",""4318""
","
","
","""event"",""trial"",""time""
""fullscreenenter"",""2"",""4318""
","
","null","run_exp/static/audio/clip_29_welcome_back.m4a","null","401","710","13","Female","<div class='center'><p>Welcome to day 2!</p><p> Yesterday, you were the head captain of a pirate ship. You asked your fellow pirates to rob other ships of their gold across six different islands.</p></div>","","","","","","","","","","","","","","","","","","",""
"","html-keyboard-response","3","16283","0.0-3.0","""event"",""trial"",""time""
""fullscreenenter"",""2"",""4318""
","
","
","""event"",""trial"",""time""
""fullscreenenter"",""2"",""4318""
","
","1931.5999999642372","<div class='center'><p>Welcome to day 2!</p><p> Yesterday, you were the head captain of a pirate ship. You asked your fellow pirates to rob other ships of their gold across six different islands.</p><p><b>[Press the space bar to continue]</b></p></div>","32","","","","","","","","","","","","","","","","","","","","","","","",""
"","day_1_summary_goal","4","33470","0.0-4.0","""event"",""trial"",""time""
""fullscreenenter"",""2"",""4318""
","
","
","""event"",""trial"",""time""
""fullscreenenter"",""2"",""4318""
","
","null","run_exp/static/audio/clip_30_goal_of_game.m4a","null","","","","","<div class='center'><p>Today, like yesterday, you get to pick which pirate you want to rob the next ship.</p><p>If the pirate is successful in robbing a ship, you get gold coins that look like this: </p><p><img src='run_exp/static/images/tutorial/reward.png' height='150'></p><p> If they were not successful in robbing the ship, then you will get no gold coins and you'll see a big red x like this: </p><p><img src='run_exp/static/images/tutorial/reward_no.png' height='150'></p></div>","","","","","","","","","","","","","","","","","","",""
"","html-keyboard-response","5","33966","0.0-5.0","""event"",""trial"",""time""
""fullscreenenter"",""2"",""4318""
","
","
","""event"",""trial"",""time""
""fullscreenenter"",""2"",""4318""
","
","493.39999997615814","<div class='center'><p>Today, like yesterday, you get to pick which pirate you want to rob the next ship.</p><p>If the pirate is successful in robbing a ship, you get gold coins that look like this: </p><p><img src='run_exp/static/images/tutorial/reward.png' height='150'></p><p> If they were not successful in robbing the ship, then you will get no gold coins and you'll see a big red x like this: </p><p><img src='run_exp/static/images/tutorial/reward_no.png' height='150'></p><p><b>[Press the space bar to continue]</b></p></div>","32","","","","","","","","","","","","","","","","","","","","","","","",""
"","day_1_summary_pick","6","48652","0.0-6.0","""event"",""trial"",""time""
""fullscreenenter"",""2"",""4318""
","
","
","""event"",""trial"",""time""
""fullscreenenter"",""2"",""4318""
","
","null","run_exp/static/audio/clip_31_how_to_pick_a_pirate.m4a","null","","","","","<div class='center'><p>Also, just like yesterday, you will use the 1,2,3 keys on your keyboard to pick a pirate. Press '1' to choose red beard, '2' to choose white beard, and '3' to choose black beard . You only have 3 seconds to pick a pirate, so please make a choice quickly!</p></div>","","","","","","","","","","","","","","","","","","",""
"","html-keyboard-response","7","49321","0.0-7.0","""event"",""trial"",""time""
""fullscreenenter"",""2"",""4318""
","
","
","""event"",""trial"",""time""
""fullscreenenter"",""2"",""4318""
","
","668","<div class='center'><p>Also, just like yesterday, you will use the 1,2,3 keys on your keyboard to pick a pirate. Press '1' to choose red beard, '2' to choose white beard, and '3' to choose black beard . You only have 3 seconds to pick a pirate, so please make a choice quickly!</p><p><b>[Press the space bar to continue]</b></p></div>","32","","","","","","","","","","","","","","","","","","","","","","","",""
"","test_phase_begin","8","79708","0.0-8.0","""event"",""trial"",""time""
""fullscreenenter"",""2"",""4318""
","
","
","""event"",""trial"",""time""
""fullscreenenter"",""2"",""4318""
","
","null","run_exp/static/audio/clip_32_final_place.m4a","null","","","","","<div class='center'><p>You’ve arrived at the final island of your journey! Unfortunately, it’s very foggy out, so you won’t be able to see it in the distance like the other islands you've visited.</p><p>You’ll still be deciding which pirate you want to rob a ship like before. However, because of the fog, you also won’t be able to see the ship.</p><p>This means you do not have to remember the ships you rob on this island.</p><p>Unlike yesterday, you won't be visiting multiple islands today. You will stay on this island for the entire game. This game will last ~30 minutes.</p></div>","","","","","","","","","","","","","","","","","","",""
"","html-keyboard-response","9","81495","0.0-9.0","""event"",""trial"",""time""
""fullscreenenter"",""2"",""4318""
","
","
","""event"",""trial"",""time""
""fullscreenenter"",""2"",""4318""
","
","1785.1000000238419","<div class='center'><p>You’ve arrived at the final island of your journey! Unfortunately, it’s very foggy out, so you won’t be able to see it in the distance like the other islands you've visited.</p><p>You’ll still be deciding which pirate you want to rob a ship like before. However, because of the fog, you also won’t be able to see the ship.</p><p>This means you do not have to remember the ships you rob on this island.</p><p>Unlike yesterday, you won't be visiting multiple islands today. You will stay on this island for the entire game. This game will last ~30 minutes.</p><p><b>[Press the space bar to continue]</b></p></div>","32","","","","","","","","","","","","","","","","","","","","","","","",""
"","explain_probe_1","10","89207","0.0-10.0","""event"",""trial"",""time""
""fullscreenenter"",""2"",""4318""
","
","
","""event"",""trial"",""time""
""fullscreenenter"",""2"",""4318""
","
","null","run_exp/static/audio/clip_33_recognition_1.m4a","null","","","","","<div class='center'><p> Sometimes you’ll be shown a ship, and you will be asked if you saw this ship on a past island.</p><p> Here is an example of what you will see.</p><p><img src='run_exp/static/images/tutorial/example_recog_trial.png' height='500'></p></div>","","","","","","","","","","","","","","","","","","",""
"","html-keyboard-response","11","91046","0.0-11.0","""event"",""trial"",""time""
""fullscreenenter"",""2"",""4318""
","
","
","""event"",""trial"",""time""
""fullscreenenter"",""2"",""4318""
","
","1837","<div class='center'><p> Sometimes you’ll be shown a ship, and you will be asked if you saw this ship on a past island.</p><p> Here is an example of what you will see.</p><p><img src='run_exp/static/images/tutorial/example_recog_trial.png' height='500'></p><p><b>[Press the space bar to continue]</b></p></div>","32","","","","","","","","","","","","","","","","","","","","","","","",""
"","explain_probe_2","12","112746","0.0-12.0","""event"",""trial"",""time""
""fullscreenenter"",""2"",""4318""
","
","
","""event"",""trial"",""time""
""fullscreenenter"",""2"",""4318""
","
","null","run_exp/static/audio/clip_34_recognition_2.m4a","null","","","","","<div class='center'><p> You will press the 5, 6, 7, 8 keys on your keyboard to respond.</p><p>If you are sure you saw the ship, press <b>5</b> on your keyboard.</p><p> If you think you saw it before but aren't sure, then press <b>6</b>.</p><p> If you think you have <b>not</b> seen it before but aren't sure, then press <b>7</b>.</p><p> If you are sure you did <b>not</b> see the ship before, then press <b>8</b>.</p><p><img src='run_exp/static/images/tutorial/example_recog_trial.png' height='500'></p></div>","","","","","","","","","","","","","","","","","","",""
"","html-keyboard-response","13","113547","0.0-13.0","""event"",""trial"",""time""
""fullscreenenter"",""2"",""4318""
","
","
","""event"",""trial"",""time""
""fullscreenenter"",""2"",""4318""
","
","800.1999999880791","<div class='center'><p> You will press the 5, 6, 7, 8 keys on your keyboard to respond.</p><p>If you are sure you saw the ship, press <b>5</b> on your keyboard.</p><p> If you think you saw it before but aren't sure, then press <b>6</b>.</p><p> If you think you have <b>not</b> seen it before but aren't sure, then press <b>7</b>.</p><p> If you are sure you did <b>not</b> see the ship before, then press <b>8</b>.</p><p><img src='run_exp/static/images/tutorial/example_recog_trial.png' height='500'></p><p><b>[Press the space bar to continue]</b></p></div>","32","","","","","","","","","","","","","","","","","","","","","","","",""
"","explain_outcome","14","130726","0.0-14.0","""event"",""trial"",""time""
""fullscreenenter"",""2"",""4318""
","
","
","""event"",""trial"",""time""
""fullscreenenter"",""2"",""4318""
","
","null","run_exp/static/audio/clip_35_recognition_3.m4a","null","","","","","<div class='center'><p> If you remember correctly, then you’ll get a gold coin like this: </p><p><img src='run_exp/static/images/tutorial/reward_small.png' height='200'></p><p>If you do not remember correctly, then you'll see a red x like this: </p><p><img src='run_exp/static/images/tutorial/reward_no.png' height='200'></p><p>Importantly, when you are shown a ship, take the time to remind yourself which island you saw it on. This will help you in the next part of the study.</p></div>","","","","","","","","","","","","","","","","","","",""
"","html-keyboard-response","15","131592","0.0-15.0","""event"",""trial"",""time""
""fullscreenenter"",""2"",""4318""
","
","
","""event"",""trial"",""time""
""fullscreenenter"",""2"",""4318""
","
","864.7000000476837","<div class='center'><p> If you remember correctly, then you’ll get a gold coin like this: </p><p><img src='run_exp/static/images/tutorial/reward_small.png' height='200'></p><p>If you do not remember correctly, then you'll see a red x like this: </p><p><img src='run_exp/static/images/tutorial/reward_no.png' height='200'></p><p>Importantly, when you are shown a ship, take the time to remind yourself which island you saw it on. This will help you in the next part of the study.</p><p><b>[Press the space bar to continue]</b></p></div>","32","","","","","","","","","","","","","","","","","","","","","","","",""
"","begin_test_phase","16","147388","0.0-16.0","""event"",""trial"",""time""
""fullscreenenter"",""2"",""4318""
","
","
","""event"",""trial"",""time""
""fullscreenenter"",""2"",""4318""
","
","null","run_exp/static/audio/clip_36_begin_final.m4a","null","","","","","<div class='center'><p>Let's go over the important points again. Your job is to: </p><p>1. Pick the pirate who is best at robbing ships and will bring you back gold coins. </p><p>2. Correctly remember whether or not you saw a ship before. If you did see the ship before, remind yourself on which island you saw it. </p></div>","","","","","","","","","","","","","","","","","","",""
"","html-keyboard-response","17","148266","0.0-17.0","""event"",""trial"",""time""
""fullscreenenter"",""2"",""4318""
","
","
","""event"",""trial"",""time""
""fullscreenenter"",""2"",""4318""
","
","842","<div class='center'><p>Let's go over the important points again. Your job is to: </p><p>1. Pick the pirate who is best at robbing ships and will bring you back gold coins. </p><p>2. Correctly remember whether or not you saw a ship before. If you did see the ship before, remind yourself on which island you saw it. </p><p><b>[Press the space bar to continue]</b></p></div>","32","","","","","","","","","","","","","","","","","","","","","","","",""
"","do_welcome","18","152286","0.0-18.0","""event"",""trial"",""time""
""fullscreenenter"",""2"",""4318""
","
","
","""event"",""trial"",""time""
""fullscreenenter"",""2"",""4318""
","
","null","","","","","","","","null","","","","","","","","","","","","","","","","","",""
"","do_trial","19","156817","0.0-19.0-0.0","""event"",""trial"",""time""
""fullscreenenter"",""2"",""4318""
","
","
","""event"",""trial"",""time""
""fullscreenenter"",""2"",""4318""
","
","1970.0999999642372","","","","","","","","49","0,1,0","6","blank","230","null","0.05823820378515641","0.45579255160647564","0.5148603829561779","0","","","","","","","","",""
"","html-keyboard-response","20","157827","0.0-19.0-1.0","""event"",""trial"",""time""
""fullscreenenter"",""2"",""4318""
","
","
","""event"",""trial"",""time""
""fullscreenenter"",""2"",""4318""
","
","null","<p></p>","null","","","","","","","","","","","","","","","","","","","","","","","",""
"","do_trial","21","161426","0.0-20.0-0.0","""event"",""trial"",""time""
""fullscreenenter"",""2"",""4318""
","
","
","""event"",""trial"",""time""
""fullscreenenter"",""2"",""4318""
","
","1035.800000011921","","","","","","","","50","0,0,1","6","blank","231","null","0.18671154398117618","0.24615425945130903","0.6120347360550388","0","","","","","","","","",""
"","html-keyboard-response","22","162428","0.0-20.0-1.0","""event"",""trial"",""time""
""fullscreenenter"",""2"",""4318""
","
","
","""event"",""trial"",""time""
""fullscreenenter"",""2"",""4318""
","
","null","<p></p>","null","","","","","","","","","","","","","","","","","","","","","","","",""
"","do_trial","23","165526","0.0-21.0-0.0","""event"",""trial"",""time""
""fullscreenenter"",""2"",""4318""
","
","
","""event"",""trial"",""time""
""fullscreenenter"",""2"",""4318""
","
","536.5","","","","","","","","51","0,0,0","6","blank","232","null","0.05393197347013521","0.25257978409708115","0.5691326967049347","0","","","","","","","","",""
"","html-keyboard-response","24","166543","0.0-21.0-1.0","""event"",""trial"",""time""
""fullscreenenter"",""2"",""4318""
","
","
","""event"",""trial"",""time""
""fullscreenenter"",""2"",""4318""
","
","null","<p></p>","null","","","","","","","","","","","","","","","","","","","","","","","",""
"","do_trial","25","169412","0.0-22.0-0.0","""event"",""trial"",""time""
""fullscreenenter"",""2"",""4318""
","
","
","""event"",""trial"",""time""
""fullscreenenter"",""2"",""4318""
","
","314.5","","","","","","","","50","0,1,1","6","blank","233","null","0.1486317859696917","0.29048207969570394","0.502947592750454","1","","","","","","","","",""
"","html-keyboard-response","26","170430","0.0-22.0-1.0","""event"",""trial"",""time""
""fullscreenenter"",""2"",""4318""
","
","
","""event"",""trial"",""time""
""fullscreenenter"",""2"",""4318""
","
","null","<p></p>","null","","","","","","","","","","","","","","","","","","","","","","","",""
"","do_trial","27","173679","0.0-23.0-0.0","""event"",""trial"",""time""
""fullscreenenter"",""2"",""4318""
","
","
","""event"",""trial"",""time""
""fullscreenenter"",""2"",""4318""
","
","703","","","","","","","","50","0,1,0","6","blank","234","null","0.1468003822501663","0.39939353534857913","0.5165440617137378","1","","","","","","","","",""
"","html-keyboard-response","28","174696","0.0-23.0-1.0","""event"",""trial"",""time""
""fullscreenenter"",""2"",""4318""
","
","
","""event"",""trial"",""time""
""fullscreenenter"",""2"",""4318""
","
","null","<p></p>","null","","","","","","","","","","","","","","","","","","","","","","","",""
"","do_trial","29","177746","0.0-24.0-0.0","""event"",""trial"",""time""
""fullscreenenter"",""2"",""4318""
","
","
","""event"",""trial"",""time""
""fullscreenenter"",""2"",""4318""
","
","491.2999999523163","","","","","","","","50","0,1,0","6","blank","235","null","0.2042630779002819","0.33889688857118994","0.522375896961765","1","","","","","","","","",""
"","html-keyboard-response","30","178762","0.0-24.0-1.0","""event"",""trial"",""time""
""fullscreenenter"",""2"",""4318""
","
","
","""event"",""trial"",""time""
""fullscreenenter"",""2"",""4318""
","
","null","<p></p>","null","","","","","","","","","","","","","","","","","","","","","","","",""
"","do_trial","31","181827","0.0-25.0-0.0","""event"",""trial"",""time""
""fullscreenenter"",""2"",""4318""
","
","
","""event"",""trial"",""time""
""fullscreenenter"",""2"",""4318""
","
","495.10000002384186","","","","","","","","50","1,1,1","6","blank","236","null","0.24954806949053493","0.36096237932919023","0.5568358353839103","1","","","","","","","","",""
"","html-keyboard-response","32","182832","0.0-25.0-1.0","""event"",""trial"",""time""
""fullscreenenter"",""2"",""4318""
","
","
","""event"",""trial"",""time""
""fullscreenenter"",""2"",""4318""
","
","null","<p></p>","null","","","","","","","","","","","","","","","","","","","","","","","",""
"","do_trial","33","186011","0.0-26.0-0.0","""event"",""trial"",""time""
""fullscreenenter"",""2"",""4318""
","
","
","""event"",""trial"",""time""
""fullscreenenter"",""2"",""4318""
","
","623.3000000119209","","","","","","","","50","0,0,0","6","blank","237","null","0.1466338245693841","0.2761391040857735","0.5988407945735923","0","","","","","","","","",""
"","html-keyboard-response","34","187028","0.0-26.0-1.0","""event"",""trial"",""time""
""fullscreenenter"",""2"",""4318""
","
","
","""event"",""trial"",""time""
""fullscreenenter"",""2"",""4318""
","
","null","<p></p>","null","","","","","","","","","","","","","","","","","","","","","","","",""
"","do_trial","35","189929","0.0-27.0-0.0","""event"",""trial"",""time""
""fullscreenenter"",""2"",""4318""
","
","
","""event"",""trial"",""time""
""fullscreenenter"",""2"",""4318""
","
","356.4000000357628","","","","","","","","50","0,0,0","6","blank","238","null","0.0710510168363909","0.13058132698053082","0.5184736039110484","0","","","","","","","","",""
"","html-keyboard-response","36","190943","0.0-27.0-1.0","""event"",""trial"",""time""
""fullscreenenter"",""2"",""4318""
","
","
","""event"",""trial"",""time""
""fullscreenenter"",""2"",""4318""
","
","null","<p></p>","null","","","","","","","","","","","","","","","","","","","","","","","",""
"","do_trial","37","193994","0.0-28.0-0.0","""event"",""trial"",""time""
""fullscreenenter"",""2"",""4318""
","
","
","""event"",""trial"",""time""
""fullscreenenter"",""2"",""4318""
","
","509.5999999642372","","","","","","","","49","0,0,1","6","blank","239","null","0.11960725687895658","0.2652798321719928","0.5449085740124262","0","","","","","","","","",""
"","html-keyboard-response","38","195010","0.0-28.0-1.0","""event"",""trial"",""time""
""fullscreenenter"",""2"",""4318""
","
","
","""event"",""trial"",""time""
""fullscreenenter"",""2"",""4318""
","
","null","<p></p>","null","","","","","","","","","","","","","","","","","","","","","","","",""
"","do_trial","39","198143","0.0-29.0-0.0","""event"",""trial"",""time""
""fullscreenenter"",""2"",""4318""
","
","
","""event"",""trial"",""time""
""fullscreenenter"",""2"",""4318""
","
","573.5","","","","","","","","51","0,1,0","6","blank","240","null","0.07177468200908566","0.2965615585429169","0.5332559313078633","0","","","","","","","","",""
"","html-keyboard-response","40","199145","0.0-29.0-1.0","""event"",""trial"",""time""
""fullscreenenter"",""2"",""4318""
","
","
","""event"",""trial"",""time""
""fullscreenenter"",""2"",""4318""
","
","null","<p></p>","null","","","","","","","","","","","","","","","","","","","","","","","",""
"","do_recog","41","205173","0.0-30.0-0.0","""event"",""trial"",""time""
""fullscreenenter"",""2"",""4318""
","
","
","""event"",""trial"",""time""
""fullscreenenter"",""2"",""4318""
","
","null","","","","","","","","null","","","","241","probe-34","","","","","1","[object Object]","34","0","0","","","",""
"","html-keyboard-response","42","206191","0.0-30.0-1.0","""event"",""trial"",""time""
""fullscreenenter"",""2"",""4318""
","
","
","""event"",""trial"",""time""
""fullscreenenter"",""2"",""4318""
","
","null","<p></p>","null","","","","","","","","","","","","","","","","","","","","","","","",""
"","do_trial","43","210125","0.0-31.0-0.0","""event"",""trial"",""time""
""fullscreenenter"",""2"",""4318""
","
","
","""event"",""trial"",""time""
""fullscreenenter"",""2"",""4318""
","
","1373.8999999761581","","","","","","","","49","0,0,0","6","blank","242","null","0.2747775427327707","0.2258106904543756","0.41251214251171947","0","","","","","","","","",""
"","html-keyboard-response","44","211142","0.0-31.0-1.0","""event"",""trial"",""time""
""fullscreenenter"",""2"",""4318""
","
","
","""event"",""trial"",""time""
""fullscreenenter"",""2"",""4318""
","
","null","<p></p>","null","","","","","","","","","","","","","","","","","","","","","","","",""
"","do_recog","45","217160","0.0-32.0-0.0","""event"",""trial"",""time""
""fullscreenenter"",""2"",""4318""
","
","
","""event"",""trial"",""time""
""fullscreenenter"",""2"",""4318""
","
","null","","","","","","","","null","","","","243","probe-144","","","","","1","[object Object]","190","4","0","","","",""
"","html-keyboard-response","46","218175","0.0-32.0-1.0","""event"",""trial"",""time""
""fullscreenenter"",""2"",""4318""
","
","
","""event"",""trial"",""time""
""fullscreenenter"",""2"",""4318""
","
","null","<p></p>","null","","","","","","","","","","","","","","","","","","","","","","","",""
"","do_trial","47","221551","0.0-33.0-0.0","""event"",""trial"",""time""
""fullscreenenter"",""2"",""4318""
","
","
","""event"",""trial"",""time""
""fullscreenenter"",""2"",""4318""
","
","827.3000000119209","","","","","","","","51","1,1,0","6","blank","244","null","0.388720722063766","0.21339412686949272","0.26596208527970894","0","","","","","","","","",""
"","html-keyboard-response","48","222559","0.0-33.0-1.0","""event"",""trial"",""time""
""fullscreenenter"",""2"",""4318""
","
","
","""event"",""trial"",""time""
""fullscreenenter"",""2"",""4318""
","
","null","<p></p>","null","","","","","","","","","","","","","","","","","","","","","","","",""
"","do_trial","49","225757","0.0-34.0-0.0","""event"",""trial"",""time""
""fullscreenenter"",""2"",""4318""
","
","
","""event"",""trial"",""time""
""fullscreenenter"",""2"",""4318""
","
","644.7000000476837","","","","","","","","50","0,0,1","6","blank","245","null","0.5307443144895988","0.42565408743729216","0.2658117034635308","0","","","","","","","","",""
"","html-keyboard-response","50","226759","0.0-34.0-1.0","""event"",""trial"",""time""
""fullscreenenter"",""2"",""4318""
","
","
","""event"",""trial"",""time""
""fullscreenenter"",""2"",""4318""
","
","null","<p></p>","null","","","","","","","","","","","","","","","","","","","","","","","",""
"","do_trial","51","229773","0.0-35.0-0.0","""event"",""trial"",""time""
""fullscreenenter"",""2"",""4318""
","
","
","""event"",""trial"",""time""
""fullscreenenter"",""2"",""4318""
","
","446.60000002384186","","","","","","","","49","0,1,0","6","blank","246","null","0.5181821535442265","0.4891096560946035","0.2963891280178965","0","","","","","","","","",""
"","html-keyboard-response","52","230789","0.0-35.0-1.0","""event"",""trial"",""time""
""fullscreenenter"",""2"",""4318""
","
","
","""event"",""trial"",""time""
""fullscreenenter"",""2"",""4318""
","
","null","<p></p>","null","","","","","","","","","","","","","","","","","","","","","","","",""
"","do_trial","53","233714","0.0-36.0-0.0","""event"",""trial"",""time""
""fullscreenenter"",""2"",""4318""
","
","
","""event"",""trial"",""time""
""fullscreenenter"",""2"",""4318""
","
","368.4000000357628","","","","","","","","49","1,0,0","6","blank","247","null","0.5930530664963792","0.273368136415229","0.1339385774467555","1","","","","","","","","",""
"","html-keyboard-response","54","234723","0.0-36.0-1.0","""event"",""trial"",""time""
""fullscreenenter"",""2"",""4318""
","
","
","""event"",""trial"",""time""
""fullscreenenter"",""2"",""4318""
","
","null","<p></p>","null","","","","","","","","","","","","","","","","","","","","","","","",""
"","do_recog","55","238671","0.0-37.0-0.0","""event"",""trial"",""time""
""fullscreenenter"",""2"",""4318""
","
","
","""event"",""trial"",""time""
""fullscreenenter"",""2"",""4318""
","
","2425.600000023842","","","","","","","","55","","","","248","probe-252","","","","","0","[object Object]","null","null","1","","","",""
"","html-keyboard-response","56","239688","0.0-37.0-1.0","""event"",""trial"",""time""
""fullscreenenter"",""2"",""4318""
","
","
","""event"",""trial"",""time""
""fullscreenenter"",""2"",""4318""
","
","null","<p></p>","null","","","","","","","","","","","","","","","","","","","","","","","",""
"","do_trial","57","243221","0.0-38.0-0.0","""event"",""trial"",""time""
""fullscreenenter"",""2"",""4318""
","
","
","""event"",""trial"",""time""
""fullscreenenter"",""2"",""4318""
","
","974.8000000119209","","","","","","","","49","1,0,0","6","blank","249","null","0.6949107419471215","0.2067908481006063","0.14081252806488267","1","","","","","","","","",""
"","html-keyboard-response","58","244238","0.0-38.0-1.0","""event"",""trial"",""time""
""fullscreenenter"",""2"",""4318""
","
","
","""event"",""trial"",""time""
""fullscreenenter"",""2"",""4318""
","
","null","<p></p>","null","","","","","","","","","","","","","","","","","","","","","","","",""
"","do_recog","59","247621","0.0-39.0-0.0","""event"",""trial"",""time""
""fullscreenenter"",""2"",""4318""
","
","
","""event"",""trial"",""time""
""fullscreenenter"",""2"",""4318""
","
","1873.5","","","","","","","","56","","","","250","probe-232","","","","","0","[object Object]","null","null","1","","","",""
"","html-keyboard-response","60","248636","0.0-39.0-1.0","""event"",""trial"",""time""
""fullscreenenter"",""2"",""4318""
","
","
","""event"",""trial"",""time""
""fullscreenenter"",""2"",""4318""
","
","null","<p></p>","null","","","","","","","","","","","","","","","","","","","","","","","",""
"","do_trial","61","252520","0.0-40.0-0.0","""event"",""trial"",""time""
""fullscreenenter"",""2"",""4318""
","
","
","""event"",""trial"",""time""
""fullscreenenter"",""2"",""4318""
","
","1342.6000000238419","","","","","","","","49","1,0,0","6","blank","251","null","0.6804953972952216","0.14679832175432037","0.22604112106186391","1","","","","","","","","",""
"","html-keyboard-response","62","253535","0.0-40.0-1.0","""event"",""trial"",""time""
""fullscreenenter"",""2"",""4318""
","
","
","""event"",""trial"",""time""
""fullscreenenter"",""2"",""4318""
","
","null","<p></p>","null","","","","","","","","","","","","","","","","","","","","","","","",""
"","do_trial","63","256504","0.0-41.0-0.0","""event"",""trial"",""time""
""fullscreenenter"",""2"",""4318""
","
","
","""event"",""trial"",""time""
""fullscreenenter"",""2"",""4318""
","
","424","","","","","","","","49","1,1,0","6","blank","252","null","0.6869108282731304","0.2097116265687592","0.20067901660677107","1","","","","","","","","",""
"","html-keyboard-response","64","257518","0.0-41.0-1.0","""event"",""trial"",""time""
""fullscreenenter"",""2"",""4318""
","
","
","""event"",""trial"",""time""
""fullscreenenter"",""2"",""4318""
","
","null","<p></p>","null","","","","","","","","","","","","","","","","","","","","","","","",""
"","do_trial","65","260553","0.0-42.0-0.0","""event"",""trial"",""time""
""fullscreenenter"",""2"",""4318""
","
","
","""event"",""trial"",""time""
""fullscreenenter"",""2"",""4318""
","
","468.89999997615814","","","","","","","","49","1,0,0","6","blank","253","null","0.6543378441396773","0.1632184513411242","0.1656351323559882","1","","","","","","","","",""
"","html-keyboard-response","66","261568","0.0-42.0-1.0","""event"",""trial"",""time""
""fullscreenenter"",""2"",""4318""
","
","
","""event"",""trial"",""time""
""fullscreenenter"",""2"",""4318""
","
","null","<p></p>","null","","","","","","","","","","","","","","","","","","","","","","","",""
"","do_trial","67","264400","0.0-43.0-0.0","""event"",""trial"",""time""
""fullscreenenter"",""2"",""4318""
","
","
","""event"",""trial"",""time""
""fullscreenenter"",""2"",""4318""
","
","283.9000000357628","","","","","","","","49","1,0,0","6","blank","254","null","0.7336411147724793","0.213424207423585","0.1453183490444901","1","","","","","","","","",""
"","html-keyboard-response","68","265411","0.0-43.0-1.0","""event"",""trial"",""time""
""fullscreenenter"",""2"",""4318""
","
","
","""event"",""trial"",""time""
""fullscreenenter"",""2"",""4318""
","
","null","<p></p>","null","","","","","","","","","","","","","","","","","","","","","","","",""
"","do_trial","69","268351","0.0-44.0-0.0","""event"",""trial"",""time""
""fullscreenenter"",""2"",""4318""
","
","
","""event"",""trial"",""time""
""fullscreenenter"",""2"",""4318""
","
","392.4000000357628","","","","","","","","49","0,1,1","6","blank","255","null","0.7127663801207093","0.3080860494863879","0.17803696196364016","0","","","","","","","","",""
"","html-keyboard-response","70","269365","0.0-44.0-1.0","""event"",""trial"",""time""
""fullscreenenter"",""2"",""4318""
","
","
","""event"",""trial"",""time""
""fullscreenenter"",""2"",""4318""
","
","null","<p></p>","null","","","","","","","","","","","","","","","","","","","","","","","",""
"","do_recog","71","272501","0.0-45.0-0.0","""event"",""trial"",""time""
""fullscreenenter"",""2"",""4318""
","
","
","""event"",""trial"",""time""
""fullscreenenter"",""2"",""4318""
","
","1625.3999999761581","","","","","","","","53","","","","256","probe-21","","","","","1","[object Object]","33","0","1","","","",""
"","html-keyboard-response","72","273515","0.0-45.0-1.0","""event"",""trial"",""time""
""fullscreenenter"",""2"",""4318""
","
","
","""event"",""trial"",""time""
""fullscreenenter"",""2"",""4318""
","
","null","<p></p>","null","","","","","","","","","","","","","","","","","","","","","","","",""
"","do_trial","73","277751","0.0-46.0-0.0","""event"",""trial"",""time""
""fullscreenenter"",""2"",""4318""
","
","
","""event"",""trial"",""time""
""fullscreenenter"",""2"",""4318""
","
","1692.5","","","","","","","","50","1,0,0","6","blank","257","null","0.7077044780359022","0.2272604389024823","0.270540221526818","0","","","","","","","","",""
"","html-keyboard-response","74","278765","0.0-46.0-1.0","""event"",""trial"",""time""
""fullscreenenter"",""2"",""4318""
","
","
","""event"",""trial"",""time""
""fullscreenenter"",""2"",""4318""
","
","null","<p></p>","null","","","","","","","","","","","","","","","","","","","","","","","",""
"","do_recog","75","282278","0.0-47.0-0.0","""event"",""trial"",""time""
""fullscreenenter"",""2"",""4318""
","
","
","""event"",""trial"",""time""
""fullscreenenter"",""2"",""4318""
","
","2003","","","","","","","","55","","","","258","probe-39","","","","","1","[object Object]","110","2","0","","","",""
"","html-keyboard-response","76","283282","0.0-47.0-1.0","""event"",""trial"",""time""
""fullscreenenter"",""2"",""4318""
","
","
","""event"",""trial"",""time""
""fullscreenenter"",""2"",""4318""
","
","null","<p></p>","null","","","","","","","","","","","","","","","","","","","","","","","",""
"","do_trial","77","286514","0.0-48.0-0.0","""event"",""trial"",""time""
""fullscreenenter"",""2"",""4318""
","
","
","""event"",""trial"",""time""
""fullscreenenter"",""2"",""4318""
","
","677.1000000238419","","","","","","","","49","0,1,1","6","blank","259","null","0.6639631581738783","0.3198403516825565","0.2002477197830672","0","","","","","","","","",""
"","html-keyboard-response","78","287530","0.0-48.0-1.0","""event"",""trial"",""time""
""fullscreenenter"",""2"",""4318""
","
","
","""event"",""trial"",""time""
""fullscreenenter"",""2"",""4318""
","
","null","<p></p>","null","","","","","","","","","","","","","","","","","","","","","","","",""
"","do_trial","79","290831","0.0-49.0-0.0","""event"",""trial"",""time""
""fullscreenenter"",""2"",""4318""
","
","
","""event"",""trial"",""time""
""fullscreenenter"",""2"",""4318""
","
","743.6999999880791","","","","","","","","51","1,1,0","6","blank","260","null","0.6124075293722151","0.26400753831322143","0.05968589431130729","0","","","","","","","","",""
"","html-keyboard-response","80","291846","0.0-49.0-1.0","""event"",""trial"",""time""
""fullscreenenter"",""2"",""4318""
","
","
","""event"",""trial"",""time""
""fullscreenenter"",""2"",""4318""
","
","null","<p></p>","null","","","","","","","","","","","","","","","","","","","","","","","",""
"","do_recog","81","295146","0.0-50.0-0.0","""event"",""trial"",""time""
""fullscreenenter"",""2"",""4318""
","
","
","""event"",""trial"",""time""
""fullscreenenter"",""2"",""4318""
","
","1785.8999999761581","","","","","","","","55","","","","261","probe-10","","","","","1","[object Object]","191","4","0","","","",""
"","html-keyboard-response","82","296162","0.0-50.0-1.0","""event"",""trial"",""time""
""fullscreenenter"",""2"",""4318""
","
","
","""event"",""trial"",""time""
""fullscreenenter"",""2"",""4318""
","
","null","<p></p>","null","","","","","","","","","","","","","","","","","","","","","","","",""
"","do_trial","83","299713","0.0-51.0-0.0","""event"",""trial"",""time""
""fullscreenenter"",""2"",""4318""
","
","
","""event"",""trial"",""time""
""fullscreenenter"",""2"",""4318""
","
","999.8999999761581","","","","","","","","50","1,1,0","6","blank","262","null","0.564127573889391","0.3106647657923201","0.18529185043317056","1","","","","","","","","",""
"","html-keyboard-response","84","300728","0.0-51.0-1.0","""event"",""trial"",""time""
""fullscreenenter"",""2"",""4318""
","
","
","""event"",""trial"",""time""
""fullscreenenter"",""2"",""4318""
","
","null","<p></p>","null","","","","","","","","","","","","","","","","","","","","","","","",""
"","do_trial","85","304175","0.0-52.0-0.0","""event"",""trial"",""time""
""fullscreenenter"",""2"",""4318""
","
","
","""event"",""trial"",""time""
""fullscreenenter"",""2"",""4318""
","
","893.5","","","","","","","","50","1,1,0","6","blank","263","null","0.5054898569520486","0.3058052114805476","0.16136158338766762","1","","","","","","","","",""
"","html-keyboard-response","86","305178","0.0-52.0-1.0","""event"",""trial"",""time""
""fullscreenenter"",""2"",""4318""
","
","
","""event"",""trial"",""time""
""fullscreenenter"",""2"",""4318""
","
","null","<p></p>","null","","","","","","","","","","","","","","","","","","","","","","","",""
"","do_trial","87","308130","0.0-53.0-0.0","""event"",""trial"",""time""
""fullscreenenter"",""2"",""4318""
","
","
","""event"",""trial"",""time""
""fullscreenenter"",""2"",""4318""
","
","396.19999998807907","","","","","","","","50","0,0,0","6","blank","264","null","0.5227447154442045","0.47649531078492","0.05456790665663304","0","","","","","","","","",""
"","html-keyboard-response","88","309143","0.0-53.0-1.0","""event"",""trial"",""time""
""fullscreenenter"",""2"",""4318""
","
","
","""event"",""trial"",""time""
""fullscreenenter"",""2"",""4318""
","
","null","<p></p>","null","","","","","","","","","","","","","","","","","","","","","","","",""
"","do_trial","89","313044","0.0-54.0-0.0","""event"",""trial"",""time""
""fullscreenenter"",""2"",""4318""
","
","
","""event"",""trial"",""time""
""fullscreenenter"",""2"",""4318""
","
","1344.5","","","","","","","","49","1,0,0","6","blank","265","null","0.7427448287799784","0.40330502718383593","0.18351040862277798","1","","","","","","","","",""
"","html-keyboard-response","90","314059","0.0-54.0-1.0","""event"",""trial"",""time""
""fullscreenenter"",""2"",""4318""
","
","
","""event"",""trial"",""time""
""fullscreenenter"",""2"",""4318""
","
","null","<p></p>","null","","","","","","","","","","","","","","","","","","","","","","","",""
"","do_trial","91","316876","0.0-55.0-0.0","""event"",""trial"",""time""
""fullscreenenter"",""2"",""4318""
","
","
","""event"",""trial"",""time""
""fullscreenenter"",""2"",""4318""
","
","262.69999998807907","","","","","","","","49","0,1,1","6","blank","266","null","0.600956829618098","0.3099393590925382","0.15130853661627358","0","","","","","","","","",""
"","html-keyboard-response","92","317891","0.0-55.0-1.0","""event"",""trial"",""time""
""fullscreenenter"",""2"",""4318""
","
","
","""event"",""trial"",""time""
""fullscreenenter"",""2"",""4318""
","
","null","<p></p>","null","","","","","","","","","","","","","","","","","","","","","","","",""
"","do_recog","93","321393","0.0-56.0-0.0","""event"",""trial"",""time""
""fullscreenenter"",""2"",""4318""
","
","
","""event"",""trial"",""time""
""fullscreenenter"",""2"",""4318""
","
","1987.5","","","","","","","","53","","","","267","probe-118","","","","","1","[object Object]","192","4","1","","","",""
"","html-keyboard-response","94","322407","0.0-56.0-1.0","""event"",""trial"",""time""
""fullscreenenter"",""2"",""4318""
","
","
","""event"",""trial"",""time""
""fullscreenenter"",""2"",""4318""
","
","null","<p></p>","null","","","","","","","","","","","","","","","","","","","","","","","",""
"","do_trial","95","326092","0.0-57.0-0.0","""event"",""trial"",""time""
""fullscreenenter"",""2"",""4318""
","
","
","""event"",""trial"",""time""
""fullscreenenter"",""2"",""4318""
","
","1126.5999999642372","","","","","","","","49","1,1,0","6","blank","268","null","0.5523077749925315","0.3232457772271032","0.29964266545673135","1","","","","","","","","",""
"","html-keyboard-response","96","327106","0.0-57.0-1.0","""event"",""trial"",""time""
""fullscreenenter"",""2"",""4318""
","
","
","""event"",""trial"",""time""
""fullscreenenter"",""2"",""4318""
","
","null","<p></p>","null","","","","","","","","","","","","","","","","","","","","","","","",""
"","break","97","329642","0.0-58.0-0.0","""event"",""trial"",""time""
""fullscreenenter"",""2"",""4318""
","
","
","""event"",""trial"",""time""
""fullscreenenter"",""2"",""4318""
","
","2534","<div class='center'><p>Time to take a quick break! You have 2 minutes to rest, but you can move on sooner if you'd like.</p><p> Press the <b>space bar</b> to continue.</p></div>","32","","","","","","","","","","","","","","","","","","","","","","","",""
"","do_trial","98","333141","0.0-58.0-1.0","""event"",""trial"",""time""
""fullscreenenter"",""2"",""4318""
","
","
","""event"",""trial"",""time""
""fullscreenenter"",""2"",""4318""
","
","952.5","","","","","","","","49","0,1,0","6","blank","269","null","0.5161354510175478","0.35407262544911455","0.15579393244163636","0","","","","","","","","",""
"","html-keyboard-response","99","334156","0.0-58.0-2.0","""event"",""trial"",""time""
""fullscreenenter"",""2"",""4318""
","
","
","""event"",""trial"",""time""
""fullscreenenter"",""2"",""4318""
","
","null","<p></p>","null","","","","","","","","","","","","","","","","","","","","","","","",""
"","do_trial","100","337074","0.0-59.0-0.0","""event"",""trial"",""time""
""fullscreenenter"",""2"",""4318""
","
","
","""event"",""trial"",""time""
""fullscreenenter"",""2"",""4318""
","
","359.4000000357628","","","","","","","","50","1,1,0","6","blank","270","null","0.6896019241274723","0.34909025967009144","0.14081202039456664","1","","","","","","","","",""
"","html-keyboard-response","101","338089","0.0-59.0-1.0","""event"",""trial"",""time""
""fullscreenenter"",""2"",""4318""
","
","
","""event"",""trial"",""time""
""fullscreenenter"",""2"",""4318""
","
","null","<p></p>","null","","","","","","","","","","","","","","","","","","","","","","","",""
"","do_trial","102","341256","0.0-60.0-0.0","""event"",""trial"",""time""
""fullscreenenter"",""2"",""4318""
","
","
","""event"",""trial"",""time""
""fullscreenenter"",""2"",""4318""
","
","611.5","","","","","","","","50","0,0,0","6","blank","271","null","0.496941784808502","0.38461023299155517","0.11789187850522576","0","","","","","","","","",""
"","html-keyboard-response","103","342271","0.0-60.0-1.0","""event"",""trial"",""time""
""fullscreenenter"",""2"",""4318""
","
","
","""event"",""trial"",""time""
""fullscreenenter"",""2"",""4318""
","
","null","<p></p>","null","","","","","","","","","","","","","","","","","","","","","","","",""
"","do_recog","104","345387","0.0-61.0-0.0","""event"",""trial"",""time""
""fullscreenenter"",""2"",""4318""
","
","
","""event"",""trial"",""time""
""fullscreenenter"",""2"",""4318""
","
","1601.800000011921","","","","","","","","55","","","","272","probe-157","","","","","1","[object Object]","118","2","0","","","",""
"","html-keyboard-response","105","346404","0.0-61.0-1.0","""event"",""trial"",""time""
""fullscreenenter"",""2"",""4318""
","
","
","""event"",""trial"",""time""
""fullscreenenter"",""2"",""4318""
","
","null","<p></p>","null","","","","","","","","","","","","","","","","","","","","","","","",""
"","do_trial","106","350737","0.0-62.0-0.0","""event"",""trial"",""time""
""fullscreenenter"",""2"",""4318""
","
","
","""event"",""trial"",""time""
""fullscreenenter"",""2"",""4318""
","
","1781.800000011921","","","","","","","","51","0,0,0","6","blank","273","null","0.5098128359213057","0.41888639126191474","0.06640175074185933","0","","","","","","","","",""
"","html-keyboard-response","107","351754","0.0-62.0-1.0","""event"",""trial"",""time""
""fullscreenenter"",""2"",""4318""
","
","
","""event"",""trial"",""time""
""fullscreenenter"",""2"",""4318""
","
","null","<p></p>","null","","","","","","","","","","","","","","","","","","","","","","","",""
"","do_trial","108","354553","0.0-63.0-0.0","""event"",""trial"",""time""
""fullscreenenter"",""2"",""4318""
","
","
","""event"",""trial"",""time""
""fullscreenenter"",""2"",""4318""
","
","250.80000001192093","","","","","","","","49","1,0,0","6","blank","274","null","0.4438074827270486","0.39542335761958647","0.09427994273496833","1","","","","","","","","",""
"","html-keyboard-response","109","355570","0.0-63.0-1.0","""event"",""trial"",""time""
""fullscreenenter"",""2"",""4318""
","
","
","""event"",""trial"",""time""
""fullscreenenter"",""2"",""4318""
","
","null","<p></p>","null","","","","","","","","","","","","","","","","","","","","","","","",""
"","do_trial","110","358470","0.0-64.0-0.0","""event"",""trial"",""time""
""fullscreenenter"",""2"",""4318""
","
","
","""event"",""trial"",""time""
""fullscreenenter"",""2"",""4318""
","
","347.30000001192093","","","","","","","","49","0,1,0","6","blank","275","null","0.44827762499400103","0.3185458117611202","0.05493044729681627","0","","","","","","","","",""
"","html-keyboard-response","111","359486","0.0-64.0-1.0","""event"",""trial"",""time""
""fullscreenenter"",""2"",""4318""
","
","
","""event"",""trial"",""time""
""fullscreenenter"",""2"",""4318""
","
","null","<p></p>","null","","","","","","","","","","","","","","","","","","","","","","","",""
"","do_trial","112","362319","0.0-65.0-0.0","""event"",""trial"",""time""
""fullscreenenter"",""2"",""4318""
","
","
","""event"",""trial"",""time""
""fullscreenenter"",""2"",""4318""
","
","277","","","","","","","","50","1,0,0","6","blank","276","null","0.47384020848201885","0.1833594820087216","0.10865538665660186","0","","","","","","","","",""
"","html-keyboard-response","113","363335","0.0-65.0-1.0","""event"",""trial"",""time""
""fullscreenenter"",""2"",""4318""
","
","
","""event"",""trial"",""time""
""fullscreenenter"",""2"",""4318""
","
","null","<p></p>","null","","","","","","","","","","","","","","","","","","","","","","","",""
"","do_trial","114","366271","0.0-66.0-0.0","""event"",""trial"",""time""
""fullscreenenter"",""2"",""4318""
","
","
","""event"",""trial"",""time""
""fullscreenenter"",""2"",""4318""
","
","376.89999997615814","","","","","","","","49","0,1,0","6","blank","277","null","0.5566811991616071","0.3046588652351599","0.05350980539045048","0","","","","","","","","",""
"","html-keyboard-response","115","367284","0.0-66.0-1.0","""event"",""trial"",""time""
""fullscreenenter"",""2"",""4318""
","
","
","""event"",""trial"",""time""
""fullscreenenter"",""2"",""4318""
","
","null","<p></p>","null","","","","","","","","","","","","","","","","","","","","","","","",""
"","do_trial","116","370235","0.0-67.0-0.0","""event"",""trial"",""time""
""fullscreenenter"",""2"",""4318""
","
","
","""event"",""trial"",""time""
""fullscreenenter"",""2"",""4318""
","
","400","","","","","","","","51","0,0,0","6","blank","278","null","0.6078433223000955","0.30551899314869524","0.057757104487176816","0","","","","","","","","",""
"","html-keyboard-response","117","371239","0.0-67.0-1.0","""event"",""trial"",""time""
""fullscreenenter"",""2"",""4318""
","
","
","""event"",""trial"",""time""
""fullscreenenter"",""2"",""4318""
","
","null","<p></p>","null","","","","","","","","","","","","","","","","","","","","","","","",""
"","do_trial","118","374167","0.0-68.0-0.0","""event"",""trial"",""time""
""fullscreenenter"",""2"",""4318""
","
","
","""event"",""trial"",""time""
""fullscreenenter"",""2"",""4318""
","
","376.5999999642372","","","","","","","","49","0,1,0","6","blank","279","null","0.5069103940169764","0.4817217108082521","0.14938837275513675","0","","","","","","","","",""
"","html-keyboard-response","119","375181","0.0-68.0-1.0","""event"",""trial"",""time""
""fullscreenenter"",""2"",""4318""
","
","
","""event"",""trial"",""time""
""fullscreenenter"",""2"",""4318""
","
","null","<p></p>","null","","","","","","","","","","","","","","","","","","","","","","","",""
"","do_recog","120","379404","0.0-69.0-0.0","""event"",""trial"",""time""
""fullscreenenter"",""2"",""4318""
","
","
","""event"",""trial"",""time""
""fullscreenenter"",""2"",""4318""
","
","2714.5","","","","","","","","53","","","","280","probe-240","","","","","0","[object Object]","null","null","0","","","",""
"","html-keyboard-response","121","380416","0.0-69.0-1.0","""event"",""trial"",""time""
""fullscreenenter"",""2"",""4318""
","
","
","""event"",""trial"",""time""
""fullscreenenter"",""2"",""4318""
","
","null","<p></p>","null","","","","","","","","","","","","","","","","","","","","","","","",""
"","do_trial","122","384166","0.0-70.0-0.0","""event"",""trial"",""time""
""fullscreenenter"",""2"",""4318""
","
","
","""event"",""trial"",""time""
""fullscreenenter"",""2"",""4318""
","
","1199.9000000357628","","","","","","","","49","1,0,1","6","blank","281","null","0.5181214967314012","0.3812144380813491","0.20976989313578634","1","","","","","","","","",""
"","html-keyboard-response","123","385172","0.0-70.0-1.0","""event"",""trial"",""time""
""fullscreenenter"",""2"",""4318""
","
","
","""event"",""trial"",""time""
""fullscreenenter"",""2"",""4318""
","
","null","<p></p>","null","","","","","","","","","","","","","","","","","","","","","","","",""
"","do_recog","124","388581","0.0-71.0-0.0","""event"",""trial"",""time""
""fullscreenenter"",""2"",""4318""
","
","
","""event"",""trial"",""time""
""fullscreenenter"",""2"",""4318""
","
","1880.0999999642372","","","","","","","","53","","","","282","probe-174","","","","","1","[object Object]","113","2","1","","","",""
"","html-keyboard-response","125","389597","0.0-71.0-1.0","""event"",""trial"",""time""
""fullscreenenter"",""2"",""4318""
","
","
","""event"",""trial"",""time""
""fullscreenenter"",""2"",""4318""
","
","null","<p></p>","null","","","","","","","","","","","","","","","","","","","","","","","",""
"","do_trial","126","392881","0.0-72.0-0.0","""event"",""trial"",""time""
""fullscreenenter"",""2"",""4318""
","
","
","""event"",""trial"",""time""
""fullscreenenter"",""2"",""4318""
","
","738.0999999642372","","","","","","","","49","0,0,0","6","blank","283","null","0.4006693923312197","0.16541275754126283","0.09419478576105302","0","","","","","","","","",""
"","html-keyboard-response","127","393896","0.0-72.0-1.0","""event"",""trial"",""time""
""fullscreenenter"",""2"",""4318""
","
","
","""event"",""trial"",""time""
""fullscreenenter"",""2"",""4318""
","
","null","<p></p>","null","","","","","","","","","","","","","","","","","","","","","","","",""
"","do_trial","128","396966","0.0-73.0-0.0","""event"",""trial"",""time""
""fullscreenenter"",""2"",""4318""
","
","
","""event"",""trial"",""time""
""fullscreenenter"",""2"",""4318""
","
","521.2000000476837","","","","","","","","50","1,0,0","6","blank","284","null","0.5454645646447731","0.24675536051215205","0.06269326656568713","0","","","","","","","","",""
"","html-keyboard-response","129","397979","0.0-73.0-1.0","""event"",""trial"",""time""
""fullscreenenter"",""2"",""4318""
","
","
","""event"",""trial"",""time""
""fullscreenenter"",""2"",""4318""
","
","null","<p></p>","null","","","","","","","","","","","","","","","","","","","","","","","",""
"","do_trial","130","401896","0.0-74.0-0.0","""event"",""trial"",""time""
""fullscreenenter"",""2"",""4318""
","
","
","""event"",""trial"",""time""
""fullscreenenter"",""2"",""4318""
","
","1361.300000011921","","","","","","","","50","1,0,0","6","blank","285","null","0.5851263435793724","0.11003468360031024","0.06127777905463672","0","","","","","","","","",""
"","html-keyboard-response","131","402910","0.0-74.0-1.0","""event"",""trial"",""time""
""fullscreenenter"",""2"",""4318""
","
","
","""event"",""trial"",""time""
""fullscreenenter"",""2"",""4318""
","
","null","<p></p>","null","","","","","","","","","","","","","","","","","","","","","","","",""
"","do_trial","132","405710","0.0-75.0-0.0","""event"",""trial"",""time""
""fullscreenenter"",""2"",""4318""
","
","
","""event"",""trial"",""time""
""fullscreenenter"",""2"",""4318""
","
","252.89999997615814","","","","","","","","49","1,0,0","6","blank","286","null","0.5144302013583281","0.16252969769924608","0.10892622674292408","1","","","","","","","","",""
"","html-keyboard-response","133","406721","0.0-75.0-1.0","""event"",""trial"",""time""
""fullscreenenter"",""2"",""4318""
","
","
","""event"",""trial"",""time""
""fullscreenenter"",""2"",""4318""
","
","null","<p></p>","null","","","","","","","","","","","","","","","","","","","","","","","",""
"","do_trial","134","409856","0.0-76.0-0.0","""event"",""trial"",""time""
""fullscreenenter"",""2"",""4318""
","
","
","""event"",""trial"",""time""
""fullscreenenter"",""2"",""4318""
","
","584.8999999761581","","","","","","","","49","0,0,0","6","blank","287","null","0.3508278876716298","0.1635095104816333","0.09782986566081502","0","","","","","","","","",""
"","html-keyboard-response","135","410860","0.0-76.0-1.0","""event"",""trial"",""time""
""fullscreenenter"",""2"",""4318""
","
","
","""event"",""trial"",""time""
""fullscreenenter"",""2"",""4318""
","
","null","<p></p>","null","","","","","","","","","","","","","","","","","","","","","","","",""
"","do_trial","136","413830","0.0-77.0-0.0","""event"",""trial"",""time""
""fullscreenenter"",""2"",""4318""
","
","
","""event"",""trial"",""time""
""fullscreenenter"",""2"",""4318""
","
","416.19999998807907","","","","","","","","50","1,0,0","6","blank","288","null","0.46335935138056583","0.2265223448203249","0.05426114468349676","0","","","","","","","","",""
"","html-keyboard-response","137","414843","0.0-77.0-1.0","""event"",""trial"",""time""
""fullscreenenter"",""2"",""4318""
","
","
","""event"",""trial"",""time""
""fullscreenenter"",""2"",""4318""
","
","null","<p></p>","null","","","","","","","","","","","","","","","","","","","","","","","",""
"","do_recog","138","418159","0.0-78.0-0.0","""event"",""trial"",""time""
""fullscreenenter"",""2"",""4318""
","
","
","""event"",""trial"",""time""
""fullscreenenter"",""2"",""4318""
","
","1798.1000000238419","","","","","","","","53","","","","289","probe-08","","","","","1","[object Object]","155","3","1","","","",""
"","html-keyboard-response","139","419175","0.0-78.0-1.0","""event"",""trial"",""time""
""fullscreenenter"",""2"",""4318""
","
","
","""event"",""trial"",""time""
""fullscreenenter"",""2"",""4318""
","
","null","<p></p>","null","","","","","","","","","","","","","","","","","","","","","","","",""
"","do_trial","140","422343","0.0-79.0-0.0","""event"",""trial"",""time""
""fullscreenenter"",""2"",""4318""
","
","
","""event"",""trial"",""time""
""fullscreenenter"",""2"",""4318""
","
","619.1999999880791","","","","","","","","49","1,0,1","6","blank","290","null","0.43273139392395416","0.21894858182768073","0.2570235393092583","1","","","","","","","","",""
"","html-keyboard-response","141","423358","0.0-79.0-1.0","""event"",""trial"",""time""
""fullscreenenter"",""2"",""4318""
","
","
","""event"",""trial"",""time""
""fullscreenenter"",""2"",""4318""
","
","null","<p></p>","null","","","","","","","","","","","","","","","","","","","","","","","",""
"","do_trial","142","426526","0.0-80.0-0.0","""event"",""trial"",""time""
""fullscreenenter"",""2"",""4318""
","
","
","""event"",""trial"",""time""
""fullscreenenter"",""2"",""4318""
","
","615.1999999880791","","","","","","","","49","1,0,0","6","blank","291","null","0.5103749662084711","0.2837765167931881","0.16276374033678892","1","","","","","","","","",""
"","html-keyboard-response","143","427540","0.0-80.0-1.0","""event"",""trial"",""time""
""fullscreenenter"",""2"",""4318""
","
","
","""event"",""trial"",""time""
""fullscreenenter"",""2"",""4318""
","
","null","<p></p>","null","","","","","","","","","","","","","","","","","","","","","","","",""
"","do_trial","144","430559","0.0-81.0-0.0","""event"",""trial"",""time""
""fullscreenenter"",""2"",""4318""
","
","
","""event"",""trial"",""time""
""fullscreenenter"",""2"",""4318""
","
","473.5","","","","","","","","49","1,0,0","6","blank","292","null","0.6485226656678897","0.255353416490681","0.12011471533434433","1","","","","","","","","",""
"","html-keyboard-response","145","431573","0.0-81.0-1.0","""event"",""trial"",""time""
""fullscreenenter"",""2"",""4318""
","
","
","""event"",""trial"",""time""
""fullscreenenter"",""2"",""4318""
","
","null","<p></p>","null","","","","","","","","","","","","","","","","","","","","","","","",""
"","do_recog","146","435340","0.0-82.0-0.0","""event"",""trial"",""time""
""fullscreenenter"",""2"",""4318""
","
","
","""event"",""trial"",""time""
""fullscreenenter"",""2"",""4318""
","
","2245.899999976158","","","","","","","","56","","","","293","probe-141","","","","","1","[object Object]","195","4","0","","","",""
"","html-keyboard-response","147","436355","0.0-82.0-1.0","""event"",""trial"",""time""
""fullscreenenter"",""2"",""4318""
","
","
","""event"",""trial"",""time""
""fullscreenenter"",""2"",""4318""
","
","null","<p></p>","null","","","","","","","","","","","","","","","","","","","","","","","",""
"","do_trial","148","439634","0.0-83.0-0.0","""event"",""trial"",""time""
""fullscreenenter"",""2"",""4318""
","
","
","""event"",""trial"",""time""
""fullscreenenter"",""2"",""4318""
","
","726","","","","","","","","49","1,0,0","6","blank","294","null","0.7355679527462431","0.18408730997075462","0.10699308396803318","1","","","","","","","","",""
"","html-keyboard-response","149","440639","0.0-83.0-1.0","""event"",""trial"",""time""
""fullscreenenter"",""2"",""4318""
","
","
","""event"",""trial"",""time""
""fullscreenenter"",""2"",""4318""
","
","null","<p></p>","null","","","","","","","","","","","","","","","","","","","","","","","",""
"","do_trial","150","443590","0.0-84.0-0.0","""event"",""trial"",""time""
""fullscreenenter"",""2"",""4318""
","
","
","""event"",""trial"",""time""
""fullscreenenter"",""2"",""4318""
","
","398.80000001192093","","","","","","","","49","1,1,0","6","blank","295","null","0.5694909879592854","0.44371750638319624","0.0954852976347046","1","","","","","","","","",""
"","html-keyboard-response","151","444604","0.0-84.0-1.0","""event"",""trial"",""time""
""fullscreenenter"",""2"",""4318""
","
","
","""event"",""trial"",""time""
""fullscreenenter"",""2"",""4318""
","
","null","<p></p>","null","","","","","","","","","","","","","","","","","","","","","","","",""
"","do_recog","152","447707","0.0-85.0-0.0","""event"",""trial"",""time""
""fullscreenenter"",""2"",""4318""
","
","
","""event"",""trial"",""time""
""fullscreenenter"",""2"",""4318""
","
","1588.300000011921","","","","","","","","53","","","","296","probe-139","","","","","1","[object Object]","31","0","1","","","",""
"","html-keyboard-response","153","448721","0.0-85.0-1.0","""event"",""trial"",""time""
""fullscreenenter"",""2"",""4318""
","
","
","""event"",""trial"",""time""
""fullscreenenter"",""2"",""4318""
","
","null","<p></p>","null","","","","","","","","","","","","","","","","","","","","","","","",""
"","do_trial","154","451835","0.0-86.0-0.0","""event"",""trial"",""time""
""fullscreenenter"",""2"",""4318""
","
","
","""event"",""trial"",""time""
""fullscreenenter"",""2"",""4318""
","
","562.2999999523163","","","","","","","","49","1,1,0","6","blank","297","null","0.43319701037537295","0.32577864455022876","0.15040395730420944","1","","","","","","","","",""
"","html-keyboard-response","155","452852","0.0-86.0-1.0","""event"",""trial"",""time""
""fullscreenenter"",""2"",""4318""
","
","
","""event"",""trial"",""time""
""fullscreenenter"",""2"",""4318""
","
","null","<p></p>","null","","","","","","","","","","","","","","","","","","","","","","","",""
"","do_recog","156","455536","0.0-87.0-0.0","""event"",""trial"",""time""
""fullscreenenter"",""2"",""4318""
","
","
","""event"",""trial"",""time""
""fullscreenenter"",""2"",""4318""
","
","1168.699999988079","","","","","","","","56","","","","298","probe-167","","","","","1","[object Object]","117","2","0","","","",""
"","html-keyboard-response","157","456553","0.0-87.0-1.0","""event"",""trial"",""time""
""fullscreenenter"",""2"",""4318""
","
","
","""event"",""trial"",""time""
""fullscreenenter"",""2"",""4318""
","
","null","<p></p>","null","","","","","","","","","","","","","","","","","","","","","","","",""
"","do_trial","158","460220","0.0-88.0-0.0","""event"",""trial"",""time""
""fullscreenenter"",""2"",""4318""
","
","
","""event"",""trial"",""time""
""fullscreenenter"",""2"",""4318""
","
","1120","","","","","","","","49","0,0,0","6","blank","299","null","0.3030006380475196","0.4895961090878082","0.053592836217086645","0","","","","","","","","",""
"","html-keyboard-response","159","461236","0.0-88.0-1.0","""event"",""trial"",""time""
""fullscreenenter"",""2"",""4318""
","
","
","""event"",""trial"",""time""
""fullscreenenter"",""2"",""4318""
","
","null","<p></p>","null","","","","","","","","","","","","","","","","","","","","","","","",""
"","do_recog","160","464383","0.0-89.0-0.0","""event"",""trial"",""time""
""fullscreenenter"",""2"",""4318""
","
","
","""event"",""trial"",""time""
""fullscreenenter"",""2"",""4318""
","
","1625.0999999642372","","","","","","","","53","","","","300","probe-133","","","","","1","[object Object]","71","1","1","","","",""
"","html-keyboard-response","161","465400","0.0-89.0-1.0","""event"",""trial"",""time""
""fullscreenenter"",""2"",""4318""
","
","
","""event"",""trial"",""time""
""fullscreenenter"",""2"",""4318""
","
","null","<p></p>","null","","","","","","","","","","","","","","","","","","","","","","","",""
"","do_trial","162","468768","0.0-90.0-0.0","""event"",""trial"",""time""
""fullscreenenter"",""2"",""4318""
","
","
","""event"",""trial"",""time""
""fullscreenenter"",""2"",""4318""
","
","826.5","","","","","","","","49","0,0,0","6","blank","301","null","0.3423093258315793","0.5139568612882436","0.12220037939388295","0","","","","","","","","",""
"","html-keyboard-response","163","469783","0.0-90.0-1.0","""event"",""trial"",""time""
""fullscreenenter"",""2"",""4318""
","
","
","""event"",""trial"",""time""
""fullscreenenter"",""2"",""4318""
","
","null","<p></p>","null","","","","","","","","","","","","","","","","","","","","","","","",""
"","do_trial","164","472549","0.0-91.0-0.0","""event"",""trial"",""time""
""fullscreenenter"",""2"",""4318""
","
","
","""event"",""trial"",""time""
""fullscreenenter"",""2"",""4318""
","
","206.0999999642372","","","","","","","","50","0,0,0","6","blank","302","null","0.34240826586593337","0.5797557875980531","0.22618025311779838","0","","","","","","","","",""
"","html-keyboard-response","165","473566","0.0-91.0-1.0","""event"",""trial"",""time""
""fullscreenenter"",""2"",""4318""
","
","
","""event"",""trial"",""time""
""fullscreenenter"",""2"",""4318""
","
","null","<p></p>","null","","","","","","","","","","","","","","","","","","","","","","","",""
"","do_trial","166","476516","0.0-92.0-0.0","""event"",""trial"",""time""
""fullscreenenter"",""2"",""4318""
","
","
","""event"",""trial"",""time""
""fullscreenenter"",""2"",""4318""
","
","403.5","","","","","","","","49","0,1,0","6","blank","303","null","0.2829458871995527","0.5364779759500065","0.0741900349753474","0","","","","","","","","",""
"","html-keyboard-response","167","477532","0.0-92.0-1.0","""event"",""trial"",""time""
""fullscreenenter"",""2"",""4318""
","
","
","""event"",""trial"",""time""
""fullscreenenter"",""2"",""4318""
","
","null","<p></p>","null","","","","","","","","","","","","","","","","","","","","","","","",""
"","do_recog","168","480416","0.0-93.0-0.0","""event"",""trial"",""time""
""fullscreenenter"",""2"",""4318""
","
","
","""event"",""trial"",""time""
""fullscreenenter"",""2"",""4318""
","
","1371.199999988079","","","","","","","","53","","","","304","probe-161","","","","","1","[object Object]","73","1","1","","","",""
"","html-keyboard-response","169","481433","0.0-93.0-1.0","""event"",""trial"",""time""
""fullscreenenter"",""2"",""4318""
","
","
","""event"",""trial"",""time""
""fullscreenenter"",""2"",""4318""
","
","null","<p></p>","null","","","","","","","","","","","","","","","","","","","","","","","",""
"","do_trial","170","485148","0.0-94.0-0.0","""event"",""trial"",""time""
""fullscreenenter"",""2"",""4318""
","
","
","""event"",""trial"",""time""
""fullscreenenter"",""2"",""4318""
","
","1166.5","","","","","","","","49","0,0,0","6","blank","305","null","0.3041059591016315","0.5186413529004271","0.0775048185591392","0","","","","","","","","",""
"","html-keyboard-response","171","486164","0.0-94.0-1.0","""event"",""trial"",""time""
""fullscreenenter"",""2"",""4318""
","
","
","""event"",""trial"",""time""
""fullscreenenter"",""2"",""4318""
","
","null","<p></p>","null","","","","","","","","","","","","","","","","","","","","","","","",""
"","do_trial","172","488947","0.0-95.0-0.0","""event"",""trial"",""time""
""fullscreenenter"",""2"",""4318""
","
","
","""event"",""trial"",""time""
""fullscreenenter"",""2"",""4318""
","
","220.9000000357628","","","","","","","","51","0,0,0","6","blank","306","null","0.2640560717237817","0.6245015896713223","0.11122055736727837","0","","","","","","","","",""
"","html-keyboard-response","173","489963","0.0-95.0-1.0","""event"",""trial"",""time""
""fullscreenenter"",""2"",""4318""
","
","
","""event"",""trial"",""time""
""fullscreenenter"",""2"",""4318""
","
","null","<p></p>","null","","","","","","","","","","","","","","","","","","","","","","","",""
"","do_trial","174","492731","0.0-96.0-0.0","""event"",""trial"",""time""
""fullscreenenter"",""2"",""4318""
","
","
","""event"",""trial"",""time""
""fullscreenenter"",""2"",""4318""
","
","221.80000001192093","","","","","","","","50","1,0,1","6","blank","307","null","0.4246684725457749","0.5269473060272751","0.15112947008837954","0","","","","","","","","",""
"","html-keyboard-response","175","493745","0.0-96.0-1.0","""event"",""trial"",""time""
""fullscreenenter"",""2"",""4318""
","
","
","""event"",""trial"",""time""
""fullscreenenter"",""2"",""4318""
","
","null","<p></p>","null","","","","","","","","","","","","","","","","","","","","","","","",""
"","do_trial","176","496614","0.0-97.0-0.0","""event"",""trial"",""time""
""fullscreenenter"",""2"",""4318""
","
","
","""event"",""trial"",""time""
""fullscreenenter"",""2"",""4318""
","
","319.9000000357628","","","","","","","","49","1,0,0","6","blank","308","null","0.4117234451363167","0.4186008215638551","0.12207797113508007","1","","","","","","","","",""
"","html-keyboard-response","177","497623","0.0-97.0-1.0","""event"",""trial"",""time""
""fullscreenenter"",""2"",""4318""
","
","
","""event"",""trial"",""time""
""fullscreenenter"",""2"",""4318""
","
","null","<p></p>","null","","","","","","","","","","","","","","","","","","","","","","","",""
"","break","178","499008","0.0-98.0-0.0","""event"",""trial"",""time""
""fullscreenenter"",""2"",""4318""
","
","
","""event"",""trial"",""time""
""fullscreenenter"",""2"",""4318""
","
","1383.699999988079","<div class='center'><p>Time to take a quick break! You have 2 minutes to rest, but you can move on sooner if you'd like.</p><p> Press the <b>space bar</b> to continue.</p></div>","32","","","","","","","","","","","","","","","","","","","","","","","",""
"","do_recog","179","501862","0.0-98.0-1.0","""event"",""trial"",""time""
""fullscreenenter"",""2"",""4318""
","
","
","""event"",""trial"",""time""
""fullscreenenter"",""2"",""4318""
","
","1344.5","","","","","","","","53","","","","309","probe-77","","","","","1","[object Object]","111","2","1","","","",""
"","html-keyboard-response","180","502878","0.0-98.0-2.0","""event"",""trial"",""time""
""fullscreenenter"",""2"",""4318""
","
","
","""event"",""trial"",""time""
""fullscreenenter"",""2"",""4318""
","
","null","<p></p>","null","","","","","","","","","","","","","","","","","","","","","","","",""
"","do_trial","181","506145","0.0-99.0-0.0","""event"",""trial"",""time""
""fullscreenenter"",""2"",""4318""
","
","
","""event"",""trial"",""time""
""fullscreenenter"",""2"",""4318""
","
","712.8000000119209","","","","","","","","49","0,0,0","6","blank","310","null","0.3712193597124682","0.37078646283659245","0.1021635210350663","0","","","","","","","","",""
"","html-keyboard-response","182","507160","0.0-99.0-1.0","""event"",""trial"",""time""
""fullscreenenter"",""2"",""4318""
","
","
","""event"",""trial"",""time""
""fullscreenenter"",""2"",""4318""
","
","null","<p></p>","null","","","","","","","","","","","","","","","","","","","","","","","",""
"","do_trial","183","510309","0.0-100.0-0.0","""event"",""trial"",""time""
""fullscreenenter"",""2"",""4318""
","
","
","""event"",""trial"",""time""
""fullscreenenter"",""2"",""4318""
","
","592.3000000119209","","","","","","","","50","0,0,0","6","blank","311","null","0.3638200909944164","0.46196141803634255","0.10990809349880552","0","","","","","","","","",""
"","html-keyboard-response","184","511327","0.0-100.0-1.0","""event"",""trial"",""time""
""fullscreenenter"",""2"",""4318""
","
","
","""event"",""trial"",""time""
""fullscreenenter"",""2"",""4318""
","
","null","<p></p>","null","","","","","","","","","","","","","","","","","","","","","","","",""
"","do_trial","185","514127","0.0-101.0-0.0","""event"",""trial"",""time""
""fullscreenenter"",""2"",""4318""
","
","
","""event"",""trial"",""time""
""fullscreenenter"",""2"",""4318""
","
","245.29999995231628","","","","","","","","50","0,0,0","6","blank","312","null","0.25285361146497964","0.5541217687293453","0.06561314606599002","0","","","","","","","","",""
"","html-keyboard-response","186","515143","0.0-101.0-1.0","""event"",""trial"",""time""
""fullscreenenter"",""2"",""4318""
","
","
","""event"",""trial"",""time""
""fullscreenenter"",""2"",""4318""
","
","null","<p></p>","null","","","","","","","","","","","","","","","","","","","","","","","",""
"","do_trial","187","518177","0.0-102.0-0.0","""event"",""trial"",""time""
""fullscreenenter"",""2"",""4318""
","
","
","""event"",""trial"",""time""
""fullscreenenter"",""2"",""4318""
","
","484.5999999642372","","","","","","","","49","0,1,0","6","blank","313","null","0.16090379062824775","0.6312662042416253","0.10103179567438854","0","","","","","","","","",""
"","html-keyboard-response","188","519193","0.0-102.0-1.0","""event"",""trial"",""time""
""fullscreenenter"",""2"",""4318""
","
","
","""event"",""trial"",""time""
""fullscreenenter"",""2"",""4318""
","
","null","<p></p>","null","","","","","","","","","","","","","","","","","","","","","","","",""
"","do_recog","189","522276","0.0-103.0-0.0","""event"",""trial"",""time""
""fullscreenenter"",""2"",""4318""
","
","
","""event"",""trial"",""time""
""fullscreenenter"",""2"",""4318""
","
","1562.0999999642372","","","","","","","","53","","","","314","probe-238","","","","","0","[object Object]","null","null","0","","","",""
"","html-keyboard-response","190","523292","0.0-103.0-1.0","""event"",""trial"",""time""
""fullscreenenter"",""2"",""4318""
","
","
","""event"",""trial"",""time""
""fullscreenenter"",""2"",""4318""
","
","null","<p></p>","null","","","","","","","","","","","","","","","","","","","","","","","",""
"","do_trial","191","526859","0.0-104.0-0.0","""event"",""trial"",""time""
""fullscreenenter"",""2"",""4318""
","
","
","""event"",""trial"",""time""
""fullscreenenter"",""2"",""4318""
","
","1020.3000000119209","","","","","","","","51","0,1,0","6","blank","315","null","0.23019672873801014","0.6090213071938023","0.1533428406493692","0","","","","","","","","",""
"","html-keyboard-response","192","527874","0.0-104.0-1.0","""event"",""trial"",""time""
""fullscreenenter"",""2"",""4318""
","
","
","""event"",""trial"",""time""
""fullscreenenter"",""2"",""4318""
","
","null","<p></p>","null","","","","","","","","","","","","","","","","","","","","","","","",""
"","do_recog","193","530725","0.0-105.0-0.0","""event"",""trial"",""time""
""fullscreenenter"",""2"",""4318""
","
","
","""event"",""trial"",""time""
""fullscreenenter"",""2"",""4318""
","
","1346.199999988079","","","","","","","","56","","","","316","probe-36","","","","","1","[object Object]","77","1","0","","","",""
"","html-keyboard-response","194","531741","0.0-105.0-1.0","""event"",""trial"",""time""
""fullscreenenter"",""2"",""4318""
","
","
","""event"",""trial"",""time""
""fullscreenenter"",""2"",""4318""
","
","null","<p></p>","null","","","","","","","","","","","","","","","","","","","","","","","",""
"","do_trial","195","534874","0.0-106.0-0.0","""event"",""trial"",""time""
""fullscreenenter"",""2"",""4318""
","
","
","""event"",""trial"",""time""
""fullscreenenter"",""2"",""4318""
","
","573.3999999761581","","","","","","","","49","0,1,0","6","blank","317","null","0.26545736721789936","0.5150795467312905","0.10192186596013308","0","","","","","","","","",""
"","html-keyboard-response","196","535890","0.0-106.0-1.0","""event"",""trial"",""time""
""fullscreenenter"",""2"",""4318""
","
","
","""event"",""trial"",""time""
""fullscreenenter"",""2"",""4318""
","
","null","<p></p>","null","","","","","","","","","","","","","","","","","","","","","","","",""
"","do_trial","197","538657","0.0-107.0-0.0","""event"",""trial"",""time""
""fullscreenenter"",""2"",""4318""
","
","
","""event"",""trial"",""time""
""fullscreenenter"",""2"",""4318""
","
","212.79999995231628","","","","","","","","50","0,0,0","6","blank","318","null","0.2875953416601362","0.5989469935985252","0.11514264767720044","0","","","","","","","","",""
"","html-keyboard-response","198","539673","0.0-107.0-1.0","""event"",""trial"",""time""
""fullscreenenter"",""2"",""4318""
","
","
","""event"",""trial"",""time""
""fullscreenenter"",""2"",""4318""
","
","null","<p></p>","null","","","","","","","","","","","","","","","","","","","","","","","",""
"","do_trial","199","542922","0.0-108.0-0.0","""event"",""trial"",""time""
""fullscreenenter"",""2"",""4318""
","
","
","""event"",""trial"",""time""
""fullscreenenter"",""2"",""4318""
","
","698.1999999880791","","","","","","","","49","1,0,0","6","blank","319","null","0.41660769157818167","0.6494973747268749","0.2395460000039863","1","","","","","","","","",""
"","html-keyboard-response","200","543937","0.0-108.0-1.0","""event"",""trial"",""time""
""fullscreenenter"",""2"",""4318""
","
","
","""event"",""trial"",""time""
""fullscreenenter"",""2"",""4318""
","
","null","<p></p>","null","","","","","","","","","","","","","","","","","","","","","","","",""
"","do_trial","201","546856","0.0-109.0-0.0","""event"",""trial"",""time""
""fullscreenenter"",""2"",""4318""
","
","
","""event"",""trial"",""time""
""fullscreenenter"",""2"",""4318""
","
","361.5","","","","","","","","49","1,0,0","6","blank","320","null","0.27049519770984903","0.461567392512115","0.1413399326641909","1","","","","","","","","",""
"","html-keyboard-response","202","547871","0.0-109.0-1.0","""event"",""trial"",""time""
""fullscreenenter"",""2"",""4318""
","
","
","""event"",""trial"",""time""
""fullscreenenter"",""2"",""4318""
","
","null","<p></p>","null","","","","","","","","","","","","","","","","","","","","","","","",""
"","do_trial","203","550719","0.0-110.0-0.0","""event"",""trial"",""time""
""fullscreenenter"",""2"",""4318""
","
","
","""event"",""trial"",""time""
""fullscreenenter"",""2"",""4318""
","
","306.69999998807907","","","","","","","","49","0,0,0","6","blank","321","null","0.26723918375061867","0.4130908485526495","0.09446440246447463","0","","","","","","","","",""
"","html-keyboard-response","204","551722","0.0-110.0-1.0","""event"",""trial"",""time""
""fullscreenenter"",""2"",""4318""
","
","
","""event"",""trial"",""time""
""fullscreenenter"",""2"",""4318""
","
","null","<p></p>","null","","","","","","","","","","","","","","","","","","","","","","","",""
"","do_trial","205","554704","0.0-111.0-0.0","""event"",""trial"",""time""
""fullscreenenter"",""2"",""4318""
","
","
","""event"",""trial"",""time""
""fullscreenenter"",""2"",""4318""
","
","434.89999997615814","","","","","","","","50","1,0,0","6","blank","322","null","0.3235882018481351","0.36500367298354214","0.22236115666579678","0","","","","","","","","",""
"","html-keyboard-response","206","555720","0.0-111.0-1.0","""event"",""trial"",""time""
""fullscreenenter"",""2"",""4318""
","
","
","""event"",""trial"",""time""
""fullscreenenter"",""2"",""4318""
","
","null","<p></p>","null","","","","","","","","","","","","","","","","","","","","","","","",""
"","do_recog","207","559191","0.0-112.0-0.0","""event"",""trial"",""time""
""fullscreenenter"",""2"",""4318""
","
","
","""event"",""trial"",""time""
""fullscreenenter"",""2"",""4318""
","
","1959.699999988079","","","","","","","","55","","","","323","probe-151","","","","","1","[object Object]","198","4","0","","","",""
"","html-keyboard-response","208","560203","0.0-112.0-1.0","""event"",""trial"",""time""
""fullscreenenter"",""2"",""4318""
","
","
","""event"",""trial"",""time""
""fullscreenenter"",""2"",""4318""
","
","null","<p></p>","null","","","","","","","","","","","","","","","","","","","","","","","",""
"","do_trial","209","563420","0.0-113.0-0.0","""event"",""trial"",""time""
""fullscreenenter"",""2"",""4318""
","
","
","""event"",""trial"",""time""
""fullscreenenter"",""2"",""4318""
","
","667.5","","","","","","","","49","0,1,0","6","blank","324","null","0.2957659720890063","0.43106232615839923","0.22316215202243686","0","","","","","","","","",""
"","html-keyboard-response","210","564435","0.0-113.0-1.0","""event"",""trial"",""time""
""fullscreenenter"",""2"",""4318""
","
","
","""event"",""trial"",""time""
""fullscreenenter"",""2"",""4318""
","
","null","<p></p>","null","","","","","","","","","","","","","","","","","","","","","","","",""
"","do_recog","211","567618","0.0-114.0-0.0","""event"",""trial"",""time""
""fullscreenenter"",""2"",""4318""
","
","
","""event"",""trial"",""time""
""fullscreenenter"",""2"",""4318""
","
","1670.300000011921","","","","","","","","56","","","","325","probe-254","","","","","0","[object Object]","null","null","1","","","",""
"","html-keyboard-response","212","568634","0.0-114.0-1.0","""event"",""trial"",""time""
""fullscreenenter"",""2"",""4318""
","
","
","""event"",""trial"",""time""
""fullscreenenter"",""2"",""4318""
","
","null","<p></p>","null","","","","","","","","","","","","","","","","","","","","","","","",""
"","do_trial","213","572567","0.0-115.0-0.0","""event"",""trial"",""time""
""fullscreenenter"",""2"",""4318""
","
","
","""event"",""trial"",""time""
""fullscreenenter"",""2"",""4318""
","
","1376.5999999642372","","","","","","","","50","1,1,0","6","blank","326","null","0.3334068931731819","0.4076667238676777","0.13084549066008172","1","","","","","","","","",""
"","html-keyboard-response","214","573583","0.0-115.0-1.0","""event"",""trial"",""time""
""fullscreenenter"",""2"",""4318""
","
","
","""event"",""trial"",""time""
""fullscreenenter"",""2"",""4318""
","
","null","<p></p>","null","","","","","","","","","","","","","","","","","","","","","","","",""
"","do_trial","215","576400","0.0-116.0-0.0","""event"",""trial"",""time""
""fullscreenenter"",""2"",""4318""
","
","
","""event"",""trial"",""time""
""fullscreenenter"",""2"",""4318""
","
","256.4000000357628","","","","","","","","50","0,0,0","6","blank","327","null","0.23905979818718262","0.5044713304163921","0.18126352428646467","0","","","","","","","","",""
"","html-keyboard-response","216","577416","0.0-116.0-1.0","""event"",""trial"",""time""
""fullscreenenter"",""2"",""4318""
","
","
","""event"",""trial"",""time""
""fullscreenenter"",""2"",""4318""
","
","null","<p></p>","null","","","","","","","","","","","","","","","","","","","","","","","",""
"","do_trial","217","580399","0.0-117.0-0.0","""event"",""trial"",""time""
""fullscreenenter"",""2"",""4318""
","
","
","""event"",""trial"",""time""
""fullscreenenter"",""2"",""4318""
","
","426.19999998807907","","","","","","","","49","0,1,1","6","blank","328","null","0.2086863860425091","0.3525590457525216","0.0737375310882025","0","","","","","","","","",""
"","html-keyboard-response","218","581416","0.0-117.0-1.0","""event"",""trial"",""time""
""fullscreenenter"",""2"",""4318""
","
","
","""event"",""trial"",""time""
""fullscreenenter"",""2"",""4318""
","
","null","<p></p>","null","","","","","","","","","","","","","","","","","","","","","","","",""
"","do_trial","219","584373","0.0-118.0-0.0","""event"",""trial"",""time""
""fullscreenenter"",""2"",""4318""
","
","
","""event"",""trial"",""time""
""fullscreenenter"",""2"",""4318""
","
","402.4000000357628","","","","","","","","50","0,0,0","6","blank","329","null","0.38543053468019695","0.4568452280742035","0.23156878556827643","0","","","","","","","","",""
"","html-keyboard-response","220","585381","0.0-118.0-1.0","""event"",""trial"",""time""
""fullscreenenter"",""2"",""4318""
","
","
","""event"",""trial"",""time""
""fullscreenenter"",""2"",""4318""
","
","null","<p></p>","null","","","","","","","","","","","","","","","","","","","","","","","",""
"","do_recog","221","588613","0.0-119.0-0.0","""event"",""trial"",""time""
""fullscreenenter"",""2"",""4318""
","
","
","""event"",""trial"",""time""
""fullscreenenter"",""2"",""4318""
","
","1715","","","","","","","","54","","","","330","probe-208","","","","","1","[object Object]","30","0","1","","","",""
"","html-keyboard-response","222","589631","0.0-119.0-1.0","""event"",""trial"",""time""
""fullscreenenter"",""2"",""4318""
","
","
","""event"",""trial"",""time""
""fullscreenenter"",""2"",""4318""
","
","null","<p></p>","null","","","","","","","","","","","","","","","","","","","","","","","",""
"","do_trial","223","593432","0.0-120.0-0.0","""event"",""trial"",""time""
""fullscreenenter"",""2"",""4318""
","
","
","""event"",""trial"",""time""
""fullscreenenter"",""2"",""4318""
","
","1251.8999999761581","","","","","","","","49","1,0,0","6","blank","331","null","0.44791476723445767","0.5401446185316324","0.058960741212717646","1","","","","","","","","",""
"","html-keyboard-response","224","594447","0.0-120.0-1.0","""event"",""trial"",""time""
""fullscreenenter"",""2"",""4318""
","
","
","""event"",""trial"",""time""
""fullscreenenter"",""2"",""4318""
","
","null","<p></p>","null","","","","","","","","","","","","","","","","","","","","","","","",""
"","do_recog","225","596945","0.0-121.0-0.0","""event"",""trial"",""time""
""fullscreenenter"",""2"",""4318""
","
","
","""event"",""trial"",""time""
""fullscreenenter"",""2"",""4318""
","
","982.8000000119209","","","","","","","","53","","","","332","probe-210","","","","","1","[object Object]","39","0","1","","","",""
"","html-keyboard-response","226","597963","0.0-121.0-1.0","""event"",""trial"",""time""
""fullscreenenter"",""2"",""4318""
","
","
","""event"",""trial"",""time""
""fullscreenenter"",""2"",""4318""
","
","null","<p></p>","null","","","","","","","","","","","","","","","","","","","","","","","",""
"","do_trial","227","601429","0.0-122.0-0.0","""event"",""trial"",""time""
""fullscreenenter"",""2"",""4318""
","
","
","""event"",""trial"",""time""
""fullscreenenter"",""2"",""4318""
","
","908.3999999761581","","","","","","","","49","0,1,0","6","blank","333","null","0.3993393347807164","0.5396320058468711","0.09591000500064563","0","","","","","","","","",""
"","html-keyboard-response","228","602446","0.0-122.0-1.0","""event"",""trial"",""time""
""fullscreenenter"",""2"",""4318""
","
","
","""event"",""trial"",""time""
""fullscreenenter"",""2"",""4318""
","
","null","<p></p>","null","","","","","","","","","","","","","","","","","","","","","","","",""
"","do_recog","229","605446","0.0-123.0-0.0","""event"",""trial"",""time""
""fullscreenenter"",""2"",""4318""
","
","
","""event"",""trial"",""time""
""fullscreenenter"",""2"",""4318""
","
","1481.199999988079","","","","","","","","54","","","","334","probe-179","","","","","1","[object Object]","154","3","1","","","",""
"","html-keyboard-response","230","606462","0.0-123.0-1.0","""event"",""trial"",""time""
""fullscreenenter"",""2"",""4318""
","
","
","""event"",""trial"",""time""
""fullscreenenter"",""2"",""4318""
","
","null","<p></p>","null","","","","","","","","","","","","","","","","","","","","","","","",""
"","do_trial","231","609947","0.0-124.0-0.0","""event"",""trial"",""time""
""fullscreenenter"",""2"",""4318""
","
","
","""event"",""trial"",""time""
""fullscreenenter"",""2"",""4318""
","
","935","","","","","","","","49","1,1,1","6","blank","335","null","0.3689220642608742","0.4909102357845961","0.09298910831646887","1","","","","","","","","",""
"","html-keyboard-response","232","610960","0.0-124.0-1.0","""event"",""trial"",""time""
""fullscreenenter"",""2"",""4318""
","
","
","""event"",""trial"",""time""
""fullscreenenter"",""2"",""4318""
","
","null","<p></p>","null","","","","","","","","","","","","","","","","","","","","","","","",""
"","do_trial","233","614194","0.0-125.0-0.0","""event"",""trial"",""time""
""fullscreenenter"",""2"",""4318""
","
","
","""event"",""trial"",""time""
""fullscreenenter"",""2"",""4318""
","
","684.7999999523163","","","","","","","","49","1,0,0","6","blank","336","null","0.40247734293574694","0.5207956427754551","0.09506621846599217","1","","","","","","","","",""
"","html-keyboard-response","234","615210","0.0-125.0-1.0","""event"",""trial"",""time""
""fullscreenenter"",""2"",""4318""
","
","
","""event"",""trial"",""time""
""fullscreenenter"",""2"",""4318""
","
","null","<p></p>","null","","","","","","","","","","","","","","","","","","","","","","","",""
"","do_trial","235","618012","0.0-126.0-0.0","""event"",""trial"",""time""
""fullscreenenter"",""2"",""4318""
","
","
","""event"",""trial"",""time""
""fullscreenenter"",""2"",""4318""
","
","257","","","","","","","","49","1,1,0","6","blank","337","null","0.4026068936297408","0.4670441522943965","0.17056331856097284","1","","","","","","","","",""
"","html-keyboard-response","236","619025","0.0-126.0-1.0","""event"",""trial"",""time""
""fullscreenenter"",""2"",""4318""
","
","
","""event"",""trial"",""time""
""fullscreenenter"",""2"",""4318""
","
","null","<p></p>","null","","","","","","","","","","","","","","","","","","","","","","","",""
"","do_recog","237","621758","0.0-127.0-0.0","""event"",""trial"",""time""
""fullscreenenter"",""2"",""4318""
","
","
","""event"",""trial"",""time""
""fullscreenenter"",""2"",""4318""
","
","1217.9000000357628","","","","","","","","53","","","","338","probe-185","","","","","1","[object Object]","196","4","1","","","",""
"","html-keyboard-response","238","622775","0.0-127.0-1.0","""event"",""trial"",""time""
""fullscreenenter"",""2"",""4318""
","
","
","""event"",""trial"",""time""
""fullscreenenter"",""2"",""4318""
","
","null","<p></p>","null","","","","","","","","","","","","","","","","","","","","","","","",""
"","do_trial","239","626292","0.0-128.0-0.0","""event"",""trial"",""time""
""fullscreenenter"",""2"",""4318""
","
","
","""event"",""trial"",""time""
""fullscreenenter"",""2"",""4318""
","
","972.1999999880791","","","","","","","","49","1,1,0","6","blank","339","null","0.2852543170316659","0.4389757544578538","0.2290042625324651","1","","","","","","","","",""
"","html-keyboard-response","240","627309","0.0-128.0-1.0","""event"",""trial"",""time""
""fullscreenenter"",""2"",""4318""
","
","
","""event"",""trial"",""time""
""fullscreenenter"",""2"",""4318""
","
","null","<p></p>","null","","","","","","","","","","","","","","","","","","","","","","","",""
"","do_recog","241","630209","0.0-129.0-0.0","""event"",""trial"",""time""
""fullscreenenter"",""2"",""4318""
","
","
","""event"",""trial"",""time""
""fullscreenenter"",""2"",""4318""
","
","1389.5","","","","","","","","53","","","","340","probe-70","","","","","1","[object Object]","70","1","1","","","",""
"","html-keyboard-response","242","631224","0.0-129.0-1.0","""event"",""trial"",""time""
""fullscreenenter"",""2"",""4318""
","
","
","""event"",""trial"",""time""
""fullscreenenter"",""2"",""4318""
","
","null","<p></p>","null","","","","","","","","","","","","","","","","","","","","","","","",""
"","do_trial","243","634485","0.0-130.0-0.0","""event"",""trial"",""time""
""fullscreenenter"",""2"",""4318""
","
","
","""event"",""trial"",""time""
""fullscreenenter"",""2"",""4318""
","
","708.8000000119209","","","","","","","","49","0,0,0","6","blank","341","null","0.3757464026355989","0.490237689674957","0.07022912277800553","0","","","","","","","","",""
"","html-keyboard-response","244","635492","0.0-130.0-1.0","""event"",""trial"",""time""
""fullscreenenter"",""2"",""4318""
","
","
","""event"",""trial"",""time""
""fullscreenenter"",""2"",""4318""
","
","null","<p></p>","null","","","","","","","","","","","","","","","","","","","","","","","",""
"","do_trial","245","638474","0.0-131.0-0.0","""event"",""trial"",""time""
""fullscreenenter"",""2"",""4318""
","
","
","""event"",""trial"",""time""
""fullscreenenter"",""2"",""4318""
","
","432.0999999642372","","","","","","","","50","1,1,0","6","blank","342","null","0.3360240374426817","0.42189411104924446","0.10415944763040161","1","","","","","","","","",""
"","html-keyboard-response","246","639490","0.0-131.0-1.0","""event"",""trial"",""time""
""fullscreenenter"",""2"",""4318""
","
","
","""event"",""trial"",""time""
""fullscreenenter"",""2"",""4318""
","
","null","<p></p>","null","","","","","","","","","","","","","","","","","","","","","","","",""
"","do_trial","247","642307","0.0-132.0-0.0","""event"",""trial"",""time""
""fullscreenenter"",""2"",""4318""
","
","
","""event"",""trial"",""time""
""fullscreenenter"",""2"",""4318""
","
","262.69999998807907","","","","","","","","50","0,1,1","6","blank","343","null","0.391046895000677","0.6860086717814105","0.19539249621022106","1","","","","","","","","",""
"","html-keyboard-response","248","643322","0.0-132.0-1.0","""event"",""trial"",""time""
""fullscreenenter"",""2"",""4318""
","
","
","""event"",""trial"",""time""
""fullscreenenter"",""2"",""4318""
","
","null","<p></p>","null","","","","","","","","","","","","","","","","","","","","","","","",""
"","do_trial","249","646306","0.0-133.0-0.0","""event"",""trial"",""time""
""fullscreenenter"",""2"",""4318""
","
","
","""event"",""trial"",""time""
""fullscreenenter"",""2"",""4318""
","
","434.9000000357628","","","","","","","","50","0,0,0","6","blank","344","null","0.24101129451441167","0.7016931276412238","0.20717122415722247","0","","","","","","","","",""
"","html-keyboard-response","250","647322","0.0-133.0-1.0","""event"",""trial"",""time""
""fullscreenenter"",""2"",""4318""
","
","
","""event"",""trial"",""time""
""fullscreenenter"",""2"",""4318""
","
","null","<p></p>","null","","","","","","","","","","","","","","","","","","","","","","","",""
"","do_trial","251","650206","0.0-134.0-0.0","""event"",""trial"",""time""
""fullscreenenter"",""2"",""4318""
","
","
","""event"",""trial"",""time""
""fullscreenenter"",""2"",""4318""
","
","333.30000001192093","","","","","","","","49","0,1,0","6","blank","345","null","0.27002856995699076","0.763067197987758","0.13389619676243766","0","","","","","","","","",""
"","html-keyboard-response","252","651221","0.0-134.0-1.0","""event"",""trial"",""time""
""fullscreenenter"",""2"",""4318""
","
","
","""event"",""trial"",""time""
""fullscreenenter"",""2"",""4318""
","
","null","<p></p>","null","","","","","","","","","","","","","","","","","","","","","","","",""
"","do_recog","253","654854","0.0-135.0-0.0","""event"",""trial"",""time""
""fullscreenenter"",""2"",""4318""
","
","
","""event"",""trial"",""time""
""fullscreenenter"",""2"",""4318""
","
","2123.7999999523163","","","","","","","","54","","","","346","probe-104","","","","","1","[object Object]","115","2","1","","","",""
"","html-keyboard-response","254","655871","0.0-135.0-1.0","""event"",""trial"",""time""
""fullscreenenter"",""2"",""4318""
","
","
","""event"",""trial"",""time""
""fullscreenenter"",""2"",""4318""
","
","null","<p></p>","null","","","","","","","","","","","","","","","","","","","","","","","",""
"","do_trial","255","659391","0.0-136.0-0.0","""event"",""trial"",""time""
""fullscreenenter"",""2"",""4318""
","
","
","""event"",""trial"",""time""
""fullscreenenter"",""2"",""4318""
","
","968.7000000476837","","","","","","","","49","1,1,0","6","blank","347","null","0.3919040503439561","0.7027399059516121","0.14243015457037225","1","","","","","","","","",""
"","html-keyboard-response","256","660403","0.0-136.0-1.0","""event"",""trial"",""time""
""fullscreenenter"",""2"",""4318""
","
","
","""event"",""trial"",""time""
""fullscreenenter"",""2"",""4318""
","
","null","<p></p>","null","","","","","","","","","","","","","","","","","","","","","","","",""
"","do_recog","257","663219","0.0-137.0-0.0","""event"",""trial"",""time""
""fullscreenenter"",""2"",""4318""
","
","
","""event"",""trial"",""time""
""fullscreenenter"",""2"",""4318""
","
","1300","","","","","","","","53","","","","348","probe-07","","","","","1","[object Object]","72","1","1","","","",""
"","html-keyboard-response","258","664235","0.0-137.0-1.0","""event"",""trial"",""time""
""fullscreenenter"",""2"",""4318""
","
","
","""event"",""trial"",""time""
""fullscreenenter"",""2"",""4318""
","
","null","<p></p>","null","","","","","","","","","","","","","","","","","","","","","","","",""
"","break","259","665294","0.0-138.0-0.0","""event"",""trial"",""time""
""fullscreenenter"",""2"",""4318""
","
","
","""event"",""trial"",""time""
""fullscreenenter"",""2"",""4318""
","
","1056.6000000238419","<div class='center'><p>Time to take a quick break! You have 2 minutes to rest, but you can move on sooner if you'd like.</p><p> Press the <b>space bar</b> to continue.</p></div>","32","","","","","","","","","","","","","","","","","","","","","","","",""
"","do_trial","260","669437","0.0-138.0-1.0","""event"",""trial"",""time""
""fullscreenenter"",""2"",""4318""
","
","
","""event"",""trial"",""time""
""fullscreenenter"",""2"",""4318""
","
","1592.8999999761581","","","","","","","","49","1,1,1","6","blank","349","null","0.33721853155969894","0.5878028670945351","0.2161159803234011","1","","","","","","","","",""
"","html-keyboard-response","261","670451","0.0-138.0-2.0","""event"",""trial"",""time""
""fullscreenenter"",""2"",""4318""
","
","
","""event"",""trial"",""time""
""fullscreenenter"",""2"",""4318""
","
","null","<p></p>","null","","","","","","","","","","","","","","","","","","","","","","","",""
"","do_trial","262","673280","0.0-139.0-0.0","""event"",""trial"",""time""
""fullscreenenter"",""2"",""4318""
","
","
","""event"",""trial"",""time""
""fullscreenenter"",""2"",""4318""
","
","278.7999999523163","","","","","","","","49","1,1,0","6","blank","350","null","0.42634853929910327","0.6861650361847407","0.19624362761556438","1","","","","","","","","",""
"","html-keyboard-response","263","674286","0.0-139.0-1.0","""event"",""trial"",""time""
""fullscreenenter"",""2"",""4318""
","
","
","""event"",""trial"",""time""
""fullscreenenter"",""2"",""4318""
","
","null","<p></p>","null","","","","","","","","","","","","","","","","","","","","","","","",""
"","do_trial","264","677135","0.0-140.0-0.0","""event"",""trial"",""time""
""fullscreenenter"",""2"",""4318""
","
","
","""event"",""trial"",""time""
""fullscreenenter"",""2"",""4318""
","
","289","","","","","","","","49","0,0,1","6","blank","351","null","0.3498562214223243","0.319803636478336","0.2777783918127755","0","","","","","","","","",""
"","html-keyboard-response","265","678150","0.0-140.0-1.0","""event"",""trial"",""time""
""fullscreenenter"",""2"",""4318""
","
","
","""event"",""trial"",""time""
""fullscreenenter"",""2"",""4318""
","
","null","<p></p>","null","","","","","","","","","","","","","","","","","","","","","","","",""
"","do_trial","266","681000","0.0-141.0-0.0","""event"",""trial"",""time""
""fullscreenenter"",""2"",""4318""
","
","
","""event"",""trial"",""time""
""fullscreenenter"",""2"",""4318""
","
","291.0999999642372","","","","","","","","50","0,0,0","6","blank","352","null","0.3954461937130885","0.2169119283455763","0.290754699537208","0","","","","","","","","",""
"","html-keyboard-response","267","682016","0.0-141.0-1.0","""event"",""trial"",""time""
""fullscreenenter"",""2"",""4318""
","
","
","""event"",""trial"",""time""
""fullscreenenter"",""2"",""4318""
","
","null","<p></p>","null","","","","","","","","","","","","","","","","","","","","","","","",""
"","do_recog","268","684682","0.0-142.0-0.0","""event"",""trial"",""time""
""fullscreenenter"",""2"",""4318""
","
","
","""event"",""trial"",""time""
""fullscreenenter"",""2"",""4318""
","
","1148.6000000238419","","","","","","","","53","","","","353","probe-177","","","","","1","[object Object]","194","4","1","","","",""
"","html-keyboard-response","269","685699","0.0-142.0-1.0","""event"",""trial"",""time""
""fullscreenenter"",""2"",""4318""
","
","
","""event"",""trial"",""time""
""fullscreenenter"",""2"",""4318""
","
","null","<p></p>","null","","","","","","","","","","","","","","","","","","","","","","","",""
"","do_trial","270","688699","0.0-143.0-0.0","""event"",""trial"",""time""
""fullscreenenter"",""2"",""4318""
","
","
","""event"",""trial"",""time""
""fullscreenenter"",""2"",""4318""
","
","453.39999997615814","","","","","","","","49","0,1,0","6","blank","354","null","0.46195755272274663","0.21474968553114998","0.3171819788104917","0","","","","","","","","",""
"","html-keyboard-response","271","689716","0.0-143.0-1.0","""event"",""trial"",""time""
""fullscreenenter"",""2"",""4318""
","
","
","""event"",""trial"",""time""
""fullscreenenter"",""2"",""4318""
","
","null","<p></p>","null","","","","","","","","","","","","","","","","","","","","","","","",""
"","do_trial","272","692816","0.0-144.0-0.0","""event"",""trial"",""time""
""fullscreenenter"",""2"",""4318""
","
","
","""event"",""trial"",""time""
""fullscreenenter"",""2"",""4318""
","
","553.6999999880791","","","","","","","","51","0,0,1","6","blank","355","null","0.5055770649444035","0.11503566345055735","0.21056778382338814","1","","","","","","","","",""
"","html-keyboard-response","273","693824","0.0-144.0-1.0","""event"",""trial"",""time""
""fullscreenenter"",""2"",""4318""
","
","
","""event"",""trial"",""time""
""fullscreenenter"",""2"",""4318""
","
","null","<p></p>","null","","","","","","","","","","","","","","","","","","","","","","","",""
"","do_trial","274","696616","0.0-145.0-0.0","""event"",""trial"",""time""
""fullscreenenter"",""2"",""4318""
","
","
","""event"",""trial"",""time""
""fullscreenenter"",""2"",""4318""
","
","245.19999998807907","","","","","","","","51","1,0,1","6","blank","356","null","0.5442359182880329","0.14547396060484516","0.25535115474820713","1","","","","","","","","",""
"","html-keyboard-response","275","697630","0.0-145.0-1.0","""event"",""trial"",""time""
""fullscreenenter"",""2"",""4318""
","
","
","""event"",""trial"",""time""
""fullscreenenter"",""2"",""4318""
","
","null","<p></p>","null","","","","","","","","","","","","","","","","","","","","","","","",""
"","do_recog","276","700848","0.0-146.0-0.0","""event"",""trial"",""time""
""fullscreenenter"",""2"",""4318""
","
","
","""event"",""trial"",""time""
""fullscreenenter"",""2"",""4318""
","
","1708.3999999761581","","","","","","","","54","","","","357","probe-205","","","","","1","[object Object]","78","1","1","","","",""
"","html-keyboard-response","277","701864","0.0-146.0-1.0","""event"",""trial"",""time""
""fullscreenenter"",""2"",""4318""
","
","
","""event"",""trial"",""time""
""fullscreenenter"",""2"",""4318""
","
","null","<p></p>","null","","","","","","","","","","","","","","","","","","","","","","","",""
"","do_trial","278","705406","0.0-147.0-0.0","""event"",""trial"",""time""
""fullscreenenter"",""2"",""4318""
","
","
","""event"",""trial"",""time""
""fullscreenenter"",""2"",""4318""
","
