"success","trial_type","trial_index","time_elapsed","internal_node_id","interactions","blur_events","focus_events","fullscreenenter_events","fullscreenexit_events","rt","stimulus","key_press","subject_id","participant_id","age","gender","prompt","response","choice_outcomes","context_n","context_img_id","trial_n","probe_img_id","pR_red","pR_white","pR_black","outcome","is_valid","image_to_show","probed_trial","probed_context","correct","probe","probed_trial_n","probed_context_n","context_im"
"true","fullscreen","0","2718","0.0-0.0","""event"",""trial"",""time""
""fullscreenenter"",""0"",""1728""
","
","
","""event"",""trial"",""time""
""fullscreenenter"",""0"",""1728""
","
","","","","","","","","","","","","","","","","","","","","","","","","","","",""
"","pavlovia","1","2722","0.0-1.0","""event"",""trial"",""time""
""fullscreenenter"",""0"",""1728""
","
","
","""event"",""trial"",""time""
""fullscreenenter"",""0"",""1728""
","
","","","","","","","","","","","","","","","","","","","","","","","","","","",""
"","welc_back","2","12603","0.0-2.0","""event"",""trial"",""time""
""fullscreenenter"",""0"",""1728""
","
","
","""event"",""trial"",""time""
""fullscreenenter"",""0"",""1728""
","
","null","run_exp/static/audio/clip_29_welcome_back.m4a","null","429","741","23","Female","<div class='center'><p>Welcome to day 2!</p><p> Yesterday, you were the head captain of a pirate ship. You asked your fellow pirates to rob other ships of their gold across six different islands.</p></div>","","","","","","","","","","","","","","","","","","",""
"","html-keyboard-response","3","14316","0.0-3.0","""event"",""trial"",""time""
""fullscreenenter"",""0"",""1728""
","
","
","""event"",""trial"",""time""
""fullscreenenter"",""0"",""1728""
","
","1711","<div class='center'><p>Welcome to day 2!</p><p> Yesterday, you were the head captain of a pirate ship. You asked your fellow pirates to rob other ships of their gold across six different islands.</p><p><b>[Press the space bar to continue]</b></p></div>","32","","","","","","","","","","","","","","","","","","","","","","","",""
"","day_1_summary_goal","4","31502","0.0-4.0","""event"",""trial"",""time""
""fullscreenenter"",""0"",""1728""
","
","
","""event"",""trial"",""time""
""fullscreenenter"",""0"",""1728""
","
","null","run_exp/static/audio/clip_30_goal_of_game.m4a","null","","","","","<div class='center'><p>Today, like yesterday, you get to pick which pirate you want to rob the next ship.</p><p>If the pirate is successful in robbing a ship, you get gold coins that look like this: </p><p><img src='run_exp/static/images/tutorial/reward.png' height='150'></p><p> If they were not successful in robbing the ship, then you will get no gold coins and you'll see a big red x like this: </p><p><img src='run_exp/static/images/tutorial/reward_no.png' height='150'></p></div>","","","","","","","","","","","","","","","","","","",""
"","html-keyboard-response","5","33643","0.0-5.0","""event"",""trial"",""time""
""fullscreenenter"",""0"",""1728""
","
","
","""event"",""trial"",""time""
""fullscreenenter"",""0"",""1728""
","
","2139.0999999940395","<div class='center'><p>Today, like yesterday, you get to pick which pirate you want to rob the next ship.</p><p>If the pirate is successful in robbing a ship, you get gold coins that look like this: </p><p><img src='run_exp/static/images/tutorial/reward.png' height='150'></p><p> If they were not successful in robbing the ship, then you will get no gold coins and you'll see a big red x like this: </p><p><img src='run_exp/static/images/tutorial/reward_no.png' height='150'></p><p><b>[Press the space bar to continue]</b></p></div>","32","","","","","","","","","","","","","","","","","","","","","","","",""
"","day_1_summary_pick","6","48322","0.0-6.0","""event"",""trial"",""time""
""fullscreenenter"",""0"",""1728""
","
","
","""event"",""trial"",""time""
""fullscreenenter"",""0"",""1728""
","
","null","run_exp/static/audio/clip_31_how_to_pick_a_pirate.m4a","null","","","","","<div class='center'><p>Also, just like yesterday, you will use the 1,2,3 keys on your keyboard to pick a pirate. Press '1' to choose red beard, '2' to choose white beard, and '3' to choose black beard . You only have 3 seconds to pick a pirate, so please make a choice quickly!</p></div>","","","","","","","","","","","","","","","","","","",""
"","html-keyboard-response","7","50699","0.0-7.0","""event"",""trial"",""time""
""fullscreenenter"",""0"",""1728""
","
","
","""event"",""trial"",""time""
""fullscreenenter"",""0"",""1728""
","
","2375.5","<div class='center'><p>Also, just like yesterday, you will use the 1,2,3 keys on your keyboard to pick a pirate. Press '1' to choose red beard, '2' to choose white beard, and '3' to choose black beard . You only have 3 seconds to pick a pirate, so please make a choice quickly!</p><p><b>[Press the space bar to continue]</b></p></div>","32","","","","","","","","","","","","","","","","","","","","","","","",""
"","test_phase_begin","8","81082","0.0-8.0","""event"",""trial"",""time""
""fullscreenenter"",""0"",""1728""
","
","
","""event"",""trial"",""time""
""fullscreenenter"",""0"",""1728""
","
","null","run_exp/static/audio/clip_32_final_place.m4a","null","","","","","<div class='center'><p>You’ve arrived at the final island of your journey! Unfortunately, it’s very foggy out, so you won’t be able to see it in the distance like the other islands you've visited.</p><p>You’ll still be deciding which pirate you want to rob a ship like before. However, because of the fog, you also won’t be able to see the ship.</p><p>This means you do not have to remember the ships you rob on this island.</p><p>Unlike yesterday, you won't be visiting multiple islands today. You will stay on this island for the entire game. This game will last ~30 minutes.</p></div>","","","","","","","","","","","","","","","","","","",""
"","html-keyboard-response","9","83339","0.0-9.0","""event"",""trial"",""time""
""fullscreenenter"",""0"",""1728""
","
","
","""event"",""trial"",""time""
""fullscreenenter"",""0"",""1728""
","
","2256.5","<div class='center'><p>You’ve arrived at the final island of your journey! Unfortunately, it’s very foggy out, so you won’t be able to see it in the distance like the other islands you've visited.</p><p>You’ll still be deciding which pirate you want to rob a ship like before. However, because of the fog, you also won’t be able to see the ship.</p><p>This means you do not have to remember the ships you rob on this island.</p><p>Unlike yesterday, you won't be visiting multiple islands today. You will stay on this island for the entire game. This game will last ~30 minutes.</p><p><b>[Press the space bar to continue]</b></p></div>","32","","","","","","","","","","","","","","","","","","","","","","","",""
"","explain_probe_1","10","91042","0.0-10.0","""event"",""trial"",""time""
""fullscreenenter"",""0"",""1728""
","
","
","""event"",""trial"",""time""
""fullscreenenter"",""0"",""1728""
","
","null","run_exp/static/audio/clip_33_recognition_1.m4a","null","","","","","<div class='center'><p> Sometimes you’ll be shown a ship, and you will be asked if you saw this ship on a past island.</p><p> Here is an example of what you will see.</p><p><img src='run_exp/static/images/tutorial/example_recog_trial.png' height='500'></p></div>","","","","","","","","","","","","","","","","","","",""
"","html-keyboard-response","11","91651","0.0-11.0","""event"",""trial"",""time""
""fullscreenenter"",""0"",""1728""
","
","
","""event"",""trial"",""time""
""fullscreenenter"",""0"",""1728""
","
","607.1999999880791","<div class='center'><p> Sometimes you’ll be shown a ship, and you will be asked if you saw this ship on a past island.</p><p> Here is an example of what you will see.</p><p><img src='run_exp/static/images/tutorial/example_recog_trial.png' height='500'></p><p><b>[Press the space bar to continue]</b></p></div>","32","","","","","","","","","","","","","","","","","","","","","","","",""
"","explain_probe_2","12","113362","0.0-12.0","""event"",""trial"",""time""
""fullscreenenter"",""0"",""1728""
","
","
","""event"",""trial"",""time""
""fullscreenenter"",""0"",""1728""
","
","null","run_exp/static/audio/clip_34_recognition_2.m4a","null","","","","","<div class='center'><p> You will press the 5, 6, 7, 8 keys on your keyboard to respond.</p><p>If you are sure you saw the ship, press <b>5</b> on your keyboard.</p><p> If you think you saw it before but aren't sure, then press <b>6</b>.</p><p> If you think you have <b>not</b> seen it before but aren't sure, then press <b>7</b>.</p><p> If you are sure you did <b>not</b> see the ship before, then press <b>8</b>.</p><p><img src='run_exp/static/images/tutorial/example_recog_trial.png' height='500'></p></div>","","","","","","","","","","","","","","","","","","",""
"","html-keyboard-response","13","113876","0.0-13.0","""event"",""trial"",""time""
""fullscreenenter"",""0"",""1728""
","
","
","""event"",""trial"",""time""
""fullscreenenter"",""0"",""1728""
","
","512.6999999880791","<div class='center'><p> You will press the 5, 6, 7, 8 keys on your keyboard to respond.</p><p>If you are sure you saw the ship, press <b>5</b> on your keyboard.</p><p> If you think you saw it before but aren't sure, then press <b>6</b>.</p><p> If you think you have <b>not</b> seen it before but aren't sure, then press <b>7</b>.</p><p> If you are sure you did <b>not</b> see the ship before, then press <b>8</b>.</p><p><img src='run_exp/static/images/tutorial/example_recog_trial.png' height='500'></p><p><b>[Press the space bar to continue]</b></p></div>","32","","","","","","","","","","","","","","","","","","","","","","","",""
"","explain_outcome","14","131062","0.0-14.0","""event"",""trial"",""time""
""fullscreenenter"",""0"",""1728""
","
","
","""event"",""trial"",""time""
""fullscreenenter"",""0"",""1728""
","
","null","run_exp/static/audio/clip_35_recognition_3.m4a","null","","","","","<div class='center'><p> If you remember correctly, then you’ll get a gold coin like this: </p><p><img src='run_exp/static/images/tutorial/reward_small.png' height='200'></p><p>If you do not remember correctly, then you'll see a red x like this: </p><p><img src='run_exp/static/images/tutorial/reward_no.png' height='200'></p><p>Importantly, when you are shown a ship, take the time to remind yourself which island you saw it on. This will help you in the next part of the study.</p></div>","","","","","","","","","","","","","","","","","","",""
"","html-keyboard-response","15","131532","0.0-15.0","""event"",""trial"",""time""
""fullscreenenter"",""0"",""1728""
","
","
","""event"",""trial"",""time""
""fullscreenenter"",""0"",""1728""
","
","469","<div class='center'><p> If you remember correctly, then you’ll get a gold coin like this: </p><p><img src='run_exp/static/images/tutorial/reward_small.png' height='200'></p><p>If you do not remember correctly, then you'll see a red x like this: </p><p><img src='run_exp/static/images/tutorial/reward_no.png' height='200'></p><p>Importantly, when you are shown a ship, take the time to remind yourself which island you saw it on. This will help you in the next part of the study.</p><p><b>[Press the space bar to continue]</b></p></div>","32","","","","","","","","","","","","","","","","","","","","","","","",""
"","begin_test_phase","16","147342","0.0-16.0","""event"",""trial"",""time""
""fullscreenenter"",""0"",""1728""
","
","
","""event"",""trial"",""time""
""fullscreenenter"",""0"",""1728""
","
","null","run_exp/static/audio/clip_36_begin_final.m4a","null","","","","","<div class='center'><p>Let's go over the important points again. Your job is to: </p><p>1. Pick the pirate who is best at robbing ships and will bring you back gold coins. </p><p>2. Correctly remember whether or not you saw a ship before. If you did see the ship before, remind yourself on which island you saw it. </p></div>","","","","","","","","","","","","","","","","","","",""
"","html-keyboard-response","17","147699","0.0-17.0","""event"",""trial"",""time""
""fullscreenenter"",""0"",""1728""
","
","
","""event"",""trial"",""time""
""fullscreenenter"",""0"",""1728""
","
","333.19999998807907","<div class='center'><p>Let's go over the important points again. Your job is to: </p><p>1. Pick the pirate who is best at robbing ships and will bring you back gold coins. </p><p>2. Correctly remember whether or not you saw a ship before. If you did see the ship before, remind yourself on which island you saw it. </p><p><b>[Press the space bar to continue]</b></p></div>","32","","","","","","","","","","","","","","","","","","","","","","","",""
"","do_welcome","18","151709","0.0-18.0","""event"",""trial"",""time""
""fullscreenenter"",""0"",""1728""
","
","
","""event"",""trial"",""time""
""fullscreenenter"",""0"",""1728""
","
","null","","","","","","","","null","","","","","","","","","","","","","","","","","",""
"","do_trial","19","156824","0.0-19.0-0.0","""event"",""trial"",""time""
""fullscreenenter"",""0"",""1728""
","
","
","""event"",""trial"",""time""
""fullscreenenter"",""0"",""1728""
","
","2579.0999999940395","","","","","","","","51","0,1,1","6","blank","230","null","0.08675659540363474","0.21767396523481317","0.8076643729537549","1","","","","","","","","",""
"","html-keyboard-response","20","157834","0.0-19.0-1.0","""event"",""trial"",""time""
""fullscreenenter"",""0"",""1728""
","
","
","""event"",""trial"",""time""
""fullscreenenter"",""0"",""1728""
","
","null","<p></p>","null","","","","","","","","","","","","","","","","","","","","","","","",""
"","do_trial","21","160675","0.0-20.0-0.0","""event"",""trial"",""time""
""fullscreenenter"",""0"",""1728""
","
","
","""event"",""trial"",""time""
""fullscreenenter"",""0"",""1728""
","
","310","","","","","","","","51","0,1,1","6","blank","231","null","0.1435277997952885","0.26529023647628797","0.7712166209238128","1","","","","","","","","",""
"","html-keyboard-response","22","161690","0.0-20.0-1.0","""event"",""trial"",""time""
""fullscreenenter"",""0"",""1728""
","
","
","""event"",""trial"",""time""
""fullscreenenter"",""0"",""1728""
","
","null","<p></p>","null","","","","","","","","","","","","","","","","","","","","","","","",""
"","do_trial","23","164695","0.0-21.0-0.0","""event"",""trial"",""time""
""fullscreenenter"",""0"",""1728""
","
","
","""event"",""trial"",""time""
""fullscreenenter"",""0"",""1728""
","
","473.09999999403954","","","","","","","","51","0,0,0","6","blank","232","null","0.13271505249954085","0.3725110812229663","0.6777976611361384","0","","","","","","","","",""
"","html-keyboard-response","24","165708","0.0-21.0-1.0","""event"",""trial"",""time""
""fullscreenenter"",""0"",""1728""
","
","
","""event"",""trial"",""time""
""fullscreenenter"",""0"",""1728""
","
","null","<p></p>","null","","","","","","","","","","","","","","","","","","","","","","","",""
"","do_trial","25","168498","0.0-22.0-0.0","""event"",""trial"",""time""
""fullscreenenter"",""0"",""1728""
","
","
","""event"",""trial"",""time""
""fullscreenenter"",""0"",""1728""
","
","253.09999999403954","","","","","","","","51","0,1,1","6","blank","233","null","0.07126357516906691","0.3432188167664637","0.7096154739514635","1","","","","","","","","",""
"","html-keyboard-response","26","169511","0.0-22.0-1.0","""event"",""trial"",""time""
""fullscreenenter"",""0"",""1728""
","
","
","""event"",""trial"",""time""
""fullscreenenter"",""0"",""1728""
","
","null","<p></p>","null","","","","","","","","","","","","","","","","","","","","","","","",""
"","do_trial","27","173984","0.0-23.0-0.0","""event"",""trial"",""time""
""fullscreenenter"",""0"",""1728""
","
","
","""event"",""trial"",""time""
""fullscreenenter"",""0"",""1728""
","
","1929.5","","","","","","","","51","0,0,0","6","blank","234","null","0.0969343055878563","0.3267178310337534","0.6508086152853941","0","","","","","","","","",""
"","html-keyboard-response","28","174989","0.0-23.0-1.0","""event"",""trial"",""time""
""fullscreenenter"",""0"",""1728""
","
","
","""event"",""trial"",""time""
""fullscreenenter"",""0"",""1728""
","
","null","<p></p>","null","","","","","","","","","","","","","","","","","","","","","","","",""
"","do_trial","29","179141","0.0-24.0-0.0","""event"",""trial"",""time""
""fullscreenenter"",""0"",""1728""
","
","
","""event"",""trial"",""time""
""fullscreenenter"",""0"",""1728""
","
","1622.5","","","","","","","","49","0,0,1","6","blank","235","null","0.219167096934881","0.3477616782082692","0.6237924913717877","0","","","","","","","","",""
"","html-keyboard-response","30","180155","0.0-24.0-1.0","""event"",""trial"",""time""
""fullscreenenter"",""0"",""1728""
","
","
","""event"",""trial"",""time""
""fullscreenenter"",""0"",""1728""
","
","null","<p></p>","null","","","","","","","","","","","","","","","","","","","","","","","",""
"","do_trial","31","183157","0.0-25.0-0.0","""event"",""trial"",""time""
""fullscreenenter"",""0"",""1728""
","
","
","""event"",""trial"",""time""
""fullscreenenter"",""0"",""1728""
","
","469.5","","","","","","","","49","0,0,1","6","blank","236","null","0.22442151900676774","0.310506713460676","0.7285248818590334","0","","","","","","","","",""
"","html-keyboard-response","32","184160","0.0-25.0-1.0","""event"",""trial"",""time""
""fullscreenenter"",""0"",""1728""
","
","
","""event"",""trial"",""time""
""fullscreenenter"",""0"",""1728""
","
","null","<p></p>","null","","","","","","","","","","","","","","","","","","","","","","","",""
"","do_trial","33","187013","0.0-26.0-0.0","""event"",""trial"",""time""
""fullscreenenter"",""0"",""1728""
","
","
","""event"",""trial"",""time""
""fullscreenenter"",""0"",""1728""
","
","322.5","","","","","","","","51","0,0,1","6","blank","237","null","0.12710125676734976","0.27744734837446944","0.8482815288369284","1","","","","","","","","",""
"","html-keyboard-response","34","188020","0.0-26.0-1.0","""event"",""trial"",""time""
""fullscreenenter"",""0"",""1728""
","
","
","""event"",""trial"",""time""
""fullscreenenter"",""0"",""1728""
","
","null","<p></p>","null","","","","","","","","","","","","","","","","","","","","","","","",""
"","do_trial","35","190945","0.0-27.0-0.0","""event"",""trial"",""time""
""fullscreenenter"",""0"",""1728""
","
","
","""event"",""trial"",""time""
""fullscreenenter"",""0"",""1728""
","
","398.40000000596046","","","","","","","","51","0,0,1","6","blank","238","null","0.10255217862013752","0.3537278021878408","0.8440991620623661","1","","","","","","","","",""
"","html-keyboard-response","36","191960","0.0-27.0-1.0","""event"",""trial"",""time""
""fullscreenenter"",""0"",""1728""
","
","
","""event"",""trial"",""time""
""fullscreenenter"",""0"",""1728""
","
","null","<p></p>","null","","","","","","","","","","","","","","","","","","","","","","","",""
"","do_trial","37","194859","0.0-28.0-0.0","""event"",""trial"",""time""
""fullscreenenter"",""0"",""1728""
","
","
","""event"",""trial"",""time""
""fullscreenenter"",""0"",""1728""
","
","366.19999998807907","","","","","","","","51","0,1,1","6","blank","239","null","0.15513368107161202","0.27739633319846063","0.7196290974450079","1","","","","","","","","",""
"","html-keyboard-response","38","195871","0.0-28.0-1.0","""event"",""trial"",""time""
""fullscreenenter"",""0"",""1728""
","
","
","""event"",""trial"",""time""
""fullscreenenter"",""0"",""1728""
","
","null","<p></p>","null","","","","","","","","","","","","","","","","","","","","","","","",""
"","do_trial","39","198768","0.0-29.0-0.0","""event"",""trial"",""time""
""fullscreenenter"",""0"",""1728""
","
","
","""event"",""trial"",""time""
""fullscreenenter"",""0"",""1728""
","
","354.59999999403954","","","","","","","","51","0,0,1","6","blank","240","null","0.10775320974362583","0.2669301086256737","0.6310517701921982","1","","","","","","","","",""
"","html-keyboard-response","40","199778","0.0-29.0-1.0","""event"",""trial"",""time""
""fullscreenenter"",""0"",""1728""
","
","
","""event"",""trial"",""time""
""fullscreenenter"",""0"",""1728""
","
","null","<p></p>","null","","","","","","","","","","","","","","","","","","","","","","","",""
"","do_trial","41","202685","0.0-30.0-0.0","""event"",""trial"",""time""
""fullscreenenter"",""0"",""1728""
","
","
","""event"",""trial"",""time""
""fullscreenenter"",""0"",""1728""
","
","375.69999998807907","","","","","","","","51","0,0,0","6","blank","241","null","0.14192677391422387","0.07386199305120851","0.6967564135201461","0","","","","","","","","",""
"","html-keyboard-response","42","203696","0.0-30.0-1.0","""event"",""trial"",""time""
""fullscreenenter"",""0"",""1728""
","
","
","""event"",""trial"",""time""
""fullscreenenter"",""0"",""1728""
","
","null","<p></p>","null","","","","","","","","","","","","","","","","","","","","","","","",""
"","do_trial","43","206562","0.0-31.0-0.0","""event"",""trial"",""time""
""fullscreenenter"",""0"",""1728""
","
","
","""event"",""trial"",""time""
""fullscreenenter"",""0"",""1728""
","
","326.5","","","","","","","","51","1,0,0","6","blank","242","null","0.254585832428572","0.16422372032263738","0.4365787600862673","0","","","","","","","","",""
"","html-keyboard-response","44","207573","0.0-31.0-1.0","""event"",""trial"",""time""
""fullscreenenter"",""0"",""1728""
","
","
","""event"",""trial"",""time""
""fullscreenenter"",""0"",""1728""
","
","null","<p></p>","null","","","","","","","","","","","","","","","","","","","","","","","",""
"","do_recog","45","213593","0.0-32.0-0.0","""event"",""trial"",""time""
""fullscreenenter"",""0"",""1728""
","
","
","""event"",""trial"",""time""
""fullscreenenter"",""0"",""1728""
","
","null","","","","","","","","null","","","","243","probe-02","","","","","1","[object Object]","78","1","0","","","",""
"","html-keyboard-response","46","214600","0.0-32.0-1.0","""event"",""trial"",""time""
""fullscreenenter"",""0"",""1728""
","
","
","""event"",""trial"",""time""
""fullscreenenter"",""0"",""1728""
","
","null","<p></p>","null","","","","","","","","","","","","","","","","","","","","","","","",""
"","do_trial","47","219213","0.0-33.0-0.0","""event"",""trial"",""time""
""fullscreenenter"",""0"",""1728""
","
","
","""event"",""trial"",""time""
""fullscreenenter"",""0"",""1728""
","
","2078.9000000059605","","","","","","","","51","1,0,0","6","blank","244","null","0.43528058614785536","0.2722934501436854","0.5189024662332691","0","","","","","","","","",""
"","html-keyboard-response","48","220225","0.0-33.0-1.0","""event"",""trial"",""time""
""fullscreenenter"",""0"",""1728""
","
","
","""event"",""trial"",""time""
""fullscreenenter"",""0"",""1728""
","
","null","<p></p>","null","","","","","","","","","","","","","","","","","","","","","","","",""
"","do_trial","49","223036","0.0-34.0-0.0","""event"",""trial"",""time""
""fullscreenenter"",""0"",""1728""
","
","
","""event"",""trial"",""time""
""fullscreenenter"",""0"",""1728""
","
","275.2999999821186","","","","","","","","51","1,1,0","6","blank","245","null","0.5255986252618737","0.1788016392068797","0.4493663481225327","0","","","","","","","","",""
"","html-keyboard-response","50","224050","0.0-34.0-1.0","""event"",""trial"",""time""
""fullscreenenter"",""0"",""1728""
","
","
","""event"",""trial"",""time""
""fullscreenenter"",""0"",""1728""
","
","null","<p></p>","null","","","","","","","","","","","","","","","","","","","","","","","",""
"","do_trial","51","226847","0.0-35.0-0.0","""event"",""trial"",""time""
""fullscreenenter"",""0"",""1728""
","
","
","""event"",""trial"",""time""
""fullscreenenter"",""0"",""1728""
","
","258.09999999403954","","","","","","","","49","0,1,0","6","blank","246","null","0.46086529053488434","0.1703262168682713","0.2436196052716308","0","","","","","","","","",""
"","html-keyboard-response","52","227857","0.0-35.0-1.0","""event"",""trial"",""time""
""fullscreenenter"",""0"",""1728""
","
","
","""event"",""trial"",""time""
""fullscreenenter"",""0"",""1728""
","
","null","<p></p>","null","","","","","","","","","","","","","","","","","","","","","","","",""
"","do_trial","53","230687","0.0-36.0-0.0","""event"",""trial"",""time""
""fullscreenenter"",""0"",""1728""
","
","
","""event"",""trial"",""time""
""fullscreenenter"",""0"",""1728""
","
","287.40000000596046","","","","","","","","51","0,0,0","6","blank","247","null","0.46240963305769744","0.23287593175998186","0.11560939423965579","0","","","","","","","","",""
"","html-keyboard-response","54","231701","0.0-36.0-1.0","""event"",""trial"",""time""
""fullscreenenter"",""0"",""1728""
","
","
","""event"",""trial"",""time""
""fullscreenenter"",""0"",""1728""
","
","null","<p></p>","null","","","","","","","","","","","","","","","","","","","","","","","",""
"","do_trial","55","234742","0.0-37.0-0.0","""event"",""trial"",""time""
""fullscreenenter"",""0"",""1728""
","
","
","""event"",""trial"",""time""
""fullscreenenter"",""0"",""1728""
","
","510.30000001192093","","","","","","","","51","1,0,0","6","blank","248","null","0.5437267029142896","0.2794106536371357","0.07317924856801492","0","","","","","","","","",""
"","html-keyboard-response","56","235757","0.0-37.0-1.0","""event"",""trial"",""time""
""fullscreenenter"",""0"",""1728""
","
","
","""event"",""trial"",""time""
""fullscreenenter"",""0"",""1728""
","
","null","<p></p>","null","","","","","","","","","","","","","","","","","","","","","","","",""
"","do_trial","57","238604","0.0-38.0-0.0","""event"",""trial"",""time""
""fullscreenenter"",""0"",""1728""
","
","
","""event"",""trial"",""time""
""fullscreenenter"",""0"",""1728""
","
","314.09999999403954","","","","","","","","50","1,1,0","6","blank","249","null","0.5762599645273772","0.36907869727091763","0.05549764819627576","1","","","","","","","","",""
"","html-keyboard-response","58","239619","0.0-38.0-1.0","""event"",""trial"",""time""
""fullscreenenter"",""0"",""1728""
","
","
","""event"",""trial"",""time""
""fullscreenenter"",""0"",""1728""
","
","null","<p></p>","null","","","","","","","","","","","","","","","","","","","","","","","",""
"","do_trial","59","242447","0.0-39.0-0.0","""event"",""trial"",""time""
""fullscreenenter"",""0"",""1728""
","
","
","""event"",""trial"",""time""
""fullscreenenter"",""0"",""1728""
","
","295.2999999821186","","","","","","","","50","1,0,0","6","blank","250","null","0.5202396987643351","0.38395517108324423","0.1123810479542801","0","","","","","","","","",""
"","html-keyboard-response","60","243452","0.0-39.0-1.0","""event"",""trial"",""time""
""fullscreenenter"",""0"",""1728""
","
","
","""event"",""trial"",""time""
""fullscreenenter"",""0"",""1728""
","
","null","<p></p>","null","","","","","","","","","","","","","","","","","","","","","","","",""
"","do_recog","61","247272","0.0-40.0-0.0","""event"",""trial"",""time""
""fullscreenenter"",""0"",""1728""
","
","
","""event"",""trial"",""time""
""fullscreenenter"",""0"",""1728""
","
","2299.5","","","","","","","","53","","","","251","probe-69","","","","","1","[object Object]","155","3","1","","","",""
"","html-keyboard-response","62","248284","0.0-40.0-1.0","""event"",""trial"",""time""
""fullscreenenter"",""0"",""1728""
","
","
","""event"",""trial"",""time""
""fullscreenenter"",""0"",""1728""
","
","null","<p></p>","null","","","","","","","","","","","","","","","","","","","","","","","",""
"","do_trial","63","251939","0.0-41.0-0.0","""event"",""trial"",""time""
""fullscreenenter"",""0"",""1728""
","
","
","""event"",""trial"",""time""
""fullscreenenter"",""0"",""1728""
","
","1115.0999999940395","","","","","","","","49","0,0,0","6","blank","252","null","0.5055375139461238","0.2533623106546068","0.1346496157198835","0","","","","","","","","",""
"","html-keyboard-response","64","252951","0.0-41.0-1.0","""event"",""trial"",""time""
""fullscreenenter"",""0"",""1728""
","
","
","""event"",""trial"",""time""
""fullscreenenter"",""0"",""1728""
","
","null","<p></p>","null","","","","","","","","","","","","","","","","","","","","","","","",""
"","do_recog","65","256067","0.0-42.0-0.0","""event"",""trial"",""time""
""fullscreenenter"",""0"",""1728""
","
","
","""event"",""trial"",""time""
""fullscreenenter"",""0"",""1728""
","
","1598.300000011921","","","","","","","","55","","","","253","probe-233","","","","","0","[object Object]","null","null","1","","","",""
"","html-keyboard-response","66","257075","0.0-42.0-1.0","""event"",""trial"",""time""
""fullscreenenter"",""0"",""1728""
","
","
","""event"",""trial"",""time""
""fullscreenenter"",""0"",""1728""
","
","null","<p></p>","null","","","","","","","","","","","","","","","","","","","","","","","",""
"","do_trial","67","260168","0.0-43.0-0.0","""event"",""trial"",""time""
""fullscreenenter"",""0"",""1728""
","
","
","""event"",""trial"",""time""
""fullscreenenter"",""0"",""1728""
","
","562.1999999880791","","","","","","","","50","0,0,0","6","blank","254","null","0.5161934717196688","0.2546371411534326","0.055865590499520945","0","","","","","","","","",""
"","html-keyboard-response","68","261179","0.0-43.0-1.0","""event"",""trial"",""time""
""fullscreenenter"",""0"",""1728""
","
","
","""event"",""trial"",""time""
""fullscreenenter"",""0"",""1728""
","
","null","<p></p>","null","","","","","","","","","","","","","","","","","","","","","","","",""
"","do_trial","69","264043","0.0-44.0-0.0","""event"",""trial"",""time""
""fullscreenenter"",""0"",""1728""
","
","
","""event"",""trial"",""time""
""fullscreenenter"",""0"",""1728""
","
","331.2999999821186","","","","","","","","50","0,0,0","6","blank","255","null","0.5810767757232308","0.2609592185439271","0.13014484899196826","0","","","","","","","","",""
"","html-keyboard-response","70","265054","0.0-44.0-1.0","""event"",""trial"",""time""
""fullscreenenter"",""0"",""1728""
","
","
","""event"",""trial"",""time""
""fullscreenenter"",""0"",""1728""
","
","null","<p></p>","null","","","","","","","","","","","","","","","","","","","","","","","",""
"","do_trial","71","267944","0.0-45.0-0.0","""event"",""trial"",""time""
""fullscreenenter"",""0"",""1728""
","
","
","""event"",""trial"",""time""
""fullscreenenter"",""0"",""1728""
","
","355.90000000596046","","","","","","","","51","0,0,0","6","blank","256","null","0.46796939917824687","0.36063708913900394","0.16789988700412253","0","","","","","","","","",""
"","html-keyboard-response","72","268957","0.0-45.0-1.0","""event"",""trial"",""time""
""fullscreenenter"",""0"",""1728""
","
","
","""event"",""trial"",""time""
""fullscreenenter"",""0"",""1728""
","
","null","<p></p>","null","","","","","","","","","","","","","","","","","","","","","","","",""
"","do_trial","73","271870","0.0-46.0-0.0","""event"",""trial"",""time""
""fullscreenenter"",""0"",""1728""
","
","
","""event"",""trial"",""time""
""fullscreenenter"",""0"",""1728""
","
","376.69999998807907","","","","","","","","51","0,0,0","6","blank","257","null","0.4407699771912011","0.5222184467681565","0.15040929117484744","0","","","","","","","","",""
"","html-keyboard-response","74","272884","0.0-46.0-1.0","""event"",""trial"",""time""
""fullscreenenter"",""0"",""1728""
","
","
","""event"",""trial"",""time""
""fullscreenenter"",""0"",""1728""
","
","null","<p></p>","null","","","","","","","","","","","","","","","","","","","","","","","",""
"","do_trial","75","275691","0.0-47.0-0.0","""event"",""trial"",""time""
""fullscreenenter"",""0"",""1728""
","
","
","""event"",""trial"",""time""
""fullscreenenter"",""0"",""1728""
","
","276.40000000596046","","","","","","","","51","0,1,0","6","blank","258","null","0.5499635198069496","0.49820480475664947","0.19850216650098756","0","","","","","","","","",""
"","html-keyboard-response","76","276707","0.0-47.0-1.0","""event"",""trial"",""time""
""fullscreenenter"",""0"",""1728""
","
","
","""event"",""trial"",""time""
""fullscreenenter"",""0"",""1728""
","
","null","<p></p>","null","","","","","","","","","","","","","","","","","","","","","","","",""
"","do_recog","77","279581","0.0-48.0-0.0","""event"",""trial"",""time""
""fullscreenenter"",""0"",""1728""
","
","
","""event"",""trial"",""time""
""fullscreenenter"",""0"",""1728""
","
","1363.5999999940395","","","","","","","","55","","","","259","probe-229","","","","","1","[object Object]","35","0","0","","","",""
"","html-keyboard-response","78","280592","0.0-48.0-1.0","""event"",""trial"",""time""
""fullscreenenter"",""0"",""1728""
","
","
","""event"",""trial"",""time""
""fullscreenenter"",""0"",""1728""
","
","null","<p></p>","null","","","","","","","","","","","","","","","","","","","","","","","",""
"","do_trial","79","283813","0.0-49.0-0.0","""event"",""trial"",""time""
""fullscreenenter"",""0"",""1728""
","
","
","""event"",""trial"",""time""
""fullscreenenter"",""0"",""1728""
","
","687.7000000178814","","","","","","","","49","0,0,0","6","blank","260","null","0.5593708087609032","0.3155622073621258","0.17929743257544487","0","","","","","","","","",""
"","html-keyboard-response","80","284824","0.0-49.0-1.0","""event"",""trial"",""time""
""fullscreenenter"",""0"",""1728""
","
","
","""event"",""trial"",""time""
""fullscreenenter"",""0"",""1728""
","
","null","<p></p>","null","","","","","","","","","","","","","","","","","","","","","","","",""
"","do_recog","81","287652","0.0-50.0-0.0","""event"",""trial"",""time""
""fullscreenenter"",""0"",""1728""
","
","
","""event"",""trial"",""time""
""fullscreenenter"",""0"",""1728""
","
","1317.7000000178814","","","","","","","","54","","","","261","probe-26","","","","","1","[object Object]","191","4","1","","","",""
"","html-keyboard-response","82","288661","0.0-50.0-1.0","""event"",""trial"",""time""
""fullscreenenter"",""0"",""1728""
","
","
","""event"",""trial"",""time""
""fullscreenenter"",""0"",""1728""
","
","null","<p></p>","null","","","","","","","","","","","","","","","","","","","","","","","",""
"","do_trial","83","291538","0.0-51.0-0.0","""event"",""trial"",""time""
""fullscreenenter"",""0"",""1728""
","
","
","""event"",""trial"",""time""
""fullscreenenter"",""0"",""1728""
","
","339.7999999821186","","","","","","","","51","1,1,0","6","blank","262","null","0.5729126513785336","0.30595802773228453","0.07286847917904815","0","","","","","","","","",""
"","html-keyboard-response","84","292549","0.0-51.0-1.0","""event"",""trial"",""time""
""fullscreenenter"",""0"",""1728""
","
","
","""event"",""trial"",""time""
""fullscreenenter"",""0"",""1728""
","
","null","<p></p>","null","","","","","","","","","","","","","","","","","","","","","","","",""
"","do_trial","85","295348","0.0-52.0-0.0","""event"",""trial"",""time""
""fullscreenenter"",""0"",""1728""
","
","
","""event"",""trial"",""time""
""fullscreenenter"",""0"",""1728""
","
","268.40000000596046","","","","","","","","50","0,0,0","6","blank","263","null","0.5143651886862844","0.28279725936851946","0.10595492761304129","0","","","","","","","","",""
"","html-keyboard-response","86","296358","0.0-52.0-1.0","""event"",""trial"",""time""
""fullscreenenter"",""0"",""1728""
","
","
","""event"",""trial"",""time""
""fullscreenenter"",""0"",""1728""
","
","null","<p></p>","null","","","","","","","","","","","","","","","","","","","","","","","",""
"","do_recog","87","299652","0.0-53.0-0.0","""event"",""trial"",""time""
""fullscreenenter"",""0"",""1728""
","
","
","""event"",""trial"",""time""
""fullscreenenter"",""0"",""1728""
","
","1777","","","","","","","","53","","","","264","probe-110","","","","","1","[object Object]","39","0","1","","","",""
"","html-keyboard-response","88","300665","0.0-53.0-1.0","""event"",""trial"",""time""
""fullscreenenter"",""0"",""1728""
","
","
","""event"",""trial"",""time""
""fullscreenenter"",""0"",""1728""
","
","null","<p></p>","null","","","","","","","","","","","","","","","","","","","","","","","",""
"","do_trial","89","303534","0.0-54.0-0.0","""event"",""trial"",""time""
""fullscreenenter"",""0"",""1728""
","
","
","""event"",""trial"",""time""
""fullscreenenter"",""0"",""1728""
","
","332.59999999403954","","","","","","","","49","0,0,0","6","blank","265","null","0.5365803882272059","0.43911036222455985","0.12608710640035195","0","","","","","","","","",""
"","html-keyboard-response","90","304547","0.0-54.0-1.0","""event"",""trial"",""time""
""fullscreenenter"",""0"",""1728""
","
","
","""event"",""trial"",""time""
""fullscreenenter"",""0"",""1728""
","
","null","<p></p>","null","","","","","","","","","","","","","","","","","","","","","","","",""
"","do_trial","91","307338","0.0-55.0-0.0","""event"",""trial"",""time""
""fullscreenenter"",""0"",""1728""
","
","
","""event"",""trial"",""time""
""fullscreenenter"",""0"",""1728""
","
","261.69999998807907","","","","","","","","50","1,0,0","6","blank","266","null","0.5460250530850915","0.5064183447178693","0.06607403600274683","0","","","","","","","","",""
"","html-keyboard-response","92","308352","0.0-55.0-1.0","""event"",""trial"",""time""
""fullscreenenter"",""0"",""1728""
","
","
","""event"",""trial"",""time""
""fullscreenenter"",""0"",""1728""
","
","null","<p></p>","null","","","","","","","","","","","","","","","","","","","","","","","",""
"","do_trial","93","311135","0.0-56.0-0.0","""event"",""trial"",""time""
""fullscreenenter"",""0"",""1728""
","
","
","""event"",""trial"",""time""
""fullscreenenter"",""0"",""1728""
","
","242.19999998807907","","","","","","","","51","0,0,0","6","blank","267","null","0.5628100471711226","0.3064103830894036","0.08674093790625945","0","","","","","","","","",""
"","html-keyboard-response","94","312147","0.0-56.0-1.0","""event"",""trial"",""time""
""fullscreenenter"",""0"",""1728""
","
","
","""event"",""trial"",""time""
""fullscreenenter"",""0"",""1728""
","
","null","<p></p>","null","","","","","","","","","","","","","","","","","","","","","","","",""
"","do_recog","95","315166","0.0-57.0-0.0","""event"",""trial"",""time""
""fullscreenenter"",""0"",""1728""
","
","
","""event"",""trial"",""time""
""fullscreenenter"",""0"",""1728""
","
","1500.2999999821186","","","","","","","","54","","","","268","probe-121","","","","","1","[object Object]","34","0","1","","","",""
"","html-keyboard-response","96","316176","0.0-57.0-1.0","""event"",""trial"",""time""
""fullscreenenter"",""0"",""1728""
","
","
","""event"",""trial"",""time""
""fullscreenenter"",""0"",""1728""
","
","null","<p></p>","null","","","","","","","","","","","","","","","","","","","","","","","",""
"","break","97","317667","0.0-58.0-0.0","""event"",""trial"",""time""
""fullscreenenter"",""0"",""1728""
","
","
","""event"",""trial"",""time""
""fullscreenenter"",""0"",""1728""
","
","1490.5","<div class='center'><p>Time to take a quick break! You have 2 minutes to rest, but you can move on sooner if you'd like.</p><p> Press the <b>space bar</b> to continue.</p></div>","32","","","","","","","","","","","","","","","","","","","","","","","",""
"","do_trial","98","321362","0.0-58.0-1.0","""event"",""trial"",""time""
""fullscreenenter"",""0"",""1728""
","
","
","""event"",""trial"",""time""
""fullscreenenter"",""0"",""1728""
","
","1166.199999988079","","","","","","","","51","0,0,0","6","blank","269","null","0.655838974714894","0.2802550475176488","0.2041192323687794","0","","","","","","","","",""
"","html-keyboard-response","99","322372","0.0-58.0-2.0","""event"",""trial"",""time""
""fullscreenenter"",""0"",""1728""
","
","
","""event"",""trial"",""time""
""fullscreenenter"",""0"",""1728""
","
","null","<p></p>","null","","","","","","","","","","","","","","","","","","","","","","","",""
"","do_recog","100","325031","0.0-59.0-0.0","""event"",""trial"",""time""
""fullscreenenter"",""0"",""1728""
","
","
","""event"",""trial"",""time""
""fullscreenenter"",""0"",""1728""
","
","1147.199999988079","","","","","","","","54","","","","270","probe-14","","","","","1","[object Object]","114","2","1","","","",""
"","html-keyboard-response","101","326046","0.0-59.0-1.0","""event"",""trial"",""time""
""fullscreenenter"",""0"",""1728""
","
","
","""event"",""trial"",""time""
""fullscreenenter"",""0"",""1728""
","
","null","<p></p>","null","","","","","","","","","","","","","","","","","","","","","","","",""
"","do_trial","102","329007","0.0-60.0-0.0","""event"",""trial"",""time""
""fullscreenenter"",""0"",""1728""
","
","
","""event"",""trial"",""time""
""fullscreenenter"",""0"",""1728""
","
","420.5","","","","","","","","51","0,0,0","6","blank","271","null","0.6260098457695678","0.29511630701336994","0.36748000665635033","0","","","","","","","","",""
"","html-keyboard-response","103","330016","0.0-60.0-1.0","""event"",""trial"",""time""
""fullscreenenter"",""0"",""1728""
","
","
","""event"",""trial"",""time""
""fullscreenenter"",""0"",""1728""
","
","null","<p></p>","null","","","","","","","","","","","","","","","","","","","","","","","",""
"","do_trial","104","332884","0.0-61.0-0.0","""event"",""trial"",""time""
""fullscreenenter"",""0"",""1728""
","
","
","""event"",""trial"",""time""
""fullscreenenter"",""0"",""1728""
","
","337.2000000178814","","","","","","","","51","1,0,1","6","blank","272","null","0.6812921494011515","0.3431151908675291","0.3015178794421304","1","","","","","","","","",""
"","html-keyboard-response","105","333897","0.0-61.0-1.0","""event"",""trial"",""time""
""fullscreenenter"",""0"",""1728""
","
","
","""event"",""trial"",""time""
""fullscreenenter"",""0"",""1728""
","
","null","<p></p>","null","","","","","","","","","","","","","","","","","","","","","","","",""
"","do_trial","106","336729","0.0-62.0-0.0","""event"",""trial"",""time""
""fullscreenenter"",""0"",""1728""
","
","
","""event"",""trial"",""time""
""fullscreenenter"",""0"",""1728""
","
","300.40000000596046","","","","","","","","51","0,0,0","6","blank","273","null","0.6666880350822001","0.26887001191898147","0.051859925291487946","0","","","","","","","","",""
"","html-keyboard-response","107","337738","0.0-62.0-1.0","""event"",""trial"",""time""
""fullscreenenter"",""0"",""1728""
","
","
","""event"",""trial"",""time""
""fullscreenenter"",""0"",""1728""
","
","null","<p></p>","null","","","","","","","","","","","","","","","","","","","","","","","",""
"","do_trial","108","340773","0.0-63.0-0.0","""event"",""trial"",""time""
""fullscreenenter"",""0"",""1728""
","
","
","""event"",""trial"",""time""
""fullscreenenter"",""0"",""1728""
","
","502.69999998807907","","","","","","","","51","1,0,1","6","blank","274","null","0.640090453480874","0.29333912293494113","0.21375555425826132","1","","","","","","","","",""
"","html-keyboard-response","109","341786","0.0-63.0-1.0","""event"",""trial"",""time""
""fullscreenenter"",""0"",""1728""
","
","
","""event"",""trial"",""time""
""fullscreenenter"",""0"",""1728""
","
","null","<p></p>","null","","","","","","","","","","","","","","","","","","","","","","","",""
"","do_trial","110","344699","0.0-64.0-0.0","""event"",""trial"",""time""
""fullscreenenter"",""0"",""1728""
","
","
","""event"",""trial"",""time""
""fullscreenenter"",""0"",""1728""
","
","382.5","","","","","","","","51","1,1,0","6","blank","275","null","0.6682729772467647","0.38503819072765544","0.37090105842179916","0","","","","","","","","",""
"","html-keyboard-response","111","345709","0.0-64.0-1.0","""event"",""trial"",""time""
""fullscreenenter"",""0"",""1728""
","
","
","""event"",""trial"",""time""
""fullscreenenter"",""0"",""1728""
","
","null","<p></p>","null","","","","","","","","","","","","","","","","","","","","","","","",""
"","do_trial","112","348543","0.0-65.0-0.0","""event"",""trial"",""time""
""fullscreenenter"",""0"",""1728""
","
","
","""event"",""trial"",""time""
""fullscreenenter"",""0"",""1728""
","
","290.09999999403954","","","","","","","","51","1,0,0","6","blank","276","null","0.4931139791922064","0.19698054452286934","0.22948995045978912","0","","","","","","","","",""
"","html-keyboard-response","113","349554","0.0-65.0-1.0","""event"",""trial"",""time""
""fullscreenenter"",""0"",""1728""
","
","
","""event"",""trial"",""time""
""fullscreenenter"",""0"",""1728""
","
","null","<p></p>","null","","","","","","","","","","","","","","","","","","","","","","","",""
"","do_recog","114","352545","0.0-66.0-0.0","""event"",""trial"",""time""
""fullscreenenter"",""0"",""1728""
","
","
","""event"",""trial"",""time""
""fullscreenenter"",""0"",""1728""
","
","1473.800000011921","","","","","","","","53","","","","277","probe-65","","","","","1","[object Object]","38","0","1","","","",""
"","html-keyboard-response","115","353557","0.0-66.0-1.0","""event"",""trial"",""time""
""fullscreenenter"",""0"",""1728""
","
","
","""event"",""trial"",""time""
""fullscreenenter"",""0"",""1728""
","
","null","<p></p>","null","","","","","","","","","","","","","","","","","","","","","","","",""
"","do_trial","116","356402","0.0-67.0-0.0","""event"",""trial"",""time""
""fullscreenenter"",""0"",""1728""
","
","
","""event"",""trial"",""time""
""fullscreenenter"",""0"",""1728""
","
","316.5","","","","","","","","51","0,1,0","6","blank","278","null","0.7191227028411228","0.21082099578079977","0.066120003172767","0","","","","","","","","",""
"","html-keyboard-response","117","357417","0.0-67.0-1.0","""event"",""trial"",""time""
""fullscreenenter"",""0"",""1728""
","
","
","""event"",""trial"",""time""
""fullscreenenter"",""0"",""1728""
","
","null","<p></p>","null","","","","","","","","","","","","","","","","","","","","","","","",""
"","do_trial","118","360433","0.0-68.0-0.0","""event"",""trial"",""time""
""fullscreenenter"",""0"",""1728""
","
","
","""event"",""trial"",""time""
""fullscreenenter"",""0"",""1728""
","
","479.7000000178814","","","","","","","","51","0,0,0","6","blank","279","null","0.834711505142962","0.25350720762655554","0.061929911865387544","0","","","","","","","","",""
"","html-keyboard-response","119","361445","0.0-68.0-1.0","""event"",""trial"",""time""
""fullscreenenter"",""0"",""1728""
","
","
","""event"",""trial"",""time""
""fullscreenenter"",""0"",""1728""
","
","null","<p></p>","null","","","","","","","","","","","","","","","","","","","","","","","",""
"","do_trial","120","364665","0.0-69.0-0.0","""event"",""trial"",""time""
""fullscreenenter"",""0"",""1728""
","
","
","""event"",""trial"",""time""
""fullscreenenter"",""0"",""1728""
","
","692.4000000059605","","","","","","","","50","1,0,0","6","blank","280","null","0.717692306086428","0.22063882123998343","0.14954026415869998","0","","","","","","","","",""
"","html-keyboard-response","121","365675","0.0-69.0-1.0","""event"",""trial"",""time""
""fullscreenenter"",""0"",""1728""
","
","
","""event"",""trial"",""time""
""fullscreenenter"",""0"",""1728""
","
","null","<p></p>","null","","","","","","","","","","","","","","","","","","","","","","","",""
"","do_trial","122","368473","0.0-70.0-0.0","""event"",""trial"",""time""
""fullscreenenter"",""0"",""1728""
","
","
","""event"",""trial"",""time""
""fullscreenenter"",""0"",""1728""
","
","268.7000000178814","","","","","","","","50","1,0,0","6","blank","281","null","0.703582214248127","0.16186892022211144","0.07465315839640534","0","","","","","","","","",""
"","html-keyboard-response","123","369488","0.0-70.0-1.0","""event"",""trial"",""time""
""fullscreenenter"",""0"",""1728""
","
","
","""event"",""trial"",""time""
""fullscreenenter"",""0"",""1728""
","
","null","<p></p>","null","","","","","","","","","","","","","","","","","","","","","","","",""
"","do_trial","124","372325","0.0-71.0-0.0","""event"",""trial"",""time""
""fullscreenenter"",""0"",""1728""
","
","
","""event"",""trial"",""time""
""fullscreenenter"",""0"",""1728""
","
","296.90000000596046","","","","","","","","49","0,0,0","6","blank","282","null","0.6671071282104799","0.26981648468900415","0.06909272781386705","0","","","","","","","","",""
"","html-keyboard-response","125","373338","0.0-71.0-1.0","""event"",""trial"",""time""
""fullscreenenter"",""0"",""1728""
","
","
","""event"",""trial"",""time""
""fullscreenenter"",""0"",""1728""
","
","null","<p></p>","null","","","","","","","","","","","","","","","","","","","","","","","",""
"","do_recog","126","376312","0.0-72.0-0.0","""event"",""trial"",""time""
""fullscreenenter"",""0"",""1728""
","
","
","""event"",""trial"",""time""
""fullscreenenter"",""0"",""1728""
","
","1460.2000000178814","","","","","","","","54","","","","283","probe-98","","","","","1","[object Object]","116","2","1","","","",""
"","html-keyboard-response","127","377325","0.0-72.0-1.0","""event"",""trial"",""time""
""fullscreenenter"",""0"",""1728""
","
","
","""event"",""trial"",""time""
""fullscreenenter"",""0"",""1728""
","
","null","<p></p>","null","","","","","","","","","","","","","","","","","","","","","","","",""
"","do_trial","128","380210","0.0-73.0-0.0","""event"",""trial"",""time""
""fullscreenenter"",""0"",""1728""
","
","
","""event"",""trial"",""time""
""fullscreenenter"",""0"",""1728""
","
","346.09999999403954","","","","","","","","49","1,0,1","6","blank","284","null","0.5333574105200353","0.24593952278144485","0.05026237128383114","1","","","","","","","","",""
"","html-keyboard-response","129","381211","0.0-73.0-1.0","""event"",""trial"",""time""
""fullscreenenter"",""0"",""1728""
","
","
","""event"",""trial"",""time""
""fullscreenenter"",""0"",""1728""
","
","null","<p></p>","null","","","","","","","","","","","","","","","","","","","","","","","",""
"","do_recog","130","383968","0.0-74.0-0.0","""event"",""trial"",""time""
""fullscreenenter"",""0"",""1728""
","
","
","""event"",""trial"",""time""
""fullscreenenter"",""0"",""1728""
","
","1235.2999999821186","","","","","","","","55","","","","285","probe-37","","","","","1","[object Object]","152","3","0","","","",""
"","html-keyboard-response","131","384981","0.0-74.0-1.0","""event"",""trial"",""time""
""fullscreenenter"",""0"",""1728""
","
","
","""event"",""trial"",""time""
""fullscreenenter"",""0"",""1728""
","
","null","<p></p>","null","","","","","","","","","","","","","","","","","","","","","","","",""
"","do_trial","132","387787","0.0-75.0-0.0","""event"",""trial"",""time""
""fullscreenenter"",""0"",""1728""
","
","
","""event"",""trial"",""time""
""fullscreenenter"",""0"",""1728""
","
","269.19999998807907","","","","","","","","49","1,0,0","6","blank","286","null","0.4897953238640711","0.2631455519242035","0.1280646071010935","1","","","","","","","","",""
"","html-keyboard-response","133","388801","0.0-75.0-1.0","""event"",""trial"",""time""
""fullscreenenter"",""0"",""1728""
","
","
","""event"",""trial"",""time""
""fullscreenenter"",""0"",""1728""
","
","null","<p></p>","null","","","","","","","","","","","","","","","","","","","","","","","",""
"","do_trial","134","391787","0.0-76.0-0.0","""event"",""trial"",""time""
""fullscreenenter"",""0"",""1728""
","
","
","""event"",""trial"",""time""
""fullscreenenter"",""0"",""1728""
","
","448.7000000178814","","","","","","","","49","1,1,0","6","blank","287","null","0.5284939931145961","0.3288482164669486","0.14426691052323035","1","","","","","","","","",""
"","html-keyboard-response","135","392802","0.0-76.0-1.0","""event"",""trial"",""time""
""fullscreenenter"",""0"",""1728""
","
","
","""event"",""trial"",""time""
""fullscreenenter"",""0"",""1728""
","
","null","<p></p>","null","","","","","","","","","","","","","","","","","","","","","","","",""
"","do_trial","136","396328","0.0-77.0-0.0","""event"",""trial"",""time""
""fullscreenenter"",""0"",""1728""
","
","
","""event"",""trial"",""time""
""fullscreenenter"",""0"",""1728""
","
","984","","","","","","","","49","1,0,0","6","blank","288","null","0.619100515228601","0.4178657298149275","0.16648787142399432","1","","","","","","","","",""
"","html-keyboard-response","137","397338","0.0-77.0-1.0","""event"",""trial"",""time""
""fullscreenenter"",""0"",""1728""
","
","
","""event"",""trial"",""time""
""fullscreenenter"",""0"",""1728""
","
","null","<p></p>","null","","","","","","","","","","","","","","","","","","","","","","","",""
"","do_trial","138","401034","0.0-78.0-0.0","""event"",""trial"",""time""
""fullscreenenter"",""0"",""1728""
","
","
","""event"",""trial"",""time""
""fullscreenenter"",""0"",""1728""
","
","1159.0999999940395","","","","","","","","49","0,0,0","6","blank","289","null","0.6770311934775033","0.2342595486605526","0.3434780113176415","0","","","","","","","","",""
"","html-keyboard-response","139","402047","0.0-78.0-1.0","""event"",""trial"",""time""
""fullscreenenter"",""0"",""1728""
","
","
","""event"",""trial"",""time""
""fullscreenenter"",""0"",""1728""
","
","null","<p></p>","null","","","","","","","","","","","","","","","","","","","","","","","",""
"","do_recog","140","405354","0.0-79.0-0.0","""event"",""trial"",""time""
""fullscreenenter"",""0"",""1728""
","
","
","""event"",""trial"",""time""
""fullscreenenter"",""0"",""1728""
","
","1791.8999999761581","","","","","","","","53","","","","290","probe-147","","","","","1","[object Object]","77","1","1","","","",""
"","html-keyboard-response","141","406367","0.0-79.0-1.0","""event"",""trial"",""time""
""fullscreenenter"",""0"",""1728""
","
","
","""event"",""trial"",""time""
""fullscreenenter"",""0"",""1728""
","
","null","<p></p>","null","","","","","","","","","","","","","","","","","","","","","","","",""
"","do_trial","142","409745","0.0-80.0-0.0","""event"",""trial"",""time""
""fullscreenenter"",""0"",""1728""
","
","
","""event"",""trial"",""time""
""fullscreenenter"",""0"",""1728""
","
","835.4000000059605","","","","","","","","49","0,0,0","6","blank","291","null","0.702270229991856","0.35199133231837404","0.2684800808954343","0","","","","","","","","",""
"","html-keyboard-response","143","410758","0.0-80.0-1.0","""event"",""trial"",""time""
""fullscreenenter"",""0"",""1728""
","
","
","""event"",""trial"",""time""
""fullscreenenter"",""0"",""1728""
","
","null","<p></p>","null","","","","","","","","","","","","","","","","","","","","","","","",""
"","do_trial","144","413752","0.0-81.0-0.0","""event"",""trial"",""time""
""fullscreenenter"",""0"",""1728""
","
","
","""event"",""trial"",""time""
""fullscreenenter"",""0"",""1728""
","
","458.5","","","","","","","","49","0,0,0","6","blank","292","null","0.6413176522191342","0.41694006913271436","0.1704878016239081","0","","","","","","","","",""
"","html-keyboard-response","145","414766","0.0-81.0-1.0","""event"",""trial"",""time""
""fullscreenenter"",""0"",""1728""
","
","
","""event"",""trial"",""time""
""fullscreenenter"",""0"",""1728""
","
","null","<p></p>","null","","","","","","","","","","","","","","","","","","","","","","","",""
"","do_trial","146","417920","0.0-82.0-0.0","""event"",""trial"",""time""
""fullscreenenter"",""0"",""1728""
","
","
","""event"",""trial"",""time""
""fullscreenenter"",""0"",""1728""
","
","619.6000000238419","","","","","","","","49","1,0,0","6","blank","293","null","0.7271462560304681","0.36774649044428204","0.1756714098432497","1","","","","","","","","",""
"","html-keyboard-response","147","418934","0.0-82.0-1.0","""event"",""trial"",""time""
""fullscreenenter"",""0"",""1728""
","
","
","""event"",""trial"",""time""
""fullscreenenter"",""0"",""1728""
","
","null","<p></p>","null","","","","","","","","","","","","","","","","","","","","","","","",""
"","do_recog","148","421694","0.0-83.0-0.0","""event"",""trial"",""time""
""fullscreenenter"",""0"",""1728""
","
","
","""event"",""trial"",""time""
""fullscreenenter"",""0"",""1728""
","
","1239.699999988079","","","","","","","","53","","","","294","probe-242","","","","","0","[object Object]","null","null","0","","","",""
"","html-keyboard-response","149","422706","0.0-83.0-1.0","""event"",""trial"",""time""
""fullscreenenter"",""0"",""1728""
","
","
","""event"",""trial"",""time""
""fullscreenenter"",""0"",""1728""
","
","null","<p></p>","null","","","","","","","","","","","","","","","","","","","","","","","",""
"","do_trial","150","425568","0.0-84.0-0.0","""event"",""trial"",""time""
""fullscreenenter"",""0"",""1728""
","
","
","""event"",""trial"",""time""
""fullscreenenter"",""0"",""1728""
","
","333.60000002384186","","","","","","","","49","0,1,0","6","blank","295","null","0.7507413035174664","0.5070128086043368","0.1522877589641123","0","","","","","","","","",""
"","html-keyboard-response","151","426570","0.0-84.0-1.0","""event"",""trial"",""time""
""fullscreenenter"",""0"",""1728""
","
","
","""event"",""trial"",""time""
""fullscreenenter"",""0"",""1728""
","
","null","<p></p>","null","","","","","","","","","","","","","","","","","","","","","","","",""
"","do_trial","152","429364","0.0-85.0-0.0","""event"",""trial"",""time""
""fullscreenenter"",""0"",""1728""
","
","
","""event"",""trial"",""time""
""fullscreenenter"",""0"",""1728""
","
","263.5","","","","","","","","49","0,1,0","6","blank","296","null","0.5773577762498489","0.5695316399487678","0.2134455878434848","0","","","","","","","","",""
"","html-keyboard-response","153","430374","0.0-85.0-1.0","""event"",""trial"",""time""
""fullscreenenter"",""0"",""1728""
","
","
","""event"",""trial"",""time""
""fullscreenenter"",""0"",""1728""
","
","null","<p></p>","null","","","","","","","","","","","","","","","","","","","","","","","",""
"","do_trial","154","433176","0.0-86.0-0.0","""event"",""trial"",""time""
""fullscreenenter"",""0"",""1728""
","
","
","""event"",""trial"",""time""
""fullscreenenter"",""0"",""1728""
","
","268.19999998807907","","","","","","","","51","1,1,1","6","blank","297","null","0.45257050870047905","0.5915232244898687","0.19312203181537796","1","","","","","","","","",""
"","html-keyboard-response","155","434190","0.0-86.0-1.0","""event"",""trial"",""time""
""fullscreenenter"",""0"",""1728""
","
","
","""event"",""trial"",""time""
""fullscreenenter"",""0"",""1728""
","
","null","<p></p>","null","","","","","","","","","","","","","","","","","","","","","","","",""
"","do_trial","156","436978","0.0-87.0-0.0","""event"",""trial"",""time""
""fullscreenenter"",""0"",""1728""
","
","
","""event"",""trial"",""time""
""fullscreenenter"",""0"",""1728""
","
","259.09999999403954","","","","","","","","51","1,1,1","6","blank","298","null","0.40213526748892947","0.45890065225003995","0.18693749930152362","1","","","","","","","","",""
"","html-keyboard-response","157","437989","0.0-87.0-1.0","""event"",""trial"",""time""
""fullscreenenter"",""0"",""1728""
","
","
","""event"",""trial"",""time""
""fullscreenenter"",""0"",""1728""
","
","null","<p></p>","null","","","","","","","","","","","","","","","","","","","","","","","",""
"","do_recog","158","441268","0.0-88.0-0.0","""event"",""trial"",""time""
""fullscreenenter"",""0"",""1728""
","
","
","""event"",""trial"",""time""
""fullscreenenter"",""0"",""1728""
","
","1770","","","","","","","","53","","","","299","probe-181","","","","","1","[object Object]","196","4","1","","","",""
"","html-keyboard-response","159","442280","0.0-88.0-1.0","""event"",""trial"",""time""
""fullscreenenter"",""0"",""1728""
","
","
","""event"",""trial"",""time""
""fullscreenenter"",""0"",""1728""
","
","null","<p></p>","null","","","","","","","","","","","","","","","","","","","","","","","",""
"","do_trial","160","445336","0.0-89.0-0.0","""event"",""trial"",""time""
""fullscreenenter"",""0"",""1728""
","
","
","""event"",""trial"",""time""
""fullscreenenter"",""0"",""1728""
","
","522.9000000059605","","","","","","","","51","0,0,0","6","blank","300","null","0.3544127315241545","0.43406995024550243","0.15493051836976698","0","","","","","","","","",""
"","html-keyboard-response","161","446345","0.0-89.0-1.0","""event"",""trial"",""time""
""fullscreenenter"",""0"",""1728""
","
","
","""event"",""trial"",""time""
""fullscreenenter"",""0"",""1728""
","
","null","<p></p>","null","","","","","","","","","","","","","","","","","","","","","","","",""
"","do_trial","162","449660","0.0-90.0-0.0","""event"",""trial"",""time""
""fullscreenenter"",""0"",""1728""
","
","
","""event"",""trial"",""time""
""fullscreenenter"",""0"",""1728""
","
","776.5999999940395","","","","","","","","51","0,0,1","6","blank","301","null","0.32934716000193454","0.3828504122914805","0.17414276063087683","1","","","","","","","","",""
"","html-keyboard-response","163","450675","0.0-90.0-1.0","""event"",""trial"",""time""
""fullscreenenter"",""0"",""1728""
","
","
","""event"",""trial"",""time""
""fullscreenenter"",""0"",""1728""
","
","null","<p></p>","null","","","","","","","","","","","","","","","","","","","","","","","",""
"","do_trial","164","453847","0.0-91.0-0.0","""event"",""trial"",""time""
""fullscreenenter"",""0"",""1728""
","
","
","""event"",""trial"",""time""
""fullscreenenter"",""0"",""1728""
","
","632.5","","","","","","","","51","0,1,0","6","blank","302","null","0.2754991480903279","0.5442306137713021","0.05790830807390737","0","","","","","","","","",""
"","html-keyboard-response","165","454860","0.0-91.0-1.0","""event"",""trial"",""time""
""fullscreenenter"",""0"",""1728""
","
","
","""event"",""trial"",""time""
""fullscreenenter"",""0"",""1728""
","
","null","<p></p>","null","","","","","","","","","","","","","","","","","","","","","","","",""
"","do_trial","166","457762","0.0-92.0-0.0","""event"",""trial"",""time""
""fullscreenenter"",""0"",""1728""
","
","
","""event"",""trial"",""time""
""fullscreenenter"",""0"",""1728""
","
","365.80000001192093","","","","","","","","51","0,0,0","6","blank","303","null","0.4387682575788885","0.584795301156683","0.06321274285286287","0","","","","","","","","",""
"","html-keyboard-response","167","458773","0.0-92.0-1.0","""event"",""trial"",""time""
""fullscreenenter"",""0"",""1728""
","
","
","""event"",""trial"",""time""
""fullscreenenter"",""0"",""1728""
","
","null","<p></p>","null","","","","","","","","","","","","","","","","","","","","","","","",""
"","do_recog","168","461785","0.0-93.0-0.0","""event"",""trial"",""time""
""fullscreenenter"",""0"",""1728""
","
","
","""event"",""trial"",""time""
""fullscreenenter"",""0"",""1728""
","
","1496.3999999761581","","","","","","","","55","","","","304","probe-130","","","","","1","[object Object]","158","3","0","","","",""
"","html-keyboard-response","169","462787","0.0-93.0-1.0","""event"",""trial"",""time""
""fullscreenenter"",""0"",""1728""
","
","
","""event"",""trial"",""time""
""fullscreenenter"",""0"",""1728""
","
","null","<p></p>","null","","","","","","","","","","","","","","","","","","","","","","","",""
"","do_trial","170","466559","0.0-94.0-0.0","""event"",""trial"",""time""
""fullscreenenter"",""0"",""1728""
","
","
","""event"",""trial"",""time""
""fullscreenenter"",""0"",""1728""
","
","1241","","","","","","","","51","0,0,0","6","blank","305","null","0.37365057807860846","0.6572909512744926","0.13720271324789174","0","","","","","","","","",""
"","html-keyboard-response","171","467574","0.0-94.0-1.0","""event"",""trial"",""time""
""fullscreenenter"",""0"",""1728""
","
","
","""event"",""trial"",""time""
""fullscreenenter"",""0"",""1728""
","
","null","<p></p>","null","","","","","","","","","","","","","","","","","","","","","","","",""
"","do_recog","172","470587","0.0-95.0-0.0","""event"",""trial"",""time""
""fullscreenenter"",""0"",""1728""
","
","
","""event"",""trial"",""time""
""fullscreenenter"",""0"",""1728""
","
","1497.1000000238419","","","","","","","","53","","","","306","probe-40","","","","","1","[object Object]","154","3","1","","","",""
"","html-keyboard-response","173","471589","0.0-95.0-1.0","""event"",""trial"",""time""
""fullscreenenter"",""0"",""1728""
","
","
","""event"",""trial"",""time""
""fullscreenenter"",""0"",""1728""
","
","null","<p></p>","null","","","","","","","","","","","","","","","","","","","","","","","",""
"","do_trial","174","475247","0.0-96.0-0.0","""event"",""trial"",""time""
""fullscreenenter"",""0"",""1728""
","
","
","""event"",""trial"",""time""
""fullscreenenter"",""0"",""1728""
","
","1117.5","","","","","","","","51","0,1,0","6","blank","307","null","0.330636723292715","0.6839889958172214","0.34469342557587324","0","","","","","","","","",""
"","html-keyboard-response","175","476258","0.0-96.0-1.0","""event"",""trial"",""time""
""fullscreenenter"",""0"",""1728""
","
","
","""event"",""trial"",""time""
""fullscreenenter"",""0"",""1728""
","
","null","<p></p>","null","","","","","","","","","","","","","","","","","","","","","","","",""
"","do_trial","176","479573","0.0-97.0-0.0","""event"",""trial"",""time""
""fullscreenenter"",""0"",""1728""
","
","
","""event"",""trial"",""time""
""fullscreenenter"",""0"",""1728""
","
","774.6999999880791","","","","","","","","51","0,1,0","6","blank","308","null","0.34955667513362637","0.6956883353678966","0.2374694721047105","0","","","","","","","","",""
"","html-keyboard-response","177","480586","0.0-97.0-1.0","""event"",""trial"",""time""
""fullscreenenter"",""0"",""1728""
","
","
","""event"",""trial"",""time""
""fullscreenenter"",""0"",""1728""
","
","null","<p></p>","null","","","","","","","","","","","","","","","","","","","","","","","",""
"","break","178","481395","0.0-98.0-0.0","""event"",""trial"",""time""
""fullscreenenter"",""0"",""1728""
","
","
","""event"",""trial"",""time""
""fullscreenenter"",""0"",""1728""
","
","807.8999999761581","<div class='center'><p>Time to take a quick break! You have 2 minutes to rest, but you can move on sooner if you'd like.</p><p> Press the <b>space bar</b> to continue.</p></div>","32","","","","","","","","","","","","","","","","","","","","","","","",""
"","do_recog","179","484542","0.0-98.0-1.0","""event"",""trial"",""time""
""fullscreenenter"",""0"",""1728""
","
","
","""event"",""trial"",""time""
""fullscreenenter"",""0"",""1728""
","
","1635.4000000059605","","","","","","","","54","","","","309","probe-137","","","","","1","[object Object]","111","2","1","","","",""
"","html-keyboard-response","180","485556","0.0-98.0-2.0","""event"",""trial"",""time""
""fullscreenenter"",""0"",""1728""
","
","
","""event"",""trial"",""time""
""fullscreenenter"",""0"",""1728""
","
","null","<p></p>","null","","","","","","","","","","","","","","","","","","","","","","","",""
"","do_trial","181","488571","0.0-99.0-0.0","""event"",""trial"",""time""
""fullscreenenter"",""0"",""1728""
","
","
","""event"",""trial"",""time""
""fullscreenenter"",""0"",""1728""
","
","477.59999999403954","","","","","","","","49","0,0,0","6","blank","310","null","0.1416082445053579","0.5925067322974631","0.14579310201113418","0","","","","","","","","",""
"","html-keyboard-response","182","489588","0.0-99.0-1.0","""event"",""trial"",""time""
""fullscreenenter"",""0"",""1728""
","
","
","""event"",""trial"",""time""
""fullscreenenter"",""0"",""1728""
","
","null","<p></p>","null","","","","","","","","","","","","","","","","","","","","","","","",""
"","do_trial","183","492422","0.0-100.0-0.0","""event"",""trial"",""time""
""fullscreenenter"",""0"",""1728""
","
","
","""event"",""trial"",""time""
""fullscreenenter"",""0"",""1728""
","
","292.30000001192093","","","","","","","","49","0,1,0","6","blank","311","null","0.1695685609545248","0.4683508035817338","0.2189471647833889","0","","","","","","","","",""
"","html-keyboard-response","184","493429","0.0-100.0-1.0","""event"",""trial"",""time""
""fullscreenenter"",""0"",""1728""
","
","
","""event"",""trial"",""time""
""fullscreenenter"",""0"",""1728""
","
","null","<p></p>","null","","","","","","","","","","","","","","","","","","","","","","","",""
"","do_recog","185","496323","0.0-101.0-0.0","""event"",""trial"",""time""
""fullscreenenter"",""0"",""1728""
","
","
","""event"",""trial"",""time""
""fullscreenenter"",""0"",""1728""
","
","1385.0999999940395","","","","","","","","55","","","","312","probe-243","","","","","0","[object Object]","null","null","1","","","",""
"","html-keyboard-response","186","497339","0.0-101.0-1.0","""event"",""trial"",""time""
""fullscreenenter"",""0"",""1728""
","
","
","""event"",""trial"",""time""
""fullscreenenter"",""0"",""1728""
","
","null","<p></p>","null","","","","","","","","","","","","","","","","","","","","","","","",""
"","do_trial","187","500314","0.0-102.0-0.0","""event"",""trial"",""time""
""fullscreenenter"",""0"",""1728""
","
","
","""event"",""trial"",""time""
""fullscreenenter"",""0"",""1728""
","
","437.39999997615814","","","","","","","","51","0,0,0","6","blank","313","null","0.36576238733028904","0.3565697648799841","0.37113267111285675","0","","","","","","","","",""
"","html-keyboard-response","188","501330","0.0-102.0-1.0","""event"",""trial"",""time""
""fullscreenenter"",""0"",""1728""
","
","
","""event"",""trial"",""time""
""fullscreenenter"",""0"",""1728""
","
","null","<p></p>","null","","","","","","","","","","","","","","","","","","","","","","","",""
"","do_trial","189","504135","0.0-103.0-0.0","""event"",""trial"",""time""
""fullscreenenter"",""0"",""1728""
","
","
","""event"",""trial"",""time""
""fullscreenenter"",""0"",""1728""
","
","272","","","","","","","","51","1,0,0","6","blank","314","null","0.35266810365718854","0.405864589469162","0.2581000677932655","0","","","","","","","","",""
"","html-keyboard-response","190","505149","0.0-103.0-1.0","""event"",""trial"",""time""
""fullscreenenter"",""0"",""1728""
","
","
","""event"",""trial"",""time""
""fullscreenenter"",""0"",""1728""
","
","null","<p></p>","null","","","","","","","","","","","","","","","","","","","","","","","",""
"","do_trial","191","508157","0.0-104.0-0.0","""event"",""trial"",""time""
""fullscreenenter"",""0"",""1728""
","
","
","""event"",""trial"",""time""
""fullscreenenter"",""0"",""1728""
","
","467.40000000596046","","","","","","","","51","0,0,0","6","blank","315","null","0.3105555794801511","0.45207957812240374","0.05396245609750988","0","","","","","","","","",""
"","html-keyboard-response","192","509167","0.0-104.0-1.0","""event"",""trial"",""time""
""fullscreenenter"",""0"",""1728""
","
","
","""event"",""trial"",""time""
""fullscreenenter"",""0"",""1728""
","
","null","<p></p>","null","","","","","","","","","","","","","","","","","","","","","","","",""
"","do_trial","193","511936","0.0-105.0-0.0","""event"",""trial"",""time""
""fullscreenenter"",""0"",""1728""
","
","
","""event"",""trial"",""time""
""fullscreenenter"",""0"",""1728""
","
","234.59999999403954","","","","","","","","50","1,0,0","6","blank","316","null","0.4005184749879407","0.42061010330520743","0.08112172386733306","0","","","","","","","","",""
"","html-keyboard-response","194","512947","0.0-105.0-1.0","""event"",""trial"",""time""
""fullscreenenter"",""0"",""1728""
","
","
","""event"",""trial"",""time""
""fullscreenenter"",""0"",""1728""
","
","null","<p></p>","null","","","","","","","","","","","","","","","","","","","","","","","",""
"","do_recog","195","515594","0.0-106.0-0.0","""event"",""trial"",""time""
""fullscreenenter"",""0"",""1728""
","
","
","""event"",""trial"",""time""
""fullscreenenter"",""0"",""1728""
","
","1130.1000000238419","","","","","","","","54","","","","317","probe-96","","","","","1","[object Object]","153","3","1","","","",""
"","html-keyboard-response","196","516607","0.0-106.0-1.0","""event"",""trial"",""time""
""fullscreenenter"",""0"",""1728""
","
","
","""event"",""trial"",""time""
""fullscreenenter"",""0"",""1728""
","
","null","<p></p>","null","","","","","","","","","","","","","","","","","","","","","","","",""
"","do_trial","197","519486","0.0-107.0-0.0","""event"",""trial"",""time""
""fullscreenenter"",""0"",""1728""
","
","
","""event"",""trial"",""time""
""fullscreenenter"",""0"",""1728""
","
","337.5","","","","","","","","50","0,0,1","6","blank","318","null","0.3457054800649067","0.4952266808750266","0.2725633005268755","0","","","","","","","","",""
"","html-keyboard-response","198","520492","0.0-107.0-1.0","""event"",""trial"",""time""
""fullscreenenter"",""0"",""1728""
","
","
","""event"",""trial"",""time""
""fullscreenenter"",""0"",""1728""
","
","null","<p></p>","null","","","","","","","","","","","","","","","","","","","","","","","",""
"","do_recog","199","523697","0.0-108.0-0.0","""event"",""trial"",""time""
""fullscreenenter"",""0"",""1728""
","
","
","""event"",""trial"",""time""
""fullscreenenter"",""0"",""1728""
","
","1690.8999999761581","","","","","","","","54","","","","319","probe-55","","","","","1","[object Object]","79","1","1","","","",""
"","html-keyboard-response","200","524709","0.0-108.0-1.0","""event"",""trial"",""time""
""fullscreenenter"",""0"",""1728""
","
","
","""event"",""trial"",""time""
""fullscreenenter"",""0"",""1728""
","
","null","<p></p>","null","","","","","","","","","","","","","","","","","","","","","","","",""
"","do_trial","201","527542","0.0-109.0-0.0","""event"",""trial"",""time""
""fullscreenenter"",""0"",""1728""
","
","
","""event"",""trial"",""time""
""fullscreenenter"",""0"",""1728""
","
","300.90000000596046","","","","","","","","49","0,0,1","6","blank","320","null","0.3210521902862394","0.5229969817504394","0.15080082066209913","0","","","","","","","","",""
"","html-keyboard-response","202","528554","0.0-109.0-1.0","""event"",""trial"",""time""
""fullscreenenter"",""0"",""1728""
","
","
","""event"",""trial"",""time""
""fullscreenenter"",""0"",""1728""
","
","null","<p></p>","null","","","","","","","","","","","","","","","","","","","","","","","",""
"","do_trial","203","531364","0.0-110.0-0.0","""event"",""trial"",""time""
""fullscreenenter"",""0"",""1728""
","
","
","""event"",""trial"",""time""
""fullscreenenter"",""0"",""1728""
","
","270.7999999821186","","","","","","","","49","0,0,0","6","blank","321","null","0.21893281618998497","0.5586499290889085","0.12125916041876625","0","","","","","","","","",""
"","html-keyboard-response","204","532377","0.0-110.0-1.0","""event"",""trial"",""time""
""fullscreenenter"",""0"",""1728""
","
","
","""event"",""trial"",""time""
""fullscreenenter"",""0"",""1728""
","
","null","<p></p>","null","","","","","","","","","","","","","","","","","","","","","","","",""
"","do_trial","205","535430","0.0-111.0-0.0","""event"",""trial"",""time""
""fullscreenenter"",""0"",""1728""
","
","
","""event"",""trial"",""time""
""fullscreenenter"",""0"",""1728""
","
","513.5","","","","","","","","50","0,1,0","6","blank","322","null","0.2535576475257816","0.5503367549799834","0.21003655087949546","1","","","","","","","","",""
"","html-keyboard-response","206","536440","0.0-111.0-1.0","""event"",""trial"",""time""
""fullscreenenter"",""0"",""1728""
","
","
","""event"",""trial"",""time""
""fullscreenenter"",""0"",""1728""
","
","null","<p></p>","null","","","","","","","","","","","","","","","","","","","","","","","",""
"","do_trial","207","539348","0.0-112.0-0.0","""event"",""trial"",""time""
""fullscreenenter"",""0"",""1728""
","
","
","""event"",""trial"",""time""
""fullscreenenter"",""0"",""1728""
","
","369.90000000596046","","","","","","","","50","0,1,0","6","blank","323","null","0.17063629211905088","0.5930261074021501","0.09457439366380915","1","","","","","","","","",""
"","html-keyboard-response","208","540358","0.0-112.0-1.0","""event"",""trial"",""time""
""fullscreenenter"",""0"",""1728""
","
","
","""event"",""trial"",""time""
""fullscreenenter"",""0"",""1728""
","
","null","<p></p>","null","","","","","","","","","","","","","","","","","","","","","","","",""
"","do_trial","209","543315","0.0-113.0-0.0","""event"",""trial"",""time""
""fullscreenenter"",""0"",""1728""
","
","
","""event"",""trial"",""time""
""fullscreenenter"",""0"",""1728""
","
","414.09999999403954","","","","","","","","50","1,0,0","6","blank","324","null","0.22953785136441024","0.6990023007692702","0.1515939250240292","0","","","","","","","","",""
"","html-keyboard-response","210","544329","0.0-113.0-1.0","""event"",""trial"",""time""
""fullscreenenter"",""0"",""1728""
","
","
","""event"",""trial"",""time""
""fullscreenenter"",""0"",""1728""
","
","null","<p></p>","null","","","","","","","","","","","","","","","","","","","","","","","",""
"","do_trial","211","547236","0.0-114.0-0.0","""event"",""trial"",""time""
""fullscreenenter"",""0"",""1728""
","
","
","""event"",""trial"",""time""
""fullscreenenter"",""0"",""1728""
","
","369.09999999403954","","","","","","","","50","1,1,1","6","blank","325","null","0.22295422967640727","0.6873399214943581","0.10697498683591652","1","","","","","","","","",""
"","html-keyboard-response","212","548250","0.0-114.0-1.0","""event"",""trial"",""time""
""fullscreenenter"",""0"",""1728""
","
","
","""event"",""trial"",""time""
""fullscreenenter"",""0"",""1728""
","
","null","<p></p>","null","","","","","","","","","","","","","","","","","","","","","","","",""
"","do_trial","213","551184","0.0-115.0-0.0","""event"",""trial"",""time""
""fullscreenenter"",""0"",""1728""
","
","
","""event"",""trial"",""time""
""fullscreenenter"",""0"",""1728""
","
","391.09999999403954","","","","","","","","50","0,0,0","6","blank","326","null","0.21426298693460966","0.746723619996433","0.2973220720012241","0","","","","","","","","",""
"","html-keyboard-response","214","552196","0.0-115.0-1.0","""event"",""trial"",""time""
""fullscreenenter"",""0"",""1728""
","
","
","""event"",""trial"",""time""
""fullscreenenter"",""0"",""1728""
","
","null","<p></p>","null","","","","","","","","","","","","","","","","","","","","","","","",""
"","do_recog","215","554910","0.0-116.0-0.0","""event"",""trial"",""time""
""fullscreenenter"",""0"",""1728""
","
","
","""event"",""trial"",""time""
""fullscreenenter"",""0"",""1728""
","
","1204.699999988079","","","","","","","","55","","","","327","probe-186","","","","","1","[object Object]","118","2","0","","","",""
"","html-keyboard-response","216","555924","0.0-116.0-1.0","""event"",""trial"",""time""
""fullscreenenter"",""0"",""1728""
","
","
","""event"",""trial"",""time""
""fullscreenenter"",""0"",""1728""
","
","null","<p></p>","null","","","","","","","","","","","","","","","","","","","","","","","",""
"","do_trial","217","559104","0.0-117.0-0.0","""event"",""trial"",""time""
""fullscreenenter"",""0"",""1728""
","
","
","""event"",""trial"",""time""
""fullscreenenter"",""0"",""1728""
","
","652.5999999940395","","","","","","","","50","0,1,0","6","blank","328","null","0.31457763047941845","0.5738297704466696","0.2901450899380668","1","","","","","","","","",""
"","html-keyboard-response","218","560118","0.0-117.0-1.0","""event"",""trial"",""time""
""fullscreenenter"",""0"",""1728""
","
","
","""event"",""trial"",""time""
""fullscreenenter"",""0"",""1728""
","
","null","<p></p>","null","","","","","","","","","","","","","","","","","","","","","","","",""
"","do_recog","219","563697","0.0-118.0-0.0","""event"",""trial"",""time""
""fullscreenenter"",""0"",""1728""
","
","
","""event"",""trial"",""time""
""fullscreenenter"",""0"",""1728""
","
","2063.399999976158","","","","","","","","53","","","","329","probe-135","","","","","1","[object Object]","71","1","1","","","",""
"","html-keyboard-response","220","564711","0.0-118.0-1.0","""event"",""trial"",""time""
""fullscreenenter"",""0"",""1728""
","
","
","""event"",""trial"",""time""
""fullscreenenter"",""0"",""1728""
","
","null","<p></p>","null","","","","","","","","","","","","","","","","","","","","","","","",""
"","do_trial","221","568108","0.0-119.0-0.0","""event"",""trial"",""time""
""fullscreenenter"",""0"",""1728""
","
","
","""event"",""trial"",""time""
""fullscreenenter"",""0"",""1728""
","
","862.2000000178814","","","","","","","","50","1,1,0","6","blank","330","null","0.4402045782539706","0.6492588961387087","0.19639057418190983","1","","","","","","","","",""
"","html-keyboard-response","222","569122","0.0-119.0-1.0","""event"",""trial"",""time""
""fullscreenenter"",""0"",""1728""
","
","
","""event"",""trial"",""time""
""fullscreenenter"",""0"",""1728""
","
","null","<p></p>","null","","","","","","","","","","","","","","","","","","","","","","","",""
"","do_trial","223","572062","0.0-120.0-0.0","""event"",""trial"",""time""
""fullscreenenter"",""0"",""1728""
","
","
","""event"",""trial"",""time""
""fullscreenenter"",""0"",""1728""
","
","403","","","","","","","","50","1,0,0","6","blank","331","null","0.477541719097695","0.8028878178901178","0.2643746501927561","0","","","","","","","","",""
"","html-keyboard-response","224","573074","0.0-120.0-1.0","""event"",""trial"",""time""
""fullscreenenter"",""0"",""1728""
","
","
","""event"",""trial"",""time""
""fullscreenenter"",""0"",""1728""
","
","null","<p></p>","null","","","","","","","","","","","","","","","","","","","","","","","",""
"","do_trial","225","576595","0.0-121.0-0.0","""event"",""trial"",""time""
""fullscreenenter"",""0"",""1728""
","
","
","""event"",""trial"",""time""
""fullscreenenter"",""0"",""1728""
","
","991.6999999880791","","","","","","","","49","1,1,1","6","blank","332","null","0.46820399302392235","0.7870827775872521","0.2713353381099538","1","","","","","","","","",""
"","html-keyboard-response","226","577605","0.0-121.0-1.0","""event"",""trial"",""time""
""fullscreenenter"",""0"",""1728""
","
","
","""event"",""trial"",""time""
""fullscreenenter"",""0"",""1728""
","
","null","<p></p>","null","","","","","","","","","","","","","","","","","","","","","","","",""
"","do_trial","227","580444","0.0-122.0-0.0","""event"",""trial"",""time""
""fullscreenenter"",""0"",""1728""
","
","
","""event"",""trial"",""time""
""fullscreenenter"",""0"",""1728""
","
","299.7999999821186","","","","","","","","49","1,1,0","6","blank","333","null","0.3761703819611045","0.7537750070283147","0.1900703167112053","1","","","","","","","","",""
"","html-keyboard-response","228","581453","0.0-122.0-1.0","""event"",""trial"",""time""
""fullscreenenter"",""0"",""1728""
","
","
","""event"",""trial"",""time""
""fullscreenenter"",""0"",""1728""
","
","null","<p></p>","null","","","","","","","","","","","","","","","","","","","","","","","",""
"","do_recog","229","584280","0.0-123.0-0.0","""event"",""trial"",""time""
""fullscreenenter"",""0"",""1728""
","
","
","""event"",""trial"",""time""
""fullscreenenter"",""0"",""1728""
","
","1320.5999999940395","","","","","","","","53","","","","334","probe-170","","","","","1","[object Object]","72","1","1","","","",""
"","html-keyboard-response","230","585295","0.0-123.0-1.0","""event"",""trial"",""time""
""fullscreenenter"",""0"",""1728""
","
","
","""event"",""trial"",""time""
""fullscreenenter"",""0"",""1728""
","
","null","<p></p>","null","","","","","","","","","","","","","","","","","","","","","","","",""
"","do_trial","231","588910","0.0-124.0-0.0","""event"",""trial"",""time""
""fullscreenenter"",""0"",""1728""
","
","
","""event"",""trial"",""time""
""fullscreenenter"",""0"",""1728""
","
","1077.9000000059605","","","","","","","","49","0,1,1","6","blank","335","null","0.22322488599471504","0.7388983518921347","0.26496614281943265","0","","","","","","","","",""
"","html-keyboard-response","232","589920","0.0-124.0-1.0","""event"",""trial"",""time""
""fullscreenenter"",""0"",""1728""
","
","
","""event"",""trial"",""time""
""fullscreenenter"",""0"",""1728""
","
","null","<p></p>","null","","","","","","","","","","","","","","","","","","","","","","","",""
"","do_recog","233","592863","0.0-125.0-0.0","""event"",""trial"",""time""
""fullscreenenter"",""0"",""1728""
","
","
","""event"",""trial"",""time""
""fullscreenenter"",""0"",""1728""
","
","1423.5","","","","","","","","55","","","","336","probe-209","","","","","1","[object Object]","73","1","0","","","",""
"","html-keyboard-response","234","593874","0.0-125.0-1.0","""event"",""trial"",""time""
""fullscreenenter"",""0"",""1728""
","
","
","""event"",""trial"",""time""
""fullscreenenter"",""0"",""1728""
","
","null","<p></p>","null","","","","","","","","","","","","","","","","","","","","","","","",""
"","do_trial","235","596808","0.0-126.0-0.0","""event"",""trial"",""time""
""fullscreenenter"",""0"",""1728""
","
","
","""event"",""trial"",""time""
""fullscreenenter"",""0"",""1728""
","
","407.5","","","","","","","","49","0,1,0","6","blank","337","null","0.24724571206582094","0.6337967658878955","0.24665679167315738","0","","","","","","","","",""
"","html-keyboard-response","236","597820","0.0-126.0-1.0","""event"",""trial"",""time""
""fullscreenenter"",""0"",""1728""
","
","
","""event"",""trial"",""time""
""fullscreenenter"",""0"",""1728""
","
","null","<p></p>","null","","","","","","","","","","","","","","","","","","","","","","","",""
"","do_recog","237","600684","0.0-127.0-0.0","""event"",""trial"",""time""
""fullscreenenter"",""0"",""1728""
","
","
","""event"",""trial"",""time""
""fullscreenenter"",""0"",""1728""
","
","1345.800000011921","","","","","","","","54","","","","338","probe-87","","","","","1","[object Object]","33","0","1","","","",""
"","html-keyboard-response","238","601686","0.0-127.0-1.0","""event"",""trial"",""time""
""fullscreenenter"",""0"",""1728""
","
","
","""event"",""trial"",""time""
""fullscreenenter"",""0"",""1728""
","
","null","<p></p>","null","","","","","","","","","","","","","","","","","","","","","","","",""
"","do_trial","239","604543","0.0-128.0-0.0","""event"",""trial"",""time""
""fullscreenenter"",""0"",""1728""
","
","
","""event"",""trial"",""time""
""fullscreenenter"",""0"",""1728""
","
","322.09999999403954","","","","","","","","51","0,1,0","6","blank","339","null","0.28965664797293345","0.6101860511606738","0.3548038972850129","0","","","","","","","","",""
"","html-keyboard-response","240","605556","0.0-128.0-1.0","""event"",""trial"",""time""
""fullscreenenter"",""0"",""1728""
","
","
","""event"",""trial"",""time""
""fullscreenenter"",""0"",""1728""
","
","null","<p></p>","null","","","","","","","","","","","","","","","","","","","","","","","",""
"","do_trial","241","608347","0.0-129.0-0.0","""event"",""trial"",""time""
""fullscreenenter"",""0"",""1728""
","
","
","""event"",""trial"",""time""
""fullscreenenter"",""0"",""1728""
","
","261.69999998807907","","","","","","","","50","0,1,0","6","blank","340","null","0.39842209852231714","0.45039649091827955","0.20485427920583937","1","","","","","","","","",""
"","html-keyboard-response","242","609358","0.0-129.0-1.0","""event"",""trial"",""time""
""fullscreenenter"",""0"",""1728""
","
","
","""event"",""trial"",""time""
""fullscreenenter"",""0"",""1728""
","
","null","<p></p>","null","","","","","","","","","","","","","","","","","","","","","","","",""
"","do_trial","243","612286","0.0-130.0-0.0","""event"",""trial"",""time""
""fullscreenenter"",""0"",""1728""
","
","
","""event"",""trial"",""time""
""fullscreenenter"",""0"",""1728""
","
","387.39999997615814","","","","","","","","50","0,1,0","6","blank","341","null","0.2695837346262578","0.6418334082788141","0.22316889638658655","1","","","","","","","","",""
"","html-keyboard-response","244","613299","0.0-130.0-1.0","""event"",""trial"",""time""
""fullscreenenter"",""0"",""1728""
","
","
","""event"",""trial"",""time""
""fullscreenenter"",""0"",""1728""
","
","null","<p></p>","null","","","","","","","","","","","","","","","","","","","","","","","",""
"","do_trial","245","616149","0.0-131.0-0.0","""event"",""trial"",""time""
""fullscreenenter"",""0"",""1728""
","
","
","""event"",""trial"",""time""
""fullscreenenter"",""0"",""1728""
","
","318.40000000596046","","","","","","","","50","0,1,0","6","blank","342","null","0.30582202738280756","0.4612235722516195","0.20569777143347384","1","","","","","","","","",""
"","html-keyboard-response","246","617164","0.0-131.0-1.0","""event"",""trial"",""time""
""fullscreenenter"",""0"",""1728""
","
","
","""event"",""trial"",""time""
""fullscreenenter"",""0"",""1728""
","
","null","<p></p>","null","","","","","","","","","","","","","","","","","","","","","","","",""
"","do_trial","247","620044","0.0-132.0-0.0","""event"",""trial"",""time""
""fullscreenenter"",""0"",""1728""
","
","
","""event"",""trial"",""time""
""fullscreenenter"",""0"",""1728""
","
","349","","","","","","","","50","0,0,0","6","blank","343","null","0.4449814326359223","0.44234911149576017","0.31333626564878964","0","","","","","","","","",""
"","html-keyboard-response","248","621056","0.0-132.0-1.0","""event"",""trial"",""time""
""fullscreenenter"",""0"",""1728""
","
","
","""event"",""trial"",""time""
""fullscreenenter"",""0"",""1728""
","
","null","<p></p>","null","","","","","","","","","","","","","","","","","","","","","","","",""
"","do_recog","249","623808","0.0-133.0-0.0","""event"",""trial"",""time""
""fullscreenenter"",""0"",""1728""
","
","
","""event"",""trial"",""time""
""fullscreenenter"",""0"",""1728""
","
","1239.5","","","","","","","","55","","","","344","probe-224","","","","","1","[object Object]","195","4","0","","","",""
"","html-keyboard-response","250","624823","0.0-133.0-1.0","""event"",""trial"",""time""
""fullscreenenter"",""0"",""1728""
","
","
","""event"",""trial"",""time""
""fullscreenenter"",""0"",""1728""
","
","null","<p></p>","null","","","","","","","","","","","","","","","","","","","","","","","",""
"","do_trial","251","627827","0.0-134.0-0.0","""event"",""trial"",""time""
""fullscreenenter"",""0"",""1728""
","
","
","""event"",""trial"",""time""
""fullscreenenter"",""0"",""1728""
","
","471.90000000596046","","","","","","","","50","1,1,1","6","blank","345","null","0.25712277879215323","0.6832016308638958","0.25300505786033145","1","","","","","","","","",""
"","html-keyboard-response","252","628839","0.0-134.0-1.0","""event"",""trial"",""time""
""fullscreenenter"",""0"",""1728""
","
","
","""event"",""trial"",""time""
""fullscreenenter"",""0"",""1728""
","
","null","<p></p>","null","","","","","","","","","","","","","","","","","","","","","","","",""
"","do_recog","253","631638","0.0-135.0-0.0","""event"",""trial"",""time""
""fullscreenenter"",""0"",""1728""
","
","
","""event"",""trial"",""time""
""fullscreenenter"",""0"",""1728""
","
","1279","","","","","","","","55","","","","346","probe-01","","","","","1","[object Object]","74","1","0","","","",""
"","html-keyboard-response","254","632654","0.0-135.0-1.0","""event"",""trial"",""time""
""fullscreenenter"",""0"",""1728""
","
","
","""event"",""trial"",""time""
""fullscreenenter"",""0"",""1728""
","
","null","<p></p>","null","","","","","","","","","","","","","","","","","","","","","","","",""
"","do_trial","255","635648","0.0-136.0-0.0","""event"",""trial"",""time""
""fullscreenenter"",""0"",""1728""
","
","
","""event"",""trial"",""time""
""fullscreenenter"",""0"",""1728""
","
","461","","","","","","","","50","0,1,0","6","blank","347","null","0.24318164658519173","0.608861735809123","0.3479959970321881","1","","","","","","","","",""
"","html-keyboard-response","256","636665","0.0-136.0-1.0","""event"",""trial"",""time""
""fullscreenenter"",""0"",""1728""
","
","
","""event"",""trial"",""time""
""fullscreenenter"",""0"",""1728""
","
","null","<p></p>","null","","","","","","","","","","","","","","","","","","","","","","","",""
"","do_trial","257","639593","0.0-137.0-0.0","""event"",""trial"",""time""
""fullscreenenter"",""0"",""1728""
","
","
","""event"",""trial"",""time""
""fullscreenenter"",""0"",""1728""
","
","402","","","","","","","","50","1,1,0","6","blank","348","null","0.13929128070973085","0.6402331656645207","0.24904229043930484","1","","","","","","","","",""
"","html-keyboard-response","258","640607","0.0-137.0-1.0","""event"",""trial"",""time""
""fullscreenenter"",""0"",""1728""
","
","
","""event"",""trial"",""time""
""fullscreenenter"",""0"",""1728""
","
","null","<p></p>","null","","","","","","","","","","","","","","","","","","","","","","","",""
"","break","259","641548","0.0-138.0-0.0","""event"",""trial"",""time""
""fullscreenenter"",""0"",""1728""
","
","
","""event"",""trial"",""time""
""fullscreenenter"",""0"",""1728""
","
","939.5","<div class='center'><p>Time to take a quick break! You have 2 minutes to rest, but you can move on sooner if you'd like.</p><p> Press the <b>space bar</b> to continue.</p></div>","32","","","","","","","","","","","","","","","","","","","","","","","",""
"","do_trial","260","644603","0.0-138.0-1.0","""event"",""trial"",""time""
""fullscreenenter"",""0"",""1728""
","
","
","""event"",""trial"",""time""
""fullscreenenter"",""0"",""1728""
","
","519","","","","","","","","50","1,0,0","6","blank","349","null","0.32614192575159345","0.475521223946389","0.32627014373205493","0","","","","","","","","",""
"","html-keyboard-response","261","645618","0.0-138.0-2.0","""event"",""trial"",""time""
""fullscreenenter"",""0"",""1728""
","
","
","""event"",""trial"",""time""
""fullscreenenter"",""0"",""1728""
","
","null","<p></p>","null","","","","","","","","","","","","","","","","","","","","","","","",""
"","do_trial","262","648500","0.0-139.0-0.0","""event"",""trial"",""time""
""fullscreenenter"",""0"",""1728""
","
","
","""event"",""trial"",""time""
""fullscreenenter"",""0"",""1728""
","
","326","","","","","","","","50","1,0,0","6","blank","350","null","0.4030273833660579","0.48238659664622163","0.3169483866212277","0","","","","","","","","",""
"","html-keyboard-response","263","649511","0.0-139.0-1.0","""event"",""trial"",""time""
""fullscreenenter"",""0"",""1728""
","
","
","""event"",""trial"",""time""
""fullscreenenter"",""0"",""1728""
","
","null","<p></p>","null","","","","","","","","","","","","","","","","","","","","","","","",""
"","do_recog","264","652366","0.0-140.0-0.0","""event"",""trial"",""time""
""fullscreenenter"",""0"",""1728""
","
","
","""event"",""trial"",""time""
""fullscreenenter"",""0"",""1728""
","
","1343.5999999940395","","","","","","","","54","","","","351","probe-213","","","","","1","[object Object]","197","4","1","","","",""
"","html-keyboard-response","265","653378","0.0-140.0-1.0","""event"",""trial"",""time""
""fullscreenenter"",""0"",""1728""
","
","
","""event"",""trial"",""time""
""fullscreenenter"",""0"",""1728""
","
","null","<p></p>","null","","","","","","","","","","","","","","","","","","","","","","","",""
"","do_trial","266","656539","0.0-141.0-0.0","""event"",""trial"",""time""
""fullscreenenter"",""0"",""1728""
","
","
","""event"",""trial"",""time""
""fullscreenenter"",""0"",""1728""
","
","621.2999999821186","","","","","","","","49","1,0,0","6","blank","352","null","0.5128735583238322","0.22715129078939383","0.3575804143484697","1","","","","","","","","",""
"","html-keyboard-response","267","657550","0.0-141.0-1.0","""event"",""trial"",""time""
""fullscreenenter"",""0"",""1728""
","
","
","""event"",""trial"",""time""
""fullscreenenter"",""0"",""1728""
","
","null","<p></p>","null","","","","","","","","","","","","","","","","","","","","","","","",""
"","do_trial","268","660390","0.0-142.0-0.0","""event"",""trial"",""time""
""fullscreenenter"",""0"",""1728""
","
","
","""event"",""trial"",""time""
""fullscreenenter"",""0"",""1728""
","
","302.89999997615814","","","","","","","","49","0,0,0","6","blank","353","null","0.6575535106284783","0.18947303464410198","0.34125156874300017","0","","","","","","","","",""
"","html-keyboard-response","269","661398","0.0-142.0-1.0","""event"",""trial"",""time""
""fullscreenenter"",""0"",""1728""
","
","
","""event"",""trial"",""time""
""fullscreenenter"",""0"",""1728""
","
","null","<p></p>","null","","","","","","","","","","","","","","","","","","","","","","","",""
"","do_trial","270","664202","0.0-143.0-0.0","""event"",""trial"",""time""
""fullscreenenter"",""0"",""1728""
","
","
","""event"",""trial"",""time""
""fullscreenenter"",""0"",""1728""
","
","267","","","","","","","","49","1,1,0","6","blank","354","null","0.6666099564973808","0.20169452668682766","0.34434804219989523","1","","","","","","","","",""
"","html-keyboard-response","271","665214","0.0-143.0-1.0","""event"",""trial"",""time""
""fullscreenenter"",""0"",""1728""
","
","
","""event"",""trial"",""time""
""fullscreenenter"",""0"",""1728""
","
","null","<p></p>","null","","","","","","","","","","","","","","","","","","","","","","","",""
"","do_trial","272","668054","0.0-144.0-0.0","""event"",""trial"",""time""
""fullscreenenter"",""0"",""1728""
","
","
","""event"",""trial"",""time""
""fullscreenenter"",""0"",""1728""
","
","308.5","","","","","","","","49","1,0,0","6","blank","355","null","0.6308990446009525","0.21604079472286214","0.46583104368544803","1","","","","","","","","",""
"","html-keyboard-response","273","669068","0.0-144.0-1.0","""event"",""trial"",""time""
""fullscreenenter"",""0"",""1728""
","
","
","""event"",""trial"",""time""
""fullscreenenter"",""0"",""1728""
","
","null","<p></p>","null","","","","","","","","","","","","","","","","","","","","","","","",""
"","do_trial","274","671914","0.0-145.0-0.0","""event"",""trial"",""time""
""fullscreenenter"",""0"",""1728""
","
","
","""event"",""trial"",""time""
""fullscreenenter"",""0"",""1728""
","
","309.7000000178814","","","","","","","","49","1,0,0","6","blank","356","null","0.617143183220387","0.12586286071571354","0.31849202027227375","1","","","","","","","","",""
"","html-keyboard-response","275","672927","0.0-145.0-1.0","""event"",""trial"",""time""
""fullscreenenter"",""0"",""1728""
","
","
","""event"",""trial"",""time""
""fullscreenenter"",""0"",""1728""
","
","null","<p></p>","null","","","","","","","","","","","","","","","","","","","","","","","",""
"","do_recog","276","675694","0.0-146.0-0.0","""event"",""trial"",""time""
""fullscreenenter"",""0"",""1728""
","
","
","""event"",""trial"",""time""
""fullscreenenter"",""0"",""1728""
","
","1256.0999999940395","","","","","","","","55","","","","357","probe-95","","","","","1","[object Object]","194","4","0","","","",""
"","html-keyboard-response","277","676705","0.0-146.0-1.0","""event"",""trial"",""time""
""fullscreenenter"",""0"",""1728""
","
","
","""event"",""trial"",""time""
""fullscreenenter"",""0"",""1728""
","
","null","<p></p>","null","","","","","","","","","","","","","","","","","","","","","","","",""
