"success","trial_type","trial_index","time_elapsed","internal_node_id","interactions","blur_events","focus_events","fullscreenenter_events","fullscreenexit_events","rt","stimulus","key_press","subject_id","participant_id","age","gender","prompt","response","choice_outcomes","context_n","context_img_id","trial_n","probe_img_id","pR_red","pR_white","pR_black","outcome","is_valid","image_to_show","probed_trial","probed_context","correct","probe","probed_trial_n","probed_context_n","context_im"
"true","fullscreen","0","3413","0.0-0.0","""event"",""trial"",""time""
""fullscreenenter"",""0"",""2435""
","
","
","""event"",""trial"",""time""
""fullscreenenter"",""0"",""2435""
","
","","","","","","","","","","","","","","","","","","","","","","","","","","",""
"","pavlovia","1","3418","0.0-1.0","""event"",""trial"",""time""
""fullscreenenter"",""0"",""2435""
","
","
","""event"",""trial"",""time""
""fullscreenenter"",""0"",""2435""
","
","","","","","","","","","","","","","","","","","","","","","","","","","","",""
"","welc_back","2","18602","0.0-2.0","""event"",""trial"",""time""
""fullscreenenter"",""0"",""2435""
","
","
","""event"",""trial"",""time""
""fullscreenenter"",""0"",""2435""
","
","null","run_exp/static/audio/clip_29_welcome_back.m4a","null","1060","913","18","Male","<div class='center'><p>Welcome to day 2!</p><p> Yesterday, you were the head captain of a pirate ship. You asked your fellow pirates to rob other ships of their gold across six different islands.</p></div>","","","","","","","","","","","","","","","","","","",""
"","html-keyboard-response","3","20686","0.0-3.0","""event"",""trial"",""time""
""fullscreenenter"",""0"",""2435""
","
","
","""event"",""trial"",""time""
""fullscreenenter"",""0"",""2435""
","
","2082.4000000953674","<div class='center'><p>Welcome to day 2!</p><p> Yesterday, you were the head captain of a pirate ship. You asked your fellow pirates to rob other ships of their gold across six different islands.</p><p><b>[Press the space bar to continue]</b></p></div>","32","","","","","","","","","","","","","","","","","","","","","","","",""
"","day_1_summary_goal","4","38132","0.0-4.0","""event"",""trial"",""time""
""fullscreenenter"",""0"",""2435""
","
","
","""event"",""trial"",""time""
""fullscreenenter"",""0"",""2435""
","
","null","run_exp/static/audio/clip_30_goal_of_game.m4a","null","","","","","<div class='center'><p>Today, like yesterday, you get to pick which pirate you want to rob the next ship.</p><p>If the pirate is successful in robbing a ship, you get gold coins that look like this: </p><p><img src='run_exp/static/images/tutorial/reward.png' height='150'></p><p> If they were not successful in robbing the ship, then you will get no gold coins and you'll see a big red x like this: </p><p><img src='run_exp/static/images/tutorial/reward_no.png' height='150'></p></div>","","","","","","","","","","","","","","","","","","",""
"","html-keyboard-response","5","39249","0.0-5.0","""event"",""trial"",""time""
""fullscreenenter"",""0"",""2435""
","
","
","""event"",""trial"",""time""
""fullscreenenter"",""0"",""2435""
","
","1116.2000000476837","<div class='center'><p>Today, like yesterday, you get to pick which pirate you want to rob the next ship.</p><p>If the pirate is successful in robbing a ship, you get gold coins that look like this: </p><p><img src='run_exp/static/images/tutorial/reward.png' height='150'></p><p> If they were not successful in robbing the ship, then you will get no gold coins and you'll see a big red x like this: </p><p><img src='run_exp/static/images/tutorial/reward_no.png' height='150'></p><p><b>[Press the space bar to continue]</b></p></div>","32","","","","","","","","","","","","","","","","","","","","","","","",""
"","day_1_summary_pick","6","54171","0.0-6.0","""event"",""trial"",""time""
""fullscreenenter"",""0"",""2435""
","
","
","""event"",""trial"",""time""
""fullscreenenter"",""0"",""2435""
","
","null","run_exp/static/audio/clip_31_how_to_pick_a_pirate.m4a","null","","","","","<div class='center'><p>Also, just like yesterday, you will use the 1,2,3 keys on your keyboard to pick a pirate. Press '1' to choose red beard, '2' to choose white beard, and '3' to choose black beard . You only have 3 seconds to pick a pirate, so please make a choice quickly!</p></div>","","","","","","","","","","","","","","","","","","",""
"","html-keyboard-response","7","55593","0.0-7.0","""event"",""trial"",""time""
""fullscreenenter"",""0"",""2435""
","
","
","""event"",""trial"",""time""
""fullscreenenter"",""0"",""2435""
","
","1421.2999999523163","<div class='center'><p>Also, just like yesterday, you will use the 1,2,3 keys on your keyboard to pick a pirate. Press '1' to choose red beard, '2' to choose white beard, and '3' to choose black beard . You only have 3 seconds to pick a pirate, so please make a choice quickly!</p><p><b>[Press the space bar to continue]</b></p></div>","32","","","","","","","","","","","","","","","","","","","","","","","",""
"","test_phase_begin","8","86171","0.0-8.0","""event"",""trial"",""time""
""fullscreenenter"",""0"",""2435""
","
","
","""event"",""trial"",""time""
""fullscreenenter"",""0"",""2435""
","
","null","run_exp/static/audio/clip_32_final_place.m4a","null","","","","","<div class='center'><p>You’ve arrived at the final island of your journey! Unfortunately, it’s very foggy out, so you won’t be able to see it in the distance like the other islands you've visited.</p><p>You’ll still be deciding which pirate you want to rob a ship like before. However, because of the fog, you also won’t be able to see the ship.</p><p>This means you do not have to remember the ships you rob on this island.</p><p>Unlike yesterday, you won't be visiting multiple islands today. You will stay on this island for the entire game. This game will last ~30 minutes.</p></div>","","","","","","","","","","","","","","","","","","",""
"","html-keyboard-response","9","87554","0.0-9.0","""event"",""trial"",""time""
""fullscreenenter"",""0"",""2435""
","
","
","""event"",""trial"",""time""
""fullscreenenter"",""0"",""2435""
","
","1382.4000000953674","<div class='center'><p>You’ve arrived at the final island of your journey! Unfortunately, it’s very foggy out, so you won’t be able to see it in the distance like the other islands you've visited.</p><p>You’ll still be deciding which pirate you want to rob a ship like before. However, because of the fog, you also won’t be able to see the ship.</p><p>This means you do not have to remember the ships you rob on this island.</p><p>Unlike yesterday, you won't be visiting multiple islands today. You will stay on this island for the entire game. This game will last ~30 minutes.</p><p><b>[Press the space bar to continue]</b></p></div>","32","","","","","","","","","","","","","","","","","","","","","","","",""
"","explain_probe_1","10","95590","0.0-10.0","""event"",""trial"",""time""
""fullscreenenter"",""0"",""2435""
","
","
","""event"",""trial"",""time""
""fullscreenenter"",""0"",""2435""
","
","null","run_exp/static/audio/clip_33_recognition_1.m4a","null","","","","","<div class='center'><p> Sometimes you’ll be shown a ship, and you will be asked if you saw this ship on a past island.</p><p> Here is an example of what you will see.</p><p><img src='run_exp/static/images/tutorial/example_recog_trial.png' height='500'></p></div>","","","","","","","","","","","","","","","","","","",""
"","html-keyboard-response","11","97953","0.0-11.0","""event"",""trial"",""time""
""fullscreenenter"",""0"",""2435""
","
","
","""event"",""trial"",""time""
""fullscreenenter"",""0"",""2435""
","
","2362.2000000476837","<div class='center'><p> Sometimes you’ll be shown a ship, and you will be asked if you saw this ship on a past island.</p><p> Here is an example of what you will see.</p><p><img src='run_exp/static/images/tutorial/example_recog_trial.png' height='500'></p><p><b>[Press the space bar to continue]</b></p></div>","32","","","","","","","","","","","","","","","","","","","","","","","",""
"","explain_probe_2","12","119872","0.0-12.0","""event"",""trial"",""time""
""fullscreenenter"",""0"",""2435""
","
","
","""event"",""trial"",""time""
""fullscreenenter"",""0"",""2435""
","
","null","run_exp/static/audio/clip_34_recognition_2.m4a","null","","","","","<div class='center'><p> You will press the 5, 6, 7, 8 keys on your keyboard to respond.</p><p>If you are sure you saw the ship, press <b>5</b> on your keyboard.</p><p> If you think you saw it before but aren't sure, then press <b>6</b>.</p><p> If you think you have <b>not</b> seen it before but aren't sure, then press <b>7</b>.</p><p> If you are sure you did <b>not</b> see the ship before, then press <b>8</b>.</p><p><img src='run_exp/static/images/tutorial/example_recog_trial.png' height='500'></p></div>","","","","","","","","","","","","","","","","","","",""
"","html-keyboard-response","13","121197","0.0-13.0","""event"",""trial"",""time""
""fullscreenenter"",""0"",""2435""
","
","
","""event"",""trial"",""time""
""fullscreenenter"",""0"",""2435""
","
","1324.2000000476837","<div class='center'><p> You will press the 5, 6, 7, 8 keys on your keyboard to respond.</p><p>If you are sure you saw the ship, press <b>5</b> on your keyboard.</p><p> If you think you saw it before but aren't sure, then press <b>6</b>.</p><p> If you think you have <b>not</b> seen it before but aren't sure, then press <b>7</b>.</p><p> If you are sure you did <b>not</b> see the ship before, then press <b>8</b>.</p><p><img src='run_exp/static/images/tutorial/example_recog_trial.png' height='500'></p><p><b>[Press the space bar to continue]</b></p></div>","32","","","","","","","","","","","","","","","","","","","","","","","",""
"","explain_outcome","14","138630","0.0-14.0","""event"",""trial"",""time""
""fullscreenenter"",""0"",""2435""
","
","
","""event"",""trial"",""time""
""fullscreenenter"",""0"",""2435""
","
","null","run_exp/static/audio/clip_35_recognition_3.m4a","null","","","","","<div class='center'><p> If you remember correctly, then you’ll get a gold coin like this: </p><p><img src='run_exp/static/images/tutorial/reward_small.png' height='200'></p><p>If you do not remember correctly, then you'll see a red x like this: </p><p><img src='run_exp/static/images/tutorial/reward_no.png' height='200'></p><p>Importantly, when you are shown a ship, take the time to remind yourself which island you saw it on. This will help you in the next part of the study.</p></div>","","","","","","","","","","","","","","","","","","",""
"","html-keyboard-response","15","139690","0.0-15.0","""event"",""trial"",""time""
""fullscreenenter"",""0"",""2435""
","
","
","""event"",""trial"",""time""
""fullscreenenter"",""0"",""2435""
","
","1057.7999999523163","<div class='center'><p> If you remember correctly, then you’ll get a gold coin like this: </p><p><img src='run_exp/static/images/tutorial/reward_small.png' height='200'></p><p>If you do not remember correctly, then you'll see a red x like this: </p><p><img src='run_exp/static/images/tutorial/reward_no.png' height='200'></p><p>Importantly, when you are shown a ship, take the time to remind yourself which island you saw it on. This will help you in the next part of the study.</p><p><b>[Press the space bar to continue]</b></p></div>","32","","","","","","","","","","","","","","","","","","","","","","","",""
"","begin_test_phase","16","155710","0.0-16.0","""event"",""trial"",""time""
""fullscreenenter"",""0"",""2435""
","
","
","""event"",""trial"",""time""
""fullscreenenter"",""0"",""2435""
","
","null","run_exp/static/audio/clip_36_begin_final.m4a","null","","","","","<div class='center'><p>Let's go over the important points again. Your job is to: </p><p>1. Pick the pirate who is best at robbing ships and will bring you back gold coins. </p><p>2. Correctly remember whether or not you saw a ship before. If you did see the ship before, remind yourself on which island you saw it. </p></div>","","","","","","","","","","","","","","","","","","",""
"","html-keyboard-response","17","157098","0.0-17.0","""event"",""trial"",""time""
""fullscreenenter"",""0"",""2435""
","
","
","""event"",""trial"",""time""
""fullscreenenter"",""0"",""2435""
","
","1358.9000000953674","<div class='center'><p>Let's go over the important points again. Your job is to: </p><p>1. Pick the pirate who is best at robbing ships and will bring you back gold coins. </p><p>2. Correctly remember whether or not you saw a ship before. If you did see the ship before, remind yourself on which island you saw it. </p><p><b>[Press the space bar to continue]</b></p></div>","32","","","","","","","","","","","","","","","","","","","","","","","",""
"","do_welcome","18","161127","0.0-18.0","""event"",""trial"",""time""
""fullscreenenter"",""0"",""2435""
","
","
","""event"",""trial"",""time""
""fullscreenenter"",""0"",""2435""
","
","null","","","","","","","","null","","","","","","","","","","","","","","","","","",""
"","do_trial","19","167161","0.0-19.0-0.0","""event"",""trial"",""time""
""fullscreenenter"",""0"",""2435""
","
","
","""event"",""trial"",""time""
""fullscreenenter"",""0"",""2435""
","
","null","","","","","","","","null","0,0,1","6","blank","230","null","0.2049946292793824","0.5527716638058716","0.3368864023029608","","","","","","","","","",""
"","html-keyboard-response","20","168175","0.0-19.0-1.0","""event"",""trial"",""time""
""fullscreenenter"",""0"",""2435""
","
","
","""event"",""trial"",""time""
""fullscreenenter"",""0"",""2435""
","
","null","<p></p>","null","","","","","","","","","","","","","","","","","","","","","","","",""
"","do_trial","21","171109","0.0-20.0-0.0","""event"",""trial"",""time""
""fullscreenenter"",""0"",""2435""
","
","
","""event"",""trial"",""time""
""fullscreenenter"",""0"",""2435""
","
","398.2999999523163","","","","","","","","49","0,0,0","6","blank","231","null","0.23333182743416228","0.5642872766152295","0.32812650796481474","0","","","","","","","","",""
"","html-keyboard-response","22","172122","0.0-20.0-1.0","""event"",""trial"",""time""
""fullscreenenter"",""0"",""2435""
","
","
","""event"",""trial"",""time""
""fullscreenenter"",""0"",""2435""
","
","null","<p></p>","null","","","","","","","","","","","","","","","","","","","","","","","",""
"","do_trial","23","174947","0.0-21.0-0.0","""event"",""trial"",""time""
""fullscreenenter"",""0"",""2435""
","
","
","""event"",""trial"",""time""
""fullscreenenter"",""0"",""2435""
","
","292.5","","","","","","","","50","0,1,1","6","blank","232","null","0.34638113684850014","0.5464435771186752","0.22930200066232498","1","","","","","","","","",""
"","html-keyboard-response","24","175952","0.0-21.0-1.0","""event"",""trial"",""time""
""fullscreenenter"",""0"",""2435""
","
","
","""event"",""trial"",""time""
""fullscreenenter"",""0"",""2435""
","
","null","<p></p>","null","","","","","","","","","","","","","","","","","","","","","","","",""
"","do_trial","25","178955","0.0-22.0-0.0","""event"",""trial"",""time""
""fullscreenenter"",""0"",""2435""
","
","
","""event"",""trial"",""time""
""fullscreenenter"",""0"",""2435""
","
","453.10000014305115","","","","","","","","50","0,0,0","6","blank","233","null","0.15760773792743998","0.6156254773466754","0.11287991580024366","0","","","","","","","","",""
"","html-keyboard-response","26","179963","0.0-22.0-1.0","""event"",""trial"",""time""
""fullscreenenter"",""0"",""2435""
","
","
","""event"",""trial"",""time""
""fullscreenenter"",""0"",""2435""
","
","null","<p></p>","null","","","","","","","","","","","","","","","","","","","","","","","",""
"","do_trial","27","182680","0.0-23.0-0.0","""event"",""trial"",""time""
""fullscreenenter"",""0"",""2435""
","
","
","""event"",""trial"",""time""
""fullscreenenter"",""0"",""2435""
","
","183.5","","","","","","","","51","0,0,1","6","blank","234","null","0.14499667198220947","0.7062881692874868","0.2158766473863221","1","","","","","","","","",""
"","html-keyboard-response","28","183689","0.0-23.0-1.0","""event"",""trial"",""time""
""fullscreenenter"",""0"",""2435""
","
","
","""event"",""trial"",""time""
""fullscreenenter"",""0"",""2435""
","
","null","<p></p>","null","","","","","","","","","","","","","","","","","","","","","","","",""
"","do_trial","29","186472","0.0-24.0-0.0","""event"",""trial"",""time""
""fullscreenenter"",""0"",""2435""
","
","
","""event"",""trial"",""time""
""fullscreenenter"",""0"",""2435""
","
","244.90000009536743","","","","","","","","51","0,0,0","6","blank","235","null","0.10211156758214766","0.7180707600508744","0.2794662509528326","0","","","","","","","","",""
"","html-keyboard-response","30","187482","0.0-24.0-1.0","""event"",""trial"",""time""
""fullscreenenter"",""0"",""2435""
","
","
","""event"",""trial"",""time""
""fullscreenenter"",""0"",""2435""
","
","null","<p></p>","null","","","","","","","","","","","","","","","","","","","","","","","",""
"","do_trial","31","190270","0.0-25.0-0.0","""event"",""trial"",""time""
""fullscreenenter"",""0"",""2435""
","
","
","""event"",""trial"",""time""
""fullscreenenter"",""0"",""2435""
","
","258.40000009536743","","","","","","","","51","0,1,0","6","blank","236","null","0.10394595785024063","0.5623866903133714","0.331843138082805","0","","","","","","","","",""
"","html-keyboard-response","32","191276","0.0-25.0-1.0","""event"",""trial"",""time""
""fullscreenenter"",""0"",""2435""
","
","
","""event"",""trial"",""time""
""fullscreenenter"",""0"",""2435""
","
","null","<p></p>","null","","","","","","","","","","","","","","","","","","","","","","","",""
"","do_trial","33","194019","0.0-26.0-0.0","""event"",""trial"",""time""
""fullscreenenter"",""0"",""2435""
","
","
","""event"",""trial"",""time""
""fullscreenenter"",""0"",""2435""
","
","212.19999980926514","","","","","","","","50","0,1,0","6","blank","237","null","0.13915490326703184","0.61366837074109","0.2946538160865304","1","","","","","","","","",""
"","html-keyboard-response","34","195032","0.0-26.0-1.0","""event"",""trial"",""time""
""fullscreenenter"",""0"",""2435""
","
","
","""event"",""trial"",""time""
""fullscreenenter"",""0"",""2435""
","
","null","<p></p>","null","","","","","","","","","","","","","","","","","","","","","","","",""
"","do_trial","35","197795","0.0-27.0-0.0","""event"",""trial"",""time""
""fullscreenenter"",""0"",""2435""
","
","
","""event"",""trial"",""time""
""fullscreenenter"",""0"",""2435""
","
","221.80000019073486","","","","","","","","50","0,0,0","6","blank","238","null","0.14512302103663896","0.6204051552491354","0.222159279297788","0","","","","","","","","",""
"","html-keyboard-response","36","198802","0.0-27.0-1.0","""event"",""trial"",""time""
""fullscreenenter"",""0"",""2435""
","
","
","""event"",""trial"",""time""
""fullscreenenter"",""0"",""2435""
","
","null","<p></p>","null","","","","","","","","","","","","","","","","","","","","","","","",""
"","do_trial","37","201539","0.0-28.0-0.0","""event"",""trial"",""time""
""fullscreenenter"",""0"",""2435""
","
","
","""event"",""trial"",""time""
""fullscreenenter"",""0"",""2435""
","
","192.79999995231628","","","","","","","","50","0,0,0","6","blank","239","null","0.11070961138414089","0.515727361231639","0.33203468963979604","0","","","","","","","","",""
"","html-keyboard-response","38","202552","0.0-28.0-1.0","""event"",""trial"",""time""
""fullscreenenter"",""0"",""2435""
","
","
","""event"",""trial"",""time""
""fullscreenenter"",""0"",""2435""
","
","null","<p></p>","null","","","","","","","","","","","","","","","","","","","","","","","",""
"","do_trial","39","205138","0.0-29.0-0.0","""event"",""trial"",""time""
""fullscreenenter"",""0"",""2435""
","
","
","""event"",""trial"",""time""
""fullscreenenter"",""0"",""2435""
","
","43.60000014305115","","","","","","","","50","0,1,1","6","blank","240","null","0.10067385884953697","0.5478970593272926","0.2926580525280371","1","","","","","","","","",""
"","html-keyboard-response","40","206143","0.0-29.0-1.0","""event"",""trial"",""time""
""fullscreenenter"",""0"",""2435""
","
","
","""event"",""trial"",""time""
""fullscreenenter"",""0"",""2435""
","
","null","<p></p>","null","","","","","","","","","","","","","","","","","","","","","","","",""
"","do_trial","41","208827","0.0-30.0-0.0","""event"",""trial"",""time""
""fullscreenenter"",""0"",""2435""
","
","
","""event"",""trial"",""time""
""fullscreenenter"",""0"",""2435""
","
","153.80000019073486","","","","","","","","50","0,1,1","6","blank","241","null","0.08883019833303595","0.6570724456004788","0.39325015658269913","1","","","","","","","","",""
"","html-keyboard-response","42","209835","0.0-30.0-1.0","""event"",""trial"",""time""
""fullscreenenter"",""0"",""2435""
","
","
","""event"",""trial"",""time""
""fullscreenenter"",""0"",""2435""
","
","null","<p></p>","null","","","","","","","","","","","","","","","","","","","","","","","",""
"","do_trial","43","212740","0.0-31.0-0.0","""event"",""trial"",""time""
""fullscreenenter"",""0"",""2435""
","
","
","""event"",""trial"",""time""
""fullscreenenter"",""0"",""2435""
","
","365.5","","","","","","","","50","1,0,0","6","blank","242","null","0.5011002401550333","0.5542621436870984","0.19646428468800115","0","","","","","","","","",""
"","html-keyboard-response","44","213748","0.0-31.0-1.0","""event"",""trial"",""time""
""fullscreenenter"",""0"",""2435""
","
","
","""event"",""trial"",""time""
""fullscreenenter"",""0"",""2435""
","
","null","<p></p>","null","","","","","","","","","","","","","","","","","","","","","","","",""
"","do_trial","45","216497","0.0-32.0-0.0","""event"",""trial"",""time""
""fullscreenenter"",""0"",""2435""
","
","
","""event"",""trial"",""time""
""fullscreenenter"",""0"",""2435""
","
","209.70000004768372","","","","","","","","50","0,1,0","6","blank","243","null","0.6279735313343889","0.5491715050715252","0.17330110489805287","1","","","","","","","","",""
"","html-keyboard-response","46","217510","0.0-32.0-1.0","""event"",""trial"",""time""
""fullscreenenter"",""0"",""2435""
","
","
","""event"",""trial"",""time""
""fullscreenenter"",""0"",""2435""
","
","null","<p></p>","null","","","","","","","","","","","","","","","","","","","","","","","",""
"","do_trial","47","220265","0.0-33.0-0.0","""event"",""trial"",""time""
""fullscreenenter"",""0"",""2435""
","
","
","""event"",""trial"",""time""
""fullscreenenter"",""0"",""2435""
","
","214.30000019073486","","","","","","","","50","1,1,0","6","blank","244","null","0.7641162161503714","0.5210478394790925","0.05312344714710257","1","","","","","","","","",""
"","html-keyboard-response","48","221281","0.0-33.0-1.0","""event"",""trial"",""time""
""fullscreenenter"",""0"",""2435""
","
","
","""event"",""trial"",""time""
""fullscreenenter"",""0"",""2435""
","
","null","<p></p>","null","","","","","","","","","","","","","","","","","","","","","","","",""
"","do_trial","49","224039","0.0-34.0-0.0","""event"",""trial"",""time""
""fullscreenenter"",""0"",""2435""
","
","
","""event"",""trial"",""time""
""fullscreenenter"",""0"",""2435""
","
","228","","","","","","","","50","0,0,0","6","blank","245","null","0.566730406634421","0.4585833242343901","0.1882164337365035","0","","","","","","","","",""
"","html-keyboard-response","50","225055","0.0-34.0-1.0","""event"",""trial"",""time""
""fullscreenenter"",""0"",""2435""
","
","
","""event"",""trial"",""time""
""fullscreenenter"",""0"",""2435""
","
","null","<p></p>","null","","","","","","","","","","","","","","","","","","","","","","","",""
"","do_recog","51","231075","0.0-35.0-0.0","""event"",""trial"",""time""
""fullscreenenter"",""0"",""2435""
","
","
","""event"",""trial"",""time""
""fullscreenenter"",""0"",""2435""
","
","null","","","","","","","","null","","","","246","probe-204","","","","","1","[object Object]","159","3","0","","","",""
"","html-keyboard-response","52","232081","0.0-35.0-1.0","""event"",""trial"",""time""
""fullscreenenter"",""0"",""2435""
","
","
","""event"",""trial"",""time""
""fullscreenenter"",""0"",""2435""
","
","null","<p></p>","null","","","","","","","","","","","","","","","","","","","","","","","",""
"","do_trial","53","235176","0.0-36.0-0.0","""event"",""trial"",""time""
""fullscreenenter"",""0"",""2435""
","
","
","""event"",""trial"",""time""
""fullscreenenter"",""0"",""2435""
","
","552.5","","","","","","","","50","0,1,0","6","blank","247","null","0.5109196055689524","0.345774716669029","0.1727824183395697","1","","","","","","","","",""
"","html-keyboard-response","54","236184","0.0-36.0-1.0","""event"",""trial"",""time""
""fullscreenenter"",""0"",""2435""
","
","
","""event"",""trial"",""time""
""fullscreenenter"",""0"",""2435""
","
","null","<p></p>","null","","","","","","","","","","","","","","","","","","","","","","","",""
"","do_recog","55","239686","0.0-37.0-0.0","""event"",""trial"",""time""
""fullscreenenter"",""0"",""2435""
","
","
","""event"",""trial"",""time""
""fullscreenenter"",""0"",""2435""
","
","1983.5","","","","","","","","53","","","","248","probe-34","","","","","1","[object Object]","114","2","1","","","",""
"","html-keyboard-response","56","240693","0.0-37.0-1.0","""event"",""trial"",""time""
""fullscreenenter"",""0"",""2435""
","
","
","""event"",""trial"",""time""
""fullscreenenter"",""0"",""2435""
","
","null","<p></p>","null","","","","","","","","","","","","","","","","","","","","","","","",""
"","do_trial","57","244031","0.0-38.0-0.0","""event"",""trial"",""time""
""fullscreenenter"",""0"",""2435""
","
","
","""event"",""trial"",""time""
""fullscreenenter"",""0"",""2435""
","
","796.7000000476837","","","","","","","","50","0,0,0","6","blank","249","null","0.42083538026949663","0.35365830350224714","0.13618494214497628","0","","","","","","","","",""
"","html-keyboard-response","58","245047","0.0-38.0-1.0","""event"",""trial"",""time""
""fullscreenenter"",""0"",""2435""
","
","
","""event"",""trial"",""time""
""fullscreenenter"",""0"",""2435""
","
","null","<p></p>","null","","","","","","","","","","","","","","","","","","","","","","","",""
"","do_trial","59","248174","0.0-39.0-0.0","""event"",""trial"",""time""
""fullscreenenter"",""0"",""2435""
","
","
","""event"",""trial"",""time""
""fullscreenenter"",""0"",""2435""
","
","597.7000000476837","","","","","","","","49","1,1,0","6","blank","250","null","0.4224692460416072","0.2917551821653284","0.21318751800498767","1","","","","","","","","",""
"","html-keyboard-response","60","249184","0.0-39.0-1.0","""event"",""trial"",""time""
""fullscreenenter"",""0"",""2435""
","
","
","""event"",""trial"",""time""
""fullscreenenter"",""0"",""2435""
","
","null","<p></p>","null","","","","","","","","","","","","","","","","","","","","","","","",""
"","do_trial","61","251934","0.0-40.0-0.0","""event"",""trial"",""time""
""fullscreenenter"",""0"",""2435""
","
","
","""event"",""trial"",""time""
""fullscreenenter"",""0"",""2435""
","
","212.70000004768372","","","","","","","","49","0,0,0","6","blank","251","null","0.4345177812523457","0.3018314778297817","0.14162023028647444","0","","","","","","","","",""
"","html-keyboard-response","62","252942","0.0-40.0-1.0","""event"",""trial"",""time""
""fullscreenenter"",""0"",""2435""
","
","
","""event"",""trial"",""time""
""fullscreenenter"",""0"",""2435""
","
","null","<p></p>","null","","","","","","","","","","","","","","","","","","","","","","","",""
"","do_recog","63","256500","0.0-41.0-0.0","""event"",""trial"",""time""
""fullscreenenter"",""0"",""2435""
","
","
","""event"",""trial"",""time""
""fullscreenenter"",""0"",""2435""
","
","2042.7000000476837","","","","","","","","55","","","","252","probe-27","","","","","1","[object Object]","158","3","0","","","",""
"","html-keyboard-response","64","257505","0.0-41.0-1.0","""event"",""trial"",""time""
""fullscreenenter"",""0"",""2435""
","
","
","""event"",""trial"",""time""
""fullscreenenter"",""0"",""2435""
","
","null","<p></p>","null","","","","","","","","","","","","","","","","","","","","","","","",""
"","do_trial","65","260656","0.0-42.0-0.0","""event"",""trial"",""time""
""fullscreenenter"",""0"",""2435""
","
","
","""event"",""trial"",""time""
""fullscreenenter"",""0"",""2435""
","
","609.4000000953674","","","","","","","","50","1,0,0","6","blank","253","null","0.5237202965138947","0.424793420484711","0.09987480156348365","0","","","","","","","","",""
"","html-keyboard-response","66","261660","0.0-42.0-1.0","""event"",""trial"",""time""
""fullscreenenter"",""0"",""2435""
","
","
","""event"",""trial"",""time""
""fullscreenenter"",""0"",""2435""
","
","null","<p></p>","null","","","","","","","","","","","","","","","","","","","","","","","",""
"","do_trial","67","264606","0.0-43.0-0.0","""event"",""trial"",""time""
""fullscreenenter"",""0"",""2435""
","
","
","""event"",""trial"",""time""
""fullscreenenter"",""0"",""2435""
","
","400","","","","","","","","51","0,1,0","6","blank","254","null","0.6813403740357645","0.3750952636356507","0.07526482559629881","0","","","","","","","","",""
"","html-keyboard-response","68","265619","0.0-43.0-1.0","""event"",""trial"",""time""
""fullscreenenter"",""0"",""2435""
","
","
","""event"",""trial"",""time""
""fullscreenenter"",""0"",""2435""
","
","null","<p></p>","null","","","","","","","","","","","","","","","","","","","","","","","",""
"","do_trial","69","268381","0.0-44.0-0.0","""event"",""trial"",""time""
""fullscreenenter"",""0"",""2435""
","
","
","""event"",""trial"",""time""
""fullscreenenter"",""0"",""2435""
","
","211","","","","","","","","50","0,0,0","6","blank","255","null","0.5712631826517284","0.4758317498234751","0.2662229174892192","0","","","","","","","","",""
"","html-keyboard-response","70","269391","0.0-44.0-1.0","""event"",""trial"",""time""
""fullscreenenter"",""0"",""2435""
","
","
","""event"",""trial"",""time""
""fullscreenenter"",""0"",""2435""
","
","null","<p></p>","null","","","","","","","","","","","","","","","","","","","","","","","",""
"","do_recog","71","272849","0.0-45.0-0.0","""event"",""trial"",""time""
""fullscreenenter"",""0"",""2435""
","
","
","""event"",""trial"",""time""
""fullscreenenter"",""0"",""2435""
","
","1938.2000000476837","","","","","","","","54","","","","256","probe-88","","","","","1","[object Object]","35","0","1","","","",""
"","html-keyboard-response","72","273858","0.0-45.0-1.0","""event"",""trial"",""time""
""fullscreenenter"",""0"",""2435""
","
","
","""event"",""trial"",""time""
""fullscreenenter"",""0"",""2435""
","
","null","<p></p>","null","","","","","","","","","","","","","","","","","","","","","","","",""
"","do_trial","73","276806","0.0-46.0-0.0","""event"",""trial"",""time""
""fullscreenenter"",""0"",""2435""
","
","
","""event"",""trial"",""time""
""fullscreenenter"",""0"",""2435""
","
","405.5","","","","","","","","50","0,0,1","6","blank","257","null","0.5772352278630171","0.4396614753860378","0.19084352380228506","0","","","","","","","","",""
"","html-keyboard-response","74","277817","0.0-46.0-1.0","""event"",""trial"",""time""
""fullscreenenter"",""0"",""2435""
","
","
","""event"",""trial"",""time""
""fullscreenenter"",""0"",""2435""
","
","null","<p></p>","null","","","","","","","","","","","","","","","","","","","","","","","",""
"","do_trial","75","280602","0.0-47.0-0.0","""event"",""trial"",""time""
""fullscreenenter"",""0"",""2435""
","
","
","""event"",""trial"",""time""
""fullscreenenter"",""0"",""2435""
","
","250.89999985694885","","","","","","","","49","0,1,0","6","blank","258","null","0.628197529043605","0.33061721432365815","0.10369049168159673","0","","","","","","","","",""
"","html-keyboard-response","76","281610","0.0-47.0-1.0","""event"",""trial"",""time""
""fullscreenenter"",""0"",""2435""
","
","
","""event"",""trial"",""time""
""fullscreenenter"",""0"",""2435""
","
","null","<p></p>","null","","","","","","","","","","","","","","","","","","","","","","","",""
"","do_trial","77","284412","0.0-48.0-0.0","""event"",""trial"",""time""
""fullscreenenter"",""0"",""2435""
","
","
","""event"",""trial"",""time""
""fullscreenenter"",""0"",""2435""
","
","268.5","","","","","","","","50","0,0,0","6","blank","259","null","0.6820315849308843","0.2484127570348063","0.07313006612446799","0","","","","","","","","",""
"","html-keyboard-response","78","285423","0.0-48.0-1.0","""event"",""trial"",""time""
""fullscreenenter"",""0"",""2435""
","
","
","""event"",""trial"",""time""
""fullscreenenter"",""0"",""2435""
","
","null","<p></p>","null","","","","","","","","","","","","","","","","","","","","","","","",""
"","do_trial","79","288238","0.0-49.0-0.0","""event"",""trial"",""time""
""fullscreenenter"",""0"",""2435""
","
","
","""event"",""trial"",""time""
""fullscreenenter"",""0"",""2435""
","
","275.2000000476837","","","","","","","","51","1,0,1","6","blank","260","null","0.6788094590058839","0.29684004672755004","0.12608226130966751","1","","","","","","","","",""
"","html-keyboard-response","80","289244","0.0-49.0-1.0","""event"",""trial"",""time""
""fullscreenenter"",""0"",""2435""
","
","
","""event"",""trial"",""time""
""fullscreenenter"",""0"",""2435""
","
","null","<p></p>","null","","","","","","","","","","","","","","","","","","","","","","","",""
"","do_trial","81","292088","0.0-50.0-0.0","""event"",""trial"",""time""
""fullscreenenter"",""0"",""2435""
","
","
","""event"",""trial"",""time""
""fullscreenenter"",""0"",""2435""
","
","303.90000009536743","","","","","","","","51","0,1,1","6","blank","261","null","0.6826668525863879","0.3453773174908155","0.06644042231466145","1","","","","","","","","",""
"","html-keyboard-response","82","293095","0.0-50.0-1.0","""event"",""trial"",""time""
""fullscreenenter"",""0"",""2435""
","
","
","""event"",""trial"",""time""
""fullscreenenter"",""0"",""2435""
","
","null","<p></p>","null","","","","","","","","","","","","","","","","","","","","","","","",""
"","do_recog","83","296220","0.0-51.0-0.0","""event"",""trial"",""time""
""fullscreenenter"",""0"",""2435""
","
","
","""event"",""trial"",""time""
""fullscreenenter"",""0"",""2435""
","
","1604.5","","","","","","","","55","","","","262","probe-54","","","","","1","[object Object]","79","1","0","","","",""
"","html-keyboard-response","84","297223","0.0-51.0-1.0","""event"",""trial"",""time""
""fullscreenenter"",""0"",""2435""
","
","
","""event"",""trial"",""time""
""fullscreenenter"",""0"",""2435""
","
","null","<p></p>","null","","","","","","","","","","","","","","","","","","","","","","","",""
"","do_trial","85","300226","0.0-52.0-0.0","""event"",""trial"",""time""
""fullscreenenter"",""0"",""2435""
","
","
","""event"",""trial"",""time""
""fullscreenenter"",""0"",""2435""
","
","464.59999990463257","","","","","","","","51","0,1,0","6","blank","263","null","0.5538906088123953","0.46561863495289446","0.09709593998408401","0","","","","","","","","",""
"","html-keyboard-response","86","301237","0.0-52.0-1.0","""event"",""trial"",""time""
""fullscreenenter"",""0"",""2435""
","
","
","""event"",""trial"",""time""
""fullscreenenter"",""0"",""2435""
","
","null","<p></p>","null","","","","","","","","","","","","","","","","","","","","","","","",""
"","do_trial","87","304220","0.0-53.0-0.0","""event"",""trial"",""time""
""fullscreenenter"",""0"",""2435""
","
","
","""event"",""trial"",""time""
""fullscreenenter"",""0"",""2435""
","
","434.5","","","","","","","","51","1,0,0","6","blank","264","null","0.5489308497722655","0.37365560274309423","0.1117863382799605","0","","","","","","","","",""
"","html-keyboard-response","88","305229","0.0-53.0-1.0","""event"",""trial"",""time""
""fullscreenenter"",""0"",""2435""
","
","
","""event"",""trial"",""time""
""fullscreenenter"",""0"",""2435""
","
","null","<p></p>","null","","","","","","","","","","","","","","","","","","","","","","","",""
"","do_trial","89","308028","0.0-54.0-0.0","""event"",""trial"",""time""
""fullscreenenter"",""0"",""2435""
","
","
","""event"",""trial"",""time""
""fullscreenenter"",""0"",""2435""
","
","249.60000014305115","","","","","","","","49","1,1,0","6","blank","265","null","0.5180025319599464","0.4056229597421397","0.06001717757258992","1","","","","","","","","",""
"","html-keyboard-response","90","309030","0.0-54.0-1.0","""event"",""trial"",""time""
""fullscreenenter"",""0"",""2435""
","
","
","""event"",""trial"",""time""
""fullscreenenter"",""0"",""2435""
","
","null","<p></p>","null","","","","","","","","","","","","","","","","","","","","","","","",""
"","do_recog","91","312200","0.0-55.0-0.0","""event"",""trial"",""time""
""fullscreenenter"",""0"",""2435""
","
","
","""event"",""trial"",""time""
""fullscreenenter"",""0"",""2435""
","
","1654.9000000953674","","","","","","","","55","","","","266","probe-232","","","","","0","[object Object]","null","null","1","","","",""
"","html-keyboard-response","92","313202","0.0-55.0-1.0","""event"",""trial"",""time""
""fullscreenenter"",""0"",""2435""
","
","
","""event"",""trial"",""time""
""fullscreenenter"",""0"",""2435""
","
","null","<p></p>","null","","","","","","","","","","","","","","","","","","","","","","","",""
"","do_trial","93","316221","0.0-56.0-0.0","""event"",""trial"",""time""
""fullscreenenter"",""0"",""2435""
","
","
","""event"",""trial"",""time""
""fullscreenenter"",""0"",""2435""
","
","473.2000000476837","","","","","","","","49","1,0,0","6","blank","267","null","0.42192402359223147","0.2883315453578462","0.05877836908241319","1","","","","","","","","",""
"","html-keyboard-response","94","317227","0.0-56.0-1.0","""event"",""trial"",""time""
""fullscreenenter"",""0"",""2435""
","
","
","""event"",""trial"",""time""
""fullscreenenter"",""0"",""2435""
","
","null","<p></p>","null","","","","","","","","","","","","","","","","","","","","","","","",""
"","do_recog","95","320435","0.0-57.0-0.0","""event"",""trial"",""time""
""fullscreenenter"",""0"",""2435""
","
","
","""event"",""trial"",""time""
""fullscreenenter"",""0"",""2435""
","
","1691.6000001430511","","","","","","","","56","","","","268","probe-31","","","","","1","[object Object]","155","3","0","","","",""
"","html-keyboard-response","96","321443","0.0-57.0-1.0","""event"",""trial"",""time""
""fullscreenenter"",""0"",""2435""
","
","
","""event"",""trial"",""time""
""fullscreenenter"",""0"",""2435""
","
","null","<p></p>","null","","","","","","","","","","","","","","","","","","","","","","","",""
"","break","97","344078","0.0-58.0-0.0","""event"",""trial"",""time""
""fullscreenenter"",""0"",""2435""
","
","
","""event"",""trial"",""time""
""fullscreenenter"",""0"",""2435""
","
","22632.900000095367","<div class='center'><p>Time to take a quick break! You have 2 minutes to rest, but you can move on sooner if you'd like.</p><p> Press the <b>space bar</b> to continue.</p></div>","32","","","","","","","","","","","","","","","","","","","","","","","",""
"","do_trial","98","347914","0.0-58.0-1.0","""event"",""trial"",""time""
""fullscreenenter"",""0"",""2435""
","
","
","""event"",""trial"",""time""
""fullscreenenter"",""0"",""2435""
","
","1292.2000000476837","","","","","","","","49","1,0,0","6","blank","269","null","0.5029325952867566","0.22582159715518102","0.10383674936628796","1","","","","","","","","",""
"","html-keyboard-response","99","348928","0.0-58.0-2.0","""event"",""trial"",""time""
""fullscreenenter"",""0"",""2435""
","
","
","""event"",""trial"",""time""
""fullscreenenter"",""0"",""2435""
","
","null","<p></p>","null","","","","","","","","","","","","","","","","","","","","","","","",""
"","do_trial","100","351748","0.0-59.0-0.0","""event"",""trial"",""time""
""fullscreenenter"",""0"",""2435""
","
","
","""event"",""trial"",""time""
""fullscreenenter"",""0"",""2435""
","
","281.30000019073486","","","","","","","","49","0,1,1","6","blank","270","null","0.44143728580631353","0.42085324446315936","0.07537020164851703","0","","","","","","","","",""
"","html-keyboard-response","101","352765","0.0-59.0-1.0","""event"",""trial"",""time""
""fullscreenenter"",""0"",""2435""
","
","
","""event"",""trial"",""time""
""fullscreenenter"",""0"",""2435""
","
","null","<p></p>","null","","","","","","","","","","","","","","","","","","","","","","","",""
"","do_trial","102","355614","0.0-60.0-0.0","""event"",""trial"",""time""
""fullscreenenter"",""0"",""2435""
","
","
","""event"",""trial"",""time""
""fullscreenenter"",""0"",""2435""
","
","297.39999985694885","","","","","","","","50","1,0,0","6","blank","271","null","0.5075947484269132","0.46855844887819975","0.10615810760917292","0","","","","","","","","",""
"","html-keyboard-response","103","356621","0.0-60.0-1.0","""event"",""trial"",""time""
""fullscreenenter"",""0"",""2435""
","
","
","""event"",""trial"",""time""
""fullscreenenter"",""0"",""2435""
","
","null","<p></p>","null","","","","","","","","","","","","","","","","","","","","","","","",""
"","do_recog","104","360801","0.0-61.0-0.0","""event"",""trial"",""time""
""fullscreenenter"",""0"",""2435""
","
","
","""event"",""trial"",""time""
""fullscreenenter"",""0"",""2435""
","
","2661.2000000476837","","","","","","","","56","","","","272","probe-186","","","","","1","[object Object]","39","0","0","","","",""
"","html-keyboard-response","105","361810","0.0-61.0-1.0","""event"",""trial"",""time""
""fullscreenenter"",""0"",""2435""
","
","
","""event"",""trial"",""time""
""fullscreenenter"",""0"",""2435""
","
","null","<p></p>","null","","","","","","","","","","","","","","","","","","","","","","","",""
"","do_trial","106","365593","0.0-62.0-0.0","""event"",""trial"",""time""
""fullscreenenter"",""0"",""2435""
","
","
","""event"",""trial"",""time""
""fullscreenenter"",""0"",""2435""
","
","1251.1999998092651","","","","","","","","51","1,1,0","6","blank","273","null","0.5498413493569002","0.3496254978675485","0.1363047798301011","0","","","","","","","","",""
"","html-keyboard-response","107","366602","0.0-62.0-1.0","""event"",""trial"",""time""
""fullscreenenter"",""0"",""2435""
","
","
","""event"",""trial"",""time""
""fullscreenenter"",""0"",""2435""
","
","null","<p></p>","null","","","","","","","","","","","","","","","","","","","","","","","",""
"","do_trial","108","369506","0.0-63.0-0.0","""event"",""trial"",""time""
""fullscreenenter"",""0"",""2435""
","
","
","""event"",""trial"",""time""
""fullscreenenter"",""0"",""2435""
","
","365.60000014305115","","","","","","","","49","1,0,1","6","blank","274","null","0.5495747477856995","0.29349017879237804","0.15760992305853302","1","","","","","","","","",""
"","html-keyboard-response","109","370517","0.0-63.0-1.0","""event"",""trial"",""time""
""fullscreenenter"",""0"",""2435""
","
","
","""event"",""trial"",""time""
""fullscreenenter"",""0"",""2435""
","
","null","<p></p>","null","","","","","","","","","","","","","","","","","","","","","","","",""
"","do_trial","110","373440","0.0-64.0-0.0","""event"",""trial"",""time""
""fullscreenenter"",""0"",""2435""
","
","
","""event"",""trial"",""time""
""fullscreenenter"",""0"",""2435""
","
","381.60000014305115","","","","","","","","49","0,0,0","6","blank","275","null","0.5879237046580318","0.2704541974133633","0.06461827672684976","0","","","","","","","","",""
"","html-keyboard-response","111","374443","0.0-64.0-1.0","""event"",""trial"",""time""
""fullscreenenter"",""0"",""2435""
","
","
","""event"",""trial"",""time""
""fullscreenenter"",""0"",""2435""
","
","null","<p></p>","null","","","","","","","","","","","","","","","","","","","","","","","",""
"","do_trial","112","377341","0.0-65.0-0.0","""event"",""trial"",""time""
""fullscreenenter"",""0"",""2435""
","
","
","""event"",""trial"",""time""
""fullscreenenter"",""0"",""2435""
","
","362.10000014305115","","","","","","","","49","1,1,0","6","blank","276","null","0.7357137862112377","0.21676626917374517","0.17601456473335364","1","","","","","","","","",""
"","html-keyboard-response","113","378350","0.0-65.0-1.0","""event"",""trial"",""time""
""fullscreenenter"",""0"",""2435""
","
","
","""event"",""trial"",""time""
""fullscreenenter"",""0"",""2435""
","
","null","<p></p>","null","","","","","","","","","","","","","","","","","","","","","","","",""
"","do_recog","114","381707","0.0-66.0-0.0","""event"",""trial"",""time""
""fullscreenenter"",""0"",""2435""
","
","
","""event"",""trial"",""time""
""fullscreenenter"",""0"",""2435""
","
","1830.8999998569489","","","","","","","","54","","","","277","probe-75","","","","","1","[object Object]","73","1","1","","","",""
"","html-keyboard-response","115","382735","0.0-66.0-1.0","""event"",""trial"",""time""
""fullscreenenter"",""0"",""2435""
""blur"",""116"",""383148""
","""event"",""trial"",""time""
""blur"",""116"",""383148""
","
","""event"",""trial"",""time""
""fullscreenenter"",""0"",""2435""
","
","null","<p></p>","null","","","","","","","","","","","","","","","","","","","","","","","",""
"","do_trial","116","388829","0.0-67.0-0.0","""event"",""trial"",""time""
""fullscreenenter"",""0"",""2435""
""blur"",""116"",""383148""
","""event"",""trial"",""time""
""blur"",""116"",""383148""
","
","""event"",""trial"",""time""
""fullscreenenter"",""0"",""2435""
","
","null","","","","","","","","null","1,0,0","6","blank","278","null","0.6115519479868691","0.22465994663481773","0.13698590022124335","","","","","","","","","",""
"","html-keyboard-response","117","389849","0.0-67.0-1.0","""event"",""trial"",""time""
""fullscreenenter"",""0"",""2435""
""blur"",""116"",""383148""
","""event"",""trial"",""time""
""blur"",""116"",""383148""
","
","""event"",""trial"",""time""
""fullscreenenter"",""0"",""2435""
","
","null","<p></p>","null","","","","","","","","","","","","","","","","","","","","","","","",""
"","do_recog","118","395868","0.0-68.0-0.0","""event"",""trial"",""time""
""fullscreenenter"",""0"",""2435""
""blur"",""116"",""383148""
","""event"",""trial"",""time""
""blur"",""116"",""383148""
","
","""event"",""trial"",""time""
""fullscreenenter"",""0"",""2435""
","
","null","","","","","","","","null","","","","279","probe-230","","","","","1","[object Object]","33","0","0","","","",""
"","html-keyboard-response","119","396885","0.0-68.0-1.0","""event"",""trial"",""time""
""fullscreenenter"",""0"",""2435""
""blur"",""116"",""383148""
""fullscreenexit"",""120"",""402260""
","""event"",""trial"",""time""
""blur"",""116"",""383148""
","
","""event"",""trial"",""time""
""fullscreenenter"",""0"",""2435""
","""event"",""trial"",""time""
""fullscreenexit"",""120"",""402260""
","null","<p></p>","null","","","","","","","","","","","","","","","","","","","","","","","",""
"","do_trial","120","402936","0.0-69.0-0.0","""event"",""trial"",""time""
""fullscreenenter"",""0"",""2435""
""blur"",""116"",""383148""
""fullscreenexit"",""120"",""402260""
","""event"",""trial"",""time""
""blur"",""116"",""383148""
","
","""event"",""trial"",""time""
""fullscreenenter"",""0"",""2435""
","""event"",""trial"",""time""
""fullscreenexit"",""120"",""402260""
","null","","","","","","","","null","1,1,0","6","blank","280","null","0.6434163068109798","0.3227613652688182","0.1402946515409248","","","","","","","","","",""
"","html-keyboard-response","121","403952","0.0-69.0-1.0","""event"",""trial"",""time""
""fullscreenenter"",""0"",""2435""
""blur"",""116"",""383148""
""fullscreenexit"",""120"",""402260""
""focus"",""122"",""409046""
","""event"",""trial"",""time""
""blur"",""116"",""383148""
","""event"",""trial"",""time""
""focus"",""122"",""409046""
","""event"",""trial"",""time""
""fullscreenenter"",""0"",""2435""
","""event"",""trial"",""time""
""fullscreenexit"",""120"",""402260""
","null","<p></p>","null","","","","","","","","","","","","","","","","","","","","","","","",""
"","do_recog","122","409973","0.0-70.0-0.0","""event"",""trial"",""time""
""fullscreenenter"",""0"",""2435""
""blur"",""116"",""383148""
""fullscreenexit"",""120"",""402260""
""focus"",""122"",""409046""
","""event"",""trial"",""time""
""blur"",""116"",""383148""
","""event"",""trial"",""time""
""focus"",""122"",""409046""
","""event"",""trial"",""time""
""fullscreenenter"",""0"",""2435""
","""event"",""trial"",""time""
""fullscreenexit"",""120"",""402260""
","null","","","","","","","","null","","","","281","probe-248","","","","","0","[object Object]","null","null","0","","","",""
"","html-keyboard-response","123","410975","0.0-70.0-1.0","""event"",""trial"",""time""
""fullscreenenter"",""0"",""2435""
""blur"",""116"",""383148""
""fullscreenexit"",""120"",""402260""
""focus"",""122"",""409046""
","""event"",""trial"",""time""
""blur"",""116"",""383148""
","""event"",""trial"",""time""
""focus"",""122"",""409046""
","""event"",""trial"",""time""
""fullscreenenter"",""0"",""2435""
","""event"",""trial"",""time""
""fullscreenexit"",""120"",""402260""
","null","<p></p>","null","","","","","","","","","","","","","","","","","","","","","","","",""
"","do_trial","124","417026","0.0-71.0-0.0","""event"",""trial"",""time""
""fullscreenenter"",""0"",""2435""
""blur"",""116"",""383148""
""fullscreenexit"",""120"",""402260""
""focus"",""122"",""409046""
","""event"",""trial"",""time""
""blur"",""116"",""383148""
","""event"",""trial"",""time""
""focus"",""122"",""409046""
","""event"",""trial"",""time""
""fullscreenenter"",""0"",""2435""
","""event"",""trial"",""time""
""fullscreenexit"",""120"",""402260""
","null","","","","","","","","null","1,0,0","6","blank","282","null","0.6376566205762356","0.21202967204597387","0.13509578942523223","","","","","","","","","",""
"","html-keyboard-response","125","418031","0.0-71.0-1.0","""event"",""trial"",""time""
""fullscreenenter"",""0"",""2435""
""blur"",""116"",""383148""
""fullscreenexit"",""120"",""402260""
""focus"",""122"",""409046""
","""event"",""trial"",""time""
""blur"",""116"",""383148""
","""event"",""trial"",""time""
""focus"",""122"",""409046""
","""event"",""trial"",""time""
""fullscreenenter"",""0"",""2435""
","""event"",""trial"",""time""
""fullscreenexit"",""120"",""402260""
","null","<p></p>","null","","","","","","","","","","","","","","","","","","","","","","","",""
"","do_trial","126","421824","0.0-72.0-0.0","""event"",""trial"",""time""
""fullscreenenter"",""0"",""2435""
""blur"",""116"",""383148""
""fullscreenexit"",""120"",""402260""
""focus"",""122"",""409046""
","""event"",""trial"",""time""
""blur"",""116"",""383148""
","""event"",""trial"",""time""
""focus"",""122"",""409046""
","""event"",""trial"",""time""
""fullscreenenter"",""0"",""2435""
","""event"",""trial"",""time""
""fullscreenexit"",""120"",""402260""
","1264.6999998092651","","","","","","","","50","0,1,0","6","blank","283","null","0.6431652143576756","0.3913234138525175","0.0517891483800052","1","","","","","","","","",""
"","html-keyboard-response","127","422827","0.0-72.0-1.0","""event"",""trial"",""time""
""fullscreenenter"",""0"",""2435""
""blur"",""116"",""383148""
""fullscreenexit"",""120"",""402260""
""focus"",""122"",""409046""
","""event"",""trial"",""time""
""blur"",""116"",""383148""
","""event"",""trial"",""time""
""focus"",""122"",""409046""
","""event"",""trial"",""time""
""fullscreenenter"",""0"",""2435""
","""event"",""trial"",""time""
""fullscreenexit"",""120"",""402260""
","null","<p></p>","null","","","","","","","","","","","","","","","","","","","","","","","",""
"","do_trial","128","426333","0.0-73.0-0.0","""event"",""trial"",""time""
""fullscreenenter"",""0"",""2435""
""blur"",""116"",""383148""
""fullscreenexit"",""120"",""402260""
""focus"",""122"",""409046""
","""event"",""trial"",""time""
""blur"",""116"",""383148""
","""event"",""trial"",""time""
""focus"",""122"",""409046""
","""event"",""trial"",""time""
""fullscreenenter"",""0"",""2435""
","""event"",""trial"",""time""
""fullscreenexit"",""120"",""402260""
","970.4000000953674","","","","","","","","50","0,1,0","6","blank","284","null","0.626779110247134","0.20948802528300298","0.09269535959646447","1","","","","","","","","",""
"","html-keyboard-response","129","427340","0.0-73.0-1.0","""event"",""trial"",""time""
""fullscreenenter"",""0"",""2435""
""blur"",""116"",""383148""
""fullscreenexit"",""120"",""402260""
""focus"",""122"",""409046""
","""event"",""trial"",""time""
""blur"",""116"",""383148""
","""event"",""trial"",""time""
""focus"",""122"",""409046""
","""event"",""trial"",""time""
""fullscreenenter"",""0"",""2435""
","""event"",""trial"",""time""
""fullscreenexit"",""120"",""402260""
","null","<p></p>","null","","","","","","","","","","","","","","","","","","","","","","","",""
"","do_trial","130","430181","0.0-74.0-0.0","""event"",""trial"",""time""
""fullscreenenter"",""0"",""2435""
""blur"",""116"",""383148""
""fullscreenexit"",""120"",""402260""
""focus"",""122"",""409046""
","""event"",""trial"",""time""
""blur"",""116"",""383148""
","""event"",""trial"",""time""
""focus"",""122"",""409046""
","""event"",""trial"",""time""
""fullscreenenter"",""0"",""2435""
","""event"",""trial"",""time""
""fullscreenexit"",""120"",""402260""
","314.7999999523163","","","","","","","","50","1,0,0","6","blank","285","null","0.48510416350602287","0.24354363886780825","0.07580333232276443","0","","","","","","","","",""
"","html-keyboard-response","131","431184","0.0-74.0-1.0","""event"",""trial"",""time""
""fullscreenenter"",""0"",""2435""
""blur"",""116"",""383148""
""fullscreenexit"",""120"",""402260""
""focus"",""122"",""409046""
","""event"",""trial"",""time""
""blur"",""116"",""383148""
","""event"",""trial"",""time""
""focus"",""122"",""409046""
","""event"",""trial"",""time""
""fullscreenenter"",""0"",""2435""
","""event"",""trial"",""time""
""fullscreenexit"",""120"",""402260""
","null","<p></p>","null","","","","","","","","","","","","","","","","","","","","","","","",""
"","do_trial","132","434010","0.0-75.0-0.0","""event"",""trial"",""time""
""fullscreenenter"",""0"",""2435""
""blur"",""116"",""383148""
""fullscreenexit"",""120"",""402260""
""focus"",""122"",""409046""
","""event"",""trial"",""time""
""blur"",""116"",""383148""
","""event"",""trial"",""time""
""focus"",""122"",""409046""
","""event"",""trial"",""time""
""fullscreenenter"",""0"",""2435""
","""event"",""trial"",""time""
""fullscreenexit"",""120"",""402260""
","299.2999999523163","","","","","","","","50","1,0,0","6","blank","286","null","0.5558056756241254","0.42769184286790063","0.05076856251673788","0","","","","","","","","",""
"","html-keyboard-response","133","435011","0.0-75.0-1.0","""event"",""trial"",""time""
""fullscreenenter"",""0"",""2435""
""blur"",""116"",""383148""
""fullscreenexit"",""120"",""402260""
""focus"",""122"",""409046""
","""event"",""trial"",""time""
""blur"",""116"",""383148""
","""event"",""trial"",""time""
""focus"",""122"",""409046""
","""event"",""trial"",""time""
""fullscreenenter"",""0"",""2435""
","""event"",""trial"",""time""
""fullscreenexit"",""120"",""402260""
","null","<p></p>","null","","","","","","","","","","","","","","","","","","","","","","","",""
"","do_recog","134","438474","0.0-76.0-0.0","""event"",""trial"",""time""
""fullscreenenter"",""0"",""2435""
""blur"",""116"",""383148""
""fullscreenexit"",""120"",""402260""
""focus"",""122"",""409046""
","""event"",""trial"",""time""
""blur"",""116"",""383148""
","""event"",""trial"",""time""
""focus"",""122"",""409046""
","""event"",""trial"",""time""
""fullscreenenter"",""0"",""2435""
","""event"",""trial"",""time""
""fullscreenexit"",""120"",""402260""
","1954.8000001907349","","","","","","","","53","","","","287","probe-201","","","","","1","[object Object]","115","2","1","","","",""
"","html-keyboard-response","135","439477","0.0-76.0-1.0","""event"",""trial"",""time""
""fullscreenenter"",""0"",""2435""
""blur"",""116"",""383148""
""fullscreenexit"",""120"",""402260""
""focus"",""122"",""409046""
","""event"",""trial"",""time""
""blur"",""116"",""383148""
","""event"",""trial"",""time""
""focus"",""122"",""409046""
","""event"",""trial"",""time""
""fullscreenenter"",""0"",""2435""
","""event"",""trial"",""time""
""fullscreenexit"",""120"",""402260""
","null","<p></p>","null","","","","","","","","","","","","","","","","","","","","","","","",""
"","do_trial","136","442776","0.0-77.0-0.0","""event"",""trial"",""time""
""fullscreenenter"",""0"",""2435""
""blur"",""116"",""383148""
""fullscreenexit"",""120"",""402260""
""focus"",""122"",""409046""
","""event"",""trial"",""time""
""blur"",""116"",""383148""
","""event"",""trial"",""time""
""focus"",""122"",""409046""
","""event"",""trial"",""time""
""fullscreenenter"",""0"",""2435""
","""event"",""trial"",""time""
""fullscreenexit"",""120"",""402260""
","756","","","","","","","","50","0,1,0","6","blank","288","null","0.661208363103508","0.47777406720689575","0.06158302200954003","1","","","","","","","","",""
"","html-keyboard-response","137","443782","0.0-77.0-1.0","""event"",""trial"",""time""
""fullscreenenter"",""0"",""2435""
""blur"",""116"",""383148""
""fullscreenexit"",""120"",""402260""
""focus"",""122"",""409046""
","""event"",""trial"",""time""
""blur"",""116"",""383148""
","""event"",""trial"",""time""
""focus"",""122"",""409046""
","""event"",""trial"",""time""
""fullscreenenter"",""0"",""2435""
","""event"",""trial"",""time""
""fullscreenexit"",""120"",""402260""
","null","<p></p>","null","","","","","","","","","","","","","","","","","","","","","","","",""
"","do_trial","138","446621","0.0-78.0-0.0","""event"",""trial"",""time""
""fullscreenenter"",""0"",""2435""
""blur"",""116"",""383148""
""fullscreenexit"",""120"",""402260""
""focus"",""122"",""409046""
","""event"",""trial"",""time""
""blur"",""116"",""383148""
","""event"",""trial"",""time""
""focus"",""122"",""409046""
","""event"",""trial"",""time""
""fullscreenenter"",""0"",""2435""
","""event"",""trial"",""time""
""fullscreenexit"",""120"",""402260""
","307.2000000476837","","","","","","","","50","1,0,0","6","blank","289","null","0.7135712214613575","0.42650446966316174","0.09669201350008344","0","","","","","","","","",""
"","html-keyboard-response","139","447626","0.0-78.0-1.0","""event"",""trial"",""time""
""fullscreenenter"",""0"",""2435""
""blur"",""116"",""383148""
""fullscreenexit"",""120"",""402260""
""focus"",""122"",""409046""
","""event"",""trial"",""time""
""blur"",""116"",""383148""
","""event"",""trial"",""time""
""focus"",""122"",""409046""
","""event"",""trial"",""time""
""fullscreenenter"",""0"",""2435""
","""event"",""trial"",""time""
""fullscreenexit"",""120"",""402260""
","null","<p></p>","null","","","","","","","","","","","","","","","","","","","","","","","",""
"","do_trial","140","450425","0.0-79.0-0.0","""event"",""trial"",""time""
""fullscreenenter"",""0"",""2435""
""blur"",""116"",""383148""
""fullscreenexit"",""120"",""402260""
""focus"",""122"",""409046""
","""event"",""trial"",""time""
""blur"",""116"",""383148""
","""event"",""trial"",""time""
""focus"",""122"",""409046""
","""event"",""trial"",""time""
""fullscreenenter"",""0"",""2435""
","""event"",""trial"",""time""
""fullscreenexit"",""120"",""402260""
","260.40000009536743","","","","","","","","51","0,0,0","6","blank","290","null","0.6170908472665826","0.359313980065063","0.060192590555012145","0","","","","","","","","",""
"","html-keyboard-response","141","451431","0.0-79.0-1.0","""event"",""trial"",""time""
""fullscreenenter"",""0"",""2435""
""blur"",""116"",""383148""
""fullscreenexit"",""120"",""402260""
""focus"",""122"",""409046""
","""event"",""trial"",""time""
""blur"",""116"",""383148""
","""event"",""trial"",""time""
""focus"",""122"",""409046""
","""event"",""trial"",""time""
""fullscreenenter"",""0"",""2435""
","""event"",""trial"",""time""
""fullscreenexit"",""120"",""402260""
","null","<p></p>","null","","","","","","","","","","","","","","","","","","","","","","","",""
"","do_trial","142","454242","0.0-80.0-0.0","""event"",""trial"",""time""
""fullscreenenter"",""0"",""2435""
""blur"",""116"",""383148""
""fullscreenexit"",""120"",""402260""
""focus"",""122"",""409046""
","""event"",""trial"",""time""
""blur"",""116"",""383148""
","""event"",""trial"",""time""
""focus"",""122"",""409046""
","""event"",""trial"",""time""
""fullscreenenter"",""0"",""2435""
","""event"",""trial"",""time""
""fullscreenexit"",""120"",""402260""
","266.7000000476837","","","","","","","","49","1,1,1","6","blank","291","null","0.5350310813419232","0.2714795715322797","0.09737856957122915","1","","","","","","","","",""
"","html-keyboard-response","143","455244","0.0-80.0-1.0","""event"",""trial"",""time""
""fullscreenenter"",""0"",""2435""
""blur"",""116"",""383148""
""fullscreenexit"",""120"",""402260""
""focus"",""122"",""409046""
","""event"",""trial"",""time""
""blur"",""116"",""383148""
","""event"",""trial"",""time""
""focus"",""122"",""409046""
","""event"",""trial"",""time""
""fullscreenenter"",""0"",""2435""
","""event"",""trial"",""time""
""fullscreenexit"",""120"",""402260""
","null","<p></p>","null","","","","","","","","","","","","","","","","","","","","","","","",""
"","do_recog","144","458261","0.0-81.0-0.0","""event"",""trial"",""time""
""fullscreenenter"",""0"",""2435""
""blur"",""116"",""383148""
""fullscreenexit"",""120"",""402260""
""focus"",""122"",""409046""
","""event"",""trial"",""time""
""blur"",""116"",""383148""
","""event"",""trial"",""time""
""focus"",""122"",""409046""
","""event"",""trial"",""time""
""fullscreenenter"",""0"",""2435""
","""event"",""trial"",""time""
""fullscreenexit"",""120"",""402260""
","1513.5999999046326","","","","","","","","56","","","","292","probe-170","","","","","1","[object Object]","197","4","0","","","",""
"","html-keyboard-response","145","459267","0.0-81.0-1.0","""event"",""trial"",""time""
""fullscreenenter"",""0"",""2435""
""blur"",""116"",""383148""
""fullscreenexit"",""120"",""402260""
""focus"",""122"",""409046""
","""event"",""trial"",""time""
""blur"",""116"",""383148""
","""event"",""trial"",""time""
""focus"",""122"",""409046""
","""event"",""trial"",""time""
""fullscreenenter"",""0"",""2435""
","""event"",""trial"",""time""
""fullscreenexit"",""120"",""402260""
","null","<p></p>","null","","","","","","","","","","","","","","","","","","","","","","","",""
"","do_trial","146","462218","0.0-82.0-0.0","""event"",""trial"",""time""
""fullscreenenter"",""0"",""2435""
""blur"",""116"",""383148""
""fullscreenexit"",""120"",""402260""
""focus"",""122"",""409046""
","""event"",""trial"",""time""
""blur"",""116"",""383148""
","""event"",""trial"",""time""
""focus"",""122"",""409046""
","""event"",""trial"",""time""
""fullscreenenter"",""0"",""2435""
","""event"",""trial"",""time""
""fullscreenexit"",""120"",""402260""
","422.59999990463257","","","","","","","","49","1,0,1","6","blank","293","null","0.5286036681799263","0.1653496856186819","0.11866902617335331","1","","","","","","","","",""
"","html-keyboard-response","147","463220","0.0-82.0-1.0","""event"",""trial"",""time""
""fullscreenenter"",""0"",""2435""
""blur"",""116"",""383148""
""fullscreenexit"",""120"",""402260""
""focus"",""122"",""409046""
","""event"",""trial"",""time""
""blur"",""116"",""383148""
","""event"",""trial"",""time""
""focus"",""122"",""409046""
","""event"",""trial"",""time""
""fullscreenenter"",""0"",""2435""
","""event"",""trial"",""time""
""fullscreenexit"",""120"",""402260""
","null","<p></p>","null","","","","","","","","","","","","","","","","","","","","","","","",""
"","do_trial","148","466213","0.0-83.0-0.0","""event"",""trial"",""time""
""fullscreenenter"",""0"",""2435""
""blur"",""116"",""383148""
""fullscreenexit"",""120"",""402260""
""focus"",""122"",""409046""
","""event"",""trial"",""time""
""blur"",""116"",""383148""
","""event"",""trial"",""time""
""focus"",""122"",""409046""
","""event"",""trial"",""time""
""fullscreenenter"",""0"",""2435""
","""event"",""trial"",""time""
""fullscreenexit"",""120"",""402260""
","453.2000000476837","","","","","","","","49","1,1,0","6","blank","294","null","0.46424536294453966","0.194710210702938","0.12040191577156202","1","","","","","","","","",""
"","html-keyboard-response","149","467230","0.0-83.0-1.0","""event"",""trial"",""time""
""fullscreenenter"",""0"",""2435""
""blur"",""116"",""383148""
""fullscreenexit"",""120"",""402260""
""focus"",""122"",""409046""
","""event"",""trial"",""time""
""blur"",""116"",""383148""
","""event"",""trial"",""time""
""focus"",""122"",""409046""
","""event"",""trial"",""time""
""fullscreenenter"",""0"",""2435""
","""event"",""trial"",""time""
""fullscreenexit"",""120"",""402260""
","null","<p></p>","null","","","","","","","","","","","","","","","","","","","","","","","",""
"","do_trial","150","470167","0.0-84.0-0.0","""event"",""trial"",""time""
""fullscreenenter"",""0"",""2435""
""blur"",""116"",""383148""
""fullscreenexit"",""120"",""402260""
""focus"",""122"",""409046""
","""event"",""trial"",""time""
""blur"",""116"",""383148""
","""event"",""trial"",""time""
""focus"",""122"",""409046""
","""event"",""trial"",""time""
""fullscreenenter"",""0"",""2435""
","""event"",""trial"",""time""
""fullscreenexit"",""120"",""402260""
","404.39999985694885","","","","","","","","49","0,1,0","6","blank","295","null","0.355363512509581","0.3149391538879581","0.1385607062847563","0","","","","","","","","",""
"","html-keyboard-response","151","471175","0.0-84.0-1.0","""event"",""trial"",""time""
""fullscreenenter"",""0"",""2435""
""blur"",""116"",""383148""
""fullscreenexit"",""120"",""402260""
""focus"",""122"",""409046""
","""event"",""trial"",""time""
""blur"",""116"",""383148""
","""event"",""trial"",""time""
""focus"",""122"",""409046""
","""event"",""trial"",""time""
""fullscreenenter"",""0"",""2435""
","""event"",""trial"",""time""
""fullscreenexit"",""120"",""402260""
","null","<p></p>","null","","","","","","","","","","","","","","","","","","","","","","","",""
"","do_trial","152","474141","0.0-85.0-0.0","""event"",""trial"",""time""
""fullscreenenter"",""0"",""2435""
""blur"",""116"",""383148""
""fullscreenexit"",""120"",""402260""
""focus"",""122"",""409046""
","""event"",""trial"",""time""
""blur"",""116"",""383148""
","""event"",""trial"",""time""
""focus"",""122"",""409046""
","""event"",""trial"",""time""
""fullscreenenter"",""0"",""2435""
","""event"",""trial"",""time""
""fullscreenexit"",""120"",""402260""
","425.90000009536743","","","","","","","","49","1,1,0","6","blank","296","null","0.27619066214967447","0.42042703581419566","0.14549607694915748","1","","","","","","","","",""
"","html-keyboard-response","153","475144","0.0-85.0-1.0","""event"",""trial"",""time""
""fullscreenenter"",""0"",""2435""
""blur"",""116"",""383148""
""fullscreenexit"",""120"",""402260""
""focus"",""122"",""409046""
","""event"",""trial"",""time""
""blur"",""116"",""383148""
","""event"",""trial"",""time""
""focus"",""122"",""409046""
","""event"",""trial"",""time""
""fullscreenenter"",""0"",""2435""
","""event"",""trial"",""time""
""fullscreenexit"",""120"",""402260""
","null","<p></p>","null","","","","","","","","","","","","","","","","","","","","","","","",""
"","do_trial","154","478377","0.0-86.0-0.0","""event"",""trial"",""time""
""fullscreenenter"",""0"",""2435""
""blur"",""116"",""383148""
""fullscreenexit"",""120"",""402260""
""focus"",""122"",""409046""
","""event"",""trial"",""time""
""blur"",""116"",""383148""
","""event"",""trial"",""time""
""focus"",""122"",""409046""
","""event"",""trial"",""time""
""fullscreenenter"",""0"",""2435""
","""event"",""trial"",""time""
""fullscreenexit"",""120"",""402260""
","698.5","","","","","","","","49","0,0,0","6","blank","297","null","0.30768651499922395","0.4575675911758317","0.07933265690905039","0","","","","","","","","",""
"","html-keyboard-response","155","479381","0.0-86.0-1.0","""event"",""trial"",""time""
""fullscreenenter"",""0"",""2435""
""blur"",""116"",""383148""
""fullscreenexit"",""120"",""402260""
""focus"",""122"",""409046""
","""event"",""trial"",""time""
""blur"",""116"",""383148""
","""event"",""trial"",""time""
""focus"",""122"",""409046""
","""event"",""trial"",""time""
""fullscreenenter"",""0"",""2435""
","""event"",""trial"",""time""
""fullscreenexit"",""120"",""402260""
","null","<p></p>","null","","","","","","","","","","","","","","","","","","","","","","","",""
"","do_trial","156","482445","0.0-87.0-0.0","""event"",""trial"",""time""
""fullscreenenter"",""0"",""2435""
""blur"",""116"",""383148""
""fullscreenexit"",""120"",""402260""
""focus"",""122"",""409046""
","""event"",""trial"",""time""
""blur"",""116"",""383148""
","""event"",""trial"",""time""
""focus"",""122"",""409046""
","""event"",""trial"",""time""
""fullscreenenter"",""0"",""2435""
","""event"",""trial"",""time""
""fullscreenexit"",""120"",""402260""
","534.1999998092651","","","","","","","","50","1,0,0","6","blank","298","null","0.3147439824383096","0.5599473707147015","0.14969139383336832","0","","","","","","","","",""
"","html-keyboard-response","157","483456","0.0-87.0-1.0","""event"",""trial"",""time""
""fullscreenenter"",""0"",""2435""
""blur"",""116"",""383148""
""fullscreenexit"",""120"",""402260""
""focus"",""122"",""409046""
","""event"",""trial"",""time""
""blur"",""116"",""383148""
","""event"",""trial"",""time""
""focus"",""122"",""409046""
","""event"",""trial"",""time""
""fullscreenenter"",""0"",""2435""
","""event"",""trial"",""time""
""fullscreenexit"",""120"",""402260""
","null","<p></p>","null","","","","","","","","","","","","","","","","","","","","","","","",""
"","do_trial","158","486953","0.0-88.0-0.0","""event"",""trial"",""time""
""fullscreenenter"",""0"",""2435""
""blur"",""116"",""383148""
""fullscreenexit"",""120"",""402260""
""focus"",""122"",""409046""
","""event"",""trial"",""time""
""blur"",""116"",""383148""
","""event"",""trial"",""time""
""focus"",""122"",""409046""
","""event"",""trial"",""time""
""fullscreenenter"",""0"",""2435""
","""event"",""trial"",""time""
""fullscreenexit"",""120"",""402260""
","958.6999998092651","","","","","","","","51","1,1,0","6","blank","299","null","0.3312529365682805","0.585398825121893","0.13193852491871325","0","","","","","","","","",""
"","html-keyboard-response","159","487960","0.0-88.0-1.0","""event"",""trial"",""time""
""fullscreenenter"",""0"",""2435""
""blur"",""116"",""383148""
""fullscreenexit"",""120"",""402260""
""focus"",""122"",""409046""
","""event"",""trial"",""time""
""blur"",""116"",""383148""
","""event"",""trial"",""time""
""focus"",""122"",""409046""
","""event"",""trial"",""time""
""fullscreenenter"",""0"",""2435""
","""event"",""trial"",""time""
""fullscreenexit"",""120"",""402260""
","null","<p></p>","null","","","","","","","","","","","","","","","","","","","","","","","",""
"","do_recog","160","491066","0.0-89.0-0.0","""event"",""trial"",""time""
""fullscreenenter"",""0"",""2435""
""blur"",""116"",""383148""
""fullscreenexit"",""120"",""402260""
""focus"",""122"",""409046""
","""event"",""trial"",""time""
""blur"",""116"",""383148""
","""event"",""trial"",""time""
""focus"",""122"",""409046""
","""event"",""trial"",""time""
""fullscreenenter"",""0"",""2435""
","""event"",""trial"",""time""
""fullscreenexit"",""120"",""402260""
","1600.2000000476837","","","","","","","","54","","","","300","probe-121","","","","","1","[object Object]","78","1","1","","","",""
"","html-keyboard-response","161","492084","0.0-89.0-1.0","""event"",""trial"",""time""
""fullscreenenter"",""0"",""2435""
""blur"",""116"",""383148""
""fullscreenexit"",""120"",""402260""
""focus"",""122"",""409046""
","""event"",""trial"",""time""
""blur"",""116"",""383148""
","""event"",""trial"",""time""
""focus"",""122"",""409046""
","""event"",""trial"",""time""
""fullscreenenter"",""0"",""2435""
","""event"",""trial"",""time""
""fullscreenexit"",""120"",""402260""
","null","<p></p>","null","","","","","","","","","","","","","","","","","","","","","","","",""
"","do_trial","162","495046","0.0-90.0-0.0","""event"",""trial"",""time""
""fullscreenenter"",""0"",""2435""
""blur"",""116"",""383148""
""fullscreenexit"",""120"",""402260""
""focus"",""122"",""409046""
","""event"",""trial"",""time""
""blur"",""116"",""383148""
","""event"",""trial"",""time""
""focus"",""122"",""409046""
","""event"",""trial"",""time""
""fullscreenenter"",""0"",""2435""
","""event"",""trial"",""time""
""fullscreenexit"",""120"",""402260""
","433","","","","","","","","49","0,1,0","6","blank","301","null","0.24984504045282674","0.5183966618388717","0.0706019422942064","0","","","","","","","","",""
"","html-keyboard-response","163","496062","0.0-90.0-1.0","""event"",""trial"",""time""
""fullscreenenter"",""0"",""2435""
""blur"",""116"",""383148""
""fullscreenexit"",""120"",""402260""
""focus"",""122"",""409046""
","""event"",""trial"",""time""
""blur"",""116"",""383148""
","""event"",""trial"",""time""
""focus"",""122"",""409046""
","""event"",""trial"",""time""
""fullscreenenter"",""0"",""2435""
","""event"",""trial"",""time""
""fullscreenexit"",""120"",""402260""
","null","<p></p>","null","","","","","","","","","","","","","","","","","","","","","","","",""
"","do_recog","164","499336","0.0-91.0-0.0","""event"",""trial"",""time""
""fullscreenenter"",""0"",""2435""
""blur"",""116"",""383148""
""fullscreenexit"",""120"",""402260""
""focus"",""122"",""409046""
","""event"",""trial"",""time""
""blur"",""116"",""383148""
","""event"",""trial"",""time""
""focus"",""122"",""409046""
","""event"",""trial"",""time""
""fullscreenenter"",""0"",""2435""
","""event"",""trial"",""time""
""fullscreenexit"",""120"",""402260""
","1764.3999998569489","","","","","","","","55","","","","302","probe-23","","","","","1","[object Object]","70","1","0","","","",""
"","html-keyboard-response","165","500346","0.0-91.0-1.0","""event"",""trial"",""time""
""fullscreenenter"",""0"",""2435""
""blur"",""116"",""383148""
""fullscreenexit"",""120"",""402260""
""focus"",""122"",""409046""
","""event"",""trial"",""time""
""blur"",""116"",""383148""
","""event"",""trial"",""time""
""focus"",""122"",""409046""
","""event"",""trial"",""time""
""fullscreenenter"",""0"",""2435""
","""event"",""trial"",""time""
""fullscreenexit"",""120"",""402260""
","null","<p></p>","null","","","","","","","","","","","","","","","","","","","","","","","",""
"","do_trial","166","503398","0.0-92.0-0.0","""event"",""trial"",""time""
""fullscreenenter"",""0"",""2435""
""blur"",""116"",""383148""
""fullscreenexit"",""120"",""402260""
""focus"",""122"",""409046""
","""event"",""trial"",""time""
""blur"",""116"",""383148""
","""event"",""trial"",""time""
""focus"",""122"",""409046""
","""event"",""trial"",""time""
""fullscreenenter"",""0"",""2435""
","""event"",""trial"",""time""
""fullscreenexit"",""120"",""402260""
","506.89999985694885","","","","","","","","49","0,0,0","6","blank","303","null","0.4422886831044639","0.6524719251265986","0.14441264598120912","0","","","","","","","","",""
"","html-keyboard-response","167","504406","0.0-92.0-1.0","""event"",""trial"",""time""
""fullscreenenter"",""0"",""2435""
""blur"",""116"",""383148""
""fullscreenexit"",""120"",""402260""
""focus"",""122"",""409046""
","""event"",""trial"",""time""
""blur"",""116"",""383148""
","""event"",""trial"",""time""
""focus"",""122"",""409046""
","""event"",""trial"",""time""
""fullscreenenter"",""0"",""2435""
","""event"",""trial"",""time""
""fullscreenexit"",""120"",""402260""
","null","<p></p>","null","","","","","","","","","","","","","","","","","","","","","","","",""
"","do_recog","168","507196","0.0-93.0-0.0","""event"",""trial"",""time""
""fullscreenenter"",""0"",""2435""
""blur"",""116"",""383148""
""fullscreenexit"",""120"",""402260""
""focus"",""122"",""409046""
","""event"",""trial"",""time""
""blur"",""116"",""383148""
","""event"",""trial"",""time""
""focus"",""122"",""409046""
","""event"",""trial"",""time""
""fullscreenenter"",""0"",""2435""
","""event"",""trial"",""time""
""fullscreenexit"",""120"",""402260""
","1282.0999999046326","","","","","","","","54","","","","304","probe-135","","","","","1","[object Object]","112","2","1","","","",""
"","html-keyboard-response","169","508211","0.0-93.0-1.0","""event"",""trial"",""time""
""fullscreenenter"",""0"",""2435""
""blur"",""116"",""383148""
""fullscreenexit"",""120"",""402260""
""focus"",""122"",""409046""
","""event"",""trial"",""time""
""blur"",""116"",""383148""
","""event"",""trial"",""time""
""focus"",""122"",""409046""
","""event"",""trial"",""time""
""fullscreenenter"",""0"",""2435""
","""event"",""trial"",""time""
""fullscreenexit"",""120"",""402260""
","null","<p></p>","null","","","","","","","","","","","","","","","","","","","","","","","",""
"","do_trial","170","511092","0.0-94.0-0.0","""event"",""trial"",""time""
""fullscreenenter"",""0"",""2435""
""blur"",""116"",""383148""
""fullscreenexit"",""120"",""402260""
""focus"",""122"",""409046""
","""event"",""trial"",""time""
""blur"",""116"",""383148""
","""event"",""trial"",""time""
""focus"",""122"",""409046""
","""event"",""trial"",""time""
""fullscreenenter"",""0"",""2435""
","""event"",""trial"",""time""
""fullscreenexit"",""120"",""402260""
","342.80000019073486","","","","","","","","51","1,1,1","6","blank","305","null","0.41228350216954585","0.7219738880841308","0.11672113398324896","1","","","","","","","","",""
"","html-keyboard-response","171","512100","0.0-94.0-1.0","""event"",""trial"",""time""
""fullscreenenter"",""0"",""2435""
""blur"",""116"",""383148""
""fullscreenexit"",""120"",""402260""
""focus"",""122"",""409046""
","""event"",""trial"",""time""
""blur"",""116"",""383148""
","""event"",""trial"",""time""
""focus"",""122"",""409046""
","""event"",""trial"",""time""
""fullscreenenter"",""0"",""2435""
","""event"",""trial"",""time""
""fullscreenexit"",""120"",""402260""
","null","<p></p>","null","","","","","","","","","","","","","","","","","","","","","","","",""
"","do_recog","172","515176","0.0-95.0-0.0","""event"",""trial"",""time""
""fullscreenenter"",""0"",""2435""
""blur"",""116"",""383148""
""fullscreenexit"",""120"",""402260""
""focus"",""122"",""409046""
","""event"",""trial"",""time""
""blur"",""116"",""383148""
","""event"",""trial"",""time""
""focus"",""122"",""409046""
","""event"",""trial"",""time""
""fullscreenenter"",""0"",""2435""
","""event"",""trial"",""time""
""fullscreenexit"",""120"",""402260""
","1559.5999999046326","","","","","","","","55","","","","306","probe-233","","","","","0","[object Object]","null","null","1","","","",""
"","html-keyboard-response","173","516181","0.0-95.0-1.0","""event"",""trial"",""time""
""fullscreenenter"",""0"",""2435""
""blur"",""116"",""383148""
""fullscreenexit"",""120"",""402260""
""focus"",""122"",""409046""
","""event"",""trial"",""time""
""blur"",""116"",""383148""
","""event"",""trial"",""time""
""focus"",""122"",""409046""
","""event"",""trial"",""time""
""fullscreenenter"",""0"",""2435""
","""event"",""trial"",""time""
""fullscreenexit"",""120"",""402260""
","null","<p></p>","null","","","","","","","","","","","","","","","","","","","","","","","",""
"","do_trial","174","519065","0.0-96.0-0.0","""event"",""trial"",""time""
""fullscreenenter"",""0"",""2435""
""blur"",""116"",""383148""
""fullscreenexit"",""120"",""402260""
""focus"",""122"",""409046""
","""event"",""trial"",""time""
""blur"",""116"",""383148""
","""event"",""trial"",""time""
""focus"",""122"",""409046""
","""event"",""trial"",""time""
""fullscreenenter"",""0"",""2435""
","""event"",""trial"",""time""
""fullscreenexit"",""120"",""402260""
","347","","","","","","","","51","0,1,0","6","blank","307","null","0.31108632948101095","0.7459064007876716","0.05650436250774422","0","","","","","","","","",""
"","html-keyboard-response","175","520079","0.0-96.0-1.0","""event"",""trial"",""time""
""fullscreenenter"",""0"",""2435""
""blur"",""116"",""383148""
""fullscreenexit"",""120"",""402260""
""focus"",""122"",""409046""
","""event"",""trial"",""time""
""blur"",""116"",""383148""
","""event"",""trial"",""time""
""focus"",""122"",""409046""
","""event"",""trial"",""time""
""fullscreenenter"",""0"",""2435""
","""event"",""trial"",""time""
""fullscreenexit"",""120"",""402260""
","null","<p></p>","null","","","","","","","","","","","","","","","","","","","","","","","",""
"","do_trial","176","523011","0.0-97.0-0.0","""event"",""trial"",""time""
""fullscreenenter"",""0"",""2435""
""blur"",""116"",""383148""
""fullscreenexit"",""120"",""402260""
""focus"",""122"",""409046""
","""event"",""trial"",""time""
""blur"",""116"",""383148""
","""event"",""trial"",""time""
""focus"",""122"",""409046""
","""event"",""trial"",""time""
""fullscreenenter"",""0"",""2435""
","""event"",""trial"",""time""
""fullscreenexit"",""120"",""402260""
","399","","","","","","","","51","0,1,0","6","blank","308","null","0.2972040654720908","0.7762116153551604","0.09527414977115063","0","","","","","","","","",""
"","html-keyboard-response","177","524017","0.0-97.0-1.0","""event"",""trial"",""time""
""fullscreenenter"",""0"",""2435""
""blur"",""116"",""383148""
""fullscreenexit"",""120"",""402260""
""focus"",""122"",""409046""
","""event"",""trial"",""time""
""blur"",""116"",""383148""
","""event"",""trial"",""time""
""focus"",""122"",""409046""
","""event"",""trial"",""time""
""fullscreenenter"",""0"",""2435""
","""event"",""trial"",""time""
""fullscreenexit"",""120"",""402260""
","null","<p></p>","null","","","","","","","","","","","","","","","","","","","","","","","",""
"","break","178","527029","0.0-98.0-0.0","""event"",""trial"",""time""
""fullscreenenter"",""0"",""2435""
""blur"",""116"",""383148""
""fullscreenexit"",""120"",""402260""
""focus"",""122"",""409046""
","""event"",""trial"",""time""
""blur"",""116"",""383148""
","""event"",""trial"",""time""
""focus"",""122"",""409046""
","""event"",""trial"",""time""
""fullscreenenter"",""0"",""2435""
","""event"",""trial"",""time""
""fullscreenexit"",""120"",""402260""
","3011.300000190735","<div class='center'><p>Time to take a quick break! You have 2 minutes to rest, but you can move on sooner if you'd like.</p><p> Press the <b>space bar</b> to continue.</p></div>","32","","","","","","","","","","","","","","","","","","","","","","","",""
"","do_trial","179","530264","0.0-98.0-1.0","""event"",""trial"",""time""
""fullscreenenter"",""0"",""2435""
""blur"",""116"",""383148""
""fullscreenexit"",""120"",""402260""
""focus"",""122"",""409046""
","""event"",""trial"",""time""
""blur"",""116"",""383148""
","""event"",""trial"",""time""
""focus"",""122"",""409046""
","""event"",""trial"",""time""
""fullscreenenter"",""0"",""2435""
","""event"",""trial"",""time""
""fullscreenexit"",""120"",""402260""
","709.4000000953674","","","","","","","","49","1,1,0","6","blank","309","null","0.19818227505216954","0.8007951068466769","0.08544912330431607","1","","","","","","","","",""
"","html-keyboard-response","180","531269","0.0-98.0-2.0","""event"",""trial"",""time""
""fullscreenenter"",""0"",""2435""
""blur"",""116"",""383148""
""fullscreenexit"",""120"",""402260""
""focus"",""122"",""409046""
","""event"",""trial"",""time""
""blur"",""116"",""383148""
","""event"",""trial"",""time""
""focus"",""122"",""409046""
","""event"",""trial"",""time""
""fullscreenenter"",""0"",""2435""
","""event"",""trial"",""time""
""fullscreenexit"",""120"",""402260""
","null","<p></p>","null","","","","","","","","","","","","","","","","","","","","","","","",""
"","do_trial","181","534137","0.0-99.0-0.0","""event"",""trial"",""time""
""fullscreenenter"",""0"",""2435""
""blur"",""116"",""383148""
""fullscreenexit"",""120"",""402260""
""focus"",""122"",""409046""
","""event"",""trial"",""time""
""blur"",""116"",""383148""
","""event"",""trial"",""time""
""focus"",""122"",""409046""
","""event"",""trial"",""time""
""fullscreenenter"",""0"",""2435""
","""event"",""trial"",""time""
""fullscreenexit"",""120"",""402260""
","321.7000000476837","","","","","","","","49","1,0,0","6","blank","310","null","0.337312332469889","0.6025151092827536","0.16904224127458925","1","","","","","","","","",""
"","html-keyboard-response","182","535152","0.0-99.0-1.0","""event"",""trial"",""time""
""fullscreenenter"",""0"",""2435""
""blur"",""116"",""383148""
""fullscreenexit"",""120"",""402260""
""focus"",""122"",""409046""
","""event"",""trial"",""time""
""blur"",""116"",""383148""
","""event"",""trial"",""time""
""focus"",""122"",""409046""
","""event"",""trial"",""time""
""fullscreenenter"",""0"",""2435""
","""event"",""trial"",""time""
""fullscreenexit"",""120"",""402260""
","null","<p></p>","null","","","","","","","","","","","","","","","","","","","","","","","",""
"","do_trial","183","538075","0.0-100.0-0.0","""event"",""trial"",""time""
""fullscreenenter"",""0"",""2435""
""blur"",""116"",""383148""
""fullscreenexit"",""120"",""402260""
""focus"",""122"",""409046""
","""event"",""trial"",""time""
""blur"",""116"",""383148""
","""event"",""trial"",""time""
""focus"",""122"",""409046""
","""event"",""trial"",""time""
""fullscreenenter"",""0"",""2435""
","""event"",""trial"",""time""
""fullscreenexit"",""120"",""402260""
","382.2000000476837","","","","","","","","49","0,0,0","6","blank","311","null","0.31939204538960536","0.6775617585955523","0.13093236904872227","0","","","","","","","","",""
"","html-keyboard-response","184","539079","0.0-100.0-1.0","""event"",""trial"",""time""
""fullscreenenter"",""0"",""2435""
""blur"",""116"",""383148""
""fullscreenexit"",""120"",""402260""
""focus"",""122"",""409046""
","""event"",""trial"",""time""
""blur"",""116"",""383148""
","""event"",""trial"",""time""
""focus"",""122"",""409046""
","""event"",""trial"",""time""
""fullscreenenter"",""0"",""2435""
","""event"",""trial"",""time""
""fullscreenexit"",""120"",""402260""
","null","<p></p>","null","","","","","","","","","","","","","","","","","","","","","","","",""
"","do_trial","185","541931","0.0-101.0-0.0","""event"",""trial"",""time""
""fullscreenenter"",""0"",""2435""
""blur"",""116"",""383148""
""fullscreenexit"",""120"",""402260""
""focus"",""122"",""409046""
","""event"",""trial"",""time""
""blur"",""116"",""383148""
","""event"",""trial"",""time""
""focus"",""122"",""409046""
","""event"",""trial"",""time""
""fullscreenenter"",""0"",""2435""
","""event"",""trial"",""time""
""fullscreenexit"",""120"",""402260""
","316.7999999523163","","","","","","","","51","1,1,0","6","blank","312","null","0.4306592644685714","0.6398023158434492","0.09439394442683526","0","","","","","","","","",""
"","html-keyboard-response","186","542935","0.0-101.0-1.0","""event"",""trial"",""time""
""fullscreenenter"",""0"",""2435""
""blur"",""116"",""383148""
""fullscreenexit"",""120"",""402260""
""focus"",""122"",""409046""
","""event"",""trial"",""time""
""blur"",""116"",""383148""
","""event"",""trial"",""time""
""focus"",""122"",""409046""
","""event"",""trial"",""time""
""fullscreenenter"",""0"",""2435""
","""event"",""trial"",""time""
""fullscreenexit"",""120"",""402260""
","null","<p></p>","null","","","","","","","","","","","","","","","","","","","","","","","",""
"","do_trial","187","545746","0.0-102.0-0.0","""event"",""trial"",""time""
""fullscreenenter"",""0"",""2435""
""blur"",""116"",""383148""
""fullscreenexit"",""120"",""402260""
""focus"",""122"",""409046""
","""event"",""trial"",""time""
""blur"",""116"",""383148""
","""event"",""trial"",""time""
""focus"",""122"",""409046""
","""event"",""trial"",""time""
""fullscreenenter"",""0"",""2435""
","""event"",""trial"",""time""
""fullscreenexit"",""120"",""402260""
","277.2000000476837","","","","","","","","50","1,0,0","6","blank","313","null","0.41463348344631756","0.6418715086390057","0.05464908083508161","0","","","","","","","","",""
"","html-keyboard-response","188","546752","0.0-102.0-1.0","""event"",""trial"",""time""
""fullscreenenter"",""0"",""2435""
""blur"",""116"",""383148""
""fullscreenexit"",""120"",""402260""
""focus"",""122"",""409046""
","""event"",""trial"",""time""
""blur"",""116"",""383148""
","""event"",""trial"",""time""
""focus"",""122"",""409046""
","""event"",""trial"",""time""
""fullscreenenter"",""0"",""2435""
","""event"",""trial"",""time""
""fullscreenexit"",""120"",""402260""
","null","<p></p>","null","","","","","","","","","","","","","","","","","","","","","","","",""
"","do_recog","189","550133","0.0-103.0-0.0","""event"",""trial"",""time""
""fullscreenenter"",""0"",""2435""
""blur"",""116"",""383148""
""fullscreenexit"",""120"",""402260""
""focus"",""122"",""409046""
","""event"",""trial"",""time""
""blur"",""116"",""383148""
","""event"",""trial"",""time""
""focus"",""122"",""409046""
","""event"",""trial"",""time""
""fullscreenenter"",""0"",""2435""
","""event"",""trial"",""time""
""fullscreenexit"",""120"",""402260""
","1862.7999999523163","","","","","","","","55","","","","314","probe-15","","","","","1","[object Object]","157","3","0","","","",""
"","html-keyboard-response","190","551148","0.0-103.0-1.0","""event"",""trial"",""time""
""fullscreenenter"",""0"",""2435""
""blur"",""116"",""383148""
""fullscreenexit"",""120"",""402260""
""focus"",""122"",""409046""
","""event"",""trial"",""time""
""blur"",""116"",""383148""
","""event"",""trial"",""time""
""focus"",""122"",""409046""
","""event"",""trial"",""time""
""fullscreenenter"",""0"",""2435""
","""event"",""trial"",""time""
""fullscreenexit"",""120"",""402260""
","null","<p></p>","null","","","","","","","","","","","","","","","","","","","","","","","",""
"","do_trial","191","554119","0.0-104.0-0.0","""event"",""trial"",""time""
""fullscreenenter"",""0"",""2435""
""blur"",""116"",""383148""
""fullscreenexit"",""120"",""402260""
""focus"",""122"",""409046""
","""event"",""trial"",""time""
""blur"",""116"",""383148""
","""event"",""trial"",""time""
""focus"",""122"",""409046""
","""event"",""trial"",""time""
""fullscreenenter"",""0"",""2435""
","""event"",""trial"",""time""
""fullscreenexit"",""120"",""402260""
","443","","","","","","","","49","0,1,0","6","blank","315","null","0.18623285418244945","0.6858964994839236","0.1965754633492942","0","","","","","","","","",""
"","html-keyboard-response","192","555124","0.0-104.0-1.0","""event"",""trial"",""time""
""fullscreenenter"",""0"",""2435""
""blur"",""116"",""383148""
""fullscreenexit"",""120"",""402260""
""focus"",""122"",""409046""
","""event"",""trial"",""time""
""blur"",""116"",""383148""
","""event"",""trial"",""time""
""focus"",""122"",""409046""
","""event"",""trial"",""time""
""fullscreenenter"",""0"",""2435""
","""event"",""trial"",""time""
""fullscreenexit"",""120"",""402260""
","null","<p></p>","null","","","","","","","","","","","","","","","","","","","","","","","",""
"","do_trial","193","558156","0.0-105.0-0.0","""event"",""trial"",""time""
""fullscreenenter"",""0"",""2435""
""blur"",""116"",""383148""
""fullscreenexit"",""120"",""402260""
""focus"",""122"",""409046""
","""event"",""trial"",""time""
""blur"",""116"",""383148""
","""event"",""trial"",""time""
""focus"",""122"",""409046""
","""event"",""trial"",""time""
""fullscreenenter"",""0"",""2435""
","""event"",""trial"",""time""
""fullscreenexit"",""120"",""402260""
","486.7999999523163","","","","","","","","49","0,1,1","6","blank","316","null","0.24705593119756494","0.690615270623588","0.08654885661030441","0","","","","","","","","",""
"","html-keyboard-response","194","559171","0.0-105.0-1.0","""event"",""trial"",""time""
""fullscreenenter"",""0"",""2435""
""blur"",""116"",""383148""
""fullscreenexit"",""120"",""402260""
""focus"",""122"",""409046""
","""event"",""trial"",""time""
""blur"",""116"",""383148""
","""event"",""trial"",""time""
""focus"",""122"",""409046""
","""event"",""trial"",""time""
""fullscreenenter"",""0"",""2435""
","""event"",""trial"",""time""
""fullscreenexit"",""120"",""402260""
","null","<p></p>","null","","","","","","","","","","","","","","","","","","","","","","","",""
"","do_trial","195","562181","0.0-106.0-0.0","""event"",""trial"",""time""
""fullscreenenter"",""0"",""2435""
""blur"",""116"",""383148""
""fullscreenexit"",""120"",""402260""
""focus"",""122"",""409046""
","""event"",""trial"",""time""
""blur"",""116"",""383148""
","""event"",""trial"",""time""
""focus"",""122"",""409046""
","""event"",""trial"",""time""
""fullscreenenter"",""0"",""2435""
","""event"",""trial"",""time""
""fullscreenexit"",""120"",""402260""
","480.59999990463257","","","","","","","","49","0,1,0","6","blank","317","null","0.20747878758537724","0.695425486788902","0.06714396539243428","0","","","","","","","","",""
"","html-keyboard-response","196","563189","0.0-106.0-1.0","""event"",""trial"",""time""
""fullscreenenter"",""0"",""2435""
""blur"",""116"",""383148""
""fullscreenexit"",""120"",""402260""
""focus"",""122"",""409046""
","""event"",""trial"",""time""
""blur"",""116"",""383148""
","""event"",""trial"",""time""
""focus"",""122"",""409046""
","""event"",""trial"",""time""
""fullscreenenter"",""0"",""2435""
","""event"",""trial"",""time""
""fullscreenexit"",""120"",""402260""
","null","<p></p>","null","","","","","","","","","","","","","","","","","","","","","","","",""
"","do_trial","197","566033","0.0-107.0-0.0","""event"",""trial"",""time""
""fullscreenenter"",""0"",""2435""
""blur"",""116"",""383148""
""fullscreenexit"",""120"",""402260""
""focus"",""122"",""409046""
","""event"",""trial"",""time""
""blur"",""116"",""383148""
","""event"",""trial"",""time""
""focus"",""122"",""409046""
","""event"",""trial"",""time""
""fullscreenenter"",""0"",""2435""
","""event"",""trial"",""time""
""fullscreenexit"",""120"",""402260""
","304.90000009536743","","","","","","","","51","0,1,0","6","blank","318","null","0.16230673052873132","0.6315911899500255","0.1007544076845894","0","","","","","","","","",""
"","html-keyboard-response","198","567039","0.0-107.0-1.0","""event"",""trial"",""time""
""fullscreenenter"",""0"",""2435""
""blur"",""116"",""383148""
""fullscreenexit"",""120"",""402260""
""focus"",""122"",""409046""
","""event"",""trial"",""time""
""blur"",""116"",""383148""
","""event"",""trial"",""time""
""focus"",""122"",""409046""
","""event"",""trial"",""time""
""fullscreenenter"",""0"",""2435""
","""event"",""trial"",""time""
""fullscreenexit"",""120"",""402260""
","null","<p></p>","null","","","","","","","","","","","","","","","","","","","","","","","",""
"","do_trial","199","569865","0.0-108.0-0.0","""event"",""trial"",""time""
""fullscreenenter"",""0"",""2435""
""blur"",""116"",""383148""
""fullscreenexit"",""120"",""402260""
""focus"",""122"",""409046""
","""event"",""trial"",""time""
""blur"",""116"",""383148""
","""event"",""trial"",""time""
""focus"",""122"",""409046""
","""event"",""trial"",""time""
""fullscreenenter"",""0"",""2435""
","""event"",""trial"",""time""
""fullscreenexit"",""120"",""402260""
","295.10000014305115","","","","","","","","50","0,1,0","6","blank","319","null","0.20772451291906627","0.5220876626382986","0.07817962458648146","1","","","","","","","","",""
"","html-keyboard-response","200","570873","0.0-108.0-1.0","""event"",""trial"",""time""
""fullscreenenter"",""0"",""2435""
""blur"",""116"",""383148""
""fullscreenexit"",""120"",""402260""
""focus"",""122"",""409046""
","""event"",""trial"",""time""
""blur"",""116"",""383148""
","""event"",""trial"",""time""
""focus"",""122"",""409046""
","""event"",""trial"",""time""
""fullscreenenter"",""0"",""2435""
","""event"",""trial"",""time""
""fullscreenexit"",""120"",""402260""
","null","<p></p>","null","","","","","","","","","","","","","","","","","","","","","","","",""
"","do_trial","201","573684","0.0-109.0-0.0","""event"",""trial"",""time""
""fullscreenenter"",""0"",""2435""
""blur"",""116"",""383148""
""fullscreenexit"",""120"",""402260""
""focus"",""122"",""409046""
","""event"",""trial"",""time""
""blur"",""116"",""383148""
","""event"",""trial"",""time""
""focus"",""122"",""409046""
","""event"",""trial"",""time""
""fullscreenenter"",""0"",""2435""
","""event"",""trial"",""time""
""fullscreenexit"",""120"",""402260""
","281","","","","","","","","50","0,0,0","6","blank","320","null","0.25345255587049764","0.5762107233288091","0.10614575689119306","0","","","","","","","","",""
"","html-keyboard-response","202","574697","0.0-109.0-1.0","""event"",""trial"",""time""
""fullscreenenter"",""0"",""2435""
""blur"",""116"",""383148""
""fullscreenexit"",""120"",""402260""
""focus"",""122"",""409046""
","""event"",""trial"",""time""
""blur"",""116"",""383148""
","""event"",""trial"",""time""
""focus"",""122"",""409046""
","""event"",""trial"",""time""
""fullscreenenter"",""0"",""2435""
","""event"",""trial"",""time""
""fullscreenexit"",""120"",""402260""
","null","<p></p>","null","","","","","","","","","","","","","","","","","","","","","","","",""
"","do_recog","203","578213","0.0-110.0-0.0","""event"",""trial"",""time""
""fullscreenenter"",""0"",""2435""
""blur"",""116"",""383148""
""fullscreenexit"",""120"",""402260""
""focus"",""122"",""409046""
","""event"",""trial"",""time""
""blur"",""116"",""383148""
","""event"",""trial"",""time""
""focus"",""122"",""409046""
","""event"",""trial"",""time""
""fullscreenenter"",""0"",""2435""
","""event"",""trial"",""time""
""fullscreenexit"",""120"",""402260""
","2010","","","","","","","","54","","","","321","probe-138","","","","","1","[object Object]","34","0","1","","","",""
"","html-keyboard-response","204","579216","0.0-110.0-1.0","""event"",""trial"",""time""
""fullscreenenter"",""0"",""2435""
""blur"",""116"",""383148""
""fullscreenexit"",""120"",""402260""
""focus"",""122"",""409046""
","""event"",""trial"",""time""
""blur"",""116"",""383148""
","""event"",""trial"",""time""
""focus"",""122"",""409046""
","""event"",""trial"",""time""
""fullscreenenter"",""0"",""2435""
","""event"",""trial"",""time""
""fullscreenexit"",""120"",""402260""
","null","<p></p>","null","","","","","","","","","","","","","","","","","","","","","","","",""
"","do_trial","205","582107","0.0-111.0-0.0","""event"",""trial"",""time""
""fullscreenenter"",""0"",""2435""
""blur"",""116"",""383148""
""fullscreenexit"",""120"",""402260""
""focus"",""122"",""409046""
