"success","trial_type","trial_index","time_elapsed","internal_node_id","rt","stimulus","key_press","subject_id","participant_id","age","gender","prompt","response","choice_outcomes","context_n","context_img_id","trial_n","probe_img_id","pR_red","pR_white","pR_black","outcome","is_valid","image_to_show","probed_trial","probed_context","correct","probe","probed_trial_n","probed_context_n","context_im"
"true","fullscreen","0","15102","0.0-0.0","","","","","","","","","","","","","","","","","","","","","","","","","","",""
"","pavlovia","1","15108","0.0-1.0","","","","","","","","","","","","","","","","","","","","","","","","","","",""
"","welc_back","2","27876","0.0-2.0","null","run_exp/static/audio/clip_29_welcome_back.m4a","null","56","223","9","male","<div class='center'><p>Welcome to day 2!</p><p> Yesterday, you were the head captain of a pirate ship. You and your fellow pirates robbed ships for their gold and traveled to six different islands .</p></div>","","","","","","","","","","","","","","","","","","",""
"","html-keyboard-response","3","30057","0.0-3.0","2179.5","<div class='center'><p>Welcome to day 2!</p><p> Yesterday, you were the head captain of a pirate ship. You and your fellow pirates robbed ships for their gold and traveled to six different islands .</p><p><b>[Press the space bar to continue]</b></p></div>","32","","","","","","","","","","","","","","","","","","","","","","","",""
"","day_1_summary_goal","4","50051","0.0-4.0","null","run_exp/static/audio/clip_30_goal_of_game.m4a","null","","","","","<div class='center'><p>Today, like yesterday, you get to pick which pirate you want to rob the next ship.</p><p>If the pirate is successful in robbing a ship, you get gold coins that look like this: </p><p><img src='run_exp/static/images/tutorial/reward.png' height='150'></p><p> If they were not successful in robbing the ship, then you will get no gold coins and you'll see a big red x like this: </p><p><img src='run_exp/static/images/tutorial/reward_no.png' height='150'></p></div>","","","","","","","","","","","","","","","","","","",""
"","html-keyboard-response","5","51221","0.0-5.0","1167.800000011921","<div class='center'><p>Today, like yesterday, you get to pick which pirate you want to rob the next ship.</p><p>If the pirate is successful in robbing a ship, you get gold coins that look like this: </p><p><img src='run_exp/static/images/tutorial/reward.png' height='150'></p><p> If they were not successful in robbing the ship, then you will get no gold coins and you'll see a big red x like this: </p><p><img src='run_exp/static/images/tutorial/reward_no.png' height='150'></p><p><b>[Press the space bar to continue]</b></p></div>","32","","","","","","","","","","","","","","","","","","","","","","","",""
"","day_1_summary_pick","6","69069","0.0-6.0","null","run_exp/static/audio/clip_31_how_to_pick_a_pirate.m4a","null","","","","","<div class='center'><p>Also, just like yesterday, you will use the 1,2,3 keys on your keyboard to pick a pirate. Press '1' to choose red beard, '2' to choose white beard, and '3' to choose black beard . You only have 3 seconds to pick a pirate, so please make a choice quickly!</p></div>","","","","","","","","","","","","","","","","","","",""
"","html-keyboard-response","7","89655","0.0-7.0","20584.5","<div class='center'><p>Also, just like yesterday, you will use the 1,2,3 keys on your keyboard to pick a pirate. Press '1' to choose red beard, '2' to choose white beard, and '3' to choose black beard . You only have 3 seconds to pick a pirate, so please make a choice quickly!</p><p><b>[Press the space bar to continue]</b></p></div>","32","","","","","","","","","","","","","","","","","","","","","","","",""
"","test_phase_begin","8","114099","0.0-8.0","null","run_exp/static/audio/clip_32_final_place.m4a","null","","","","","<div class='center'><p>You’ve arrived at the final island of your journey! Unfortunately, it’s very foggy out, so you won’t be able to see it in the distance like the other islands you've visited.</p><p>You’ll still be deciding which pirate you want to rob a ship like before. However, because of the fog, you also won’t be able to see the ship.</p><p>This means you do not have to remember the ships you rob on this island.</p></p></div>","","","","","","","","","","","","","","","","","","",""
"","html-keyboard-response","9","115088","0.0-9.0","988","<div class='center'><p>You’ve arrived at the final island of your journey! Unfortunately, it’s very foggy out, so you won’t be able to see it in the distance like the other islands you've visited.</p><p>You’ll still be deciding which pirate you want to rob a ship like before. However, because of the fog, you also won’t be able to see the ship.</p><p>This means you do not have to remember the ships you rob on this island.</p></p><p><b>[Press the space bar to continue]</b></p></div>","32","","","","","","","","","","","","","","","","","","","","","","","",""
"","explain_probe_1","10","124525","0.0-10.0","null","run_exp/static/audio/clip_33_recognition_1.m4a","null","","","","","<div class='center'><p> Sometimes you’ll be shown a ship, and you will be asked if you saw this ship on a past island.</p><p> Here is an example of what you will see.</p><p><img src='run_exp/static/images/tutorial/example_recog_trial.png' height='500'></p></div>","","","","","","","","","","","","","","","","","","",""
"","html-keyboard-response","11","126139","0.0-11.0","1612.5","<div class='center'><p> Sometimes you’ll be shown a ship, and you will be asked if you saw this ship on a past island.</p><p> Here is an example of what you will see.</p><p><img src='run_exp/static/images/tutorial/example_recog_trial.png' height='500'></p><p><b>[Press the space bar to continue]</b></p></div>","32","","","","","","","","","","","","","","","","","","","","","","","",""
"","explain_probe_2","12","152971","0.0-12.0","null","run_exp/static/audio/clip_34_recognition_2.m4a","null","","","","","<div class='center'><p> You will press the 5, 6, 7, 8 keys on your keyboard to respond.</p><p>If you are very sure saw the ship, press <b>5</b> on your keyboard.</p><p> If you think you  saw it before but are not sure, then press <b>6</b>.</p><p> If you think you have <b>not</b> seen it before but are not sure, then press <b>7</b>.</p><p> If you are sure you did <b>not</b> see the ship before, then press <b>8</b>.</p><p><img src='run_exp/static/images/tutorial/example_recog_trial.png' height='500'></p></div>","","","","","","","","","","","","","","","","","","",""
"","html-keyboard-response","13","154143","0.0-13.0","1170.699999988079","<div class='center'><p> You will press the 5, 6, 7, 8 keys on your keyboard to respond.</p><p>If you are very sure saw the ship, press <b>5</b> on your keyboard.</p><p> If you think you  saw it before but are not sure, then press <b>6</b>.</p><p> If you think you have <b>not</b> seen it before but are not sure, then press <b>7</b>.</p><p> If you are sure you did <b>not</b> see the ship before, then press <b>8</b>.</p><p><img src='run_exp/static/images/tutorial/example_recog_trial.png' height='500'></p><p><b>[Press the space bar to continue]</b></p></div>","32","","","","","","","","","","","","","","","","","","","","","","","",""
"","explain_outcome","14","175680","0.0-14.0","null","run_exp/static/audio/clip_35_recognition_3.m4a","null","","","","","<div class='center'><p> If you remember correctly, then you’ll get a gold coin like this: </p><p><img src='run_exp/static/images/tutorial/reward_small.png' height='200'></p><p>If you do not remember correctly, then you'll see a red x like this: </p><p><img src='run_exp/static/images/tutorial/reward_no.png' height='200'></p><p>Importantly, when you are shown a ship, take the time to remind yourself which island you saw it on. This will help you in the next part of the study.</p></div>","","","","","","","","","","","","","","","","","","",""
"","html-keyboard-response","15","204064","0.0-15.0","28381.19999998808","<div class='center'><p> If you remember correctly, then you’ll get a gold coin like this: </p><p><img src='run_exp/static/images/tutorial/reward_small.png' height='200'></p><p>If you do not remember correctly, then you'll see a red x like this: </p><p><img src='run_exp/static/images/tutorial/reward_no.png' height='200'></p><p>Importantly, when you are shown a ship, take the time to remind yourself which island you saw it on. This will help you in the next part of the study.</p><p><b>[Press the space bar to continue]</b></p></div>","32","","","","","","","","","","","","","","","","","","","","","","","",""
"","begin_test_phase","16","228747","0.0-16.0","null","run_exp/static/audio/clip_36_begin_final.m4a","null","","","","","<div class='center'><p>Let's go over the important points again. Your job is to: </p><p>1. Pick the pirate who is best at robbing ships and will bring you back gold coins. </p><p>2. Correctly remember whether or not you saw a ship before. If you did see the ship before, remind yourself on which island you saw the ship. </p></div>","","","","","","","","","","","","","","","","","","",""
"","html-keyboard-response","17","229364","0.0-17.0","557.6000000238419","<div class='center'><p>Let's go over the important points again. Your job is to: </p><p>1. Pick the pirate who is best at robbing ships and will bring you back gold coins. </p><p>2. Correctly remember whether or not you saw a ship before. If you did see the ship before, remind yourself on which island you saw the ship. </p><p><b>[Press the space bar to continue]</b></p></div>","32","","","","","","","","","","","","","","","","","","","","","","","",""
"","do_welcome","18","230876","0.0-18.0","null","","","","","","","","null","","","","","","","","","","","","","","","","","",""
"","do_trial","19","236931","0.0-19.0-0.0","null","","","","","","","","null","0,0,1","6","blank","230","null","0.13178661198904515","0.16133624951647293","0.5955266444005307","","","","","","","","","",""
"","html-keyboard-response","20","237938","0.0-19.0-1.0","null","<p></p>","null","","","","","","","","","","","","","","","","","","","","","","","",""
"","do_trial","21","240934","0.0-20.0-0.0","444.60000002384186","","","","","","","","49","0,1,0","6","blank","231","null","0.1237849386920054","0.2914101227392367","0.6429389783978766","0","","","","","","","","",""
"","html-keyboard-response","22","241938","0.0-20.0-1.0","null","<p></p>","null","","","","","","","","","","","","","","","","","","","","","","","",""
"","do_trial","23","244905","0.0-21.0-0.0","422.5","","","","","","","","50","0,0,1","6","blank","232","null","0.15926953514787467","0.34190564850060534","0.49936863667091524","0","","","","","","","","",""
"","html-keyboard-response","24","245906","0.0-21.0-1.0","null","<p></p>","null","","","","","","","","","","","","","","","","","","","","","","","",""
"","do_trial","25","248782","0.0-22.0-0.0","328.69999998807907","","","","","","","","49","0,1,0","6","blank","233","null","0.17671329394797902","0.48702195086547284","0.4959121792889183","0","","","","","","","","",""
"","html-keyboard-response","26","249787","0.0-22.0-1.0","null","<p></p>","null","","","","","","","","","","","","","","","","","","","","","","","",""
"","do_trial","27","252841","0.0-23.0-0.0","509","","","","","","","","51","0,1,0","6","blank","234","null","0.22658816622078404","0.4768690368127911","0.4053508980068338","0","","","","","","","","",""
"","html-keyboard-response","28","253845","0.0-23.0-1.0","null","<p></p>","null","","","","","","","","","","","","","","","","","","","","","","","",""
"","do_trial","29","256788","0.0-24.0-0.0","397.7000000476837","","","","","","","","49","0,0,1","6","blank","235","null","0.14973577023205661","0.392104683553348","0.22929368275111933","0","","","","","","","","",""
"","html-keyboard-response","30","257789","0.0-24.0-1.0","null","<p></p>","null","","","","","","","","","","","","","","","","","","","","","","","",""
"","do_trial","31","260669","0.0-25.0-0.0","329.5","","","","","","","","49","0,0,1","6","blank","236","null","0.12217831244714772","0.35022729131234526","0.3837188118318335","0","","","","","","","","",""
"","html-keyboard-response","32","261673","0.0-25.0-1.0","null","<p></p>","null","","","","","","","","","","","","","","","","","","","","","","","",""
"","do_trial","33","264224","0.0-26.0-0.0","0.09999996423721313","","","","","","","","50","0,0,0","6","blank","237","null","0.05782395287907777","0.1644920877513812","0.453749492104074","0","","","","","","","","",""
"","html-keyboard-response","34","265229","0.0-26.0-1.0","null","<p></p>","null","","","","","","","","","","","","","","","","","","","","","","","",""
"","do_trial","35","268532","0.0-27.0-0.0","754.0999999642372","","","","","","","","51","0,0,1","6","blank","238","null","0.06887766699178387","0.21462575356589703","0.36599792777486434","1","","","","","","","","",""
"","html-keyboard-response","36","269537","0.0-27.0-1.0","null","<p></p>","null","","","","","","","","","","","","","","","","","","","","","","","",""
"","do_trial","37","272841","0.0-28.0-0.0","756.7000000476837","","","","","","","","51","0,0,1","6","blank","239","null","0.11022220766544406","0.379492619157821","0.45531666196855336","1","","","","","","","","",""
"","html-keyboard-response","38","273845","0.0-28.0-1.0","null","<p></p>","null","","","","","","","","","","","","","","","","","","","","","","","",""
"","do_trial","39","276782","0.0-29.0-0.0","385.89999997615814","","","","","","","","51","0,1,1","6","blank","240","null","0.10408648261848423","0.4387673925383838","0.5565818159956998","1","","","","","","","","",""
"","html-keyboard-response","40","277786","0.0-29.0-1.0","null","<p></p>","null","","","","","","","","","","","","","","","","","","","","","","","",""
"","do_trial","41","280799","0.0-30.0-0.0","466.89999997615814","","","","","","","","51","0,0,1","6","blank","241","null","0.09906760826846785","0.41233204270712703","0.5830899533111388","1","","","","","","","","",""
"","html-keyboard-response","42","281803","0.0-30.0-1.0","null","<p></p>","null","","","","","","","","","","","","","","","","","","","","","","","",""
"","do_trial","43","284698","0.0-31.0-0.0","345.7999999523163","","","","","","","","51","0,1,1","6","blank","242","null","0.0603697460754009","0.3465964260094724","0.3992621711239702","1","","","","","","","","",""
"","html-keyboard-response","44","285703","0.0-31.0-1.0","null","<p></p>","null","","","","","","","","","","","","","","","","","","","","","","","",""
"","do_trial","45","288876","0.0-32.0-0.0","622.9000000357628","","","","","","","","51","0,0,1","6","blank","243","null","0.0544837554689282","0.5171191246424194","0.28301116576378166","1","","","","","","","","",""
"","html-keyboard-response","46","289880","0.0-32.0-1.0","null","<p></p>","null","","","","","","","","","","","","","","","","","","","","","","","",""
"","do_trial","47","293978","0.0-33.0-0.0","1540.3999999761581","","","","","","","","51","1,0,0","6","blank","244","null","0.18565269931441605","0.5013436104125082","0.3011060101457861","0","","","","","","","","",""
"","html-keyboard-response","48","294983","0.0-33.0-1.0","null","<p></p>","null","","","","","","","","","","","","","","","","","","","","","","","",""
"","do_trial","49","297801","0.0-34.0-0.0","271.5","","","","","","","","51","0,0,0","6","blank","245","null","0.2034696506241818","0.5510253833972096","0.2543524203360167","0","","","","","","","","",""
"","html-keyboard-response","50","298805","0.0-34.0-1.0","null","<p></p>","null","","","","","","","","","","","","","","","","","","","","","","","",""
"","do_recog","51","304814","0.0-35.0-0.0","null","","","","","","","","null","","","","246","probe-59","","","","","1","[object Object]","160","4","0","","","",""
"","html-keyboard-response","52","305817","0.0-35.0-1.0","null","<p></p>","null","","","","","","","","","","","","","","","","","","","","","","","",""
"","do_trial","53","310201","0.0-36.0-0.0","1836.0999999642372","","","","","","","","49","0,0,1","6","blank","247","null","0.06028575708627127","0.5687169268440105","0.3289114259316063","0","","","","","","","","",""
"","html-keyboard-response","54","311205","0.0-36.0-1.0","null","<p></p>","null","","","","","","","","","","","","","","","","","","","","","","","",""
"","do_trial","55","314322","0.0-37.0-0.0","556.5","","","","","","","","51","0,0,1","6","blank","248","null","0.06741638698616717","0.4293865123615247","0.4221856591630003","1","","","","","","","","",""
"","html-keyboard-response","56","315327","0.0-37.0-1.0","null","<p></p>","null","","","","","","","","","","","","","","","","","","","","","","","",""
"","do_recog","57","318074","0.0-38.0-0.0","1234.4000000357628","","","","","","","","53","","","","249","probe-242","","","","","0","[object Object]","null","null","0","","","",""
"","html-keyboard-response","58","319079","0.0-38.0-1.0","null","<p></p>","null","","","","","","","","","","","","","","","","","","","","","","","",""
"","do_trial","59","322924","0.0-39.0-0.0","1295.3999999761581","","","","","","","","49","0,1,1","6","blank","250","null","0.15134176516069348","0.611171778414565","0.3215815562509268","0","","","","","","","","",""
"","html-keyboard-response","60","323929","0.0-39.0-1.0","null","<p></p>","null","","","","","","","","","","","","","","","","","","","","","","","",""
"","do_trial","61","326763","0.0-40.0-0.0","289.60000002384186","","","","","","","","51","1,0,0","6","blank","251","null","0.09908733525319019","0.5804843472441504","0.2690804652730109","0","","","","","","","","",""
"","html-keyboard-response","62","327768","0.0-40.0-1.0","null","<p></p>","null","","","","","","","","","","","","","","","","","","","","","","","",""
"","do_trial","63","330317","0.0-41.0-0.0","0.19999998807907104","","","","","","","","51","0,0,0","6","blank","252","null","0.12435853775943434","0.667759046221592","0.24095813067089636","0","","","","","","","","",""
"","html-keyboard-response","64","331323","0.0-41.0-1.0","null","<p></p>","null","","","","","","","","","","","","","","","","","","","","","","","",""
"","do_trial","65","334320","0.0-42.0-0.0","447.9000000357628","","","","","","","","51","0,1,0","6","blank","253","null","0.17564728158304158","0.6273121231291717","0.1682989940156461","0","","","","","","","","",""
"","html-keyboard-response","66","335325","0.0-42.0-1.0","null","<p></p>","null","","","","","","","","","","","","","","","","","","","","","","","",""
"","do_trial","67","338407","0.0-43.0-0.0","533.3000000119209","","","","","","","","51","1,1,0","6","blank","254","null","0.11188148977219023","0.5616995212535447","0.28240501986234373","0","","","","","","","","",""
"","html-keyboard-response","68","339412","0.0-43.0-1.0","null","<p></p>","null","","","","","","","","","","","","","","","","","","","","","","","",""
"","do_trial","69","342948","0.0-44.0-0.0","985.9000000357628","","","","","","","","51","0,0,0","6","blank","255","null","0.21611236934217004","0.6026848321803019","0.18670033529598087","0","","","","","","","","",""
"","html-keyboard-response","70","343957","0.0-44.0-1.0","null","<p></p>","null","","","","","","","","","","","","","","","","","","","","","","","",""
"","do_trial","71","347971","0.0-45.0-0.0","1467.8999999761581","","","","","","","","51","0,1,0","6","blank","256","null","0.08862838943301926","0.6383425687305803","0.11381535345027496","0","","","","","","","","",""
"","html-keyboard-response","72","348976","0.0-45.0-1.0","null","<p></p>","null","","","","","","","","","","","","","","","","","","","","","","","",""
"","do_recog","73","351865","0.0-46.0-0.0","1379.199999988079","","","","","","","","54","","","","257","probe-169","","","","","1","[object Object]","84","2","1","","","",""
"","html-keyboard-response","74","352870","0.0-46.0-1.0","null","<p></p>","null","","","","","","","","","","","","","","","","","","","","","","","",""
"","do_trial","75","357749","0.0-47.0-0.0","2333.900000035763","","","","","","","","49","1,1,0","6","blank","258","null","0.14938208896559738","0.636212285476604","0.26847703057990935","1","","","","","","","","",""
"","html-keyboard-response","76","358754","0.0-47.0-1.0","null","<p></p>","null","","","","","","","","","","","","","","","","","","","","","","","",""
"","do_trial","77","361813","0.0-48.0-0.0","512.7000000476837","","","","","","","","49","0,1,1","6","blank","259","null","0.23619398305319436","0.6346958160743946","0.279757328701526","0","","","","","","","","",""
"","html-keyboard-response","78","362816","0.0-48.0-1.0","null","<p></p>","null","","","","","","","","","","","","","","","","","","","","","","","",""
"","do_trial","79","365728","0.0-49.0-0.0","362.19999998807907","","","","","","","","51","1,1,0","6","blank","260","null","0.15005982088942849","0.6787414656599907","0.21734305541532856","0","","","","","","","","",""
"","html-keyboard-response","80","366733","0.0-49.0-1.0","null","<p></p>","null","","","","","","","","","","","","","","","","","","","","","","","",""
"","do_trial","81","369600","0.0-50.0-0.0","321.19999998807907","","","","","","","","51","1,0,1","6","blank","261","null","0.15087296116284882","0.6138581464834897","0.18571605022607288","1","","","","","","","","",""
"","html-keyboard-response","82","370605","0.0-50.0-1.0","null","<p></p>","null","","","","","","","","","","","","","","","","","","","","","","","",""
"","do_trial","83","373516","0.0-51.0-0.0","361.30000001192093","","","","","","","","51","0,1,0","6","blank","262","null","0.20684308495349132","0.4366786396576382","0.2960129299027879","0","","","","","","","","",""
"","html-keyboard-response","84","374517","0.0-51.0-1.0","null","<p></p>","null","","","","","","","","","","","","","","","","","","","","","","","",""
"","do_trial","85","377354","0.0-52.0-0.0","290.5","","","","","","","","51","0,0,1","6","blank","263","null","0.20831581655806897","0.5198484313370992","0.35157208523529304","1","","","","","","","","",""
"","html-keyboard-response","86","378359","0.0-52.0-1.0","null","<p></p>","null","","","","","","","","","","","","","","","","","","","","","","","",""
"","do_recog","87","382178","0.0-53.0-0.0","2312","","","","","","","","54","","","","264","probe-57","","","","","1","[object Object]","123","3","1","","","",""
"","html-keyboard-response","88","383182","0.0-53.0-1.0","null","<p></p>","null","","","","","","","","","","","","","","","","","","","","","","","",""
"","do_trial","89","387702","0.0-54.0-0.0","1963.699999988079","","","","","","","","50","1,0,0","6","blank","265","null","0.2961682294037373","0.5174225680450454","0.25084781949879476","0","","","","","","","","",""
"","html-keyboard-response","90","388707","0.0-54.0-1.0","null","<p></p>","null","","","","","","","","","","","","","","","","","","","","","","","",""
"","do_trial","91","391798","0.0-55.0-0.0","542.6999999880791","","","","","","","","51","0,1,0","6","blank","266","null","0.3302515729234407","0.565302951750715","0.17474211919602448","0","","","","","","","","",""
"","html-keyboard-response","92","392803","0.0-55.0-1.0","null","<p></p>","null","","","","","","","","","","","","","","","","","","","","","","","",""
"","do_trial","93","397300","0.0-56.0-0.0","1950.3999999761581","","","","","","","","51","0,1,0","6","blank","267","null","0.2520934185229821","0.5729781149580004","0.249011523500485","0","","","","","","","","",""
"","html-keyboard-response","94","398303","0.0-56.0-1.0","null","<p></p>","null","","","","","","","","","","","","","","","","","","","","","","","",""
"","do_trial","95","401837","0.0-57.0-0.0","986.5","","","","","","","","51","0,0,0","6","blank","268","null","0.36020751616952923","0.5328308030618982","0.1664147325396914","0","","","","","","","","",""
"","html-keyboard-response","96","402841","0.0-57.0-1.0","null","<p></p>","null","","","","","","","","","","","","","","","","","","","","","","","",""
"","do_trial","97","405752","0.0-58.0-0.0","360.89999997615814","","","","","","","","51","1,0,0","6","blank","269","null","0.29004711166256736","0.46701753745514824","0.18032066328303054","0","","","","","","","","",""
"","html-keyboard-response","98","406754","0.0-58.0-1.0","null","<p></p>","null","","","","","","","","","","","","","","","","","","","","","","","",""
"","do_trial","99","409479","0.0-59.0-0.0","175.69999998807907","","","","","","","","50","0,0,0","6","blank","270","null","0.18571464784013647","0.3204669683911579","0.13944026143641355","0","","","","","","","","",""
"","html-keyboard-response","100","410485","0.0-59.0-1.0","null","<p></p>","null","","","","","","","","","","","","","","","","","","","","","","","",""
"","do_trial","101","413261","0.0-60.0-0.0","226.5","","","","","","","","49","0,0,0","6","blank","271","null","0.23343992487792264","0.49534905345313723","0.2210054440461766","0","","","","","","","","",""
"","html-keyboard-response","102","414266","0.0-60.0-1.0","null","<p></p>","null","","","","","","","","","","","","","","","","","","","","","","","",""
"","do_recog","103","416680","0.0-61.0-0.0","902.0999999642372","","","","","","","","54","","","","272","probe-112","","","","","1","[object Object]","162","4","1","","","",""
"","html-keyboard-response","104","417684","0.0-61.0-1.0","null","<p></p>","null","","","","","","","","","","","","","","","","","","","","","","","",""
"","do_trial","105","421572","0.0-62.0-0.0","1342.699999988079","","","","","","","","51","1,0,1","6","blank","273","null","0.30446187041248507","0.49325597554355055","0.19053351191417722","1","","","","","","","","",""
"","html-keyboard-response","106","422577","0.0-62.0-1.0","null","<p></p>","null","","","","","","","","","","","","","","","","","","","","","","","",""
"","do_trial","107","425899","0.0-63.0-0.0","772.2999999523163","","","","","","","","51","1,1,0","6","blank","274","null","0.28529431670479194","0.6375002817841935","0.1656195679953369","0","","","","","","","","",""
"","html-keyboard-response","108","426904","0.0-63.0-1.0","null","<p></p>","null","","","","","","","","","","","","","","","","","","","","","","","",""
"","do_trial","109","430097","0.0-64.0-0.0","642.3999999761581","","","","","","","","51","1,0,0","6","blank","275","null","0.40287477630279656","0.521508578418507","0.16118419629669803","0","","","","","","","","",""
"","html-keyboard-response","110","431102","0.0-64.0-1.0","null","<p></p>","null","","","","","","","","","","","","","","","","","","","","","","","",""
"","do_trial","111","433832","0.0-65.0-0.0","185.60000002384186","","","","","","","","50","0,1,0","6","blank","276","null","0.23223398835207984","0.6935302268607738","0.2516725906098889","1","","","","","","","","",""
"","html-keyboard-response","112","434837","0.0-65.0-1.0","null","<p></p>","null","","","","","","","","","","","","","","","","","","","","","","","",""
"","do_trial","113","438817","0.0-66.0-0.0","1430","","","","","","","","49","0,1,0","6","blank","277","null","0.1541299606624636","0.7084269135171658","0.27896646397099206","0","","","","","","","","",""
"","html-keyboard-response","114","439822","0.0-66.0-1.0","null","<p></p>","null","","","","","","","","","","","","","","","","","","","","","","","",""
"","do_trial","115","443002","0.0-67.0-0.0","630.0999999642372","","","","","","","","51","0,0,0","6","blank","278","null","0.30274983228196106","0.6049594577852153","0.2825814725178886","0","","","","","","","","",""
"","html-keyboard-response","116","444008","0.0-67.0-1.0","null","<p></p>","null","","","","","","","","","","","","","","","","","","","","","","","",""
"","do_trial","117","446991","0.0-68.0-0.0","436.5","","","","","","","","50","0,1,1","6","blank","279","null","0.1385674712708107","0.5228881721595429","0.23981630111828495","1","","","","","","","","",""
"","html-keyboard-response","118","447996","0.0-68.0-1.0","null","<p></p>","null","","","","","","","","","","","","","","","","","","","","","","","",""
"","do_recog","119","451365","0.0-69.0-0.0","1856.699999988079","","","","","","","","56","","","","280","probe-78","","","","","1","[object Object]","127","3","0","","","",""
"","html-keyboard-response","120","452369","0.0-69.0-1.0","null","<p></p>","null","","","","","","","","","","","","","","","","","","","","","","","",""
"","do_trial","121","458420","0.0-70.0-0.0","null","","","","","","","","null","0,1,0","6","blank","281","null","0.12263914214462722","0.44950064772786447","0.28362986727552825","","","","","","","","","",""
"","html-keyboard-response","122","459426","0.0-70.0-1.0","null","<p></p>","null","","","","","","","","","","","","","","","","","","","","","","","",""
"","do_trial","123","462687","0.0-71.0-0.0","715.8999999761581","","","","","","","","51","0,1,1","6","blank","282","null","0.11686292381018178","0.5644645478821521","0.39060505245504773","1","","","","","","","","",""
"","html-keyboard-response","124","463693","0.0-71.0-1.0","null","<p></p>","null","","","","","","","","","","","","","","","","","","","","","","","",""
"","do_trial","125","466693","0.0-72.0-0.0","450.69999998807907","","","","","","","","51","0,0,1","6","blank","283","null","0.05703945686774185","0.6111672238070464","0.4503631104469602","1","","","","","","","","",""
"","html-keyboard-response","126","467698","0.0-72.0-1.0","null","<p></p>","null","","","","","","","","","","","","","","","","","","","","","","","",""
"","do_trial","127","470721","0.0-73.0-0.0","473.4000000357628","","","","","","","","51","0,1,0","6","blank","284","null","0.09793347408064251","0.4567293984408395","0.5381237745345699","0","","","","","","","","",""
"","html-keyboard-response","128","471727","0.0-73.0-1.0","null","<p></p>","null","","","","","","","","","","","","","","","","","","","","","","","",""
"","do_trial","129","474677","0.0-74.0-0.0","403.0999999642372","","","","","","","","51","0,1,0","6","blank","285","null","0.16050087252054007","0.45057432100082667","0.5344371395212137","0","","","","","","","","",""
"","html-keyboard-response","130","475681","0.0-74.0-1.0","null","<p></p>","null","","","","","","","","","","","","","","","","","","","","","","","",""
"","do_recog","131","478178","0.0-75.0-0.0","985.7999999523163","","","","","","","","54","","","","286","probe-232","","","","","0","[object Object]","null","null","0","","","",""
"","html-keyboard-response","132","479182","0.0-75.0-1.0","null","<p></p>","null","","","","","","","","","","","","","","","","","","","","","","","",""
"","do_trial","133","482143","0.0-76.0-0.0","412.0999999642372","","","","","","","","51","1,0,0","6","blank","287","null","0.21461665821857687","0.5290384853258913","0.45248310292465477","0","","","","","","","","",""
"","html-keyboard-response","134","483145","0.0-76.0-1.0","null","<p></p>","null","","","","","","","","","","","","","","","","","","","","","","","",""
"","do_recog","135","485462","0.0-77.0-0.0","805.5","","","","","","","","54","","","","288","probe-221","","","","","1","[object Object]","169","4","1","","","",""
"","html-keyboard-response","136","486466","0.0-77.0-1.0","null","<p></p>","null","","","","","","","","","","","","","","","","","","","","","","","",""
"","do_trial","137","489429","0.0-78.0-0.0","414.30000001192093","","","","","","","","51","0,0,1","6","blank","289","null","0.2882625171857835","0.651028744575845","0.46289653308102174","1","","","","","","","","",""
"","html-keyboard-response","138","490431","0.0-78.0-1.0","null","<p></p>","null","","","","","","","","","","","","","","","","","","","","","","","",""
"","do_trial","139","494690","0.0-79.0-0.0","1709.699999988079","","","","","","","","50","1,0,0","6","blank","290","null","0.36587083527782605","0.5159537785031725","0.44953716907460395","0","","","","","","","","",""
"","html-keyboard-response","140","495696","0.0-79.0-1.0","null","<p></p>","null","","","","","","","","","","","","","","","","","","","","","","","",""
"","do_trial","141","499566","0.0-80.0-0.0","1324.3999999761581","","","","","","","","51","1,0,1","6","blank","291","null","0.6008919176495267","0.3652552866935552","0.3040888537382426","1","","","","","","","","",""
"","html-keyboard-response","142","500571","0.0-80.0-1.0","null","<p></p>","null","","","","","","","","","","","","","","","","","","","","","","","",""
"","do_recog","143","502930","0.0-81.0-0.0","847.3000000119209","","","","","","","","54","","","","292","probe-83","","","","","1","[object Object]","42","1","1","","","",""
"","html-keyboard-response","144","503935","0.0-81.0-1.0","null","<p></p>","null","","","","","","","","","","","","","","","","","","","","","","","",""
"","do_trial","145","507347","0.0-82.0-0.0","867.8000000119209","","","","","","","","51","0,1,0","6","blank","293","null","0.5873010228835824","0.45098962717206986","0.30593290648318455","0","","","","","","","","",""
"","html-keyboard-response","146","508352","0.0-82.0-1.0","null","<p></p>","null","","","","","","","","","","","","","","","","","","","","","","","",""
"","do_trial","147","511198","0.0-83.0-0.0","296.5","","","","","","","","51","0,0,0","6","blank","294","null","0.5845139408876114","0.2935940618916909","0.32085287882717445","0","","","","","","","","",""
"","html-keyboard-response","148","512202","0.0-83.0-1.0","null","<p></p>","null","","","","","","","","","","","","","","","","","","","","","","","",""
"","do_trial","149","515181","0.0-84.0-0.0","434.5999999642372","","","","","","","","51","1,0,1","6","blank","295","null","0.6632675095329995","0.35257519708963075","0.27570191618516604","1","","","","","","","","",""
"","html-keyboard-response","150","516183","0.0-84.0-1.0","null","<p></p>","null","","","","","","","","","","","","","","","","","","","","","","","",""
"","do_trial","151","519281","0.0-85.0-0.0","548.2000000476837","","","","","","","","51","1,0,1","6","blank","296","null","0.6568068522906846","0.38780157389281505","0.21164409106670878","1","","","","","","","","",""
"","html-keyboard-response","152","520286","0.0-85.0-1.0","null","<p></p>","null","","","","","","","","","","","","","","","","","","","","","","","",""
"","do_trial","153","523632","0.0-86.0-0.0","798.9000000357628","","","","","","","","51","1,0,0","6","blank","297","null","0.6979396438084302","0.353201567358675","0.13413265429602084","0","","","","","","","","",""
"","html-keyboard-response","154","524636","0.0-86.0-1.0","null","<p></p>","null","","","","","","","","","","","","","","","","","","","","","","","",""
"","do_trial","155","527966","0.0-87.0-0.0","784.8999999761581","","","","","","","","51","1,1,0","6","blank","298","null","0.6106215831847661","0.36502159358162184","0.08604580901294381","0","","","","","","","","",""
"","html-keyboard-response","156","528971","0.0-87.0-1.0","null","<p></p>","null","","","","","","","","","","","","","","","","","","","","","","","",""
"","do_recog","157","531488","0.0-88.0-0.0","1005.3999999761581","","","","","","","","55","","","","299","probe-85","","","","","1","[object Object]","202","5","0","","","",""
"","html-keyboard-response","158","532492","0.0-88.0-1.0","null","<p></p>","null","","","","","","","","","","","","","","","","","","","","","","","",""
"","do_trial","159","535330","0.0-89.0-0.0","288.5","","","","","","","","51","0,1,1","6","blank","300","null","0.4992486058830531","0.4182544426978286","0.18005511431902602","1","","","","","","","","",""
"","html-keyboard-response","160","536332","0.0-89.0-1.0","null","<p></p>","null","","","","","","","","","","","","","","","","","","","","","","","",""
"","do_trial","161","538881","0.0-90.0-0.0","0.10000002384185791","","","","","","","","51","0,1,0","6","blank","301","null","0.6124848650007595","0.43690955099932693","0.12594313389585746","0","","","","","","","","",""
"","html-keyboard-response","162","539883","0.0-90.0-1.0","null","<p></p>","null","","","","","","","","","","","","","","","","","","","","","","","",""
"","do_trial","163","543158","0.0-91.0-0.0","727.6999999880791","","","","","","","","51","1,0,0","6","blank","302","null","0.5236498754445039","0.3679081762958606","0.12069227754134979","0","","","","","","","","",""
"","html-keyboard-response","164","544163","0.0-91.0-1.0","null","<p></p>","null","","","","","","","","","","","","","","","","","","","","","","","",""
"","do_trial","165","547084","0.0-92.0-0.0","372.7999999523163","","","","","","","","51","1,1,0","6","blank","303","null","0.5502406576849379","0.3764849978317391","0.10094543968478031","0","","","","","","","","",""
"","html-keyboard-response","166","548089","0.0-92.0-1.0","null","<p></p>","null","","","","","","","","","","","","","","","","","","","","","","","",""
"","do_trial","167","551244","0.0-93.0-0.0","607.1999999880791","","","","","","","","51","1,0,0","6","blank","304","null","0.5445864207213245","0.40587703666789926","0.1793385648882793","0","","","","","","","","",""
"","html-keyboard-response","168","552248","0.0-93.0-1.0","null","<p></p>","null","","","","","","","","","","","","","","","","","","","","","","","",""
"","do_recog","169","554752","0.0-94.0-0.0","993.8000000119209","","","","","","","","55","","","","305","probe-252","","","","","0","[object Object]","null","null","1","","","",""
"","html-keyboard-response","170","555756","0.0-94.0-1.0","null","<p></p>","null","","","","","","","","","","","","","","","","","","","","","","","",""
"","do_trial","171","558806","0.0-95.0-0.0","503.9000000357628","","","","","","","","51","1,1,1","6","blank","306","null","0.522979015261396","0.31525801789342206","0.2201139103046521","1","","","","","","","","",""
"","html-keyboard-response","172","559811","0.0-95.0-1.0","null","<p></p>","null","","","","","","","","","","","","","","","","","","","","","","","",""
"","do_recog","173","562393","0.0-96.0-0.0","1070.6000000238419","","","","","","","","55","","","","307","probe-226","","","","","1","[object Object]","207","5","0","","","",""
"","html-keyboard-response","174","563398","0.0-96.0-1.0","null","<p></p>","null","","","","","","","","","","","","","","","","","","","","","","","",""
"","do_trial","175","566570","0.0-97.0-0.0","623.1999999880791","","","","","","","","51","1,0,0","6","blank","308","null","0.5802937271383686","0.39457589675144306","0.14744182033921388","0","","","","","","","","",""
"","html-keyboard-response","176","567575","0.0-97.0-1.0","null","<p></p>","null","","","","","","","","","","","","","","","","","","","","","","","",""
"","do_trial","177","570828","0.0-98.0-0.0","704.0999999642372","","","","","","","","51","0,0,0","6","blank","309","null","0.5475991131751442","0.41306032610996624","0.1202380375346744","0","","","","","","","","",""
"","html-keyboard-response","178","571833","0.0-98.0-1.0","null","<p></p>","null","","","","","","","","","","","","","","","","","","","","","","","",""
"","do_trial","179","574704","0.0-99.0-0.0","324.30000001192093","","","","","","","","51","0,0,0","6","blank","310","null","0.6554094718348589","0.42682611900098205","0.050950283962872045","0","","","","","","","","",""
"","html-keyboard-response","180","575708","0.0-99.0-1.0","null","<p></p>","null","","","","","","","","","","","","","","","","","","","","","","","",""
"","do_trial","181","578490","0.0-100.0-0.0","236.80000001192093","","","","","","","","49","1,0,0","6","blank","311","null","0.5019055605735864","0.38939319575779296","0.06350606025715978","1","","","","","","","","",""
"","html-keyboard-response","182","579495","0.0-100.0-1.0","null","<p></p>","null","","","","","","","","","","","","","","","","","","","","","","","",""
"","do_trial","183","582538","0.0-101.0-0.0","495.39999997615814","","","","","","","","49","0,0,0","6","blank","312","null","0.6104997530239968","0.3981043520227695","0.1755414843130491","0","","","","","","","","",""
"","html-keyboard-response","184","583542","0.0-101.0-1.0","null","<p></p>","null","","","","","","","","","","","","","","","","","","","","","","","",""
"","do_trial","185","588120","0.0-102.0-0.0","2028.300000011921","","","","","","","","49","1,1,0","6","blank","313","null","0.6356641856360019","0.29852237638699036","0.07662463903109012","1","","","","","","","","",""
"","html-keyboard-response","186","589122","0.0-102.0-1.0","null","<p></p>","null","","","","","","","","","","","","","","","","","","","","","","","",""
"","do_trial","187","592198","0.0-103.0-0.0","528.1999999880791","","","","","","","","51","1,0,0","6","blank","314","null","0.5231430966311291","0.329101192414183","0.13529267101016068","0","","","","","","","","",""
"","html-keyboard-response","188","593201","0.0-103.0-1.0","null","<p></p>","null","","","","","","","","","","","","","","","","","","","","","","","",""
"","do_recog","189","595373","0.0-104.0-0.0","660","","","","","","","","54","","","","315","probe-179","","","","","1","[object Object]","87","2","1","","","",""
"","html-keyboard-response","190","596375","0.0-104.0-1.0","null","<p></p>","null","","","","","","","","","","","","","","","","","","","","","","","",""
"","do_trial","191","600266","0.0-105.0-0.0","1341.800000011921","","","","","","","","51","0,0,0","6","blank","316","null","0.5523891449822651","0.2722455120242126","0.05281896847485492","0","","","","","","","","",""
"","html-keyboard-response","192","601271","0.0-105.0-1.0","null","<p></p>","null","","","","","","","","","","","","","","","","","","","","","","","",""
"","do_recog","193","603836","0.0-106.0-0.0","1053.199999988079","","","","","","","","53","","","","317","probe-05","","","","","1","[object Object]","85","2","1","","","",""
"","html-keyboard-response","194","604840","0.0-106.0-1.0","null","<p></p>","null","","","","","","","","","","","","","","","","","","","","","","","",""
"","do_trial","195","608010","0.0-107.0-0.0","626.1999999880791","","","","","","","","51","0,1,1","6","blank","318","null","0.6125523358829372","0.31162153933041753","0.09187900712558823","1","","","","","","","","",""
"","html-keyboard-response","196","609015","0.0-107.0-1.0","null","<p></p>","null","","","","","","","","","","","","","","","","","","","","","","","",""
"","do_recog","197","611317","0.0-108.0-0.0","790.1999999880791","","","","","","","","55","","","","319","probe-123","","","","","1","[object Object]","204","5","0","","","",""
"","html-keyboard-response","198","612322","0.0-108.0-1.0","null","<p></p>","null","","","","","","","","","","","","","","","","","","","","","","","",""
"","do_trial","199","616438","0.0-109.0-0.0","1560.800000011921","","","","","","","","51","1,0,0","6","blank","320","null","0.6310204351458287","0.21588872811969367","0.14463540681875459","0","","","","","","","","",""
"","html-keyboard-response","200","617441","0.0-109.0-1.0","null","<p></p>","null","","","","","","","","","","","","","","","","","","","","","","","",""
"","do_recog","201","620588","0.0-110.0-0.0","1634","","","","","","","","55","","","","321","probe-11","","","","","1","[object Object]","48","1","0","","","",""
"","html-keyboard-response","202","621592","0.0-110.0-1.0","null","<p></p>","null","","","","","","","","","","","","","","","","","","","","","","","",""
"","do_trial","203","626173","0.0-111.0-0.0","2032.199999988079","","","","","","","","51","1,1,0","6","blank","322","null","0.6465623177647858","0.38442047515669514","0.3188062002861393","0","","","","","","","","",""
"","html-keyboard-response","204","627177","0.0-111.0-1.0","null","<p></p>","null","","","","","","","","","","","","","","","","","","","","","","","",""
"","do_trial","205","631822","0.0-112.0-0.0","2094.5","","","","","","","","50","0,0,0","6","blank","323","null","0.6914015250791553","0.3248482191736487","0.36944969408205663","0","","","","","","","","",""
"","html-keyboard-response","206","632826","0.0-112.0-1.0","null","<p></p>","null","","","","","","","","","","","","","","","","","","","","","","","",""
"","do_trial","207","635909","0.0-113.0-0.0","533.6999999880791","","","","","","","","51","0,0,0","6","blank","324","null","0.6532536340989374","0.12428049758189406","0.3541260400678958","0","","","","","","","","",""
"","html-keyboard-response","208","636915","0.0-113.0-1.0","null","<p></p>","null","","","","","","","","","","","","","","","","","","","","","","","",""
"","do_trial","209","639753","0.0-114.0-0.0","290.10000002384186","","","","","","","","51","0,0,1","6","blank","325","null","0.6698693901025153","0.15547920366809845","0.31295944430612005","1","","","","","","","","",""
"","html-keyboard-response","210","640758","0.0-114.0-1.0","null","<p></p>","null","","","","","","","","","","","","","","","","","","","","","","","",""
"","do_trial","211","643994","0.0-115.0-0.0","685","","","","","","","","51","0,0,0","6","blank","326","null","0.6493071400338922","0.271603080221691","0.25236983191935897","0","","","","","","","","",""
"","html-keyboard-response","212","644999","0.0-115.0-1.0","null","<p></p>","null","","","","","","","","","","","","","","","","","","","","","","","",""
"","do_recog","213","647170","0.0-116.0-0.0","659.9000000357628","","","","","","","","55","","","","327","probe-235","","","","","0","[object Object]","null","null","1","","","",""
"","html-keyboard-response","214","648174","0.0-116.0-1.0","null","<p></p>","null","","","","","","","","","","","","","","","","","","","","","","","",""
"","do_trial","215","651154","0.0-117.0-0.0","426.9000000357628","","","","","","","","51","1,1,1","6","blank","328","null","0.5409313279003379","0.36458786690770206","0.2083551176228643","1","","","","","","","","",""
"","html-keyboard-response","216","652159","0.0-117.0-1.0","null","<p></p>","null","","","","","","","","","","","","","","","","","","","","","","","",""
"","do_recog","217","654714","0.0-118.0-0.0","1039.699999988079","","","","","","","","54","","","","329","probe-175","","","","","1","[object Object]","88","2","1","","","",""
"","html-keyboard-response","218","655719","0.0-118.0-1.0","null","<p></p>","null","","","","","","","","","","","","","","","","","","","","","","","",""
"","do_trial","219","659347","0.0-119.0-0.0","1076.7000000476837","","","","","","","","51","0,0,1","6","blank","330","null","0.46689892255537835","0.2825526257202912","0.10801372623229455","1","","","","","","","","",""
"","html-keyboard-response","220","660350","0.0-119.0-1.0","null","<p></p>","null","","","","","","","","","","","","","","","","","","","","","","","",""
"","do_trial","221","663625","0.0-120.0-0.0","726","","","","","","","","51","1,0,0","6","blank","331","null","0.43656381267447314","0.37405543570604316","0.08142779532524813","0","","","","","","","","",""
"","html-keyboard-response","222","664631","0.0-120.0-1.0","null","<p></p>","null","","","","","","","","","","","","","","","","","","","","","","","",""
"","do_trial","223","667861","0.0-121.0-0.0","681.0999999642372","","","","","","","","51","1,0,0","6","blank","332","null","0.518147531456953","0.3934022769426933","0.1801583186129682","0","","","","","","","","",""
"","html-keyboard-response","224","668866","0.0-121.0-1.0","null","<p></p>","null","","","","","","","","","","","","","","","","","","","","","","","",""
"","do_recog","225","671263","0.0-122.0-0.0","888.6999999880791","","","","","","","","54","","","","333","probe-130","","","","","1","[object Object]","128","3","1","","","",""
"","html-keyboard-response","226","672268","0.0-122.0-1.0","null","<p></p>","null","","","","","","","","","","","","","","","","","","","","","","","",""
"","do_trial","227","675481","0.0-123.0-0.0","662.2999999523163","","","","","","","","51","1,0,0","6","blank","334","null","0.5036173613451906","0.41042271443544415","0.1370242320723772","0","","","","","","","","",""
"","html-keyboard-response","228","676486","0.0-123.0-1.0","null","<p></p>","null","","","","","","","","","","","","","","","","","","","","","","","",""
"","do_recog","229","679109","0.0-124.0-0.0","1110.199999988079","","","","","","","","54","","","","335","probe-246","","","","","0","[object Object]","null","null","0","","","",""
"","html-keyboard-response","230","680115","0.0-124.0-1.0","null","<p></p>","null","","","","","","","","","","","","","","","","","","","","","","","",""
"","do_trial","231","683487","0.0-125.0-0.0","823.5999999642372","","","","","","","","51","1,1,0","6","blank","336","null","0.5793632723609896","0.4128068357561277","0.0809260984726151","0","","","","","","","","",""
"","html-keyboard-response","232","684492","0.0-125.0-1.0","null","<p></p>","null","","","","","","","","","","","","","","","","","","","","","","","",""
"","do_recog","233","686590","0.0-126.0-0.0","585.3999999761581","","","","","","","","55","","","","337","probe-186","","","","","1","[object Object]","81","2","0","","","",""
"","html-keyboard-response","234","687595","0.0-126.0-1.0","null","<p></p>","null","","","","","","","","","","","","","","","","","","","","","","","",""
"","do_trial","235","690678","0.0-127.0-0.0","536.6999999880791","","","","","","","","51","1,1,0","6","blank","338","null","0.591934114835031","0.34002323978014665","0.29348324177565044","0","","","","","","","","",""
"","html-keyboard-response","236","691684","0.0-127.0-1.0","null","<p></p>","null","","","","","","","","","","","","","","","","","","","","","","","",""
"","do_trial","237","694785","0.0-128.0-0.0","555","","","","","","","","51","0,0,0","6","blank","339","null","0.6499363572061613","0.3168462716507688","0.22383995481447677","0","","","","","","","","",""
"","html-keyboard-response","238","695790","0.0-128.0-1.0","null","<p></p>","null","","","","","","","","","","","","","","","","","","","","","","","",""
"","do_trial","239","698979","0.0-129.0-0.0","639.8000000119209","","","","","","","","51","1,1,0","6","blank","340","null","0.6518778695547678","0.29135606140548803","0.21736177425763867","0","","","","","","","","",""
"","html-keyboard-response","240","699984","0.0-129.0-1.0","null","<p></p>","null","","","","","","","","","","","","","","","","","","","","","","","",""
"","do_trial","241","703015","0.0-130.0-0.0","481.0999999642372","","","","","","","","51","0,1,0","6","blank","341","null","0.5053060494679487","0.3493739516109339","0.19601927280222226","0","","","","","","","","",""
"","html-keyboard-response","242","704020","0.0-130.0-1.0","null","<p></p>","null","","","","","","","","","","","","","","","","","","","","","","","",""
"","do_recog","243","706496","0.0-131.0-0.0","967.5999999642372","","","","","","","","54","","","","342","probe-190","","","","","1","[object Object]","124","3","1","","","",""
"","html-keyboard-response","244","707500","0.0-131.0-1.0","null","<p></p>","null","","","","","","","","","","","","","","","","","","","","","","","",""
"","do_trial","245","710982","0.0-132.0-0.0","931.9000000357628","","","","","","","","51","1,0,0","6","blank","343","null","0.4549586405817418","0.4575971970964292","0.3079341634406225","0","","","","","","","","",""
"","html-keyboard-response","246","711987","0.0-132.0-1.0","null","<p></p>","null","","","","","","","","","","","","","","","","","","","","","","","",""
"","do_recog","247","714327","0.0-133.0-0.0","827.0999999642372","","","","","","","","54","","","","344","probe-07","","","","","1","[object Object]","47","1","1","","","",""
"","html-keyboard-response","248","715330","0.0-133.0-1.0","null","<p></p>","null","","","","","","","","","","","","","","","","","","","","","","","",""
"","do_trial","249","718755","0.0-134.0-0.0","877.3999999761581","","","","","","","","51","1,1,0","6","blank","345","null","0.3491226308343152","0.5398091189825936","0.26325496340167714","0","","","","","","","","",""
"","html-keyboard-response","250","719760","0.0-134.0-1.0","null","<p></p>","null","","","","","","","","","","","","","","","","","","","","","","","",""
"","do_recog","251","722392","0.0-135.0-0.0","1122.3999999761581","","","","","","","","55","","","","346","probe-103","","","","","1","[object Object]","209","5","0","","","",""
"","html-keyboard-response","252","723395","0.0-135.0-1.0","null","<p></p>","null","","","","","","","","","","","","","","","","","","","","","","","",""
"","do_trial","253","726680","0.0-136.0-0.0","738.8999999761581","","","","","","","","51","1,0,0","6","blank","347","null","0.20212810253160446","0.5226096492638391","0.27948899403711924","0","","","","","","","","",""
"","html-keyboard-response","254","727685","0.0-136.0-1.0","null","<p></p>","null","","","","","","","","","","","","","","","","","","","","","","","",""
"","do_trial","255","731056","0.0-137.0-0.0","826.7000000476837","","","","","","","","51","0,1,1","6","blank","348","null","0.10394643094942367","0.5226713632327519","0.3403984002738216","1","","","","","","","","",""
"","html-keyboard-response","256","732059","0.0-137.0-1.0","null","<p></p>","null","","","","","","","","","","","","","","","","","","","","","","","",""
"","do_trial","257","735015","0.0-138.0-0.0","407","","","","","","","","51","0,1,0","6","blank","349","null","0.21035602103589882","0.6154597106154275","0.15735161464045028","0","","","","","","","","",""
"","html-keyboard-response","258","736020","0.0-138.0-1.0","null","<p></p>","null","","","","","","","","","","","","","","","","","","","","","","","",""
"","do_trial","259","740448","0.0-139.0-0.0","1879","","","","","","","","50","0,1,0","6","blank","350","null","0.13995811452850185","0.8195975523436932","0.21695259401557224","1","","","","","","","","",""
"","html-keyboard-response","260","741453","0.0-139.0-1.0","null","<p></p>","null","","","","","","","","","","","","","","","","","","","","","","","",""
"","do_trial","261","744523","0.0-140.0-0.0","521.3000000119209","","","","","","","","51","0,1,1","6","blank","351","null","0.06846226451320533","0.6439471637115389","0.24379730206551742","1","","","","","","","","",""
"","html-keyboard-response","262","745524","0.0-140.0-1.0","null","<p></p>","null","","","","","","","","","","","","","","","","","","","","","","","",""
"","do_recog","263","748070","0.0-141.0-0.0","1033.7000000476837","","","","","","","","54","","","","352","probe-135","","","","","1","[object Object]","122","3","1","","","",""
"","html-keyboard-response","264","749074","0.0-141.0-1.0","null","<p></p>","null","","","","","","","","","","","","","","","","","","","","","","","",""
"","do_trial","265","752470","0.0-142.0-0.0","848.3999999761581","","","","","","","","51","0,0,0","6","blank","353","null","0.05222937339571797","0.419848093658251","0.19657284615414036","0","","","","","","","","",""
"","html-keyboard-response","266","753475","0.0-142.0-1.0","null","<p></p>","null","","","","","","","","","","","","","","","","","","","","","","","",""
"","do_trial","267","756375","0.0-143.0-0.0","353.30000001192093","","","","","","","","51","1,0,0","6","blank","354","null","0.12415309947490215","0.5106588317453151","0.20230728386554112","0","","","","","","","","",""
"","html-keyboard-response","268","757381","0.0-143.0-1.0","null","<p></p>","null","","","","","","","","","","","","","","","","","","","","","","","",""
"","do_trial","269","763441","0.0-144.0-0.0","null","","","","","","","","null","0,1,0","6","blank","355","null","0.18562364598197953","0.4489401631580709","0.1247466439481031","","","","","","","","","",""
"","html-keyboard-response","270","764445","0.0-144.0-1.0","null","<p></p>","null","","","","","","","","","","","","","","","","","","","","","","","",""
"","do_recog","271","766935","0.0-145.0-0.0","977.6000000238419","","","","","","","","54","","","","356","probe-142","","","","","1","[object Object]","126","3","1","","","",""
"","html-keyboard-response","272","767936","0.0-145.0-1.0","null","<p></p>","null","","","","","","","","","","","","","","","","","","","","","","","",""
"","do_trial","273","773991","0.0-146.0-0.0","null","","","","","","","","null","0,1,0","6","blank","357","null","0.1561677715467331","0.517151748572965","0.22440001561286121","","","","","","","","","",""
"","html-keyboard-response","274","774994","0.0-146.0-1.0","null","<p></p>","null","","","","","","","","","","","","","","","","","","","","","","","",""
"","do_trial","275","778942","0.0-147.0-0.0","1398.800000011921","","","","","","","","51","0,1,0","6","blank","358","null","0.16141860889175022","0.5782464933648064","0.3022876944118134","0","","","","","","","","",""
"","html-keyboard-response","276","779944","0.0-147.0-1.0","null","<p></p>","null","","","","","","","","","","","","","","","","","","","","","","","",""
"","do_trial","277","785990","0.0-148.0-0.0","null","","","","","","","","null","0,1,0","6","blank","359","null","0.06663518651065296","0.5674409081979181","0.40647235637940204","","","","","","","","","",""
"","html-keyboard-response","278","786995","0.0-148.0-1.0","null","<p></p>","null","","","","","","","","","","","","","","","","","","","","","","","",""
"","do_trial","279","790606","0.0-149.0-0.0","1060","","","","","","","","51","0,0,0","6","blank","360","null","0.10922819075471209","0.5102425968849995","0.3888759376134421","0","","","","","","","","",""
"","html-keyboard-response","280","791610","0.0-149.0-1.0","null","<p></p>","null","","","","","","","","","","","","","","","","","","","","","","","",""
"","do_recog","281","794839","0.0-150.0-0.0","1716.199999988079","","","","","","","","54","","","","361","probe-224","","","","","1","[object Object]","82","2","1","","","",""
"","html-keyboard-response","282","795843","0.0-150.0-1.0","null","<p></p>","null","","","","","","","","","","","","","","","","","","","","","","","",""
"","do_trial","283","799060","0.0-151.0-0.0","666.9000000357628","","","","","","","","51","0,0,1","6","blank","362","null","0.2795344963010705","0.6078268148475603","0.4265014450099964","1","","","","","","","","",""
"","html-keyboard-response","284","800063","0.0-151.0-1.0","null","<p></p>","null","","","","","","","","","","","","","","","","","","","","","","","",""
"","do_trial","285","804097","0.0-152.0-0.0","1479.5","","","","","","","","51","0,1,1","6","blank","363","null","0.2897443469444323","0.49498711721335287","0.3733201073096013","1","","","","","","","","",""
"","html-keyboard-response","286","805100","0.0-152.0-1.0","null","<p></p>","null","","","","","","","","","","","","","","","","","","","","","","","",""
"","do_trial","287","808574","0.0-153.0-0.0","922.2999999523163","","","","","","","","51","0,1,0","6","blank","364","null","0.20667287282835223","0.6039211265069871","0.35454007469342","0","","","","","","","","",""
"","html-keyboard-response","288","809580","0.0-153.0-1.0","null","<p></p>","null","","","","","","","","","","","","","","","","","","","","","","","",""
"","do_recog","289","811907","0.0-154.0-0.0","818.6999999880791","","","","","","","","54","","","","365","probe-254","","","","","0","[object Object]","null","null","0","","","",""
"","html-keyboard-response","290","812912","0.0-154.0-1.0","null","<p></p>","null","","","","","","","","","","","","","","","","","","","","","","","",""
"","do_trial","291","816326","0.0-155.0-0.0","869.6999999880791","","","","","","","","51","0,1,0","6","blank","366","null","0.07167950132826999","0.6887025904390944","0.28228558484515764","0","","","","","","","","",""
"","html-keyboard-response","292","817331","0.0-155.0-1.0","null","<p></p>","null","","","","","","","","","","","","","","","","","","","","","","","",""
"","do_recog","293","820245","0.0-156.0-0.0","1400.5999999642372","","","","","","","","54","","","","367","probe-65","","","","","1","[object Object]","83","2","1","","","",""
"","html-keyboard-response","294","821248","0.0-156.0-1.0","null","<p></p>","null","","","","","","","","","","","","","","","","","","","","","","","",""
"","do_trial","295","823882","0.0-157.0-0.0","86.89999997615814","","","","","","","","51","0,0,1","6","blank","368","null","0.08297396193525275","0.5925432128736039","0.2658179446124273","1","","","","","","","","",""
"","html-keyboard-response","296","824887","0.0-157.0-1.0","null","<p></p>","null","","","","","","","","","","","","","","","","","","","","","","","",""
"","do_recog","297","827325","0.0-158.0-0.0","929.4000000357628","","","","","","","","55","","","","369","probe-209","","","","","1","[object Object]","201","5","0","","","",""
"","html-keyboard-response","298","828326","0.0-158.0-1.0","null","<p></p>","null","","","","","","","","","","","","","","","","","","","","","","","",""
"","do_trial","299","831799","0.0-159.0-0.0","923.8999999761581","","","","","","","","51","0,1,0","6","blank","370","null","0.12489517951599834","0.5900932481099256","0.40337346533707824","0","","","","","","","","",""
"","html-keyboard-response","300","832804","0.0-159.0-1.0","null","<p></p>","null","","","","","","","","","","","","","","","","","","","","","","","",""
"","do_trial","301","836615","0.0-160.0-0.0","1263","","","","","","","","51","1,1,1","6","blank","371","null","0.17145151738894654","0.625081235962577","0.28048055834832397","1","","","","","","","","",""
"","html-keyboard-response","302","837616","0.0-160.0-1.0","null","<p></p>","null","","","","","","","","","","","","","","","","","","","","","","","",""
"","do_trial","303","841200","0.0-161.0-0.0","1038.5","","","","","","","","50","0,0,0","6","blank","372","null","0.15546974739937627","0.5543103489599231","0.28039556463676707","0","","","","","","","","",""
"","html-keyboard-response","304","842205","0.0-161.0-1.0","null","<p></p>","null","","","","","","","","","","","","","","","","","","","","","","","",""
"","do_trial","305","845067","0.0-162.0-0.0","315.10000002384186","","","","","","","","51","0,0,0","6","blank","373","null","0.2883692766276647","0.4894040406697325","0.10873540970089873","0","","","","","","","","",""
"","html-keyboard-response","306","846074","0.0-162.0-1.0","null","<p></p>","null","","","","","","","","","","","","","","","","","","","","","","","",""
"","do_trial","307","849776","0.0-163.0-0.0","1151.6000000238419","","","","","","","","51","0,1,1","6","blank","374","null","0.25369481924895076","0.6564490547548048","0.2561617385600342","1","","","","","","","","",""
"","html-keyboard-response","308","850781","0.0-163.0-1.0","null","<p></p>","null","","","","","","","","","","","","","","","","","","","","","","","",""
"","do_recog","309","854459","0.0-164.0-0.0","2166.100000023842","","","","","","","","56","","","","375","probe-54","","","","","1","[object Object]","89","2","0","","","",""
"","html-keyboard-response","310","855464","0.0-164.0-1.0","null","<p></p>","null","","","","","","","","","","","","","","","","","","","","","","","",""
"","do_trial","311","859239","0.0-165.0-0.0","1227.1000000238419","","","","","","","","51","0,0,0","6","blank","376","null","0.1564657559297794","0.5695835430266563","0.30052075615663376","0","","","","","","","","",""
"","html-keyboard-response","312","860244","0.0-165.0-1.0","null","<p></p>","null","","","","","","","","","","","","","","","","","","","","","","","",""
"","do_recog","313","862817","0.0-166.0-0.0","1060.3999999761581","","","","","","","","54","","","","377","probe-168","","","","","1","[object Object]","49","1","1","","","",""
"","html-keyboard-response","314","863819","0.0-166.0-1.0","null","<p></p>","null","","","","","","","","","","","","","","","","","","","","","","","",""
"","do_trial","315","868050","0.0-167.0-0.0","1684.199999988079","","","","","","","","51","0,1,0","6","blank","378","null","0.16631988015039878","0.4672775956311409","0.2756918571940587","0","","","","","","","","",""
"","html-keyboard-response","316","869053","0.0-167.0-1.0","null","<p></p>","null","","","","","","","","","","","","","","","","","","","","","","","",""
"","do_trial","317","873169","0.0-168.0-0.0","1567.0999999642372","","","","","","","","51","1,1,1","6","blank","379","null","0.1558157138560461","0.6364943216634693","0.2227874443001111","1","","","","","","","","",""
"","html-keyboard-response","318","874174","0.0-168.0-1.0","null","<p></p>","null","","","","","","","","","","","","","","","","","","","","","","","",""
"","do_trial","319","877836","0.0-169.0-0.0","1112.8999999761581","","","","","","","","51","0,0,0","6","blank","380","null","0.14577800018523132","0.5889237857234282","0.05713135538162895","0","","","","","","","","",""
"","html-keyboard-response","320","878841","0.0-169.0-1.0","null","<p></p>","null","","","","","","","","","","","","","","","","","","","","","","","",""
"","do_trial","321","882304","0.0-170.0-0.0","914.5999999642372","","","","","","","","51","1,1,0","6","blank","381","null","0.10710721932949663","0.5907759895378039","0.1228610496367284","0","","","","","","","","",""
"","html-keyboard-response","322","883309","0.0-170.0-1.0","null","<p></p>","null","","","","","","","","","","","","","","","","","","","","","","","",""
"","do_recog","323","886488","0.0-171.0-0.0","1668.199999988079","","","","","","","","56","","","","382","probe-32","","","","","1","[object Object]","200","5","0","","","",""
"","html-keyboard-response","324","887493","0.0-171.0-1.0","null","<p></p>","null","","","","","","","","","","","","","","","","","","","","","","","",""
"","do_trial","325","890613","0.0-172.0-0.0","571","","","","","","","","51","0,1,1","6","blank","383","null","0.06483241120911849","0.5864038882171156","0.24323447134353257","1","","","","","","","","",""
"","html-keyboard-response","326","891618","0.0-172.0-1.0","null","<p></p>","null","","","","","","","","","","","","","","","","","","","","","","","",""
"","do_trial","327","894789","0.0-173.0-0.0","625.3000000119209","","","","","","","","51","0,1,0","6","blank","384","null","0.20511073121609338","0.6337175492127068","0.35197992381727233","0","","","","","","","","",""
"","html-keyboard-response","328","895794","0.0-173.0-1.0","null","<p></p>","null","","","","","","","","","","","","","","","","","","","","","","","",""
"","do_recog","329","898028","0.0-174.0-0.0","722.1999999880791","","","","","","","","54","","","","385","probe-28","","","","","1","[object Object]","86","2","1","","","",""
"","html-keyboard-response","330","899033","0.0-174.0-1.0","null","<p></p>","null","","","","","","","","","","","","","","","","","","","","","","","",""
"","do_trial","331","902034","0.0-175.0-0.0","454.10000002384186","","","","","","","","50","0,1,1","6","blank","386","null","0.16954543888061013","0.7054449867574772","0.3414109258022059","1","","","","","","","","",""
"","html-keyboard-response","332","903037","0.0-175.0-1.0","null","<p></p>","null","","","","","","","","","","","","","","","","","","","","","","","",""
"","do_recog","333","904735","0.0-176.0-0.0","185.5999999642372","","","","","","","","55","","","","387","probe-99","","","","","1","[object Object]","206","5","0","","","",""
"","html-keyboard-response","334","905740","0.0-176.0-1.0","null","<p></p>","null","","","","","","","","","","","","","","","","","","","","","","","",""
"","do_trial","335","908300","0.0-177.0-0.0","15.600000023841858","","","","","","","","51","0,0,0","6","blank","388","null","0.11876448200057137","0.4852759614994204","0.3496896813436725","0","","","","","","","","",""
"","html-keyboard-response","336","909307","0.0-177.0-1.0","null","<p></p>","null","","","","","","","","","","","","","","","","","","","","","","","",""
"","do_recog","337","910863","0.0-178.0-0.0","47.19999998807907","","","","","","","","55","","","","389","probe-210","","","","","1","[object Object]","163","4","0","","","",""
"","html-keyboard-response","338","911867","0.0-178.0-1.0","null","<p></p>","null","","","","","","","","","","","","","","","","","","","","","","","",""
"","do_trial","339","914563","0.0-179.0-0.0","150.89999997615814","","","","","","","","51","0,0,1","6","blank","390","null","0.1535121209733315","0.5196700594568415","0.2853434677086786","1","","","","","","","","",""
"","html-keyboard-response","340","915568","0.0-179.0-1.0","null","<p></p>","null","","","","","","","","","","","","","","","","","","","","","","","",""
"","do_recog","341","917833","0.0-180.0-0.0","756.2999999523163","","","","","","","","54","","","","391","probe-38","","","","","1","[object Object]","168","4","1","","","",""
"","html-keyboard-response","342","918837","0.0-180.0-1.0","null","<p></p>","null","","","","","","","","","","","","","","","","","","","","","","","",""
"","do_trial","343","921436","0.0-181.0-0.0","49.80000001192093","","","","","","","","51","0,1,0","6","blank","392","null","0.17092218912040177","0.5128328899118921","0.16124878103799853","0","","","","","","","","",""
"","html-keyboard-response","344","922442","0.0-181.0-1.0","null","<p></p>","null","","","","","","","","","","","","","","","","","","","","","","","",""
"","do_recog","345","924872","0.0-182.0-0.0","920.8000000119209","","","","","","","","54","","","","393","probe-197","","","","","1","[object Object]","40","1","1","","","",""
"","html-keyboard-response","346","925875","0.0-182.0-1.0","null","<p></p>","null","","","","","","","","","","","","","","","","","","","","","","","",""
"","do_trial","347","928772","0.0-183.0-0.0","347.5","","","","","","","","51","0,1,0","6","blank","394","null","0.10664561129141781","0.5447730669608319","0.15774172078686238","0","","","","","","","","",""
"","html-keyboard-response","348","929776","0.0-183.0-1.0","null","<p></p>","null","","","","","","","","","","","","","","","","","","","","","","","",""
"","do_recog","349","932015","0.0-184.0-0.0","727.5","","","","","","","","54","","","","395","probe-150","","","","","1","[object Object]","45","1","1","","","",""
"","html-keyboard-response","350","933020","0.0-184.0-1.0","null","<p></p>","null","","","","","","","","","","","","","","","","","","","","","","","",""
"","do_trial","351","935993","0.0-185.0-0.0","424.89999997615814","","","","","","","","51","1,1,0","6","blank","396","null","0.0886152531565332","0.6081325053364749","0.23070026092987406","0","","","","","","","","",""
"","html-keyboard-response","352","936999","0.0-185.0-1.0","null","<p></p>","null","","","","","","","","","","","","","","","","","","","","","","","",""
"","do_recog","353","939110","0.0-186.0-0.0","600.3999999761581","","","","","","","","54","","","","397","probe-18","","","","","1","[object Object]","208","5","1","","","",""
"","html-keyboard-response","354","940114","0.0-186.0-1.0","null","<p></p>","null","","","","","","","","","","","","","","","","","","","","","","","",""
"","do_trial","355","943050","0.0-187.0-0.0","389.39999997615814","","","","","","","","51","0,1,0","6","blank","398","null","0.12301525978722554","0.6449377766375117","0.23103080805728302","0","","","","","","","","",""
"","html-keyboard-response","356","944055","0.0-187.0-1.0","null","<p></p>","null","","","","","","","","","","","","","","","","","","","","","","","",""
"","do_recog","357","946409","0.0-188.0-0.0","841.5999999642372","","","","","","","","54","","","","399","probe-124","","","","","1","[object Object]","80","2","1","","","",""
"","html-keyboard-response","358","947411","0.0-188.0-1.0","null","<p></p>","null","","","","","","","","","","","","","","","","","","","","","","","",""
"","do_trial","359","950376","0.0-189.0-0.0","415.5","","","","","","","","50","0,1,0","6","blank","400","null","0.0815173581831258","0.7464279902297609","0.24490576405943384","1","","","","","","","","",""
"","html-keyboard-response","360","951378","0.0-189.0-1.0","null","<p></p>","null","","","","","","","","","","","","","","","","","","","","","","","",""
"","do_trial","361","954278","0.0-190.0-0.0","351.60000002384186","","","","","","","","50","1,1,0","6","blank","401","null","0.2201308751214098","0.7836021133042381","0.27963036244553446","1","","","","","","","","",""
"","html-keyboard-response","362","955282","0.0-190.0-1.0","null","<p></p>","null","","","","","","","","","","","","","","","","","","","","","","","",""
"","do_trial","363","958428","0.0-191.0-0.0","601","","","","","","","","50","0,1,1","6","blank","402","null","0.11166237520069061","0.7170354689720952","0.34876818960878275","1","","","","","","","","",""
"","html-keyboard-response","364","959433","0.0-191.0-1.0","null","<p></p>","null","","","","","","","","","","","","","","","","","","","","","","","",""
"","do_trial","365","963877","0.0-192.0-0.0","1894.800000011921","","","","","","","","50","0,0,1","6","blank","403","null","0.330945602090005","0.569556144497716","0.2027721822156208","0","","","","","","","","",""
"","html-keyboard-response","366","964879","0.0-192.0-1.0","null","<p></p>","null","","","","","","","","","","","","","","","","","","","","","","","",""
"","do_trial","367","968082","0.0-193.0-0.0","656.5","","","","","","","","51","1,0,0","6","blank","404","null","0.5410085790427058","0.3900893557582936","0.05949952894528956","0","","","","","","","","",""
"","html-keyboard-response","368","969087","0.0-193.0-1.0","null","<p></p>","null","","","","","","","","","","","","","","","","","","","","","","","",""
"","do_trial","369","972221","0.0-194.0-0.0","584","","","","","","","","50","1,0,0","6","blank","405","null","0.57242363006048","0.24265992732915906","0.2724843828490342","0","","","","","","","","",""
"","html-keyboard-response","370","973225","0.0-194.0-1.0","null","<p></p>","null","","","","","","","","","","","","","","","","","","","","","","","",""
"","do_trial","371","977430","0.0-195.0-0.0","1659.5999999642372","","","","","","","","49","1,0,1","6","blank","406","null","0.581127383483192","0.26278291642060486","0.318617624193762","1","","","","","","","","",""
"","html-keyboard-response","372","978435","0.0-195.0-1.0","null","<p></p>","null","","","","","","","","","","","","","","","","","","","","","","","",""
"","do_recog","373","980894","0.0-196.0-0.0","946.8999999761581","","","","","","","","54","","","","407","probe-185","","","","","1","[object Object]","41","1","1","","","",""
"","html-keyboard-response","374","981897","0.0-196.0-1.0","null","<p></p>","null","","","","","","","","","","","","","","","","","","","","","","","",""
"","do_trial","375","984798","0.0-197.0-0.0","356","","","","","","","","49","1,0,0","6","blank","408","null","0.6720530874831933","0.4455993767658204","0.21397888286840822","1","","","","","","","","",""
"","html-keyboard-response","376","985802","0.0-197.0-1.0","null","<p></p>","null","","","","","","","","","","","","","","","","","","","","","","","",""
"","do_trial","377","989363","0.0-198.0-0.0","1011.5999999642372","","","","","","","","49","0,1,1","6","blank","409","null","0.5402254595747048","0.33162304172021523","0.13730101222050606","0","","","","","","","","",""
"","html-keyboard-response","378","990365","0.0-198.0-1.0","null","<p></p>","null","","","","","","","","","","","","","","","","","","","","","","","",""
"","do_trial","379","993205","0.0-199.0-0.0","290.80000001192093","","","","","","","","51","1,0,0","6","blank","410","null","0.6069415623645165","0.22339537428306463","0.09783342448593343","0","","","","","","","","",""
"","html-keyboard-response","380","994210","0.0-199.0-1.0","null","<p></p>","null","","","","","","","","","","","","","","","","","","","","","","","",""
"","do_trial","381","997289","0.0-200.0-0.0","533","","","","","","","","50","1,1,0","6","blank","411","null","0.6202016623383247","0.24274434710673543","0.05635349814308903","1","","","","","","","","",""
"","html-keyboard-response","382","998294","0.0-200.0-1.0","null","<p></p>","null","","","","","","","","","","","","","","","","","","","","","","","",""
"","do_trial","383","1001176","0.0-201.0-0.0","333.0999999642372","","","","","","","","51","1,0,0","6","blank","412","null","0.5317983281692957","0.3518268673264474","0.13034758091779483","0","","","","","","","","",""
"","html-keyboard-response","384","1002180","0.0-201.0-1.0","null","<p></p>","null","","","","","","","","","","","","","","","","","","","","","","","",""
"","do_recog","385","1004516","0.0-202.0-0.0","828.5","","","","","","","","54","","","","413","probe-45","","","","","1","[object Object]","46","1","1","","","",""
"","html-keyboard-response","386","1005520","0.0-202.0-1.0","null","<p></p>","null","","","","","","","","","","","","","","","","","","","","","","","",""
"","do_trial","387","1008414","0.0-203.0-0.0","344.7999999523163","","","","","","","","50","0,1,0","6","blank","414","null","0.5300468621445822","0.3922976322263784","0.1028032105569685","1","","","","","","","","",""
"","html-keyboard-response","388","1009417","0.0-203.0-1.0","null","<p></p>","null","","","","","","","","","","","","","","","","","","","","","","","",""
"","do_trial","389","1012434","0.0-204.0-0.0","470.0999999642372","","","","","","","","50","0,0,0","6","blank","415","null","0.5261106537008525","0.31713735031860524","0.10589311307275605","0","","","","","","","","",""
"","html-keyboard-response","390","1013435","0.0-204.0-1.0","null","<p></p>","null","","","","","","","","","","","","","","","","","","","","","","","",""
"","do_trial","391","1016374","0.0-205.0-0.0","389.5","","","","","","","","50","1,0,0","6","blank","416","null","0.6404204650174588","0.3139832029689432","0.16702164414308013","0","","","","","","","","",""
"","html-keyboard-response","392","1017375","0.0-205.0-1.0","null","<p></p>","null","","","","","","","","","","","","","","","","","","","","","","","",""
"","do_trial","393","1021059","0.0-206.0-0.0","1135.3999999761581","","","","","","","","50","1,0,0","6","blank","417","null","0.47289435397983937","0.33996535522369825","0.05551782341324458","0","","","","","","","","",""
"","html-keyboard-response","394","1022062","0.0-206.0-1.0","null","<p></p>","null","","","","","","","","","","","","","","","","","","","","","","","",""
"","do_trial","395","1025018","0.0-207.0-0.0","408.80000001192093","","","","","","","","50","1,0,0","6","blank","418","null","0.4417852115929216","0.2515828177997953","0.16001803519785063","0","","","","","","","","",""
"","html-keyboard-response","396","1026023","0.0-207.0-1.0","null","<p></p>","null","","","","","","","","","","","","","","","","","","","","","","","",""
"","do_recog","397","1028366","0.0-208.0-0.0","830.6000000238419","","","","","","","","54","","","","419","probe-195","","","","","1","[object Object]","203","5","1","","","",""
"","html-keyboard-response","398","1029369","0.0-208.0-1.0","null","<p></p>","null","","","","","","","","","","","","","","","","","","","","","","","",""
"","do_trial","399","1033236","0.0-209.0-0.0","1318.300000011921","","","","","","","","50","1,1,0","6","blank","420","null","0.6055718577631787","0.22613638207533357","0.17050273800663843","1","","","","","","","","",""
"","html-keyboard-response","400","1034240","0.0-209.0-1.0","null","<p></p>","null","","","","","","","","","","","","","","","","","","","","","","","",""
"","do_recog","401","1036744","0.0-210.0-0.0","994.6000000238419","","","","","","","","54","","","","421","probe-113","","","","","1","[object Object]","121","3","1","","","",""
"","html-keyboard-response","402","1037749","0.0-210.0-1.0","null","<p></p>","null","","","","","","","","","","","","","","","","","","","","","","","",""
"","do_trial","403","1040863","0.0-211.0-0.0","564.4000000357628","","","","","","","","50","1,0,0","6","blank","422","null","0.5931559745997758","0.1966341148167776","0.08132801734385116","0","","","","","","","","",""
"","html-keyboard-response","404","1041868","0.0-211.0-1.0","null","<p></p>","null","","","","","","","","","","","","","","","","","","","","","","","",""
"","do_trial","405","1044884","0.0-212.0-0.0","466.89999997615814","","","","","","","","50","1,0,0","6","blank","423","null","0.6080407455319763","0.2727224550675981","0.1242289086841876","0","","","","","","","","",""
"","html-keyboard-response","406","1045887","0.0-212.0-1.0","null","<p></p>","null","","","","","","","","","","","","","","","","","","","","","","","",""
"","do_trial","407","1049418","0.0-213.0-0.0","981.3999999761581","","","","","","","","50","0,0,0","6","blank","424","null","0.7368985352139863","0.2821648170626342","0.10360487336964326","0","","","","","","","","",""
"","html-keyboard-response","408","1050421","0.0-213.0-1.0","null","<p></p>","null","","","","","","","","","","","","","","","","","","","","","","","",""
"","do_trial","409","1053670","0.0-214.0-0.0","700.1999999880791","","","","","","","","50","1,0,0","6","blank","425","null","0.6921624112013494","0.33320122781591743","0.06705375115890543","0","","","","","","","","",""
"","html-keyboard-response","410","1054671","0.0-214.0-1.0","null","<p></p>","null","","","","","","","","","","","","","","","","","","","","","","","",""
"","do_trial","411","1058014","0.0-215.0-0.0","792.2000000476837","","","","","","","","50","1,0,0","6","blank","426","null","0.5711549062971369","0.27331967648136607","0.05908024028889738","0","","","","","","","","",""
"","html-keyboard-response","412","1059019","0.0-215.0-1.0","null","<p></p>","null","","","","","","","","","","","","","","","","","","","","","","","",""
"","do_trial","413","1062172","0.0-216.0-0.0","603.5","","","","","","","","50","0,0,0","6","blank","427","null","0.5887671716107666","0.3384631260810523","0.07559682681455925","0","","","","","","","","",""
"","html-keyboard-response","414","1063176","0.0-216.0-1.0","null","<p></p>","null","","","","","","","","","","","","","","","","","","","","","","","",""
"","do_recog","415","1064772","0.0-217.0-0.0","86.40000003576279","","","","","","","","54","","","","428","probe-95","","","","","1","[object Object]","205","5","1","","","",""
"","html-keyboard-response","416","1065776","0.0-217.0-1.0","null","<p></p>","null","","","","","","","","","","","","","","","","","","","","","","","",""
"","do_trial","417","1070014","0.0-218.0-0.0","1688.1000000238419","","","","","","","","50","1,0,1","6","blank","429","null","0.44188957497158443","0.3022818431795957","0.15795231713607558","0","","","","","","","","",""
"","html-keyboard-response","418","1071019","0.0-218.0-1.0","null","<p></p>","null","","","","","","","","","","","","","","","","","","","","","","","",""
"","do_recog","419","1074206","0.0-219.0-0.0","1676.6000000238419","","","","","","","","54","","","","430","probe-30","","","","","1","[object Object]","120","3","1","","","",""
"","html-keyboard-response","420","1075211","0.0-219.0-1.0","null","<p></p>","null","","","","","","","","","","","","","","","","","","","","","","","",""
"","do_trial","421","1079031","0.0-220.0-0.0","1271.1000000238419","","","","","","","","50","1,0,0","6","blank","431","null","0.5271407867607777","0.3114101605491672","0.15132930679621043","0","","","","","","","","",""
"","html-keyboard-response","422","1080036","0.0-220.0-1.0","null","<p></p>","null","","","","","","","","","","","","","","","","","","","","","","","",""
"","do_recog","423","1083567","0.0-221.0-0.0","2018.199999988079","","","","","","","","55","","","","432","probe-60","","","","","1","[object Object]","164","4","0","","","",""
"","html-keyboard-response","424","1084571","0.0-221.0-1.0","null","<p></p>","null","","","","","","","","","","","","","","","","","","","","","","","",""
"","do_trial","425","1088971","0.0-222.0-0.0","1850.9000000357628","","","","","","","","50","1,0,0","6","blank","433","null","0.7494500476745376","0.3482442100072947","0.05532748321403148","0","","","","","","","","",""
"","html-keyboard-response","426","1089974","0.0-222.0-1.0","null","<p></p>","null","","","","","","","","","","","","","","","","","","","","","","","",""
"","do_recog","427","1093631","0.0-223.0-0.0","2144","","","","","","","","54","","","","434","probe-171","","","","","1","[object Object]","44","1","1","","","",""
"","html-keyboard-response","428","1094637","0.0-223.0-1.0","null","<p></p>","null","","","","","","","","","","","","","","","","","","","","","","","",""
"","do_trial","429","1099559","0.0-224.0-0.0","2374.599999964237","","","","","","","","50","1,0,1","6","blank","435","null","0.6354204556984017","0.2526796998718134","0.14628071181893817","0","","","","","","","","",""
"","html-keyboard-response","430","1100563","0.0-224.0-1.0","null","<p></p>","null","","","","","","","","","","","","","","","","","","","","","","","",""
"","do_trial","431","1104409","0.0-225.0-0.0","1299","","","","","","","","50","0,1,0","6","blank","436","null","0.7218759062041107","0.22259006922028537","0.2031000187752769","1","","","","","","","","",""
"","html-keyboard-response","432","1105414","0.0-225.0-1.0","null","<p></p>","null","","","","","","","","","","","","","","","","","","","","","","","",""
"","do_recog","433","1108377","0.0-226.0-0.0","1453.5","","","","","","","","54","","","","437","probe-94","","","","","1","[object Object]","43","1","1","","","",""
"","html-keyboard-response","434","1109381","0.0-226.0-1.0","null","<p></p>","null","","","","","","","","","","","","","","","","","","","","","","","",""
"","do_trial","435","1112717","0.0-227.0-0.0","786.8999999761581","","","","","","","","50","0,1,0","6","blank","438","null","0.6799156068390501","0.32618471381226877","0.12098189144388785","1","","","","","","","","",""
"","html-keyboard-response","436","1113722","0.0-227.0-1.0","null","<p></p>","null","","","","","","","","","","","","","","","","","","","","","","","",""
"","do_recog","437","1116177","0.0-228.0-0.0","942.9000000357628","","","","","","","","54","","","","439","probe-82","","","","","1","[object Object]","165","4","1","","","",""
"","html-keyboard-response","438","1117183","0.0-228.0-1.0","null","<p></p>","null","","","","","","","","","","","","","","","","","","","","","","","",""
"","do_trial","439","1121187","0.0-229.0-0.0","1454","","","","","","","","50","0,1,0","6","blank","440","null","0.7048976359571841","0.30362557780750543","0.05689450362782472","1","","","","","","","","",""
"","html-keyboard-response","440","1122191","0.0-229.0-1.0","null","<p></p>","null","","","","","","","","","","","","","","","","","","","","","","","",""
"","do_trial","441","1125160","0.0-230.0-0.0","418.69999998807907","","","","","","","","50","0,1,0","6","blank","441","null","0.5079610768011537","0.30046711451460595","0.07266277877628541","1","","","","","","","","",""
"","html-keyboard-response","442","1126163","0.0-230.0-1.0","null","<p></p>","null","","","","","","","","","","","","","","","","","","","","","","","",""
"","do_trial","443","1129212","0.0-231.0-0.0","503.19999998807907","","","","","","","","51","0,0,0","6","blank","442","null","0.4670219339172802","0.2051589270795241","0.193398017090706","0","","","","","","","","",""
"","html-keyboard-response","444","1130215","0.0-231.0-1.0","null","<p></p>","null","","","","","","","","","","","","","","","","","","","","","","","",""
"","do_trial","445","1133272","0.0-232.0-0.0","510.60000002384186","","","","","","","","49","0,0,0","6","blank","443","null","0.5641828952733868","0.2039903986357721","0.12031580554869542","0","","","","","","","","",""
"","html-keyboard-response","446","1134278","0.0-232.0-1.0","null","<p></p>","null","","","","","","","","","","","","","","","","","","","","","","","",""
"","do_trial","447","1137273","0.0-233.0-0.0","446","","","","","","","","50","1,0,0","6","blank","444","null","0.5478376810372924","0.3222223666175249","0.1370326894780564","0","","","","","","","","",""
"","html-keyboard-response","448","1138277","0.0-233.0-1.0","null","<p></p>","null","","","","","","","","","","","","","","","","","","","","","","","",""
"","do_trial","449","1141746","0.0-234.0-0.0","923.5999999642372","","","","","","","","50","0,1,0","6","blank","445","null","0.6219789947752602","0.1426688354724697","0.12131483766139864","1","","","","","","","","",""
"","html-keyboard-response","450","1142751","0.0-234.0-1.0","null","<p></p>","null","","","","","","","","","","","","","","","","","","","","","","","",""
"","do_recog","451","1146212","0.0-235.0-0.0","1949.5","","","","","","","","54","","","","446","probe-174","","","","","1","[object Object]","166","4","1","","","",""
"","html-keyboard-response","452","1147217","0.0-235.0-1.0","null","<p></p>","null","","","","","","","","","","","","","","","","","","","","","","","",""
"","do_trial","453","1151491","0.0-236.0-0.0","1724.300000011921","","","","","","","","50","1,0,0","6","blank","447","null","0.6384439160548218","0.3529719116117358","0.11162322719887867","0","","","","","","","","",""
"","html-keyboard-response","454","1152497","0.0-236.0-1.0","null","<p></p>","null","","","","","","","","","","","","","","","","","","","","","","","",""
"","do_recog","455","1155368","0.0-237.0-0.0","1363","","","","","","","","54","","","","448","probe-50","","","","","1","[object Object]","167","4","1","","","",""
"","html-keyboard-response","456","1156373","0.0-237.0-1.0","null","<p></p>","null","","","","","","","","","","","","","","","","","","","","","","","",""
"","do_trial","457","1162427","0.0-238.0-0.0","null","","","","","","","","null","1,0,0","6","blank","449","null","0.5997512184310024","0.28484690831413334","0.14624731298382887","","","","","","","","","",""
"","html-keyboard-response","458","1163432","0.0-238.0-1.0","null","<p></p>","null","","","","","","","","","","","","","","","","","","","","","","","",""
"","do_trial","459","1166678","0.0-239.0-0.0","697.8000000119209","","","","","","","","50","0,1,0","6","blank","450","null","0.5489423025669543","0.36878712950801307","0.1379464836906024","1","","","","","","","","",""
"","html-keyboard-response","460","1167682","0.0-239.0-1.0","null","<p></p>","null","","","","","","","","","","","","","","","","","","","","","","","",""
"","do_trial","461","1172499","0.0-240.0-0.0","2271.300000011921","","","","","","","","50","1,0,0","6","blank","451","null","0.5941629301092753","0.41564365262206915","0.09450504603024643","0","","","","","","","","",""
"","html-keyboard-response","462","1173502","0.0-240.0-1.0","null","<p></p>","null","","","","","","","","","","","","","","","","","","","","","","","",""
"","do_trial","463","1176316","0.0-241.0-0.0","266","","","","","","","","50","1,1,0","6","blank","452","null","0.5943326823416807","0.35101132316935074","0.16746019526818176","1","","","","","","","","",""
"","html-keyboard-response","464","1177323","0.0-241.0-1.0","null","<p></p>","null","","","","","","","","","","","","","","","","","","","","","","","",""
"","do_recog","465","1183339","0.0-242.0-0.0","null","","","","","","","","null","","","","453","probe-249","","","","","0","[object Object]","null","null","0","","","",""
"","html-keyboard-response","466","1184344","0.0-242.0-1.0","null","<p></p>","null","","","","","","","","","","","","","","","","","","","","","","","",""
"","do_trial","467","1187876","0.0-243.0-0.0","985.1999999880791","","","","","","","","50","1,1,0","6","blank","454","null","0.6411442160033276","0.38440700238495934","0.07441365687102801","1","","","","","","","","",""
"","html-keyboard-response","468","1188882","0.0-243.0-1.0","null","<p></p>","null","","","","","","","","","","","","","","","","","","","","","","","",""
"","do_trial","469","1194165","0.0-244.0-0.0","2734","","","","","","","","50","1,0,0","6","blank","455","null","0.6654067303749974","0.39436686173511215","0.07183363260510349","0","","","","","","","","",""
"","html-keyboard-response","470","1195168","0.0-244.0-1.0","null","<p></p>","null","","","","","","","","","","","","","","","","","","","","","","","",""
"","do_trial","471","1198126","0.0-245.0-0.0","412","","","","","","","","51","1,0,0","6","blank","456","null","0.5757113711933017","0.2348172113487283","0.14364974833273425","0","","","","","","","","",""
"","html-keyboard-response","472","1199131","0.0-245.0-1.0","null","<p></p>","null","","","","","","","","","","","","","","","","","","","","","","","",""
"","do_trial","473","1201930","0.0-246.0-0.0","249.60000002384186","","","","","","","","50","1,0,1","6","blank","457","null","0.4771335604361262","0.23667051771598868","0.3384328210408654","0","","","","","","","","",""
"","html-keyboard-response","474","1202935","0.0-246.0-1.0","null","<p></p>","null","","","","","","","","","","","","","","","","","","","","","","","",""
"","do_recog","475","1205403","0.0-247.0-0.0","959.1999999880791","","","","","","","","54","","","","458","probe-234","","","","","0","[object Object]","null","null","0","","","",""
"","html-keyboard-response","476","1206407","0.0-247.0-1.0","null","<p></p>","null","","","","","","","","","","","","","","","","","","","","","","","",""
"","do_trial","477","1209748","0.0-248.0-0.0","791.1999999880791","","","","","","","","50","0,0,0","6","blank","459","null","0.2699264018317938","0.09160406391396649","0.42278846611577464","0","","","","","","","","",""
"","html-keyboard-response","478","1210751","0.0-248.0-1.0","null","<p></p>","null","","","","","","","","","","","","","","","","","","","","","","","",""
"","do_trial","479","1214045","0.0-249.0-0.0","749","","","","","","","","51","1,0,0","6","blank","460","null","0.3259565130733891","0.0969235173787418","0.3618099982418926","0","","","","","","","","",""
"","html-keyboard-response","480","1215050","0.0-249.0-1.0","null","<p></p>","null","","","","","","","","","","","","","","","","","","","","","","","",""
"","do_recog","481","1221068","0.0-250.0-0.0","null","","","","","","","","null","","","","461","probe-243","","","","","0","[object Object]","null","null","0","","","",""
"","html-keyboard-response","482","1222071","0.0-250.0-1.0","null","<p></p>","null","","","","","","","","","","","","","","","","","","","","","","","",""
"","do_trial","483","1225613","0.0-251.0-0.0","996.5","","","","","","","","50","0,0,0","6","blank","462","null","0.2975450083125","0.2363356073599576","0.4672746100606704","0","","","","","","","","",""
"","html-keyboard-response","484","1226617","0.0-251.0-1.0","null","<p></p>","null","","","","","","","","","","","","","","","","","","","","","","","",""
"","do_recog","485","1229105","0.0-252.0-0.0","977.7000000476837","","","","","","","","55","","","","463","probe-247","","","","","0","[object Object]","null","null","1","","","",""
"","html-keyboard-response","486","1230109","0.0-252.0-1.0","null","<p></p>","null","","","","","","","","","","","","","","","","","","","","","","","",""
"","do_trial","487","1233811","0.0-253.0-0.0","1152.3999999761581","","","","","","","","50","1,0,0","6","blank","464","null","0.27788411236799027","0.19421684472830125","0.38195251154650856","0","","","","","","","","",""
"","html-keyboard-response","488","1234816","0.0-253.0-1.0","null","<p></p>","null","","","","","","","","","","","","","","","","","","","","","","","",""
"","do_trial","489","1238356","0.0-254.0-0.0","993.1999999880791","","","","","","","","50","1,0,1","6","blank","465","null","0.1624218673818942","0.09406237920654566","0.5086883178177636","0","","","","","","","","",""
"","html-keyboard-response","490","1239361","0.0-254.0-1.0","null","<p></p>","null","","","","","","","","","","","","","","","","","","","","","","","",""
"","do_trial","491","1242949","0.0-255.0-0.0","1042.699999988079","","","","","","","","51","0,0,1","6","blank","466","null","0.1706075939519727","0.14801444882515033","0.5320722212157075","1","","","","","","","","",""
"","html-keyboard-response","492","1243954","0.0-255.0-1.0","null","<p></p>","null","","","","","","","","","","","","","","","","","","","","","","","",""
"","do_trial","493","1246588","0.0-256.0-0.0","88","","","","","","","","51","1,0,0","6","blank","467","null","0.2553789838568692","0.0644108752969237","0.7045389410904562","0","","","","","","","","",""
"","html-keyboard-response","494","1247590","0.0-256.0-1.0","null","<p></p>","null","","","","","","","","","","","","","","","","","","","","","","","",""
"","do_recog","495","1249772","0.0-257.0-0.0","668.5","","","","","","","","55","","","","468","probe-231","","","","","0","[object Object]","null","null","1","","","",""
"","html-keyboard-response","496","1250773","0.0-257.0-1.0","null","<p></p>","null","","","","","","","","","","","","","","","","","","","","","","","",""
"","do_trial","497","1253324","0.0-258.0-0.0","0.10000002384185791","","","","","","","","50","0,0,0","6","blank","469","null","0.2399541124759555","0.0991015554411209","0.5385968477298272","0","","","","","","","","",""
"","html-keyboard-response","498","1254326","0.0-258.0-1.0","null","<p></p>","null","","","","","","","","","","","","","","","","","","","","","","","",""
"","do_trial","499","1256953","0.0-259.0-0.0","82.10000002384186","","","","","","","","51","1,0,1","6","blank","470","null","0.21489422932528995","0.07020116573248944","0.6934535420891215","1","","","","","","","","",""
"","html-keyboard-response","500","1257955","0.0-259.0-1.0","null","<p></p>","null","","","","","","","","","","","","","","","","","","","","","","","",""
"","do_trial","501","1260650","0.0-260.0-0.0","147.5","","","","","","","","50","0,0,0","6","blank","471","null","0.31647795264211703","0.08674553751075655","0.6429885350348487","0","","","","","","","","",""
"","html-keyboard-response","502","1261654","0.0-260.0-1.0","null","<p></p>","null","","","","","","","","","","","","","","","","","","","","","","","",""
"","do_trial","503","1264883","0.0-261.0-0.0","682.0999999642372","","","","","","","","50","0,0,1","6","blank","472","null","0.3861003201196102","0.17561577675840007","0.4953858900020061","0","","","","","","","","",""
"","html-keyboard-response","504","1265887","0.0-261.0-1.0","null","<p></p>","null","","","","","","","","","","","","","","","","","","","","","","","",""
"","do_trial","505","1268431","0.0-262.0-0.0","0.10000002384185791","","","","","","","","50","0,0,0","6","blank","473","null","0.3775741143014087","0.10298549114609813","0.5086534663772375","0","","","","","","","","",""
"","html-keyboard-response","506","1269436","0.0-262.0-1.0","null","<p></p>","null","","","","","","","","","","","","","","","","","","","","","","","",""
"","do_recog","507","1271320","0.0-263.0-0.0","370","","","","","","","","54","","","","474","probe-237","","","","","0","[object Object]","null","null","0","","","",""
"","html-keyboard-response","508","1272326","0.0-263.0-1.0","null","<p></p>","null","","","","","","","","","","","","","","","","","","","","","","","",""
"","do_trial","509","1275030","0.0-264.0-0.0","159.30000001192093","","","","","","","","50","0,0,0","6","blank","475","null","0.40816547874298054","0.14415136057479924","0.45823736330027415","0","","","","","","","","",""
"","html-keyboard-response","510","1276035","0.0-264.0-1.0","null","<p></p>","null","","","","","","","","","","","","","","","","","","","","","","","",""
"","do_trial","511","1278583","0.0-265.0-0.0","0.09999996423721313","","","","","","","","50","0,0,0","6","blank","476","null","0.34296611419569867","0.14322595791499074","0.5103808157994423","0","","","","","","","","",""
"","html-keyboard-response","512","1279588","0.0-265.0-1.0","null","<p></p>","null","","","","","","","","","","","","","","","","","","","","","","","",""
"","do_trial","513","1282218","0.0-266.0-0.0","80.20000004768372","","","","","","","","50","0,1,1","6","blank","477","null","0.42434821405421425","0.24087950044184567","0.5759446856640371","1","","","","","","","","",""
"","html-keyboard-response","514","1283223","0.0-266.0-1.0","null","<p></p>","null","","","","","","","","","","","","","","","","","","","","","","","",""
