"success","trial_type","trial_index","time_elapsed","internal_node_id","rt","stimulus","key_press","subject_id","participant_id","age","gender","prompt","response","choice_outcomes","context_n","context_img_id","trial_n","probe_img_id","pR_red","pR_white","pR_black","outcome","is_valid","image_to_show","probed_trial","probed_context","correct","probe","probed_trial_n","probed_context_n","context_im"
"true","fullscreen","0","2735","0.0-0.0","","","","","","","","","","","","","","","","","","","","","","","","","","",""
"","pavlovia","1","2739","0.0-1.0","","","","","","","","","","","","","","","","","","","","","","","","","","",""
"","welc_back","2","15508","0.0-2.0","null","run_exp/static/audio/clip_29_welcome_back.m4a","null","63","3","12","female","<div class='center'><p>Welcome to day 2!</p><p> Yesterday, you were the head captain of a pirate ship. You and your fellow pirates robbed ships for their gold and traveled to six different islands .</p></div>","","","","","","","","","","","","","","","","","","",""
"","html-keyboard-response","3","16301","0.0-3.0","791.0999999940395","<div class='center'><p>Welcome to day 2!</p><p> Yesterday, you were the head captain of a pirate ship. You and your fellow pirates robbed ships for their gold and traveled to six different islands .</p><p><b>[Press the space bar to continue]</b></p></div>","32","","","","","","","","","","","","","","","","","","","","","","","",""
"","day_1_summary_goal","4","36265","0.0-4.0","null","run_exp/static/audio/clip_30_goal_of_game.m4a","null","","","","","<div class='center'><p>Today, like yesterday, you get to pick which pirate you want to rob the next ship.</p><p>If the pirate is successful in robbing a ship, you get gold coins that look like this: </p><p><img src='run_exp/static/images/tutorial/reward.png' height='150'></p><p> If they were not successful in robbing the ship, then you will get no gold coins and you'll see a big red x like this: </p><p><img src='run_exp/static/images/tutorial/reward_no.png' height='150'></p></div>","","","","","","","","","","","","","","","","","","",""
"","html-keyboard-response","5","36889","0.0-5.0","621.7000000178814","<div class='center'><p>Today, like yesterday, you get to pick which pirate you want to rob the next ship.</p><p>If the pirate is successful in robbing a ship, you get gold coins that look like this: </p><p><img src='run_exp/static/images/tutorial/reward.png' height='150'></p><p> If they were not successful in robbing the ship, then you will get no gold coins and you'll see a big red x like this: </p><p><img src='run_exp/static/images/tutorial/reward_no.png' height='150'></p><p><b>[Press the space bar to continue]</b></p></div>","32","","","","","","","","","","","","","","","","","","","","","","","",""
"","day_1_summary_pick","6","54724","0.0-6.0","null","run_exp/static/audio/clip_31_how_to_pick_a_pirate.m4a","null","","","","","<div class='center'><p>Also, just like yesterday, you will use the 1,2,3 keys on your keyboard to pick a pirate. Press '1' to choose red beard, '2' to choose white beard, and '3' to choose black beard . You only have 3 seconds to pick a pirate, so please make a choice quickly!</p></div>","","","","","","","","","","","","","","","","","","",""
"","html-keyboard-response","7","55071","0.0-7.0","346","<div class='center'><p>Also, just like yesterday, you will use the 1,2,3 keys on your keyboard to pick a pirate. Press '1' to choose red beard, '2' to choose white beard, and '3' to choose black beard . You only have 3 seconds to pick a pirate, so please make a choice quickly!</p><p><b>[Press the space bar to continue]</b></p></div>","32","","","","","","","","","","","","","","","","","","","","","","","",""
"","test_phase_begin","8","79499","0.0-8.0","null","run_exp/static/audio/clip_32_final_place.m4a","null","","","","","<div class='center'><p>You’ve arrived at the final island of your journey! Unfortunately, it’s very foggy out, so you won’t be able to see it in the distance like the other islands you've visited.</p><p>You’ll still be deciding which pirate you want to rob a ship like before. However, because of the fog, you also won’t be able to see the ship.</p><p>This means you do not have to remember the ships you rob on this island.</p></p></div>","","","","","","","","","","","","","","","","","","",""
"","html-keyboard-response","9","80655","0.0-9.0","1155.0999999940395","<div class='center'><p>You’ve arrived at the final island of your journey! Unfortunately, it’s very foggy out, so you won’t be able to see it in the distance like the other islands you've visited.</p><p>You’ll still be deciding which pirate you want to rob a ship like before. However, because of the fog, you also won’t be able to see the ship.</p><p>This means you do not have to remember the ships you rob on this island.</p></p><p><b>[Press the space bar to continue]</b></p></div>","32","","","","","","","","","","","","","","","","","","","","","","","",""
"","explain_probe_1","10","90087","0.0-10.0","null","run_exp/static/audio/clip_33_recognition_1.m4a","null","","","","","<div class='center'><p> Sometimes you’ll be shown a ship, and you will be asked if you saw this ship on a past island.</p><p> Here is an example of what you will see.</p><p><img src='run_exp/static/images/tutorial/example_recog_trial.png' height='500'></p></div>","","","","","","","","","","","","","","","","","","",""
"","html-keyboard-response","11","92637","0.0-11.0","2549.4000000059605","<div class='center'><p> Sometimes you’ll be shown a ship, and you will be asked if you saw this ship on a past island.</p><p> Here is an example of what you will see.</p><p><img src='run_exp/static/images/tutorial/example_recog_trial.png' height='500'></p><p><b>[Press the space bar to continue]</b></p></div>","32","","","","","","","","","","","","","","","","","","","","","","","",""
"","explain_probe_2","12","119459","0.0-12.0","null","run_exp/static/audio/clip_34_recognition_2.m4a","null","","","","","<div class='center'><p> You will press the 5, 6, 7, 8 keys on your keyboard to respond.</p><p>If you are very sure saw the ship, press <b>5</b> on your keyboard.</p><p> If you think you  saw it before but are not sure, then press <b>6</b>.</p><p> If you think you have <b>not</b> seen it before but are not sure, then press <b>7</b>.</p><p> If you are sure you did <b>not</b> see the ship before, then press <b>8</b>.</p><p><img src='run_exp/static/images/tutorial/example_recog_trial.png' height='500'></p></div>","","","","","","","","","","","","","","","","","","",""
"","html-keyboard-response","13","120052","0.0-13.0","592.2000000178814","<div class='center'><p> You will press the 5, 6, 7, 8 keys on your keyboard to respond.</p><p>If you are very sure saw the ship, press <b>5</b> on your keyboard.</p><p> If you think you  saw it before but are not sure, then press <b>6</b>.</p><p> If you think you have <b>not</b> seen it before but are not sure, then press <b>7</b>.</p><p> If you are sure you did <b>not</b> see the ship before, then press <b>8</b>.</p><p><img src='run_exp/static/images/tutorial/example_recog_trial.png' height='500'></p><p><b>[Press the space bar to continue]</b></p></div>","32","","","","","","","","","","","","","","","","","","","","","","","",""
"","explain_outcome","14","141587","0.0-14.0","null","run_exp/static/audio/clip_35_recognition_3.m4a","null","","","","","<div class='center'><p> If you remember correctly, then you’ll get a gold coin like this: </p><p><img src='run_exp/static/images/tutorial/reward_small.png' height='200'></p><p>If you do not remember correctly, then you'll see a red x like this: </p><p><img src='run_exp/static/images/tutorial/reward_no.png' height='200'></p><p>Importantly, when you are shown a ship, take the time to remind yourself which island you saw it on. This will help you in the next part of the study.</p></div>","","","","","","","","","","","","","","","","","","",""
"","html-keyboard-response","15","142139","0.0-15.0","551.0999999940395","<div class='center'><p> If you remember correctly, then you’ll get a gold coin like this: </p><p><img src='run_exp/static/images/tutorial/reward_small.png' height='200'></p><p>If you do not remember correctly, then you'll see a red x like this: </p><p><img src='run_exp/static/images/tutorial/reward_no.png' height='200'></p><p>Importantly, when you are shown a ship, take the time to remind yourself which island you saw it on. This will help you in the next part of the study.</p><p><b>[Press the space bar to continue]</b></p></div>","32","","","","","","","","","","","","","","","","","","","","","","","",""
"","begin_test_phase","16","166664","0.0-16.0","null","run_exp/static/audio/clip_36_begin_final.m4a","null","","","","","<div class='center'><p>Let's go over the important points again. Your job is to: </p><p>1. Pick the pirate who is best at robbing ships and will bring you back gold coins. </p><p>2. Correctly remember whether or not you saw a ship before. If you did see the ship before, remind yourself on which island you saw the ship. </p></div>","","","","","","","","","","","","","","","","","","",""
"","html-keyboard-response","17","167156","0.0-17.0","454.30000001192093","<div class='center'><p>Let's go over the important points again. Your job is to: </p><p>1. Pick the pirate who is best at robbing ships and will bring you back gold coins. </p><p>2. Correctly remember whether or not you saw a ship before. If you did see the ship before, remind yourself on which island you saw the ship. </p><p><b>[Press the space bar to continue]</b></p></div>","32","","","","","","","","","","","","","","","","","","","","","","","",""
"","do_welcome","18","168668","0.0-18.0","null","","","","","","","","null","","","","","","","","","","","","","","","","","",""
"","do_trial","19","172796","0.0-19.0-0.0","1585.0999999940395","","","","","","","","50","0,0,0","6","blank","230","null","0.4128458024897833","0.5535141395147267","0.1154978571886925","0","","","","","","","","",""
"","html-keyboard-response","20","173798","0.0-19.0-1.0","null","<p></p>","null","","","","","","","","","","","","","","","","","","","","","","","",""
"","do_trial","21","176796","0.0-20.0-0.0","454.09999999403954","","","","","","","","49","1,0,0","6","blank","231","null","0.3559786983184638","0.7345171988876242","0.12328905711785933","1","","","","","","","","",""
"","html-keyboard-response","22","177798","0.0-20.0-1.0","null","<p></p>","null","","","","","","","","","","","","","","","","","","","","","","","",""
"","do_trial","23","180696","0.0-21.0-0.0","360.59999999403954","","","","","","","","49","0,0,0","6","blank","232","null","0.26754247668973874","0.6499246384678712","0.06762187555155781","0","","","","","","","","",""
"","html-keyboard-response","24","181697","0.0-21.0-1.0","null","<p></p>","null","","","","","","","","","","","","","","","","","","","","","","","",""
"","do_trial","25","184586","0.0-22.0-0.0","338.09999999403954","","","","","","","","49","0,1,0","6","blank","233","null","0.1859418705290527","0.6386156794236701","0.11849572292780337","0","","","","","","","","",""
"","html-keyboard-response","26","185589","0.0-22.0-1.0","null","<p></p>","null","","","","","","","","","","","","","","","","","","","","","","","",""
"","do_trial","27","188464","0.0-23.0-0.0","336.7000000178814","","","","","","","","50","0,1,0","6","blank","234","null","0.23010662364343815","0.6161853482422412","0.17376163997097321","1","","","","","","","","",""
"","html-keyboard-response","28","189468","0.0-23.0-1.0","null","<p></p>","null","","","","","","","","","","","","","","","","","","","","","","","",""
"","do_trial","29","192345","0.0-24.0-0.0","338.40000000596046","","","","","","","","50","0,1,0","6","blank","235","null","0.14121309167013452","0.5704063755685657","0.10677005039882023","1","","","","","","","","",""
"","html-keyboard-response","30","193348","0.0-24.0-1.0","null","<p></p>","null","","","","","","","","","","","","","","","","","","","","","","","",""
"","do_trial","31","196223","0.0-25.0-0.0","337.2000000178814","","","","","","","","50","1,0,0","6","blank","236","null","0.2557805307102147","0.5858221087959246","0.1307722786483092","0","","","","","","","","",""
"","html-keyboard-response","32","197228","0.0-25.0-1.0","null","<p></p>","null","","","","","","","","","","","","","","","","","","","","","","","",""
"","do_trial","33","200113","0.0-26.0-0.0","344.40000000596046","","","","","","","","51","0,0,0","6","blank","237","null","0.15361812396506225","0.61051329900034","0.07418865224771944","0","","","","","","","","",""
"","html-keyboard-response","34","201116","0.0-26.0-1.0","null","<p></p>","null","","","","","","","","","","","","","","","","","","","","","","","",""
"","do_trial","35","204147","0.0-27.0-0.0","489.69999998807907","","","","","","","","49","0,1,0","6","blank","238","null","0.20826582547342865","0.7867076732753188","0.07459848789140881","0","","","","","","","","",""
"","html-keyboard-response","36","205151","0.0-27.0-1.0","null","<p></p>","null","","","","","","","","","","","","","","","","","","","","","","","",""
"","do_trial","37","208002","0.0-28.0-0.0","310.60000002384186","","","","","","","","50","0,1,0","6","blank","239","null","0.15384453529016137","0.6754763981078244","0.08366154707013278","1","","","","","","","","",""
"","html-keyboard-response","38","209006","0.0-28.0-1.0","null","<p></p>","null","","","","","","","","","","","","","","","","","","","","","","","",""
"","do_trial","39","211866","0.0-29.0-0.0","318.89999997615814","","","","","","","","50","0,0,0","6","blank","240","null","0.2444177005278581","0.5376599634956771","0.16087841513828696","0","","","","","","","","",""
"","html-keyboard-response","40","212871","0.0-29.0-1.0","null","<p></p>","null","","","","","","","","","","","","","","","","","","","","","","","",""
"","do_recog","41","218883","0.0-30.0-0.0","null","","","","","","","","null","","","","241","probe-224","","","","","1","[object Object]","129","3","0","","","",""
"","html-keyboard-response","42","219887","0.0-30.0-1.0","null","<p></p>","null","","","","","","","","","","","","","","","","","","","","","","","",""
"","do_trial","43","225928","0.0-31.0-0.0","null","","","","","","","","null","0,1,0","6","blank","242","null","0.28604511285288964","0.5554799828049319","0.2373694982703135","","","","","","","","","",""
"","html-keyboard-response","44","226932","0.0-31.0-1.0","null","<p></p>","null","","","","","","","","","","","","","","","","","","","","","","","",""
"","do_trial","45","231093","0.0-32.0-0.0","1624.0999999940395","","","","","","","","50","0,1,0","6","blank","243","null","0.10481565844137121","0.4696504779405884","0.43822346696135855","1","","","","","","","","",""
"","html-keyboard-response","46","232096","0.0-32.0-1.0","null","<p></p>","null","","","","","","","","","","","","","","","","","","","","","","","",""
"","do_trial","47","235286","0.0-33.0-0.0","652.0999999940395","","","","","","","","50","0,0,0","6","blank","244","null","0.18654794730976243","0.4352846399720734","0.5410699431368183","0","","","","","","","","",""
"","html-keyboard-response","48","236288","0.0-33.0-1.0","null","<p></p>","null","","","","","","","","","","","","","","","","","","","","","","","",""
"","do_trial","49","239452","0.0-34.0-0.0","627","","","","","","","","50","1,0,1","6","blank","245","null","0.20939307845135077","0.4858647055669056","0.6431980347582867","0","","","","","","","","",""
"","html-keyboard-response","50","240457","0.0-34.0-1.0","null","<p></p>","null","","","","","","","","","","","","","","","","","","","","","","","",""
"","do_trial","51","243531","0.0-35.0-0.0","532","","","","","","","","50","0,1,0","6","blank","246","null","0.18513451990612684","0.4563603734376247","0.5566088917965237","1","","","","","","","","",""
"","html-keyboard-response","52","244537","0.0-35.0-1.0","null","<p></p>","null","","","","","","","","","","","","","","","","","","","","","","","",""
"","do_recog","53","248137","0.0-36.0-0.0","2091.600000023842","","","","","","","","54","","","","247","probe-114","","","","","1","[object Object]","85","2","1","","","",""
"","html-keyboard-response","54","249140","0.0-36.0-1.0","null","<p></p>","null","","","","","","","","","","","","","","","","","","","","","","","",""
"","do_trial","55","253313","0.0-37.0-0.0","1630.5","","","","","","","","50","0,0,1","6","blank","248","null","0.082309674936386","0.3217397122819095","0.6398471032505808","0","","","","","","","","",""
"","html-keyboard-response","56","254319","0.0-37.0-1.0","null","<p></p>","null","","","","","","","","","","","","","","","","","","","","","","","",""
"","do_trial","57","257289","0.0-38.0-0.0","428.59999999403954","","","","","","","","49","0,0,1","6","blank","249","null","0.08947062767619428","0.35090158154519563","0.5732315444948354","0","","","","","","","","",""
"","html-keyboard-response","58","258295","0.0-38.0-1.0","null","<p></p>","null","","","","","","","","","","","","","","","","","","","","","","","",""
"","do_trial","59","261086","0.0-39.0-0.0","252.90000000596046","","","","","","","","50","0,0,0","6","blank","250","null","0.16437414106602674","0.28579332861844486","0.5262121363424358","0","","","","","","","","",""
"","html-keyboard-response","60","262089","0.0-39.0-1.0","null","<p></p>","null","","","","","","","","","","","","","","","","","","","","","","","",""
"","do_trial","61","264929","0.0-40.0-0.0","297.7000000178814","","","","","","","","51","1,0,1","6","blank","251","null","0.24414342694872396","0.21796720006058695","0.455926743807956","1","","","","","","","","",""
"","html-keyboard-response","62","265933","0.0-40.0-1.0","null","<p></p>","null","","","","","","","","","","","","","","","","","","","","","","","",""
"","do_recog","63","269125","0.0-41.0-0.0","1685.4000000059605","","","","","","","","56","","","","252","probe-53","","","","","1","[object Object]","168","4","0","","","",""
"","html-keyboard-response","64","270128","0.0-41.0-1.0","null","<p></p>","null","","","","","","","","","","","","","","","","","","","","","","","",""
"","do_trial","65","273743","0.0-42.0-0.0","1074.800000011921","","","","","","","","50","0,0,0","6","blank","253","null","0.2834800385677739","0.390142649820897","0.5806460557175729","0","","","","","","","","",""
"","html-keyboard-response","66","274747","0.0-42.0-1.0","null","<p></p>","null","","","","","","","","","","","","","","","","","","","","","","","",""
"","do_trial","67","277695","0.0-43.0-0.0","407.39999997615814","","","","","","","","51","0,0,0","6","blank","254","null","0.23503518089555922","0.2785278399106019","0.4679054319971692","0","","","","","","","","",""
"","html-keyboard-response","68","278699","0.0-43.0-1.0","null","<p></p>","null","","","","","","","","","","","","","","","","","","","","","","","",""
"","do_trial","69","281966","0.0-44.0-0.0","729","","","","","","","","49","1,1,0","6","blank","255","null","0.2674630658215495","0.2630275485767166","0.42721197068525063","1","","","","","","","","",""
"","html-keyboard-response","70","282968","0.0-44.0-1.0","null","<p></p>","null","","","","","","","","","","","","","","","","","","","","","","","",""
"","do_trial","71","286028","0.0-45.0-0.0","522.1999999880791","","","","","","","","49","0,0,1","6","blank","256","null","0.15271680182328623","0.2578055979867211","0.509819450000383","0","","","","","","","","",""
"","html-keyboard-response","72","287032","0.0-45.0-1.0","null","<p></p>","null","","","","","","","","","","","","","","","","","","","","","","","",""
"","do_trial","73","289864","0.0-46.0-0.0","290.19999998807907","","","","","","","","50","0,0,0","6","blank","257","null","0.13749987282998408","0.30292536567492506","0.5019690034112949","0","","","","","","","","",""
"","html-keyboard-response","74","290867","0.0-46.0-1.0","null","<p></p>","null","","","","","","","","","","","","","","","","","","","","","","","",""
"","do_recog","75","293924","0.0-47.0-0.0","1552","","","","","","","","53","","","","258","probe-176","","","","","1","[object Object]","122","3","1","","","",""
"","html-keyboard-response","76","294927","0.0-47.0-1.0","null","<p></p>","null","","","","","","","","","","","","","","","","","","","","","","","",""
"","do_trial","77","298430","0.0-48.0-0.0","962.5","","","","","","","","49","1,0,0","6","blank","259","null","0.12788526090651292","0.29339286040386336","0.5467409650060661","1","","","","","","","","",""
"","html-keyboard-response","78","299432","0.0-48.0-1.0","null","<p></p>","null","","","","","","","","","","","","","","","","","","","","","","","",""
"","do_recog","79","302348","0.0-49.0-0.0","1409.2000000178814","","","","","","","","53","","","","260","probe-11","","","","","1","[object Object]","82","2","1","","","",""
"","html-keyboard-response","80","303351","0.0-49.0-1.0","null","<p></p>","null","","","","","","","","","","","","","","","","","","","","","","","",""
"","do_trial","81","306692","0.0-50.0-0.0","801.9000000059605","","","","","","","","49","0,1,0","6","blank","261","null","0.06000187910571254","0.31548337057637243","0.5334394895820707","0","","","","","","","","",""
"","html-keyboard-response","82","307696","0.0-50.0-1.0","null","<p></p>","null","","","","","","","","","","","","","","","","","","","","","","","",""
"","do_trial","83","310509","0.0-51.0-0.0","272.59999999403954","","","","","","","","50","1,0,0","6","blank","262","null","0.16882780415146412","0.34281136907967336","0.6286747612332348","0","","","","","","","","",""
"","html-keyboard-response","84","311515","0.0-51.0-1.0","null","<p></p>","null","","","","","","","","","","","","","","","","","","","","","","","",""
"","do_recog","85","314109","0.0-52.0-0.0","1085.7999999821186","","","","","","","","53","","","","263","probe-108","","","","","1","[object Object]","46","1","1","","","",""
"","html-keyboard-response","86","315111","0.0-52.0-1.0","null","<p></p>","null","","","","","","","","","","","","","","","","","","","","","","","",""
"","do_trial","87","318494","0.0-53.0-0.0","842.8000000119209","","","","","","","","49","0,1,1","6","blank","264","null","0.1163601582675947","0.4648865122661738","0.6822257062986188","0","","","","","","","","",""
"","html-keyboard-response","88","319498","0.0-53.0-1.0","null","<p></p>","null","","","","","","","","","","","","","","","","","","","","","","","",""
"","do_trial","89","322579","0.0-54.0-0.0","543","","","","","","","","50","1,0,1","6","blank","265","null","0.08710582072574263","0.4690442949973463","0.5662279704455268","0","","","","","","","","",""
"","html-keyboard-response","90","323580","0.0-54.0-1.0","null","<p></p>","null","","","","","","","","","","","","","","","","","","","","","","","",""
"","do_trial","91","326759","0.0-55.0-0.0","636.4000000059605","","","","","","","","50","0,1,1","6","blank","266","null","0.1285192343752861","0.6469981918513744","0.5874002182481289","1","","","","","","","","",""
"","html-keyboard-response","92","327762","0.0-55.0-1.0","null","<p></p>","null","","","","","","","","","","","","","","","","","","","","","","","",""
"","do_trial","93","330894","0.0-56.0-0.0","591.5","","","","","","","","50","0,1,1","6","blank","267","null","0.10681658456324147","0.4487023466943433","0.6812961860266981","1","","","","","","","","",""
"","html-keyboard-response","94","331898","0.0-56.0-1.0","null","<p></p>","null","","","","","","","","","","","","","","","","","","","","","","","",""
"","do_trial","95","334796","0.0-57.0-0.0","357.80000001192093","","","","","","","","50","0,1,0","6","blank","268","null","0.07570492371369705","0.3254245776622705","0.7559593696672825","1","","","","","","","","",""
"","html-keyboard-response","96","335800","0.0-57.0-1.0","null","<p></p>","null","","","","","","","","","","","","","","","","","","","","","","","",""
"","do_trial","97","338922","0.0-58.0-0.0","583.4000000059605","","","","","","","","50","0,0,1","6","blank","269","null","0.14347425116627066","0.4125847316468032","0.7621241871574297","0","","","","","","","","",""
"","html-keyboard-response","98","339924","0.0-58.0-1.0","null","<p></p>","null","","","","","","","","","","","","","","","","","","","","","","","",""
"","do_recog","99","342885","0.0-59.0-0.0","1450.800000011921","","","","","","","","56","","","","270","probe-40","","","","","1","[object Object]","49","1","0","","","",""
"","html-keyboard-response","100","343890","0.0-59.0-1.0","null","<p></p>","null","","","","","","","","","","","","","","","","","","","","","","","",""
"","do_trial","101","347041","0.0-60.0-0.0","612.9000000059605","","","","","","","","49","0,0,1","6","blank","271","null","0.1452719366329297","0.34919900719521446","0.6108039680502921","0","","","","","","","","",""
"","html-keyboard-response","102","348047","0.0-60.0-1.0","null","<p></p>","null","","","","","","","","","","","","","","","","","","","","","","","",""
"","do_recog","103","350539","0.0-61.0-0.0","984.6999999880791","","","","","","","","53","","","","272","probe-49","","","","","1","[object Object]","87","2","1","","","",""
"","html-keyboard-response","104","351543","0.0-61.0-1.0","null","<p></p>","null","","","","","","","","","","","","","","","","","","","","","","","",""
"","do_trial","105","354837","0.0-62.0-0.0","753.3999999761581","","","","","","","","49","0,1,0","6","blank","273","null","0.10576546141494665","0.403631948413448","0.5832485658461235","0","","","","","","","","",""
"","html-keyboard-response","106","355840","0.0-62.0-1.0","null","<p></p>","null","","","","","","","","","","","","","","","","","","","","","","","",""
"","do_trial","107","358714","0.0-63.0-0.0","335.09999999403954","","","","","","","","50","0,0,0","6","blank","274","null","0.12044098482333268","0.3950894107308814","0.4388664578285537","0","","","","","","","","",""
"","html-keyboard-response","108","359717","0.0-63.0-1.0","null","<p></p>","null","","","","","","","","","","","","","","","","","","","","","","","",""
"","do_trial","109","362595","0.0-64.0-0.0","341","","","","","","","","51","0,0,0","6","blank","275","null","0.05568452224554783","0.30673924630135313","0.42297519472514145","0","","","","","","","","",""
"","html-keyboard-response","110","363601","0.0-64.0-1.0","null","<p></p>","null","","","","","","","","","","","","","","","","","","","","","","","",""
"","do_recog","111","366634","0.0-65.0-0.0","1525.7999999821186","","","","","","","","56","","","","276","probe-221","","","","","1","[object Object]","207","5","0","","","",""
"","html-keyboard-response","112","367637","0.0-65.0-1.0","null","<p></p>","null","","","","","","","","","","","","","","","","","","","","","","","",""
"","do_trial","113","370715","0.0-66.0-0.0","536","","","","","","","","49","1,1,0","6","blank","277","null","0.10538552121829861","0.33760174773409035","0.48625979194471564","1","","","","","","","","",""
"","html-keyboard-response","114","371718","0.0-66.0-1.0","null","<p></p>","null","","","","","","","","","","","","","","","","","","","","","","","",""
"","do_recog","115","374353","0.0-67.0-0.0","1128.7000000178814","","","","","","","","53","","","","278","probe-139","","","","","1","[object Object]","84","2","1","","","",""
"","html-keyboard-response","116","375354","0.0-67.0-1.0","null","<p></p>","null","","","","","","","","","","","","","","","","","","","","","","","",""
"","do_trial","117","378432","0.0-68.0-0.0","540.5","","","","","","","","49","0,0,1","6","blank","279","null","0.06825759359781036","0.3820966040532995","0.6106834653240967","0","","","","","","","","",""
"","html-keyboard-response","118","379433","0.0-68.0-1.0","null","<p></p>","null","","","","","","","","","","","","","","","","","","","","","","","",""
"","do_recog","119","381989","0.0-69.0-0.0","1045","","","","","","","","53","","","","280","probe-110","","","","","1","[object Object]","83","2","1","","","",""
"","html-keyboard-response","120","382993","0.0-69.0-1.0","null","<p></p>","null","","","","","","","","","","","","","","","","","","","","","","","",""
"","do_trial","121","386065","0.0-70.0-0.0","533.5999999940395","","","","","","","","49","1,0,0","6","blank","281","null","0.16339029413382414","0.365333323584715","0.701688701283473","1","","","","","","","","",""
"","html-keyboard-response","122","387068","0.0-70.0-1.0","null","<p></p>","null","","","","","","","","","","","","","","","","","","","","","","","",""
"","do_trial","123","390105","0.0-71.0-0.0","498.69999998807907","","","","","","","","49","1,0,0","6","blank","282","null","0.2844968971096633","0.43622137238190356","0.5645772157703778","1","","","","","","","","",""
"","html-keyboard-response","124","391110","0.0-71.0-1.0","null","<p></p>","null","","","","","","","","","","","","","","","","","","","","","","","",""
"","do_trial","125","393988","0.0-72.0-0.0","337.90000000596046","","","","","","","","49","0,0,0","6","blank","283","null","0.19974991528474575","0.3553743100405495","0.4880931344356417","0","","","","","","","","",""
"","html-keyboard-response","126","394992","0.0-72.0-1.0","null","<p></p>","null","","","","","","","","","","","","","","","","","","","","","","","",""
"","do_trial","127","397876","0.0-73.0-0.0","342.7000000178814","","","","","","","","50","0,0,0","6","blank","284","null","0.18203050017096853","0.20372224405881476","0.538040520871566","0","","","","","","","","",""
"","html-keyboard-response","128","398881","0.0-73.0-1.0","null","<p></p>","null","","","","","","","","","","","","","","","","","","","","","","","",""
"","do_recog","129","401625","0.0-74.0-0.0","1237.5","","","","","","","","53","","","","285","probe-05","","","","","1","[object Object]","80","2","1","","","",""
"","html-keyboard-response","130","402628","0.0-74.0-1.0","null","<p></p>","null","","","","","","","","","","","","","","","","","","","","","","","",""
"","do_trial","131","405703","0.0-75.0-0.0","537.2000000178814","","","","","","","","51","0,0,1","6","blank","286","null","0.198284988943817","0.2641054408573202","0.6239153680353461","1","","","","","","","","",""
"","html-keyboard-response","132","406707","0.0-75.0-1.0","null","<p></p>","null","","","","","","","","","","","","","","","","","","","","","","","",""
"","do_trial","133","409551","0.0-76.0-0.0","306.59999999403954","","","","","","","","51","1,0,0","6","blank","287","null","0.119732955550642","0.23225661999468547","0.6445383872820493","0","","","","","","","","",""
"","html-keyboard-response","134","410557","0.0-76.0-1.0","null","<p></p>","null","","","","","","","","","","","","","","","","","","","","","","","",""
"","do_trial","135","413636","0.0-77.0-0.0","537.2000000178814","","","","","","","","50","0,0,0","6","blank","288","null","0.15820381255067362","0.1572910233622095","0.5982561511494121","0","","","","","","","","",""
"","html-keyboard-response","136","414639","0.0-77.0-1.0","null","<p></p>","null","","","","","","","","","","","","","","","","","","","","","","","",""
"","do_trial","137","417601","0.0-78.0-0.0","422","","","","","","","","49","0,0,0","6","blank","289","null","0.09183654257330659","0.24329581901417174","0.607755051259952","0","","","","","","","","",""
"","html-keyboard-response","138","418606","0.0-78.0-1.0","null","<p></p>","null","","","","","","","","","","","","","","","","","","","","","","","",""
"","do_recog","139","421183","0.0-79.0-0.0","1070.699999988079","","","","","","","","53","","","","290","probe-111","","","","","1","[object Object]","43","1","1","","","",""
"","html-keyboard-response","140","422188","0.0-79.0-1.0","null","<p></p>","null","","","","","","","","","","","","","","","","","","","","","","","",""
"","do_trial","141","425338","0.0-80.0-0.0","609.7999999821186","","","","","","","","49","0,0,1","6","blank","291","null","0.06165408374659809","0.3946521052421055","0.6278821968562531","0","","","","","","","","",""
"","html-keyboard-response","142","426342","0.0-80.0-1.0","null","<p></p>","null","","","","","","","","","","","","","","","","","","","","","","","",""
"","do_recog","143","429447","0.0-81.0-0.0","1598.699999988079","","","","","","","","56","","","","292","probe-70","","","","","1","[object Object]","160","4","0","","","",""
"","html-keyboard-response","144","430451","0.0-81.0-1.0","null","<p></p>","null","","","","","","","","","","","","","","","","","","","","","","","",""
"","do_trial","145","433568","0.0-82.0-0.0","577.7000000178814","","","","","","","","49","0,0,1","6","blank","293","null","0.1169713686059608","0.41965617015590523","0.5878590056929864","0","","","","","","","","",""
"","html-keyboard-response","146","434570","0.0-82.0-1.0","null","<p></p>","null","","","","","","","","","","","","","","","","","","","","","","","",""
"","do_trial","147","437787","0.0-83.0-0.0","675.3000000119209","","","","","","","","50","0,1,0","6","blank","294","null","0.1477345402144334","0.4915507679320863","0.5960871647132414","1","","","","","","","","",""
"","html-keyboard-response","148","438789","0.0-83.0-1.0","null","<p></p>","null","","","","","","","","","","","","","","","","","","","","","","","",""
"","do_trial","149","441896","0.0-84.0-0.0","567.6999999880791","","","","","","","","50","0,1,0","6","blank","295","null","0.20511337199325905","0.42316643291534656","0.43212785065175935","1","","","","","","","","",""
"","html-keyboard-response","150","442899","0.0-84.0-1.0","null","<p></p>","null","","","","","","","","","","","","","","","","","","","","","","","",""
"","do_recog","151","445679","0.0-85.0-0.0","1271.9000000059605","","","","","","","","53","","","","296","probe-50","","","","","1","[object Object]","165","4","1","","","",""
"","html-keyboard-response","152","446680","0.0-85.0-1.0","null","<p></p>","null","","","","","","","","","","","","","","","","","","","","","","","",""
"","do_trial","153","450090","0.0-86.0-0.0","868.3000000119209","","","","","","","","49","1,1,0","6","blank","297","null","0.16791513066212113","0.5081232404891617","0.2717509966559117","1","","","","","","","","",""
"","html-keyboard-response","154","451094","0.0-86.0-1.0","null","<p></p>","null","","","","","","","","","","","","","","","","","","","","","","","",""
"","do_recog","155","454203","0.0-87.0-0.0","1598.5999999940395","","","","","","","","56","","","","298","probe-248","","","","","0","[object Object]","null","null","1","","","",""
"","html-keyboard-response","156","455207","0.0-87.0-1.0","null","<p></p>","null","","","","","","","","","","","","","","","","","","","","","","","",""
"","do_trial","157","458358","0.0-88.0-0.0","612.5999999940395","","","","","","","","49","0,1,0","6","blank","299","null","0.330272975512009","0.6130806579828935","0.14351976647087214","0","","","","","","","","",""
"","html-keyboard-response","158","459364","0.0-88.0-1.0","null","<p></p>","null","","","","","","","","","","","","","","","","","","","","","","","",""
"","do_trial","159","462375","0.0-89.0-0.0","471.2000000178814","","","","","","","","50","1,0,0","6","blank","300","null","0.30491204100623226","0.6312455195231675","0.12206683197480495","0","","","","","","","","",""
"","html-keyboard-response","160","463376","0.0-89.0-1.0","null","<p></p>","null","","","","","","","","","","","","","","","","","","","","","","","",""
"","do_trial","161","466269","0.0-90.0-0.0","355.90000000596046","","","","","","","","51","0,0,0","6","blank","301","null","0.29055111843125353","0.6778376961972029","0.1439087978870609","0","","","","","","","","",""
"","html-keyboard-response","162","467273","0.0-90.0-1.0","null","<p></p>","null","","","","","","","","","","","","","","","","","","","","","","","",""
"","do_recog","163","469817","0.0-91.0-0.0","1033.699999988079","","","","","","","","53","","","","302","probe-208","","","","","1","[object Object]","167","4","1","","","",""
"","html-keyboard-response","164","470822","0.0-91.0-1.0","null","<p></p>","null","","","","","","","","","","","","","","","","","","","","","","","",""
"","do_trial","165","474152","0.0-92.0-0.0","790.3000000119209","","","","","","","","49","0,1,0","6","blank","303","null","0.2873734569794253","0.5664229463748581","0.22928994815943063","0","","","","","","","","",""
"","html-keyboard-response","166","475156","0.0-92.0-1.0","null","<p></p>","null","","","","","","","","","","","","","","","","","","","","","","","",""
"","do_trial","167","478180","0.0-93.0-0.0","486.89999997615814","","","","","","","","50","0,1,0","6","blank","304","null","0.3276816081420492","0.5139048847552766","0.26378364886287287","1","","","","","","","","",""
"","html-keyboard-response","168","479184","0.0-93.0-1.0","null","<p></p>","null","","","","","","","","","","","","","","","","","","","","","","","",""
"","do_trial","169","482294","0.0-94.0-0.0","574.2000000178814","","","","","","","","50","1,0,0","6","blank","305","null","0.44247004049833394","0.3586915182977644","0.21981565388829538","0","","","","","","","","",""
"","html-keyboard-response","170","483299","0.0-94.0-1.0","null","<p></p>","null","","","","","","","","","","","","","","","","","","","","","","","",""
"","do_trial","171","486239","0.0-95.0-0.0","399.40000000596046","","","","","","","","49","1,0,0","6","blank","306","null","0.42510555604689126","0.4835620419348501","0.12199258825592779","1","","","","","","","","",""
"","html-keyboard-response","172","487244","0.0-95.0-1.0","null","<p></p>","null","","","","","","","","","","","","","","","","","","","","","","","",""
"","do_trial","173","490453","0.0-96.0-0.0","670.3000000119209","","","","","","","","49","1,0,0","6","blank","307","null","0.3242193401547155","0.7142836066298517","0.08532628142601287","1","","","","","","","","",""
"","html-keyboard-response","174","491456","0.0-96.0-1.0","null","<p></p>","null","","","","","","","","","","","","","","","","","","","","","","","",""
"","do_trial","175","494557","0.0-97.0-0.0","560.7000000178814","","","","","","","","49","0,0,0","6","blank","308","null","0.24000893256248035","0.6500382271431013","0.11423745484288285","0","","","","","","","","",""
"","html-keyboard-response","176","495562","0.0-97.0-1.0","null","<p></p>","null","","","","","","","","","","","","","","","","","","","","","","","",""
"","do_trial","177","498612","0.0-98.0-0.0","512.1999999880791","","","","","","","","50","0,0,0","6","blank","309","null","0.25163750507227434","0.7651451446515977","0.12362245543796985","0","","","","","","","","",""
"","html-keyboard-response","178","499614","0.0-98.0-1.0","null","<p></p>","null","","","","","","","","","","","","","","","","","","","","","","","",""
"","do_recog","179","502320","0.0-99.0-0.0","1196.0999999940395","","","","","","","","53","","","","310","probe-135","","","","","1","[object Object]","201","5","1","","","",""
"","html-keyboard-response","180","503325","0.0-99.0-1.0","null","<p></p>","null","","","","","","","","","","","","","","","","","","","","","","","",""
"","do_trial","181","506389","0.0-100.0-0.0","525.3000000119209","","","","","","","","49","0,1,0","6","blank","311","null","0.11969503559495948","0.6835607053234607","0.16085464917599518","0","","","","","","","","",""
"","html-keyboard-response","182","507392","0.0-100.0-1.0","null","<p></p>","null","","","","","","","","","","","","","","","","","","","","","","","",""
"","do_trial","183","510470","0.0-101.0-0.0","538.1999999880791","","","","","","","","50","0,1,0","6","blank","312","null","0.15613622993480328","0.7200159186006294","0.21831055524459145","1","","","","","","","","",""
"","html-keyboard-response","184","511472","0.0-101.0-1.0","null","<p></p>","null","","","","","","","","","","","","","","","","","","","","","","","",""
"","do_trial","185","514503","0.0-102.0-0.0","488.30000001192093","","","","","","","","50","0,1,0","6","blank","313","null","0.20989857954964627","0.5594083781888025","0.1048905853639349","1","","","","","","","","",""
"","html-keyboard-response","186","515508","0.0-102.0-1.0","null","<p></p>","null","","","","","","","","","","","","","","","","","","","","","","","",""
"","do_trial","187","518542","0.0-103.0-0.0","492.19999998807907","","","","","","","","50","0,1,1","6","blank","314","null","0.19458726949682667","0.5491383755187549","0.1855890387712904","1","","","","","","","","",""
"","html-keyboard-response","188","519548","0.0-103.0-1.0","null","<p></p>","null","","","","","","","","","","","","","","","","","","","","","","","",""
"","do_trial","189","522671","0.0-104.0-0.0","582.8000000119209","","","","","","","","50","1,0,0","6","blank","315","null","0.1932510838784651","0.48170871239061114","0.15703806534643566","0","","","","","","","","",""
"","html-keyboard-response","190","523675","0.0-104.0-1.0","null","<p></p>","null","","","","","","","","","","","","","","","","","","","","","","","",""
"","do_recog","191","526182","0.0-105.0-0.0","998.6000000238419","","","","","","","","53","","","","316","probe-191","","","","","1","[object Object]","169","4","1","","","",""
"","html-keyboard-response","192","527184","0.0-105.0-1.0","null","<p></p>","null","","","","","","","","","","","","","","","","","","","","","","","",""
"","do_trial","193","530351","0.0-106.0-0.0","624.9000000059605","","","","","","","","49","1,1,0","6","blank","317","null","0.21539320901110767","0.4885139127375552","0.20659161193277026","1","","","","","","","","",""
"","html-keyboard-response","194","531353","0.0-106.0-1.0","null","<p></p>","null","","","","","","","","","","","","","","","","","","","","","","","",""
"","do_trial","195","534373","0.0-107.0-0.0","479.80000001192093","","","","","","","","49","0,1,0","6","blank","318","null","0.2837149205067614","0.6464093824131862","0.1643570509782837","0","","","","","","","","",""
"","html-keyboard-response","196","535377","0.0-107.0-1.0","null","<p></p>","null","","","","","","","","","","","","","","","","","","","","","","","",""
"","do_recog","197","537983","0.0-108.0-0.0","1096.5999999940395","","","","","","","","56","","","","319","probe-223","","","","","1","[object Object]","205","5","0","","","",""
"","html-keyboard-response","198","538987","0.0-108.0-1.0","null","<p></p>","null","","","","","","","","","","","","","","","","","","","","","","","",""
"","do_trial","199","542132","0.0-109.0-0.0","605","","","","","","","","49","0,0,0","6","blank","320","null","0.34726021332032003","0.5826416010036679","0.15847909318319517","0","","","","","","","","",""
"","html-keyboard-response","200","543136","0.0-109.0-1.0","null","<p></p>","null","","","","","","","","","","","","","","","","","","","","","","","",""
"","do_trial","201","546195","0.0-110.0-0.0","521.9000000059605","","","","","","","","50","0,0,0","6","blank","321","null","0.3132802904869195","0.5276236986044465","0.30891023124496897","0","","","","","","","","",""
"","html-keyboard-response","202","547198","0.0-110.0-1.0","null","<p></p>","null","","","","","","","","","","","","","","","","","","","","","","","",""
"","do_trial","203","550142","0.0-111.0-0.0","402.89999997615814","","","","","","","","51","0,1,0","6","blank","322","null","0.33995684034107626","0.44887136470851147","0.20346790634537332","0","","","","","","","","",""
"","html-keyboard-response","204","551145","0.0-111.0-1.0","null","<p></p>","null","","","","","","","","","","","","","","","","","","","","","","","",""
"","do_recog","205","554163","0.0-112.0-0.0","1510.0999999940395","","","","","","","","56","","","","323","probe-104","","","","","1","[object Object]","200","5","0","","","",""
"","html-keyboard-response","206","555168","0.0-112.0-1.0","null","<p></p>","null","","","","","","","","","","","","","","","","","","","","","","","",""
"","do_trial","207","558318","0.0-113.0-0.0","608.8999999761581","","","","","","","","49","0,0,0","6","blank","324","null","0.37653798088556256","0.46099839696507344","0.15283929605252874","0","","","","","","","","",""
"","html-keyboard-response","208","559322","0.0-113.0-1.0","null","<p></p>","null","","","","","","","","","","","","","","","","","","","","","","","",""
"","do_trial","209","562285","0.0-114.0-0.0","421.40000000596046","","","","","","","","50","0,1,0","6","blank","325","null","0.24909912929691885","0.4866350718566636","0.09570315438918808","1","","","","","","","","",""
"","html-keyboard-response","210","563288","0.0-114.0-1.0","null","<p></p>","null","","","","","","","","","","","","","","","","","","","","","","","",""
"","do_trial","211","566493","0.0-115.0-0.0","663","","","","","","","","50","1,0,0","6","blank","326","null","0.1223317991822436","0.41152948703768166","0.07473617240821255","0","","","","","","","","",""
"","html-keyboard-response","212","567496","0.0-115.0-1.0","null","<p></p>","null","","","","","","","","","","","","","","","","","","","","","","","",""
"","do_trial","213","570313","0.0-116.0-0.0","279","","","","","","","","51","0,1,0","6","blank","327","null","0.11966899941242211","0.4746860654321728","0.0696355036787147","0","","","","","","","","",""
"","html-keyboard-response","214","571318","0.0-116.0-1.0","null","<p></p>","null","","","","","","","","","","","","","","","","","","","","","","","",""
"","do_recog","215","573896","0.0-117.0-0.0","1073","","","","","","","","53","","","","328","probe-225","","","","","1","[object Object]","163","4","1","","","",""
"","html-keyboard-response","216","574900","0.0-117.0-1.0","null","<p></p>","null","","","","","","","","","","","","","","","","","","","","","","","",""
"","do_trial","217","578049","0.0-118.0-0.0","611.5","","","","","","","","49","0,1,0","6","blank","329","null","0.09055026941746083","0.4773724306665234","0.12046313557783711","0","","","","","","","","",""
"","html-keyboard-response","218","579053","0.0-118.0-1.0","null","<p></p>","null","","","","","","","","","","","","","","","","","","","","","","","",""
"","do_recog","219","581442","0.0-119.0-0.0","880.7999999821186","","","","","","","","53","","","","330","probe-29","","","","","1","[object Object]","42","1","1","","","",""
"","html-keyboard-response","220","582446","0.0-119.0-1.0","null","<p></p>","null","","","","","","","","","","","","","","","","","","","","","","","",""
"","do_trial","221","585442","0.0-120.0-0.0","457.90000000596046","","","","","","","","49","1,0,0","6","blank","331","null","0.2993564510370129","0.39173920307426585","0.1833008444665905","1","","","","","","","","",""
"","html-keyboard-response","222","586445","0.0-120.0-1.0","null","<p></p>","null","","","","","","","","","","","","","","","","","","","","","","","",""
"","do_trial","223","589376","0.0-121.0-0.0","392.90000000596046","","","","","","","","49","0,1,1","6","blank","332","null","0.3603292108261155","0.4805550307066854","0.19570448568881665","0","","","","","","","","",""
"","html-keyboard-response","224","590380","0.0-121.0-1.0","null","<p></p>","null","","","","","","","","","","","","","","","","","","","","","","","",""
"","do_trial","225","593555","0.0-122.0-0.0","635.7000000178814","","","","","","","","50","1,0,0","6","blank","333","null","0.24000770216162193","0.6313643339110284","0.10373648170380412","0","","","","","","","","",""
"","html-keyboard-response","226","594559","0.0-122.0-1.0","null","<p></p>","null","","","","","","","","","","","","","","","","","","","","","","","",""
"","do_trial","227","597643","0.0-123.0-0.0","544.5999999940395","","","","","","","","51","0,1,1","6","blank","334","null","0.20996947719486436","0.6703540258628717","0.22469964326504074","1","","","","","","","","",""
"","html-keyboard-response","228","598645","0.0-123.0-1.0","null","<p></p>","null","","","","","","","","","","","","","","","","","","","","","","","",""
"","do_trial","229","601732","0.0-124.0-0.0","544.9000000059605","","","","","","","","51","0,1,1","6","blank","335","null","0.28430195168261635","0.7558638989506047","0.2531578056499067","1","","","","","","","","",""
"","html-keyboard-response","230","602736","0.0-124.0-1.0","null","<p></p>","null","","","","","","","","","","","","","","","","","","","","","","","",""
"","do_trial","231","606264","0.0-125.0-0.0","991","","","","","","","","51","0,1,0","6","blank","336","null","0.19352956024375423","0.7729280511859125","0.21069272499217587","0","","","","","","","","",""
"","html-keyboard-response","232","607268","0.0-125.0-1.0","null","<p></p>","null","","","","","","","","","","","","","","","","","","","","","","","",""
"","do_recog","233","609738","0.0-126.0-0.0","961.9000000059605","","","","","","","","53","","","","337","probe-235","","","","","0","[object Object]","null","null","0","","","",""
"","html-keyboard-response","234","610743","0.0-126.0-1.0","null","<p></p>","null","","","","","","","","","","","","","","","","","","","","","","","",""
"","do_trial","235","613900","0.0-127.0-0.0","615.1000000238419","","","","","","","","49","0,1,0","6","blank","338","null","0.38426074475272454","0.6732198362997069","0.19381120535491614","0","","","","","","","","",""
"","html-keyboard-response","236","614906","0.0-127.0-1.0","null","<p></p>","null","","","","","","","","","","","","","","","","","","","","","","","",""
"","do_trial","237","617778","0.0-128.0-0.0","332.40000000596046","","","","","","","","50","0,1,1","6","blank","339","null","0.18459327032341866","0.645344549411187","0.19512395171707095","1","","","","","","","","",""
"","html-keyboard-response","238","618782","0.0-128.0-1.0","null","<p></p>","null","","","","","","","","","","","","","","","","","","","","","","","",""
"","do_trial","239","621784","0.0-129.0-0.0","463.90000000596046","","","","","","","","50","1,1,0","6","blank","340","null","0.19632926919375354","0.7670446126332724","0.19456418344459991","1","","","","","","","","",""
"","html-keyboard-response","240","622786","0.0-129.0-1.0","null","<p></p>","null","","","","","","","","","","","","","","","","","","","","","","","",""
"","do_trial","241","625755","0.0-130.0-0.0","426","","","","","","","","50","0,1,0","6","blank","341","null","0.31738546665625783","0.8200730478016902","0.14430337234208818","1","","","","","","","","",""
"","html-keyboard-response","242","626759","0.0-130.0-1.0","null","<p></p>","null","","","","","","","","","","","","","","","","","","","","","","","",""
"","do_trial","243","629720","0.0-131.0-0.0","421.59999999403954","","","","","","","","50","0,0,0","6","blank","342","null","0.30792300647897475","0.6015026396945828","0.16163305676559309","0","","","","","","","","",""
"","html-keyboard-response","244","630723","0.0-131.0-1.0","null","<p></p>","null","","","","","","","","","","","","","","","","","","","","","","","",""
"","do_recog","245","633315","0.0-132.0-0.0","1082.699999988079","","","","","","","","53","","","","343","probe-162","","","","","1","[object Object]","208","5","1","","","",""
"","html-keyboard-response","246","634319","0.0-132.0-1.0","null","<p></p>","null","","","","","","","","","","","","","","","","","","","","","","","",""
"","do_trial","247","637267","0.0-133.0-0.0","406.90000000596046","","","","","","","","49","1,0,0","6","blank","344","null","0.2937528140839066","0.6193867535675607","0.23134991431117322","1","","","","","","","","",""
"","html-keyboard-response","248","638273","0.0-133.0-1.0","null","<p></p>","null","","","","","","","","","","","","","","","","","","","","","","","",""
"","do_trial","249","641260","0.0-134.0-0.0","444.60000002384186","","","","","","","","49","0,0,0","6","blank","345","null","0.44757312054904785","0.635905106010196","0.2910113278884816","0","","","","","","","","",""
"","html-keyboard-response","250","642262","0.0-134.0-1.0","null","<p></p>","null","","","","","","","","","","","","","","","","","","","","","","","",""
"","do_trial","251","645390","0.0-135.0-0.0","591.0999999940395","","","","","","","","50","0,0,0","6","blank","346","null","0.4747658000520552","0.6628322162332984","0.2339458440802748","0","","","","","","","","",""
"","html-keyboard-response","252","646394","0.0-135.0-1.0","null","<p></p>","null","","","","","","","","","","","","","","","","","","","","","","","",""
"","do_trial","253","649267","0.0-136.0-0.0","329.7000000178814","","","","","","","","51","1,1,0","6","blank","347","null","0.6294952987542031","0.5639947802348586","0.2580623577671695","0","","","","","","","","",""
"","html-keyboard-response","254","650271","0.0-136.0-1.0","null","<p></p>","null","","","","","","","","","","","","","","","","","","","","","","","",""
"","do_trial","255","653383","0.0-137.0-0.0","574.5","","","","","","","","49","1,0,0","6","blank","348","null","0.6193257555921912","0.5459141239412141","0.13625532089122344","1","","","","","","","","",""
"","html-keyboard-response","256","654386","0.0-137.0-1.0","null","<p></p>","null","","","","","","","","","","","","","","","","","","","","","","","",""
"","do_recog","257","657328","0.0-138.0-0.0","1433.199999988079","","","","","","","","53","","","","349","probe-254","","","","","0","[object Object]","null","null","0","","","",""
"","html-keyboard-response","258","658330","0.0-138.0-1.0","null","<p></p>","null","","","","","","","","","","","","","","","","","","","","","","","",""
"","do_trial","259","661489","0.0-139.0-0.0","615.5","","","","","","","","49","1,0,0","6","blank","350","null","0.7217638430929375","0.5528709730906728","0.09979183473112098","1","","","","","","","","",""
"","html-keyboard-response","260","662493","0.0-139.0-1.0","null","<p></p>","null","","","","","","","","","","","","","","","","","","","","","","","",""
"","do_trial","261","665657","0.0-140.0-0.0","622.9000000059605","","","","","","","","50","0,1,0","6","blank","351","null","0.599125641743","0.4179160840159235","0.14565948076851323","1","","","","","","","","",""
"","html-keyboard-response","262","666662","0.0-140.0-1.0","null","<p></p>","null","","","","","","","","","","","","","","","","","","","","","","","",""
"","do_trial","263","669697","0.0-141.0-0.0","492.59999999403954","","","","","","","","49","1,0,0","6","blank","352","null","0.7545529414233072","0.4003569433656624","0.0906220453277534","1","","","","","","","","",""
"","html-keyboard-response","264","670700","0.0-141.0-1.0","null","<p></p>","null","","","","","","","","","","","","","","","","","","","","","","","",""
"","do_trial","265","673575","0.0-142.0-0.0","337.80000001192093","","","","","","","","50","0,0,0","6","blank","353","null","0.6461329837730656","0.3781211655592576","0.11373694535677348","0","","","","","","","","",""
"","html-keyboard-response","266","674580","0.0-142.0-1.0","null","<p></p>","null","","","","","","","","","","","","","","","","","","","","","","","",""
"","do_trial","267","677401","0.0-143.0-0.0","279.90000000596046","","","","","","","","49","0,1,0","6","blank","354","null","0.6801600600073041","0.22388399171603893","0.18502920795841135","0","","","","","","","","",""
"","html-keyboard-response","268","678405","0.0-143.0-1.0","null","<p></p>","null","","","","","","","","","","","","","","","","","","","","","","","",""
"","do_recog","269","680881","0.0-144.0-0.0","965.5","","","","","","","","53","","","","355","probe-10","","","","","1","[object Object]","89","2","1","","","",""
"","html-keyboard-response","270","681886","0.0-144.0-1.0","null","<p></p>","null","","","","","","","","","","","","","","","","","","","","","","","",""
"","do_trial","271","684840","0.0-145.0-0.0","412.09999999403954","","","","","","","","51","1,0,0","6","blank","356","null","0.7154070795479798","0.3489496692902552","0.13151728624763212","0","","","","","","","","",""
"","html-keyboard-response","272","685844","0.0-145.0-1.0","null","<p></p>","null","","","","","","","","","","","","","","","","","","","","","","","",""
"","do_trial","273","688826","0.0-146.0-0.0","439.19999998807907","","","","","","","","49","1,0,1","6","blank","357","null","0.8595889351031423","0.3109247205221524","0.2511297449140283","1","","","","","","","","",""
"","html-keyboard-response","274","689829","0.0-146.0-1.0","null","<p></p>","null","","","","","","","","","","","","","","","","","","","","","","","",""
"","do_recog","275","692482","0.0-147.0-0.0","1147.800000011921","","","","","","","","56","","","","358","probe-252","","","","","0","[object Object]","null","null","1","","","",""
"","html-keyboard-response","276","693488","0.0-147.0-1.0","null","<p></p>","null","","","","","","","","","","","","","","","","","","","","","","","",""
"","do_trial","277","696561","0.0-148.0-0.0","532.9000000059605","","","","","","","","49","1,0,0","6","blank","359","null","0.8074230692889981","0.1927970185924308","0.19327888393669657","1","","","","","","","","",""
"","html-keyboard-response","278","697564","0.0-148.0-1.0","null","<p></p>","null","","","","","","","","","","","","","","","","","","","","","","","",""
"","do_trial","279","700593","0.0-149.0-0.0","487.69999998807907","","","","","","","","49","0,0,0","6","blank","360","null","0.7244467563340576","0.20379742191528877","0.13048456098917213","0","","","","","","","","",""
"","html-keyboard-response","280","701598","0.0-149.0-1.0","null","<p></p>","null","","","","","","","","","","","","","","","","","","","","","","","",""
"","do_recog","281","704231","0.0-150.0-0.0","1124.0999999940395","","","","","","","","56","","","","361","probe-239","","","","","0","[object Object]","null","null","1","","","",""
"","html-keyboard-response","282","705233","0.0-150.0-1.0","null","<p></p>","null","","","","","","","","","","","","","","","","","","","","","","","",""
"","do_trial","283","708351","0.0-151.0-0.0","577.3000000119209","","","","","","","","49","1,0,0","6","blank","362","null","0.6557505904542341","0.15018418327217764","0.12232033374056794","1","","","","","","","","",""
"","html-keyboard-response","284","709354","0.0-151.0-1.0","null","<p></p>","null","","","","","","","","","","","","","","","","","","","","","","","",""
"","do_trial","285","712446","0.0-152.0-0.0","550.9000000059605","","","","","","","","49","1,1,0","6","blank","363","null","0.706838516634327","0.262973913294957","0.08244749702088935","1","","","","","","","","",""
"","html-keyboard-response","286","713449","0.0-152.0-1.0","null","<p></p>","null","","","","","","","","","","","","","","","","","","","","","","","",""
"","do_trial","287","716808","0.0-153.0-0.0","817.1000000238419","","","","","","","","49","1,0,0","6","blank","364","null","0.7540901069205523","0.14508967966445283","0.15937736841302394","1","","","","","","","","",""
"","html-keyboard-response","288","717812","0.0-153.0-1.0","null","<p></p>","null","","","","","","","","","","","","","","","","","","","","","","","",""
"","do_recog","289","720238","0.0-154.0-0.0","916.6999999880791","","","","","","","","53","","","","365","probe-166","","","","","1","[object Object]","120","3","1","","","",""
"","html-keyboard-response","290","721243","0.0-154.0-1.0","null","<p></p>","null","","","","","","","","","","","","","","","","","","","","","","","",""
"","do_trial","291","724438","0.0-155.0-0.0","655.4000000059605","","","","","","","","49","0,1,0","6","blank","366","null","0.5698774130015972","0.24083783623398577","0.3071104129598787","0","","","","","","","","",""
"","html-keyboard-response","292","725442","0.0-155.0-1.0","null","<p></p>","null","","","","","","","","","","","","","","","","","","","","","","","",""
"","do_trial","293","728373","0.0-156.0-0.0","390.40000000596046","","","","","","","","50","1,0,0","6","blank","367","null","0.5584622361836579","0.3120180888863645","0.22230186685539471","0","","","","","","","","",""
"","html-keyboard-response","294","729377","0.0-156.0-1.0","null","<p></p>","null","","","","","","","","","","","","","","","","","","","","","","","",""
"","do_trial","295","732232","0.0-157.0-0.0","312.59999999403954","","","","","","","","51","0,0,0","6","blank","368","null","0.6414889347271213","0.35114409044709716","0.14070572369086182","0","","","","","","","","",""
"","html-keyboard-response","296","733235","0.0-157.0-1.0","null","<p></p>","null","","","","","","","","","","","","","","","","","","","","","","","",""
"","do_trial","297","736127","0.0-158.0-0.0","351.40000000596046","","","","","","","","50","1,0,0","6","blank","369","null","0.6486545094835325","0.33465111358260735","0.15199823955461092","0","","","","","","","","",""
"","html-keyboard-response","298","737131","0.0-158.0-1.0","null","<p></p>","null","","","","","","","","","","","","","","","","","","","","","","","",""
"","do_trial","299","740004","0.0-159.0-0.0","337","","","","","","","","49","1,0,1","6","blank","370","null","0.6582874242635908","0.3215639175539664","0.052897867671150504","1","","","","","","","","",""
"","html-keyboard-response","300","741007","0.0-159.0-1.0","null","<p></p>","null","","","","","","","","","","","","","","","","","","","","","","","",""
"","do_recog","301","743498","0.0-160.0-0.0","986.5999999940395","","","","","","","","53","","","","371","probe-65","","","","","1","[object Object]","162","4","1","","","",""
"","html-keyboard-response","302","744504","0.0-160.0-1.0","null","<p></p>","null","","","","","","","","","","","","","","","","","","","","","","","",""
"","do_trial","303","747573","0.0-161.0-0.0","529.0999999940395","","","","","","","","49","0,0,0","6","blank","372","null","0.5695169964960788","0.27425889056553826","0.05100074484103187","0","","","","","","","","",""
"","html-keyboard-response","304","748578","0.0-161.0-1.0","null","<p></p>","null","","","","","","","","","","","","","","","","","","","","","","","",""
"","do_trial","305","751554","0.0-162.0-0.0","438.39999997615814","","","","","","","","50","0,1,0","6","blank","373","null","0.464349882376043","0.24595062577767743","0.06731987014831425","1","","","","","","","","",""
"","html-keyboard-response","306","752558","0.0-162.0-1.0","null","<p></p>","null","","","","","","","","","","","","","","","","","","","","","","","",""
"","do_trial","307","755991","0.0-163.0-0.0","891.1999999880791","","","","","","","","50","1,0,0","6","blank","374","null","0.6320804985514598","0.5082445919499372","0.06761337693504559","0","","","","","","","","",""
"","html-keyboard-response","308","756992","0.0-163.0-1.0","null","<p></p>","null","","","","","","","","","","","","","","","","","","","","","","","",""
"","do_trial","309","759830","0.0-164.0-0.0","298","","","","","","","","51","1,0,0","6","blank","375","null","0.5686631697206138","0.5210398874854946","0.14880715028530095","0","","","","","","","","",""
"","html-keyboard-response","310","760832","0.0-164.0-1.0","null","<p></p>","null","","","","","","","","","","","","","","","","","","","","","","","",""
"","do_trial","311","763906","0.0-165.0-0.0","536","","","","","","","","49","1,0,0","6","blank","376","null","0.6318481723967868","0.43254173765881787","0.15329341720610512","1","","","","","","","","",""
"","html-keyboard-response","312","764911","0.0-165.0-1.0","null","<p></p>","null","","","","","","","","","","","","","","","","","","","","","","","",""
"","do_recog","313","767523","0.0-166.0-0.0","1104.5","","","","","","","","53","","","","377","probe-148","","","","","1","[object Object]","202","5","1","","","",""
"","html-keyboard-response","314","768526","0.0-166.0-1.0","null","<p></p>","null","","","","","","","","","","","","","","","","","","","","","","","",""
"","do_trial","315","771676","0.0-167.0-0.0","610.0999999940395","","","","","","","","49","1,1,0","6","blank","378","null","0.7026504068170774","0.42054322713513165","0.20723472400552986","1","","","","","","","","",""
"","html-keyboard-response","316","772680","0.0-167.0-1.0","null","<p></p>","null","","","","","","","","","","","","","","","","","","","","","","","",""
"","do_recog","317","775010","0.0-168.0-0.0","824","","","","","","","","53","","","","379","probe-93","","","","","1","[object Object]","44","1","1","","","",""
"","html-keyboard-response","318","776013","0.0-168.0-1.0","null","<p></p>","null","","","","","","","","","","","","","","","","","","","","","","","",""
"","do_trial","319","778942","0.0-169.0-0.0","385.90000000596046","","","","","","","","49","1,1,1","6","blank","380","null","0.5435460694710256","0.33674754349359737","0.19012947447343195","1","","","","","","","","",""
"","html-keyboard-response","320","779948","0.0-169.0-1.0","null","<p></p>","null","","","","","","","","","","","","","","","","","","","","","","","",""
"","do_recog","321","782430","0.0-170.0-0.0","972.3999999761581","","","","","","","","53","","","","381","probe-82","","","","","1","[object Object]","121","3","1","","","",""
"","html-keyboard-response","322","783432","0.0-170.0-1.0","null","<p></p>","null","","","","","","","","","","","","","","","","","","","","","","","",""
"","do_trial","323","786508","0.0-171.0-0.0","534.9000000059605","","","","","","","","49","1,0,1","6","blank","382","null","0.6360652651163854","0.23997819519410232","0.19654769908901706","1","","","","","","","","",""
"","html-keyboard-response","324","787512","0.0-171.0-1.0","null","<p></p>","null","","","","","","","","","","","","","","","","","","","","","","","",""
"","do_trial","325","790553","0.0-172.0-0.0","502.80000001192093","","","","","","","","49","0,0,1","6","blank","383","null","0.595616030225085","0.3066534659720347","0.19999775431476974","0","","","","","","","","",""
"","html-keyboard-response","326","791559","0.0-172.0-1.0","null","<p></p>","null","","","","","","","","","","","","","","","","","","","","","","","",""
"","do_trial","327","794509","0.0-173.0-0.0","408.40000000596046","","","","","","","","50","1,1,1","6","blank","384","null","0.5801583644777998","0.3136891645708263","0.14550510202986608","1","","","","","","","","",""
"","html-keyboard-response","328","795512","0.0-173.0-1.0","null","<p></p>","null","","","","","","","","","","","","","","","","","","","","","","","",""
"","do_recog","329","798237","0.0-174.0-0.0","1214.9000000059605","","","","","","","","53","","","","385","probe-45","","","","","1","[object Object]","128","3","1","","","",""
"","html-keyboard-response","330","799243","0.0-174.0-1.0","null","<p></p>","null","","","","","","","","","","","","","","","","","","","","","","","",""
"","do_trial","331","802560","0.0-175.0-0.0","779.7999999821186","","","","","","","","49","1,0,1","6","blank","386","null","0.5857020084829555","0.24054255066474578","0.1219634344343226","1","","","","","","","","",""
"","html-keyboard-response","332","803563","0.0-175.0-1.0","null","<p></p>","null","","","","","","","","","","","","","","","","","","","","","","","",""
"","do_recog","333","806252","0.0-176.0-0.0","1180.6000000238419","","","","","","","","56","","","","387","probe-167","","","","","1","[object Object]","166","4","0","","","",""
"","html-keyboard-response","334","807257","0.0-176.0-1.0","null","<p></p>","null","","","","","","","","","","","","","","","","","","","","","","","",""
"","do_trial","335","810248","0.0-177.0-0.0","452.7000000178814","","","","","","","","49","1,1,0","6","blank","388","null","0.5510961219624461","0.40991393627167666","0.15361858491719033","1","","","","","","","","",""
"","html-keyboard-response","336","811254","0.0-177.0-1.0","null","<p></p>","null","","","","","","","","","","","","","","","","","","","","","","","",""
"","do_recog","337","813643","0.0-178.0-0.0","879.6999999880791","","","","","","","","53","","","","389","probe-214","","","","","1","[object Object]","40","1","1","","","",""
"","html-keyboard-response","338","814644","0.0-178.0-1.0","null","<p></p>","null","","","","","","","","","","","","","","","","","","","","","","","",""
"","do_trial","339","817757","0.0-179.0-0.0","570.4000000059605","","","","","","","","49","1,0,1","6","blank","390","null","0.4514901219581547","0.4081352368998217","0.2164226373752123","1","","","","","","","","",""
"","html-keyboard-response","340","818762","0.0-179.0-1.0","null","<p></p>","null","","","","","","","","","","","","","","","","","","","","","","","",""
"","do_recog","341","821090","0.0-180.0-0.0","819.5","","","","","","","","53","","","","391","probe-12","","","","","1","[object Object]","45","1","1","","","",""
"","html-keyboard-response","342","822096","0.0-180.0-1.0","null","<p></p>","null","","","","","","","","","","","","","","","","","","","","","","","",""
"","do_trial","343","825115","0.0-181.0-0.0","478.30000001192093","","","","","","","","49","1,0,0","6","blank","392","null","0.5041555955709365","0.306088324499177","0.11274725574760897","1","","","","","","","","",""
"","html-keyboard-response","344","826120","0.0-181.0-1.0","null","<p></p>","null","","","","","","","","","","","","","","","","","","","","","","","",""
"","do_recog","345","828554","0.0-182.0-0.0","926.1999999880791","","","","","","","","53","","","","393","probe-58","","","","","1","[object Object]","127","3","1","","","",""
"","html-keyboard-response","346","829558","0.0-182.0-1.0","null","<p></p>","null","","","","","","","","","","","","","","","","","","","","","","","",""
"","do_trial","347","832736","0.0-183.0-0.0","638.7000000178814","","","","","","","","49","0,1,1","6","blank","394","null","0.4715410306613444","0.30684727951737367","0.24310433482030042","0","","","","","","","","",""
"","html-keyboard-response","348","833739","0.0-183.0-1.0","null","<p></p>","null","","","","","","","","","","","","","","","","","","","","","","","",""
"","do_trial","349","837123","0.0-184.0-0.0","842","","","","","","","","50","0,0,0","6","blank","395","null","0.5378049828854119","0.3306830396869786","0.26519720284975984","0","","","","","","","","",""
"","html-keyboard-response","350","838129","0.0-184.0-1.0","null","<p></p>","null","","","","","","","","","","","","","","","","","","","","","","","",""
"","do_recog","351","840585","0.0-185.0-0.0","948.8999999761581","","","","","","","","56","","","","396","probe-181","","","","","1","[object Object]","206","5","0","","","",""
"","html-keyboard-response","352","841588","0.0-185.0-1.0","null","<p></p>","null","","","","","","","","","","","","","","","","","","","","","","","",""
"","do_trial","353","844907","0.0-186.0-0.0","776.5999999940395","","","","","","","","49","1,0,0","6","blank","397","null","0.5595311528025446","0.40557769485142187","0.17653721384660034","1","","","","","","","","",""
"","html-keyboard-response","354","845912","0.0-186.0-1.0","null","<p></p>","null","","","","","","","","","","","","","","","","","","","","","","","",""
"","do_trial","355","848832","0.0-187.0-0.0","379.19999998807907","","","","","","","","49","0,0,0","6","blank","398","null","0.7079639454391145","0.23108372815379694","0.16317016228269574","0","","","","","","","","",""
"","html-keyboard-response","356","849838","0.0-187.0-1.0","null","<p></p>","null","","","","","","","","","","","","","","","","","","","","","","","",""
"","do_trial","357","852689","0.0-188.0-0.0","311.80000001192093","","","","","","","","49","1,1,0","6","blank","399","null","0.6721552548565513","0.314235196579159","0.23867157058447966","1","","","","","","","","",""
"","html-keyboard-response","358","853691","0.0-188.0-1.0","null","<p></p>","null","","","","","","","","","","","","","","","","","","","","","","","",""
"","do_trial","359","856795","0.0-189.0-0.0","560","","","","","","","","49","1,0,0","6","blank","400","null","0.5087972668778394","0.22832032940024594","0.2869768198865733","1","","","","","","","","",""
"","html-keyboard-response","360","857799","0.0-189.0-1.0","null","<p></p>","null","","","","","","","","","","","","","","","","","","","","","","","",""
"","do_recog","361","860120","0.0-190.0-0.0","813.9000000059605","","","","","","","","53","","","","401","probe-220","","","","","1","[object Object]","47","1","1","","","",""
"","html-keyboard-response","362","861123","0.0-190.0-1.0","null","<p></p>","null","","","","","","","","","","","","","","","","","","","","","","","",""
"","do_trial","363","864232","0.0-191.0-0.0","570.5","","","","","","","","49","1,0,1","6","blank","402","null","0.655533339330439","0.24285150029907976","0.1861781172900924","1","","","","","","","","",""
"","html-keyboard-response","364","865236","0.0-191.0-1.0","null","<p></p>","null","","","","","","","","","","","","","","","","","","","","","","","",""
"","do_trial","365","868190","0.0-192.0-0.0","415.89999997615814","","","","","","","","49","1,0,0","6","blank","403","null","0.5917695681618298","0.17702833765623463","0.29093494249194185","1","","","","","","","","",""
"","html-keyboard-response","366","869195","0.0-192.0-1.0","null","<p></p>","null","","","","","","","","","","","","","","","","","","","","","","","",""
"","do_trial","367","872210","0.0-193.0-0.0","473.40000000596046","","","","","","","","49","1,0,0","6","blank","404","null","0.448312631248186","0.1092906683513003","0.4762097854384662","1","","","","","","","","",""
"","html-keyboard-response","368","873213","0.0-193.0-1.0","null","<p></p>","null","","","","","","","","","","","","","","","","","","","","","","","",""
"","do_recog","369","876098","0.0-194.0-0.0","1373.5999999940395","","","","","","","","53","","","","405","probe-42","","","","","1","[object Object]","123","3","1","","","",""
"","html-keyboard-response","370","877101","0.0-194.0-1.0","null","<p></p>","null","","","","","","","","","","","","","","","","","","","","","","","",""
"","do_trial","371","880335","0.0-195.0-0.0","695","","","","","","","","49","0,0,0","6","blank","406","null","0.35607211094836877","0.07889336455322737","0.37198284140876087","0","","","","","","","","",""
"","html-keyboard-response","372","881338","0.0-195.0-1.0","null","<p></p>","null","","","","","","","","","","","","","","","","","","","","","","","",""
"","do_trial","373","884215","0.0-196.0-0.0","336.09999999403954","","","","","","","","49","0,0,1","6","blank","407","null","0.2903942924539115","0.18489970926042668","0.3539529310959936","0","","","","","","","","",""
"","html-keyboard-response","374","885218","0.0-196.0-1.0","null","<p></p>","null","","","","","","","","","","","","","","","","","","","","","","","",""
"","do_trial","375","888210","0.0-197.0-0.0","450","","","","","","","","49","1,0,0","6","blank","408","null","0.27706327103451295","0.12945563407715463","0.3675077913936751","1","","","","","","","","",""
"","html-keyboard-response","376","889216","0.0-197.0-1.0","null","<p></p>","null","","","","","","","","","","","","","","","","","","","","","","","",""
"","do_recog","377","891861","0.0-198.0-0.0","1139.5999999940395","","","","","","","","53","","","","409","probe-18","","","","","1","[object Object]","88","2","1","","","",""
"","html-keyboard-response","378","892865","0.0-198.0-1.0","null","<p></p>","null","","","","","","","","","","","","","","","","","","","","","","","",""
"","do_trial","379","895986","0.0-199.0-0.0","579","","","","","","","","49","0,0,0","6","blank","410","null","0.14986902665702695","0.2502957634188077","0.45655853435245003","0","","","","","","","","",""
"","html-keyboard-response","380","896990","0.0-199.0-1.0","null","<p></p>","null","","","","","","","","","","","","","","","","","","","","","","","",""
"","do_trial","381","900215","0.0-200.0-0.0","686.6000000238419","","","","","","","","49","0,0,1","6","blank","411","null","0.07033964220478285","0.15296920446589485","0.6124336079194765","0","","","","","","","","",""
"","html-keyboard-response","382","901221","0.0-200.0-1.0","null","<p></p>","null","","","","","","","","","","","","","","","","","","","","","","","",""
"","do_recog","383","904088","0.0-201.0-0.0","1358.3999999761581","","","","","","","","53","","","","412","probe-196","","","","","1","[object Object]","125","3","1","","","",""
"","html-keyboard-response","384","905091","0.0-201.0-1.0","null","<p></p>","null","","","","","","","","","","","","","","","","","","","","","","","",""
"","do_trial","385","908271","0.0-202.0-0.0","638.6999999880791","","","","","","","","49","0,0,1","6","blank","413","null","0.31272911478721915","0.06526391887646114","0.644811953021481","0","","","","","","","","",""
"","html-keyboard-response","386","909277","0.0-202.0-1.0","null","<p></p>","null","","","","","","","","","","","","","","","","","","","","","","","",""
"","do_trial","387","912120","0.0-203.0-0.0","302.7000000178814","","","","","","","","49","1,0,0","6","blank","414","null","0.3260470186813172","0.08168412012019938","0.5825790999685925","1","","","","","","","","",""
"","html-keyboard-response","388","913124","0.0-203.0-1.0","null","<p></p>","null","","","","","","","","","","","","","","","","","","","","","","","",""
"","do_trial","389","916247","0.0-204.0-0.0","582.3000000119209","","","","","","","","49","1,0,1","6","blank","415","null","0.23217498886816784","0.11496997031622339","0.7248073767252714","1","","","","","","","","",""
"","html-keyboard-response","390","917250","0.0-204.0-1.0","null","<p></p>","null","","","","","","","","","","","","","","","","","","","","","","","",""
"","do_trial","391","920292","0.0-205.0-0.0","503.89999997615814","","","","","","","","49","0,0,0","6","blank","416","null","0.17080908656410457","0.12487756793439421","0.7122562328075653","0","","","","","","","","",""
"","html-keyboard-response","392","921296","0.0-205.0-1.0","null","<p></p>","null","","","","","","","","","","","","","","","","","","","","","","","",""
"","do_trial","393","924397","0.0-206.0-0.0","562.1999999880791","","","","","","","","49","0,0,1","6","blank","417","null","0.14878644080861353","0.17092971951299366","0.6517387151716032","0","","","","","","","","",""
"","html-keyboard-response","394","925402","0.0-206.0-1.0","null","<p></p>","null","","","","","","","","","","","","","","","","","","","","","","","",""
"","do_trial","395","928443","0.0-207.0-0.0","503.7000000178814","","","","","","","","49","0,0,1","6","blank","418","null","0.14653540092943557","0.15126978202452013","0.745668635760007","0","","","","","","","","",""
"","html-keyboard-response","396","929446","0.0-207.0-1.0","null","<p></p>","null","","","","","","","","","","","","","","","","","","","","","","","",""
"","do_recog","397","931883","0.0-208.0-0.0","931.5","","","","","","","","53","","","","419","probe-217","","","","","1","[object Object]","48","1","1","","","",""
"","html-keyboard-response","398","932887","0.0-208.0-1.0","null","<p></p>","null","","","","","","","","","","","","","","","","","","","","","","","",""
"","do_trial","399","935919","0.0-209.0-0.0","492.2999999821186","","","","","","","","49","0,0,1","6","blank","420","null","0.10715352296066655","0.06986653647408099","0.7920466463115392","0","","","","","","","","",""
"","html-keyboard-response","400","936924","0.0-209.0-1.0","null","<p></p>","null","","","","","","","","","","","","","","","","","","","","","","","",""
"","do_trial","401","940132","0.0-210.0-0.0","669.6999999880791","","","","","","","","50","0,1,1","6","blank","421","null","0.1207697505345921","0.15748087271730174","0.8442476728874253","1","","","","","","","","",""
"","html-keyboard-response","402","941138","0.0-210.0-1.0","null","<p></p>","null","","","","","","","","","","","","","","","","","","","","","","","",""
"","do_recog","403","943741","0.0-211.0-0.0","1095","","","","","","","","53","","","","422","probe-04","","","","","1","[object Object]","203","5","1","","","",""
"","html-keyboard-response","404","944744","0.0-211.0-1.0","null","<p></p>","null","","","","","","","","","","","","","","","","","","","","","","","",""
"","do_trial","405","947752","0.0-212.0-0.0","465","","","","","","","","49","0,0,1","6","blank","423","null","0.1899902958713989","0.15212152662674616","0.6261068092203438","0","","","","","","","","",""
"","html-keyboard-response","406","948755","0.0-212.0-1.0","null","<p></p>","null","","","","","","","","","","","","","","","","","","","","","","","",""
"","do_recog","407","951059","0.0-213.0-0.0","797.7000000178814","","","","","","","","53","","","","424","probe-192","","","","","1","[object Object]","81","2","1","","","",""
"","html-keyboard-response","408","952062","0.0-213.0-1.0","null","<p></p>","null","","","","","","","","","","","","","","","","","","","","","","","",""
"","do_trial","409","955326","0.0-214.0-0.0","721.5999999940395","","","","","","","","49","0,0,1","6","blank","425","null","0.18377223943707685","0.12571875163306223","0.5166258698764579","0","","","","","","","","",""
"","html-keyboard-response","410","956330","0.0-214.0-1.0","null","<p></p>","null","","","","","","","","","","","","","","","","","","","","","","","",""
"","do_trial","411","959598","0.0-215.0-0.0","728.5999999940395","","","","","","","","49","1,0,0","6","blank","426","null","0.1946439447220447","0.12622770401510608","0.5323077050006408","1","","","","","","","","",""
"","html-keyboard-response","412","960602","0.0-215.0-1.0","null","<p></p>","null","","","","","","","","","","","","","","","","","","","","","","","",""
"","do_trial","413","963608","0.0-216.0-0.0","463","","","","","","","","49","1,0,0","6","blank","427","null","0.22232134944811538","0.06741560268038094","0.517136768959526","1","","","","","","","","",""
"","html-keyboard-response","414","964610","0.0-216.0-1.0","null","<p></p>","null","","","","","","","","","","","","","","","","","","","","","","","",""
"","do_recog","415","966927","0.0-217.0-0.0","806.9000000059605","","","","","","","","53","","","","428","probe-100","","","","","1","[object Object]","86","2","1","","","",""
"","html-keyboard-response","416","967930","0.0-217.0-1.0","null","<p></p>","null","","","","","","","","","","","","","","","","","","","","","","","",""
"","do_trial","417","971150","0.0-218.0-0.0","679.9000000059605","","","","","","","","49","0,1,1","6","blank","429","null","0.09181797450559241","0.1089829867925364","0.5358157304785044","0","","","","","","","","",""
"","html-keyboard-response","418","972154","0.0-218.0-1.0","null","<p></p>","null","","","","","","","","","","","","","","","","","","","","","","","",""
"","do_trial","419","975164","0.0-219.0-0.0","469.90000000596046","","","","","","","","50","0,0,0","6","blank","430","null","0.21508241877982745","0.17949200336431417","0.5498447784199024","0","","","","","","","","",""
"","html-keyboard-response","420","976167","0.0-219.0-1.0","null","<p></p>","null","","","","","","","","","","","","","","","","","","","","","","","",""
"","do_trial","421","979020","0.0-220.0-0.0","312.09999999403954","","","","","","","","49","0,0,1","6","blank","431","null","0.24945534873212993","0.20689622634116245","0.5661721909115213","0","","","","","","","","",""
"","html-keyboard-response","422","980024","0.0-220.0-1.0","null","<p></p>","null","","","","","","","","","","","","","","","","","","","","","","","",""
"","do_trial","423","982878","0.0-221.0-0.0","311.90000000596046","","","","","","","","49","1,0,0","6","blank","432","null","0.2252654490723307","0.23119198743406139","0.5072860468220194","1","","","","","","","","",""
"","html-keyboard-response","424","983883","0.0-221.0-1.0","null","<p></p>","null","","","","","","","","","","","","","","","","","","","","","","","",""
"","do_trial","425","986891","0.0-222.0-0.0","468.2000000178814","","","","","","","","49","0,0,0","6","blank","433","null","0.20278482739773893","0.10085995384894629","0.5345447390405981","0","","","","","","","","",""
"","html-keyboard-response","426","987896","0.0-222.0-1.0","null","<p></p>","null","","","","","","","","","","","","","","","","","","","","","","","",""
"","do_trial","427","991067","0.0-223.0-0.0","629.6999999880791","","","","","","","","49","0,0,1","6","blank","434","null","0.22252412817324574","0.2351626762432281","0.6085228129962499","0","","","","","","","","",""
"","html-keyboard-response","428","992070","0.0-223.0-1.0","null","<p></p>","null","","","","","","","","","","","","","","","","","","","","","","","",""
"","do_recog","429","994514","0.0-224.0-0.0","938.9000000059605","","","","","","","","53","","","","435","probe-36","","","","","1","[object Object]","204","5","1","","","",""
"","html-keyboard-response","430","995520","0.0-224.0-1.0","null","<p></p>","null","","","","","","","","","","","","","","","","","","","","","","","",""
"","do_trial","431","998555","0.0-225.0-0.0","495","","","","","","","","49","0,1,0","6","blank","436","null","0.22289766071565617","0.2344829628934665","0.642262883910332","0","","","","","","","","",""
"","html-keyboard-response","432","999559","0.0-225.0-1.0","null","<p></p>","null","","","","","","","","","","","","","","","","","","","","","","","",""
"","do_trial","433","1002574","0.0-226.0-0.0","472","","","","","","","","49","0,1,0","6","blank","437","null","0.28021389011156556","0.11500413111799612","0.5890647057576238","0","","","","","","","","",""
"","html-keyboard-response","434","1003577","0.0-226.0-1.0","null","<p></p>","null","","","","","","","","","","","","","","","","","","","","","","","",""
"","do_trial","435","1006465","0.0-227.0-0.0","350.69999998807907","","","","","","","","50","0,0,1","6","blank","438","null","0.28858788638209154","0.10413629567694903","0.4697956647344357","0","","","","","","","","",""
"","html-keyboard-response","436","1007468","0.0-227.0-1.0","null","<p></p>","null","","","","","","","","","","","","","","","","","","","","","","","",""
"","do_trial","437","1010315","0.0-228.0-0.0","306","","","","","","","","49","0,0,0","6","blank","439","null","0.2969838727337163","0.05478620002529728","0.45057309599925066","0","","","","","","","","",""
"","html-keyboard-response","438","1011317","0.0-228.0-1.0","null","<p></p>","null","","","","","","","","","","","","","","","","","","","","","","","",""
"","do_recog","439","1013673","0.0-229.0-0.0","849.9000000059605","","","","","","","","53","","","","440","probe-150","","","","","1","[object Object]","41","1","1","","","",""
"","html-keyboard-response","440","1014677","0.0-229.0-1.0","null","<p></p>","null","","","","","","","","","","","","","","","","","","","","","","","",""
"","do_trial","441","1017722","0.0-230.0-0.0","506.09999999403954","","","","","","","","50","0,0,1","6","blank","441","null","0.38333631391475353","0.06388565202912018","0.6200167687045653","0","","","","","","","","",""
"","html-keyboard-response","442","1018726","0.0-230.0-1.0","null","<p></p>","null","","","","","","","","","","","","","","","","","","","","","","","",""
"","do_trial","443","1021677","0.0-231.0-0.0","408.2999999821186","","","","","","","","50","1,0,1","6","blank","442","null","0.27275755529223666","0.08957364485495692","0.6389945695388216","0","","","","","","","","",""
"","html-keyboard-response","444","1022682","0.0-231.0-1.0","null","<p></p>","null","","","","","","","","","","","","","","","","","","","","","","","",""
"","do_recog","445","1025001","0.0-232.0-0.0","812.3000000119209","","","","","","","","53","","","","443","probe-39","","","","","1","[object Object]","161","4","1","","","",""
"","html-keyboard-response","446","1026004","0.0-232.0-1.0","null","<p></p>","null","","","","","","","","","","","","","","","","","","","","","","","",""
"","do_trial","447","1028995","0.0-233.0-0.0","450","","","","","","","","49","0,0,1","6","blank","444","null","0.37323647321533204","0.10230682459422104","0.6443804760748472","0","","","","","","","","",""
"","html-keyboard-response","448","1029999","0.0-233.0-1.0","null","<p></p>","null","","","","","","","","","","","","","","","","","","","","","","","",""
"","do_trial","449","1033055","0.0-234.0-0.0","520","","","","","","","","49","1,1,0","6","blank","445","null","0.44566632351560026","0.05272910399287989","0.6358026061702504","1","","","","","","","","",""
"","html-keyboard-response","450","1034059","0.0-234.0-1.0","null","<p></p>","null","","","","","","","","","","","","","","","","","","","","","","","",""
"","do_trial","451","1037218","0.0-235.0-0.0","617.1000000238419","","","","","","","","49","1,0,1","6","blank","446","null","0.3978832113117328","0.12174201177755244","0.5946980717718579","1","","","","","","","","",""
"","html-keyboard-response","452","1038221","0.0-235.0-1.0","null","<p></p>","null","","","","","","","","","","","","","","","","","","","","","","","",""
"","do_trial","453","1041081","0.0-236.0-0.0","324.5","","","","","","","","49","1,1,1","6","blank","447","null","0.3792832339252541","0.23925848233965213","0.5265429980752225","1","","","","","","","","",""
"","html-keyboard-response","454","1042084","0.0-236.0-1.0","null","<p></p>","null","","","","","","","","","","","","","","","","","","","","","","","",""
"","do_trial","455","1045011","0.0-237.0-0.0","385.5","","","","","","","","49","1,0,1","6","blank","448","null","0.32173114274267334","0.25477801096355973","0.5621596073029527","1","","","","","","","","",""
"","html-keyboard-response","456","1046014","0.0-237.0-1.0","null","<p></p>","null","","","","","","","","","","","","","","","","","","","","","","","",""
"","do_recog","457","1048385","0.0-238.0-0.0","863.5","","","","","","","","53","","","","449","probe-109","","","","","1","[object Object]","209","5","1","","","",""
"","html-keyboard-response","458","1049388","0.0-238.0-1.0","null","<p></p>","null","","","","","","","","","","","","","","","","","","","","","","","",""
"","do_trial","459","1053019","0.0-239.0-0.0","1089.0999999940395","","","","","","","","49","1,0,1","6","blank","450","null","0.32637531335711584","0.2852565379951297","0.5540438198519976","1","","","","","","","","",""
"","html-keyboard-response","460","1054023","0.0-239.0-1.0","null","<p></p>","null","","","","","","","","","","","","","","","","","","","","","","","",""
"","do_trial","461","1057287","0.0-240.0-0.0","726","","","","","","","","49","0,0,1","6","blank","451","null","0.3867496616453288","0.19922332399796822","0.5972398005592673","0","","","","","","","","",""
"","html-keyboard-response","462","1058291","0.0-240.0-1.0","null","<p></p>","null","","","","","","","","","","","","","","","","","","","","","","","",""
"","do_trial","463","1061480","0.0-241.0-0.0","650.1999999880791","","","","","","","","50","0,0,1","6","blank","452","null","0.4558000852300591","0.31342121681957774","0.412224602206576","0","","","","","","","","",""
"","html-keyboard-response","464","1062485","0.0-241.0-1.0","null","<p></p>","null","","","","","","","","","","","","","","","","","","","","","","","",""
"","do_trial","465","1065695","0.0-242.0-0.0","675.5","","","","","","","","49","0,0,0","6","blank","453","null","0.25588404755653715","0.08067289429421128","0.35765828593155036","0","","","","","","","","",""
"","html-keyboard-response","466","1066699","0.0-242.0-1.0","null","<p></p>","null","","","","","","","","","","","","","","","","","","","","","","","",""
"","do_trial","467","1069826","0.0-243.0-0.0","584.8999999761581","","","","","","","","49","0,0,0","6","blank","454","null","0.2460097558607508","0.3562872962317083","0.2694994016413343","0","","","","","","","","",""
"","html-keyboard-response","468","1070830","0.0-243.0-1.0","null","<p></p>","null","","","","","","","","","","","","","","","","","","","","","","","",""
"","do_trial","469","1073830","0.0-244.0-0.0","461.09999999403954","","","","","","","","49","0,0,1","6","blank","455","null","0.25289559993415056","0.5206586517855937","0.16053992717941326","0","","","","","","","","",""
"","html-keyboard-response","470","1074833","0.0-244.0-1.0","null","<p></p>","null","","","","","","","","","","","","","","","","","","","","","","","",""
"","do_trial","471","1077930","0.0-245.0-0.0","555.1000000238419","","","","","","","","49","0,1,0","6","blank","456","null","0.06949392821552096","0.5054352595942022","0.15181253494580035","0","","","","","","","","",""
"","html-keyboard-response","472","1078932","0.0-245.0-1.0","null","<p></p>","null","","","","","","","","","","","","","","","","","","","","","","","",""
"","do_recog","473","1081456","0.0-246.0-0.0","1015.7000000178814","","","","","","","","53","","","","457","probe-189","","","","","1","[object Object]","164","4","1","","","",""
"","html-keyboard-response","474","1082460","0.0-246.0-1.0","null","<p></p>","null","","","","","","","","","","","","","","","","","","","","","","","",""
"","do_trial","475","1085645","0.0-247.0-0.0","647.5","","","","","","","","49","0,0,0","6","blank","458","null","0.10075327048415668","0.403937222058973","0.24398782622119722","0","","","","","","","","",""
"","html-keyboard-response","476","1086650","0.0-247.0-1.0","null","<p></p>","null","","","","","","","","","","","","","","","","","","","","","","","",""
"","do_recog","477","1089134","0.0-248.0-0.0","976.2999999821186","","","","","","","","53","","","","459","probe-24","","","","","1","[object Object]","126","3","1","","","",""
"","html-keyboard-response","478","1090139","0.0-248.0-1.0","null","<p></p>","null","","","","","","","","","","","","","","","","","","","","","","","",""
"","do_trial","479","1093361","0.0-249.0-0.0","681","","","","","","","","49","0,1,1","6","blank","460","null","0.1739230564344026","0.4838467797546003","0.3379498508436993","0","","","","","","","","",""
"","html-keyboard-response","480","1094362","0.0-249.0-1.0","null","<p></p>","null","","","","","","","","","","","","","","","","","","","","","","","",""
"","do_recog","481","1096678","0.0-250.0-0.0","809","","","","","","","","53","","","","461","probe-131","","","","","1","[object Object]","124","3","1","","","",""
"","html-keyboard-response","482","1097682","0.0-250.0-1.0","null","<p></p>","null","","","","","","","","","","","","","","","","","","","","","","","",""
"","do_trial","483","1100717","0.0-251.0-0.0","497.90000000596046","","","","","","","","49","0,0,0","6","blank","462","null","0.14569566772370082","0.4234161122508006","0.3368617996860139","0","","","","","","","","",""
"","html-keyboard-response","484","1101718","0.0-251.0-1.0","null","<p></p>","null","","","","","","","","","","","","","","","","","","","","","","","",""
"","do_recog","485","1104598","0.0-252.0-0.0","1375.4000000059605","","","","","","","","56","","","","463","probe-232","","","","","0","[object Object]","null","null","1","","","",""
"","html-keyboard-response","486","1105603","0.0-252.0-1.0","null","<p></p>","null","","","","","","","","","","","","","","","","","","","","","","","",""
"","do_trial","487","1108822","0.0-253.0-0.0","680.1000000238419","","","","","","","","49","0,0,1","6","blank","464","null","0.10023423973327295","0.49822462232098175","0.4994275636748079","0","","","","","","","","",""
"","html-keyboard-response","488","1109828","0.0-253.0-1.0","null","<p></p>","null","","","","","","","","","","","","","","","","","","","","","","","",""
"","do_recog","489","1112575","0.0-254.0-0.0","1239.5999999940395","","","","","","","","53","","","","465","probe-247","","","","","0","[object Object]","null","null","0","","","",""
"","html-keyboard-response","490","1113579","0.0-254.0-1.0","null","<p></p>","null","","","","","","","","","","","","","","","","","","","","","","","",""
"","do_trial","491","1116793","0.0-255.0-0.0","671.7999999821186","","","","","","","","49","0,0,0","6","blank","466","null","0.14864890232087538","0.6204320915007051","0.3868335243546092","0","","","","","","","","",""
"","html-keyboard-response","492","1117796","0.0-255.0-1.0","null","<p></p>","null","","","","","","","","","","","","","","","","","","","","","","","",""
"","do_trial","493","1120737","0.0-256.0-0.0","397.59999999403954","","","","","","","","50","0,0,0","6","blank","467","null","0.10186275883232403","0.5351631498744036","0.32299730386913766","0","","","","","","","","",""
"","html-keyboard-response","494","1121740","0.0-256.0-1.0","null","<p></p>","null","","","","","","","","","","","","","","","","","","","","","","","",""
"","do_trial","495","1124781","0.0-257.0-0.0","502.89999997615814","","","","","","","","49","0,1,0","6","blank","468","null","0.07956206656836784","0.5584748358162988","0.3434865087694349","0","","","","","","","","",""
"","html-keyboard-response","496","1125787","0.0-257.0-1.0","null","<p></p>","null","","","","","","","","","","","","","","","","","","","","","","","",""
"","do_trial","497","1128835","0.0-258.0-0.0","510.39999997615814","","","","","","","","49","0,1,0","6","blank","469","null","0.12465763449873475","0.5916878095915284","0.22838911412294177","0","","","","","","","","",""
"","html-keyboard-response","498","1129839","0.0-258.0-1.0","null","<p></p>","null","","","","","","","","","","","","","","","","","","","","","","","",""
"","do_recog","499","1132339","0.0-259.0-0.0","994.9000000059605","","","","","","","","53","","","","470","probe-237","","","","","0","[object Object]","null","null","0","","","",""
"","html-keyboard-response","500","1133341","0.0-259.0-1.0","null","<p></p>","null","","","","","","","","","","","","","","","","","","","","","","","",""
"","do_trial","501","1136511","0.0-260.0-0.0","627.6999999880791","","","","","","","","49","0,1,1","6","blank","471","null","0.13617267982456113","0.7171401988292156","0.41794987397577105","0","","","","","","","","",""
"","html-keyboard-response","502","1137516","0.0-260.0-1.0","null","<p></p>","null","","","","","","","","","","","","","","","","","","","","","","","",""
"","do_trial","503","1140679","0.0-261.0-0.0","622.3000000119209","","","","","","","","50","0,1,1","6","blank","472","null","0.05646375324902769","0.7584988201527995","0.43644590541750133","1","","","","","","","","",""
"","html-keyboard-response","504","1141685","0.0-261.0-1.0","null","<p></p>","null","","","","","","","","","","","","","","","","","","","","","","","",""
"","do_trial","505","1144589","0.0-262.0-0.0","364.2999999821186","","","","","","","","49","0,1,0","6","blank","473","null","0.12677822248812218","0.6684539046990822","0.31658466494277443","0","","","","","","","","",""
"","html-keyboard-response","506","1145595","0.0-262.0-1.0","null","<p></p>","null","","","","","","","","","","","","","","","","","","","","","","","",""
"","do_trial","507","1148590","0.0-263.0-0.0","455.5","","","","","","","","50","0,0,1","6","blank","474","null","0.1052277298968116","0.5131967145979546","0.4330669324764249","0","","","","","","","","",""
"","html-keyboard-response","508","1149594","0.0-263.0-1.0","null","<p></p>","null","","","","","","","","","","","","","","","","","","","","","","","",""
"","do_trial","509","1152568","0.0-264.0-0.0","431.7999999821186","","","","","","","","49","0,1,0","6","blank","475","null","0.11410592973699951","0.5649795342699063","0.39900979507767614","0","","","","","","","","",""
"","html-keyboard-response","510","1153571","0.0-264.0-1.0","null","<p></p>","null","","","","","","","","","","","","","","","","","","","","","","","",""
"","do_trial","511","1156576","0.0-265.0-0.0","462.69999998807907","","","","","","","","49","0,1,0","6","blank","476","null","0.07843627014239003","0.44344291270163483","0.4026795412133825","0","","","","","","","","",""
"","html-keyboard-response","512","1157582","0.0-265.0-1.0","null","<p></p>","null","","","","","","","","","","","","","","","","","","","","","","","",""
"","do_recog","513","1160204","0.0-266.0-0.0","1116.4000000059605","","","","","","","","53","","","","477","probe-238","","","","","0","[object Object]","null","null","0","","","",""
"","html-keyboard-response","514","1161208","0.0-266.0-1.0","null","<p></p>","null","","","","","","","","","","","","","","","","","","","","","","","",""
