"success","trial_type","trial_index","time_elapsed","internal_node_id","interactions","blur_events","focus_events","fullscreenenter_events","fullscreenexit_events","rt","stimulus","key_press","subject_id","participant_id","age","gender","prompt","response","choice_outcomes","context_n","context_img_id","trial_n","probe_img_id","pR_red","pR_white","pR_black","outcome","is_valid","image_to_show","probed_trial","probed_context","correct","probe","probed_trial_n","probed_context_n","context_im"
"true","fullscreen","0","461286","0.0-0.0","""event"",""trial"",""time""
""fullscreenenter"",""0"",""460315""
","
","
","""event"",""trial"",""time""
""fullscreenenter"",""0"",""460315""
","
","","","","","","","","","","","","","","","","","","","","","","","","","","",""
"","pavlovia","1","461296","0.0-1.0","""event"",""trial"",""time""
""fullscreenenter"",""0"",""460315""
","
","
","""event"",""trial"",""time""
""fullscreenenter"",""0"",""460315""
","
","","","","","","","","","","","","","","","","","","","","","","","","","","",""
"","welc_back","2","471887","0.0-2.0","""event"",""trial"",""time""
""fullscreenenter"",""0"",""460315""
","
","
","""event"",""trial"",""time""
""fullscreenenter"",""0"",""460315""
","
","null","run_exp/static/audio/clip_29_welcome_back.m4a","null","464","250","15","Female","<div class='center'><p>Welcome to day 2!</p><p> Yesterday, you were the head captain of a pirate ship. You asked your fellow pirates to rob other ships of their gold across six different islands.</p></div>","","","","","","","","","","","","","","","","","","",""
"","html-keyboard-response","3","472983","0.0-3.0","""event"",""trial"",""time""
""fullscreenenter"",""0"",""460315""
","
","
","""event"",""trial"",""time""
""fullscreenenter"",""0"",""460315""
","
","1091.199999988079","<div class='center'><p>Welcome to day 2!</p><p> Yesterday, you were the head captain of a pirate ship. You asked your fellow pirates to rob other ships of their gold across six different islands.</p><p><b>[Press the space bar to continue]</b></p></div>","32","","","","","","","","","","","","","","","","","","","","","","","",""
"","day_1_summary_goal","4","490461","0.0-4.0","""event"",""trial"",""time""
""fullscreenenter"",""0"",""460315""
","
","
","""event"",""trial"",""time""
""fullscreenenter"",""0"",""460315""
","
","null","run_exp/static/audio/clip_30_goal_of_game.m4a","null","","","","","<div class='center'><p>Today, like yesterday, you get to pick which pirate you want to rob the next ship.</p><p>If the pirate is successful in robbing a ship, you get gold coins that look like this: </p><p><img src='run_exp/static/images/tutorial/reward.png' height='150'></p><p> If they were not successful in robbing the ship, then you will get no gold coins and you'll see a big red x like this: </p><p><img src='run_exp/static/images/tutorial/reward_no.png' height='150'></p></div>","","","","","","","","","","","","","","","","","","",""
"","html-keyboard-response","5","494433","0.0-5.0","""event"",""trial"",""time""
""fullscreenenter"",""0"",""460315""
","
","
","""event"",""trial"",""time""
""fullscreenenter"",""0"",""460315""
","
","3962.100000023842","<div class='center'><p>Today, like yesterday, you get to pick which pirate you want to rob the next ship.</p><p>If the pirate is successful in robbing a ship, you get gold coins that look like this: </p><p><img src='run_exp/static/images/tutorial/reward.png' height='150'></p><p> If they were not successful in robbing the ship, then you will get no gold coins and you'll see a big red x like this: </p><p><img src='run_exp/static/images/tutorial/reward_no.png' height='150'></p><p><b>[Press the space bar to continue]</b></p></div>","32","","","","","","","","","","","","","","","","","","","","","","","",""
"","day_1_summary_pick","6","509500","0.0-6.0","""event"",""trial"",""time""
""fullscreenenter"",""0"",""460315""
","
","
","""event"",""trial"",""time""
""fullscreenenter"",""0"",""460315""
","
","null","run_exp/static/audio/clip_31_how_to_pick_a_pirate.m4a","null","","","","","<div class='center'><p>Also, just like yesterday, you will use the 1,2,3 keys on your keyboard to pick a pirate. Press '1' to choose red beard, '2' to choose white beard, and '3' to choose black beard . You only have 3 seconds to pick a pirate, so please make a choice quickly!</p></div>","","","","","","","","","","","","","","","","","","",""
"","html-keyboard-response","7","510282","0.0-7.0","""event"",""trial"",""time""
""fullscreenenter"",""0"",""460315""
","
","
","""event"",""trial"",""time""
""fullscreenenter"",""0"",""460315""
","
","778.3000000119209","<div class='center'><p>Also, just like yesterday, you will use the 1,2,3 keys on your keyboard to pick a pirate. Press '1' to choose red beard, '2' to choose white beard, and '3' to choose black beard . You only have 3 seconds to pick a pirate, so please make a choice quickly!</p><p><b>[Press the space bar to continue]</b></p></div>","32","","","","","","","","","","","","","","","","","","","","","","","",""
"","test_phase_begin","8","540992","0.0-8.0","""event"",""trial"",""time""
""fullscreenenter"",""0"",""460315""
","
","
","""event"",""trial"",""time""
""fullscreenenter"",""0"",""460315""
","
","null","run_exp/static/audio/clip_32_final_place.m4a","null","","","","","<div class='center'><p>You’ve arrived at the final island of your journey! Unfortunately, it’s very foggy out, so you won’t be able to see it in the distance like the other islands you've visited.</p><p>You’ll still be deciding which pirate you want to rob a ship like before. However, because of the fog, you also won’t be able to see the ship.</p><p>This means you do not have to remember the ships you rob on this island.</p><p>Unlike yesterday, you won't be visiting multiple islands today. You will stay on this island for the entire game. This game will last ~30 minutes.</p></div>","","","","","","","","","","","","","","","","","","",""
"","html-keyboard-response","9","551804","0.0-9.0","""event"",""trial"",""time""
""fullscreenenter"",""0"",""460315""
","
","
","""event"",""trial"",""time""
""fullscreenenter"",""0"",""460315""
","
","10807.200000017881","<div class='center'><p>You’ve arrived at the final island of your journey! Unfortunately, it’s very foggy out, so you won’t be able to see it in the distance like the other islands you've visited.</p><p>You’ll still be deciding which pirate you want to rob a ship like before. However, because of the fog, you also won’t be able to see the ship.</p><p>This means you do not have to remember the ships you rob on this island.</p><p>Unlike yesterday, you won't be visiting multiple islands today. You will stay on this island for the entire game. This game will last ~30 minutes.</p><p><b>[Press the space bar to continue]</b></p></div>","32","","","","","","","","","","","","","","","","","","","","","","","",""
"","explain_probe_1","10","559635","0.0-10.0","""event"",""trial"",""time""
""fullscreenenter"",""0"",""460315""
","
","
","""event"",""trial"",""time""
""fullscreenenter"",""0"",""460315""
","
","null","run_exp/static/audio/clip_33_recognition_1.m4a","null","","","","","<div class='center'><p> Sometimes you’ll be shown a ship, and you will be asked if you saw this ship on a past island.</p><p> Here is an example of what you will see.</p><p><img src='run_exp/static/images/tutorial/example_recog_trial.png' height='500'></p></div>","","","","","","","","","","","","","","","","","","",""
"","html-keyboard-response","11","569216","0.0-11.0","""event"",""trial"",""time""
""fullscreenenter"",""0"",""460315""
","
","
","""event"",""trial"",""time""
""fullscreenenter"",""0"",""460315""
","
","9574.200000017881","<div class='center'><p> Sometimes you’ll be shown a ship, and you will be asked if you saw this ship on a past island.</p><p> Here is an example of what you will see.</p><p><img src='run_exp/static/images/tutorial/example_recog_trial.png' height='500'></p><p><b>[Press the space bar to continue]</b></p></div>","32","","","","","","","","","","","","","","","","","","","","","","","",""
"","explain_probe_2","12","591214","0.0-12.0","""event"",""trial"",""time""
""fullscreenenter"",""0"",""460315""
","
","
","""event"",""trial"",""time""
""fullscreenenter"",""0"",""460315""
","
","null","run_exp/static/audio/clip_34_recognition_2.m4a","null","","","","","<div class='center'><p> You will press the 5, 6, 7, 8 keys on your keyboard to respond.</p><p>If you are sure you saw the ship, press <b>5</b> on your keyboard.</p><p> If you think you saw it before but aren't sure, then press <b>6</b>.</p><p> If you think you have <b>not</b> seen it before but aren't sure, then press <b>7</b>.</p><p> If you are sure you did <b>not</b> see the ship before, then press <b>8</b>.</p><p><img src='run_exp/static/images/tutorial/example_recog_trial.png' height='500'></p></div>","","","","","","","","","","","","","","","","","","",""
"","html-keyboard-response","13","592399","0.0-13.0","""event"",""trial"",""time""
""fullscreenenter"",""0"",""460315""
","
","
","""event"",""trial"",""time""
""fullscreenenter"",""0"",""460315""
","
","1175.7999999821186","<div class='center'><p> You will press the 5, 6, 7, 8 keys on your keyboard to respond.</p><p>If you are sure you saw the ship, press <b>5</b> on your keyboard.</p><p> If you think you saw it before but aren't sure, then press <b>6</b>.</p><p> If you think you have <b>not</b> seen it before but aren't sure, then press <b>7</b>.</p><p> If you are sure you did <b>not</b> see the ship before, then press <b>8</b>.</p><p><img src='run_exp/static/images/tutorial/example_recog_trial.png' height='500'></p><p><b>[Press the space bar to continue]</b></p></div>","32","","","","","","","","","","","","","","","","","","","","","","","",""
"","explain_outcome","14","609792","0.0-14.0","""event"",""trial"",""time""
""fullscreenenter"",""0"",""460315""
","
","
","""event"",""trial"",""time""
""fullscreenenter"",""0"",""460315""
","
","null","run_exp/static/audio/clip_35_recognition_3.m4a","null","","","","","<div class='center'><p> If you remember correctly, then you’ll get a gold coin like this: </p><p><img src='run_exp/static/images/tutorial/reward_small.png' height='200'></p><p>If you do not remember correctly, then you'll see a red x like this: </p><p><img src='run_exp/static/images/tutorial/reward_no.png' height='200'></p><p>Importantly, when you are shown a ship, take the time to remind yourself which island you saw it on. This will help you in the next part of the study.</p></div>","","","","","","","","","","","","","","","","","","",""
"","html-keyboard-response","15","611359","0.0-15.0","""event"",""trial"",""time""
""fullscreenenter"",""0"",""460315""
","
","
","""event"",""trial"",""time""
""fullscreenenter"",""0"",""460315""
","
","1560","<div class='center'><p> If you remember correctly, then you’ll get a gold coin like this: </p><p><img src='run_exp/static/images/tutorial/reward_small.png' height='200'></p><p>If you do not remember correctly, then you'll see a red x like this: </p><p><img src='run_exp/static/images/tutorial/reward_no.png' height='200'></p><p>Importantly, when you are shown a ship, take the time to remind yourself which island you saw it on. This will help you in the next part of the study.</p><p><b>[Press the space bar to continue]</b></p></div>","32","","","","","","","","","","","","","","","","","","","","","","","",""
"","begin_test_phase","16","627528","0.0-16.0","""event"",""trial"",""time""
""fullscreenenter"",""0"",""460315""
","
","
","""event"",""trial"",""time""
""fullscreenenter"",""0"",""460315""
","
","null","run_exp/static/audio/clip_36_begin_final.m4a","null","","","","","<div class='center'><p>Let's go over the important points again. Your job is to: </p><p>1. Pick the pirate who is best at robbing ships and will bring you back gold coins. </p><p>2. Correctly remember whether or not you saw a ship before. If you did see the ship before, remind yourself on which island you saw it. </p></div>","","","","","","","","","","","","","","","","","","",""
"","html-keyboard-response","17","628974","0.0-17.0","""event"",""trial"",""time""
""fullscreenenter"",""0"",""460315""
","
","
","""event"",""trial"",""time""
""fullscreenenter"",""0"",""460315""
","
","1252.199999988079","<div class='center'><p>Let's go over the important points again. Your job is to: </p><p>1. Pick the pirate who is best at robbing ships and will bring you back gold coins. </p><p>2. Correctly remember whether or not you saw a ship before. If you did see the ship before, remind yourself on which island you saw it. </p><p><b>[Press the space bar to continue]</b></p></div>","32","","","","","","","","","","","","","","","","","","","","","","","",""
"","do_welcome","18","633015","0.0-18.0","""event"",""trial"",""time""
""fullscreenenter"",""0"",""460315""
","
","
","""event"",""trial"",""time""
""fullscreenenter"",""0"",""460315""
","
","null","","","","","","","","null","","","","","","","","","","","","","","","","","",""
"","do_trial","19","637177","0.0-19.0-0.0","""event"",""trial"",""time""
""fullscreenenter"",""0"",""460315""
","
","
","""event"",""trial"",""time""
""fullscreenenter"",""0"",""460315""
","
","1537","","","","","","","","49","0,0,1","6","blank","230","null","0.16777232578649978","0.09535510547385681","0.7991017358015858","0","","","","","","","","",""
"","html-keyboard-response","20","638182","0.0-19.0-1.0","""event"",""trial"",""time""
""fullscreenenter"",""0"",""460315""
","
","
","""event"",""trial"",""time""
""fullscreenenter"",""0"",""460315""
","
","null","<p></p>","null","","","","","","","","","","","","","","","","","","","","","","","",""
"","do_trial","21","642703","0.0-20.0-0.0","""event"",""trial"",""time""
""fullscreenenter"",""0"",""460315""
","
","
","""event"",""trial"",""time""
""fullscreenenter"",""0"",""460315""
","
","1897.7000000178814","","","","","","","","50","0,0,1","6","blank","231","null","0.15430596340404243","0.07793589474584832","0.7817946965214848","0","","","","","","","","",""
"","html-keyboard-response","22","643710","0.0-20.0-1.0","""event"",""trial"",""time""
""fullscreenenter"",""0"",""460315""
","
","
","""event"",""trial"",""time""
""fullscreenenter"",""0"",""460315""
","
","null","<p></p>","null","","","","","","","","","","","","","","","","","","","","","","","",""
"","do_trial","23","647125","0.0-21.0-0.0","""event"",""trial"",""time""
""fullscreenenter"",""0"",""460315""
","
","
","""event"",""trial"",""time""
""fullscreenenter"",""0"",""460315""
","
","801.6999999880791","","","","","","","","49","0,0,0","6","blank","232","null","0.34849185862868637","0.10756019953682522","0.7035797526530034","0","","","","","","","","",""
"","html-keyboard-response","24","648129","0.0-21.0-1.0","""event"",""trial"",""time""
""fullscreenenter"",""0"",""460315""
","
","
","""event"",""trial"",""time""
""fullscreenenter"",""0"",""460315""
","
","null","<p></p>","null","","","","","","","","","","","","","","","","","","","","","","","",""
"","do_trial","25","651742","0.0-22.0-0.0","""event"",""trial"",""time""
""fullscreenenter"",""0"",""460315""
","
","
","""event"",""trial"",""time""
""fullscreenenter"",""0"",""460315""
","
","991.3000000119209","","","","","","","","51","0,0,0","6","blank","233","null","0.11522741178107733","0.10655884311030046","0.7353588151017134","0","","","","","","","","",""
"","html-keyboard-response","26","652749","0.0-22.0-1.0","""event"",""trial"",""time""
""fullscreenenter"",""0"",""460315""
","
","
","""event"",""trial"",""time""
""fullscreenenter"",""0"",""460315""
","
","null","<p></p>","null","","","","","","","","","","","","","","","","","","","","","","","",""
"","do_trial","27","656066","0.0-23.0-0.0","""event"",""trial"",""time""
""fullscreenenter"",""0"",""460315""
","
","
","""event"",""trial"",""time""
""fullscreenenter"",""0"",""460315""
","
","705.5","","","","","","","","49","1,1,1","6","blank","234","null","0.3039998702328986","0.10963281666830349","0.6644842848848169","1","","","","","","","","",""
"","html-keyboard-response","28","657071","0.0-23.0-1.0","""event"",""trial"",""time""
""fullscreenenter"",""0"",""460315""
","
","
","""event"",""trial"",""time""
""fullscreenenter"",""0"",""460315""
","
","null","<p></p>","null","","","","","","","","","","","","","","","","","","","","","","","",""
"","do_trial","29","660514","0.0-24.0-0.0","""event"",""trial"",""time""
""fullscreenenter"",""0"",""460315""
","
","
","""event"",""trial"",""time""
""fullscreenenter"",""0"",""460315""
","
","823.3000000119209","","","","","","","","49","0,0,1","6","blank","235","null","0.21651951213480317","0.1061862885312081","0.6578428497654457","0","","","","","","","","",""
"","html-keyboard-response","30","661522","0.0-24.0-1.0","""event"",""trial"",""time""
""fullscreenenter"",""0"",""460315""
","
","
","""event"",""trial"",""time""
""fullscreenenter"",""0"",""460315""
","
","null","<p></p>","null","","","","","","","","","","","","","","","","","","","","","","","",""
"","do_trial","31","664796","0.0-25.0-0.0","""event"",""trial"",""time""
""fullscreenenter"",""0"",""460315""
","
","
","""event"",""trial"",""time""
""fullscreenenter"",""0"",""460315""
","
","662","","","","","","","","50","0,1,0","6","blank","236","null","0.2728046785585689","0.13642751243790271","0.584639488659154","1","","","","","","","","",""
"","html-keyboard-response","32","665803","0.0-25.0-1.0","""event"",""trial"",""time""
""fullscreenenter"",""0"",""460315""
","
","
","""event"",""trial"",""time""
""fullscreenenter"",""0"",""460315""
","
","null","<p></p>","null","","","","","","","","","","","","","","","","","","","","","","","",""
"","do_trial","33","669124","0.0-26.0-0.0","""event"",""trial"",""time""
""fullscreenenter"",""0"",""460315""
","
","
","""event"",""trial"",""time""
""fullscreenenter"",""0"",""460315""
","
","697.9000000059605","","","","","","","","50","1,0,1","6","blank","237","null","0.3868539087115984","0.11064353355295953","0.5959061501920667","0","","","","","","","","",""
"","html-keyboard-response","34","670130","0.0-26.0-1.0","""event"",""trial"",""time""
""fullscreenenter"",""0"",""460315""
","
","
","""event"",""trial"",""time""
""fullscreenenter"",""0"",""460315""
","
","null","<p></p>","null","","","","","","","","","","","","","","","","","","","","","","","",""
"","do_trial","35","673781","0.0-27.0-0.0","""event"",""trial"",""time""
""fullscreenenter"",""0"",""460315""
","
","
","""event"",""trial"",""time""
""fullscreenenter"",""0"",""460315""
","
","1037.7000000178814","","","","","","","","49","0,0,1","6","blank","238","null","0.3174133908875606","0.24292800673233333","0.47937775528311094","0","","","","","","","","",""
"","html-keyboard-response","36","674787","0.0-27.0-1.0","""event"",""trial"",""time""
""fullscreenenter"",""0"",""460315""
","
","
","""event"",""trial"",""time""
""fullscreenenter"",""0"",""460315""
","
","null","<p></p>","null","","","","","","","","","","","","","","","","","","","","","","","",""
"","do_trial","37","678268","0.0-28.0-0.0","""event"",""trial"",""time""
""fullscreenenter"",""0"",""460315""
","
","
","""event"",""trial"",""time""
""fullscreenenter"",""0"",""460315""
","
","856.8000000119209","","","","","","","","51","0,0,0","6","blank","239","null","0.2762302684867735","0.21516392950459653","0.37583366371457816","0","","","","","","","","",""
"","html-keyboard-response","38","679275","0.0-28.0-1.0","""event"",""trial"",""time""
""fullscreenenter"",""0"",""460315""
","
","
","""event"",""trial"",""time""
""fullscreenenter"",""0"",""460315""
","
","null","<p></p>","null","","","","","","","","","","","","","","","","","","","","","","","",""
"","do_trial","39","682435","0.0-29.0-0.0","""event"",""trial"",""time""
""fullscreenenter"",""0"",""460315""
","
","
","""event"",""trial"",""time""
""fullscreenenter"",""0"",""460315""
","
","545.5999999940395","","","","","","","","50","1,0,0","6","blank","240","null","0.3258770499926142","0.2200974764904943","0.46346960198920145","0","","","","","","","","",""
"","html-keyboard-response","40","683444","0.0-29.0-1.0","""event"",""trial"",""time""
""fullscreenenter"",""0"",""460315""
","
","
","""event"",""trial"",""time""
""fullscreenenter"",""0"",""460315""
","
","null","<p></p>","null","","","","","","","","","","","","","","","","","","","","","","","",""
"","do_recog","41","689466","0.0-30.0-0.0","""event"",""trial"",""time""
""fullscreenenter"",""0"",""460315""
","
","
","""event"",""trial"",""time""
""fullscreenenter"",""0"",""460315""
","
","null","","","","","","","","null","","","","241","probe-103","","","","","1","[object Object]","39","0","0","","","",""
"","html-keyboard-response","42","690475","0.0-30.0-1.0","""event"",""trial"",""time""
""fullscreenenter"",""0"",""460315""
","
","
","""event"",""trial"",""time""
""fullscreenenter"",""0"",""460315""
","
","null","<p></p>","null","","","","","","","","","","","","","","","","","","","","","","","",""
"","do_trial","43","694640","0.0-31.0-0.0","""event"",""trial"",""time""
""fullscreenenter"",""0"",""460315""
","
","
","""event"",""trial"",""time""
""fullscreenenter"",""0"",""460315""
","
","1551.5999999940395","","","","","","","","49","0,0,0","6","blank","242","null","0.36044324515116627","0.3012453812386764","0.36092019692753613","0","","","","","","","","",""
"","html-keyboard-response","44","695648","0.0-31.0-1.0","""event"",""trial"",""time""
""fullscreenenter"",""0"",""460315""
","
","
","""event"",""trial"",""time""
""fullscreenenter"",""0"",""460315""
","
","null","<p></p>","null","","","","","","","","","","","","","","","","","","","","","","","",""
"","do_trial","45","699282","0.0-32.0-0.0","""event"",""trial"",""time""
""fullscreenenter"",""0"",""460315""
","
","
","""event"",""trial"",""time""
""fullscreenenter"",""0"",""460315""
","
","1019.7999999821186","","","","","","","","49","0,0,0","6","blank","243","null","0.43552724042343083","0.22563446219222802","0.42983730159779315","0","","","","","","","","",""
"","html-keyboard-response","46","700286","0.0-32.0-1.0","""event"",""trial"",""time""
""fullscreenenter"",""0"",""460315""
","
","
","""event"",""trial"",""time""
""fullscreenenter"",""0"",""460315""
","
","null","<p></p>","null","","","","","","","","","","","","","","","","","","","","","","","",""
"","do_trial","47","703836","0.0-33.0-0.0","""event"",""trial"",""time""
""fullscreenenter"",""0"",""460315""
","
","
","""event"",""trial"",""time""
""fullscreenenter"",""0"",""460315""
","
","928.2999999821186","","","","","","","","51","0,0,0","6","blank","244","null","0.41447185786808727","0.24532894340559971","0.44088308345069266","0","","","","","","","","",""
"","html-keyboard-response","48","704843","0.0-33.0-1.0","""event"",""trial"",""time""
""fullscreenenter"",""0"",""460315""
","
","
","""event"",""trial"",""time""
""fullscreenenter"",""0"",""460315""
","
","null","<p></p>","null","","","","","","","","","","","","","","","","","","","","","","","",""
"","do_trial","49","708397","0.0-34.0-0.0","""event"",""trial"",""time""
""fullscreenenter"",""0"",""460315""
","
","
","""event"",""trial"",""time""
""fullscreenenter"",""0"",""460315""
","
","941.5","","","","","","","","49","1,0,0","6","blank","245","null","0.5692569674114912","0.10066110517934161","0.42660073934394066","1","","","","","","","","",""
"","html-keyboard-response","50","709403","0.0-34.0-1.0","""event"",""trial"",""time""
""fullscreenenter"",""0"",""460315""
","
","
","""event"",""trial"",""time""
""fullscreenenter"",""0"",""460315""
","
","null","<p></p>","null","","","","","","","","","","","","","","","","","","","","","","","",""
"","do_trial","51","713227","0.0-35.0-0.0","""event"",""trial"",""time""
""fullscreenenter"",""0"",""460315""
","
","
","""event"",""trial"",""time""
""fullscreenenter"",""0"",""460315""
","
","1211.5","","","","","","","","49","1,0,0","6","blank","246","null","0.5936404975171043","0.09340172746645482","0.32268397515020103","1","","","","","","","","",""
"","html-keyboard-response","52","714233","0.0-35.0-1.0","""event"",""trial"",""time""
""fullscreenenter"",""0"",""460315""
","
","
","""event"",""trial"",""time""
""fullscreenenter"",""0"",""460315""
","
","null","<p></p>","null","","","","","","","","","","","","","","","","","","","","","","","",""
"","do_trial","53","717544","0.0-36.0-0.0","""event"",""trial"",""time""
""fullscreenenter"",""0"",""460315""
","
","
","""event"",""trial"",""time""
""fullscreenenter"",""0"",""460315""
","
","691.1999999880791","","","","","","","","49","1,0,0","6","blank","247","null","0.6297693198129359","0.14143353712755002","0.35993456675620367","1","","","","","","","","",""
"","html-keyboard-response","54","718552","0.0-36.0-1.0","""event"",""trial"",""time""
""fullscreenenter"",""0"",""460315""
","
","
","""event"",""trial"",""time""
""fullscreenenter"",""0"",""460315""
","
","null","<p></p>","null","","","","","","","","","","","","","","","","","","","","","","","",""
"","do_recog","55","724571","0.0-37.0-0.0","""event"",""trial"",""time""
""fullscreenenter"",""0"",""460315""
","
","
","""event"",""trial"",""time""
""fullscreenenter"",""0"",""460315""
","
","null","","","","","","","","null","","","","248","probe-233","","","","","0","[object Object]","null","null","0","","","",""
"","html-keyboard-response","56","725577","0.0-37.0-1.0","""event"",""trial"",""time""
""fullscreenenter"",""0"",""460315""
","
","
","""event"",""trial"",""time""
""fullscreenenter"",""0"",""460315""
","
","null","<p></p>","null","","","","","","","","","","","","","","","","","","","","","","","",""
"","do_trial","57","729789","0.0-38.0-0.0","""event"",""trial"",""time""
""fullscreenenter"",""0"",""460315""
","
","
","""event"",""trial"",""time""
""fullscreenenter"",""0"",""460315""
","
","1597","","","","","","","","49","1,0,0","6","blank","249","null","0.4912045087089959","0.134510958118765","0.44450271692061094","1","","","","","","","","",""
"","html-keyboard-response","58","730796","0.0-38.0-1.0","""event"",""trial"",""time""
""fullscreenenter"",""0"",""460315""
","
","
","""event"",""trial"",""time""
""fullscreenenter"",""0"",""460315""
","
","null","<p></p>","null","","","","","","","","","","","","","","","","","","","","","","","",""
"","do_trial","59","734871","0.0-39.0-0.0","""event"",""trial"",""time""
""fullscreenenter"",""0"",""460315""
","
","
","""event"",""trial"",""time""
""fullscreenenter"",""0"",""460315""
","
","1463.1000000238419","","","","","","","","49","1,0,0","6","blank","250","null","0.37697338990349843","0.05958301394086996","0.4641686727010459","1","","","","","","","","",""
"","html-keyboard-response","60","735878","0.0-39.0-1.0","""event"",""trial"",""time""
""fullscreenenter"",""0"",""460315""
","
","
","""event"",""trial"",""time""
""fullscreenenter"",""0"",""460315""
","
","null","<p></p>","null","","","","","","","","","","","","","","","","","","","","","","","",""
"","do_recog","61","741897","0.0-40.0-0.0","""event"",""trial"",""time""
""fullscreenenter"",""0"",""460315""
","
","
","""event"",""trial"",""time""
""fullscreenenter"",""0"",""460315""
","
","null","","","","","","","","null","","","","251","probe-112","","","","","1","[object Object]","36","0","0","","","",""
"","html-keyboard-response","62","742902","0.0-40.0-1.0","""event"",""trial"",""time""
""fullscreenenter"",""0"",""460315""
","
","
","""event"",""trial"",""time""
""fullscreenenter"",""0"",""460315""
","
","null","<p></p>","null","","","","","","","","","","","","","","","","","","","","","","","",""
"","do_trial","63","746575","0.0-41.0-0.0","""event"",""trial"",""time""
""fullscreenenter"",""0"",""460315""
","
","
","""event"",""trial"",""time""
""fullscreenenter"",""0"",""460315""
","
","1045.5","","","","","","","","49","0,1,0","6","blank","252","null","0.5540362267875696","0.13339738657577926","0.43421121880168595","0","","","","","","","","",""
"","html-keyboard-response","64","747581","0.0-41.0-1.0","""event"",""trial"",""time""
""fullscreenenter"",""0"",""460315""
","
","
","""event"",""trial"",""time""
""fullscreenenter"",""0"",""460315""
","
","null","<p></p>","null","","","","","","","","","","","","","","","","","","","","","","","",""
"","do_recog","65","751929","0.0-42.0-0.0","""event"",""trial"",""time""
""fullscreenenter"",""0"",""460315""
","
","
","""event"",""trial"",""time""
""fullscreenenter"",""0"",""460315""
","
","2828","","","","","","","","56","","","","253","probe-115","","","","","1","[object Object]","157","3","0","","","",""
"","html-keyboard-response","66","752936","0.0-42.0-1.0","""event"",""trial"",""time""
""fullscreenenter"",""0"",""460315""
","
","
","""event"",""trial"",""time""
""fullscreenenter"",""0"",""460315""
","
","null","<p></p>","null","","","","","","","","","","","","","","","","","","","","","","","",""
"","do_trial","67","757872","0.0-43.0-0.0","""event"",""trial"",""time""
""fullscreenenter"",""0"",""460315""
","
","
","""event"",""trial"",""time""
""fullscreenenter"",""0"",""460315""
","
","2324","","","","","","","","49","0,1,0","6","blank","254","null","0.515862562778282","0.18966742906458653","0.3802374252212127","0","","","","","","","","",""
"","html-keyboard-response","68","758878","0.0-43.0-1.0","""event"",""trial"",""time""
""fullscreenenter"",""0"",""460315""
","
","
","""event"",""trial"",""time""
""fullscreenenter"",""0"",""460315""
","
","null","<p></p>","null","","","","","","","","","","","","","","","","","","","","","","","",""
"","do_trial","69","761963","0.0-44.0-0.0","""event"",""trial"",""time""
""fullscreenenter"",""0"",""460315""
","
","
","""event"",""trial"",""time""
""fullscreenenter"",""0"",""460315""
","
","448.2000000178814","","","","","","","","50","0,0,0","6","blank","255","null","0.4732772074249484","0.17327908694463984","0.3484736537353571","0","","","","","","","","",""
"","html-keyboard-response","70","762971","0.0-44.0-1.0","""event"",""trial"",""time""
""fullscreenenter"",""0"",""460315""
","
","
","""event"",""trial"",""time""
""fullscreenenter"",""0"",""460315""
","
","null","<p></p>","null","","","","","","","","","","","","","","","","","","","","","","","",""
"","do_trial","71","766082","0.0-45.0-0.0","""event"",""trial"",""time""
""fullscreenenter"",""0"",""460315""
","
","
","""event"",""trial"",""time""
""fullscreenenter"",""0"",""460315""
","
","496.30000001192093","","","","","","","","51","0,0,0","6","blank","256","null","0.5202515878190722","0.26689017621184025","0.1758544156068475","0","","","","","","","","",""
"","html-keyboard-response","72","767086","0.0-45.0-1.0","""event"",""trial"",""time""
""fullscreenenter"",""0"",""460315""
","
","
","""event"",""trial"",""time""
""fullscreenenter"",""0"",""460315""
","
","null","<p></p>","null","","","","","","","","","","","","","","","","","","","","","","","",""
"","do_recog","73","771018","0.0-46.0-0.0","""event"",""trial"",""time""
""fullscreenenter"",""0"",""460315""
","
","
","""event"",""trial"",""time""
""fullscreenenter"",""0"",""460315""
","
","2417.100000023842","","","","","","","","56","","","","257","probe-199","","","","","1","[object Object]","114","2","0","","","",""
"","html-keyboard-response","74","772024","0.0-46.0-1.0","""event"",""trial"",""time""
""fullscreenenter"",""0"",""460315""
","
","
","""event"",""trial"",""time""
""fullscreenenter"",""0"",""460315""
","
","null","<p></p>","null","","","","","","","","","","","","","","","","","","","","","","","",""
"","do_trial","75","775959","0.0-47.0-0.0","""event"",""trial"",""time""
""fullscreenenter"",""0"",""460315""
","
","
","""event"",""trial"",""time""
""fullscreenenter"",""0"",""460315""
","
","1321.4000000059605","","","","","","","","49","1,1,0","6","blank","258","null","0.49791627419837886","0.260277168436236","0.11369386501294869","1","","","","","","","","",""
"","html-keyboard-response","76","776965","0.0-47.0-1.0","""event"",""trial"",""time""
""fullscreenenter"",""0"",""460315""
","
","
","""event"",""trial"",""time""
""fullscreenenter"",""0"",""460315""
","
","null","<p></p>","null","","","","","","","","","","","","","","","","","","","","","","","",""
"","do_trial","77","780493","0.0-48.0-0.0","""event"",""trial"",""time""
""fullscreenenter"",""0"",""460315""
","
","
","""event"",""trial"",""time""
""fullscreenenter"",""0"",""460315""
","
","915.5","","","","","","","","50","0,1,1","6","blank","259","null","0.5993865325822786","0.10593120981874389","0.18142793965382936","1","","","","","","","","",""
"","html-keyboard-response","78","781500","0.0-48.0-1.0","""event"",""trial"",""time""
""fullscreenenter"",""0"",""460315""
","
","
","""event"",""trial"",""time""
""fullscreenenter"",""0"",""460315""
","
","null","<p></p>","null","","","","","","","","","","","","","","","","","","","","","","","",""
"","do_trial","79","784904","0.0-49.0-0.0","""event"",""trial"",""time""
""fullscreenenter"",""0"",""460315""
","
","
","""event"",""trial"",""time""
""fullscreenenter"",""0"",""460315""
","
","782.5","","","","","","","","49","0,0,0","6","blank","260","null","0.7061009657240115","0.11735739576118516","0.24236084408843883","0","","","","","","","","",""
"","html-keyboard-response","80","785911","0.0-49.0-1.0","""event"",""trial"",""time""
""fullscreenenter"",""0"",""460315""
","
","
","""event"",""trial"",""time""
""fullscreenenter"",""0"",""460315""
","
","null","<p></p>","null","","","","","","","","","","","","","","","","","","","","","","","",""
"","do_trial","81","789350","0.0-50.0-0.0","""event"",""trial"",""time""
""fullscreenenter"",""0"",""460315""
","
","
","""event"",""trial"",""time""
""fullscreenenter"",""0"",""460315""
","
","824.0999999940395","","","","","","","","49","1,0,0","6","blank","261","null","0.6293703776722369","0.0806547083079443","0.2769465564470847","1","","","","","","","","",""
"","html-keyboard-response","82","790357","0.0-50.0-1.0","""event"",""trial"",""time""
""fullscreenenter"",""0"",""460315""
","
","
","""event"",""trial"",""time""
""fullscreenenter"",""0"",""460315""
","
","null","<p></p>","null","","","","","","","","","","","","","","","","","","","","","","","",""
"","do_trial","83","793621","0.0-51.0-0.0","""event"",""trial"",""time""
""fullscreenenter"",""0"",""460315""
","
","
","""event"",""trial"",""time""
""fullscreenenter"",""0"",""460315""
","
","648.5","","","","","","","","49","1,0,0","6","blank","262","null","0.47192452270750535","0.08504106254576758","0.4432890456030178","1","","","","","","","","",""
"","html-keyboard-response","84","794627","0.0-51.0-1.0","""event"",""trial"",""time""
""fullscreenenter"",""0"",""460315""
","
","
","""event"",""trial"",""time""
""fullscreenenter"",""0"",""460315""
","
","null","<p></p>","null","","","","","","","","","","","","","","","","","","","","","","","",""
"","do_trial","85","797788","0.0-52.0-0.0","""event"",""trial"",""time""
""fullscreenenter"",""0"",""460315""
","
","
","""event"",""trial"",""time""
""fullscreenenter"",""0"",""460315""
","
","544.1999999880791","","","","","","","","49","0,0,0","6","blank","263","null","0.6317389113731581","0.13090941369193254","0.361728996325701","0","","","","","","","","",""
"","html-keyboard-response","86","798794","0.0-52.0-1.0","""event"",""trial"",""time""
""fullscreenenter"",""0"",""460315""
","
","
","""event"",""trial"",""time""
""fullscreenenter"",""0"",""460315""
","
","null","<p></p>","null","","","","","","","","","","","","","","","","","","","","","","","",""
"","do_recog","87","802967","0.0-53.0-0.0","""event"",""trial"",""time""
""fullscreenenter"",""0"",""460315""
","
","
","""event"",""trial"",""time""
""fullscreenenter"",""0"",""460315""
","
","2656.9000000059605","","","","","","","","54","","","","264","probe-145","","","","","1","[object Object]","38","0","1","","","",""
"","html-keyboard-response","88","803971","0.0-53.0-1.0","""event"",""trial"",""time""
""fullscreenenter"",""0"",""460315""
","
","
","""event"",""trial"",""time""
""fullscreenenter"",""0"",""460315""
","
","null","<p></p>","null","","","","","","","","","","","","","","","","","","","","","","","",""
"","do_trial","89","807816","0.0-54.0-0.0","""event"",""trial"",""time""
""fullscreenenter"",""0"",""460315""
","
","
","""event"",""trial"",""time""
""fullscreenenter"",""0"",""460315""
","
","1231.5","","","","","","","","49","1,1,0","6","blank","265","null","0.3790384798394999","0.12326757871779079","0.23298330290615027","1","","","","","","","","",""
"","html-keyboard-response","90","808820","0.0-54.0-1.0","""event"",""trial"",""time""
""fullscreenenter"",""0"",""460315""
","
","
","""event"",""trial"",""time""
""fullscreenenter"",""0"",""460315""
","
","null","<p></p>","null","","","","","","","","","","","","","","","","","","","","","","","",""
"","do_recog","91","812809","0.0-55.0-0.0","""event"",""trial"",""time""
""fullscreenenter"",""0"",""460315""
","
","
","""event"",""trial"",""time""
""fullscreenenter"",""0"",""460315""
","
","2469.199999988079","","","","","","","","53","","","","266","probe-97","","","","","1","[object Object]","37","0","1","","","",""
"","html-keyboard-response","92","813816","0.0-55.0-1.0","""event"",""trial"",""time""
""fullscreenenter"",""0"",""460315""
","
","
","""event"",""trial"",""time""
""fullscreenenter"",""0"",""460315""
","
","null","<p></p>","null","","","","","","","","","","","","","","","","","","","","","","","",""
"","do_trial","93","818275","0.0-56.0-0.0","""event"",""trial"",""time""
""fullscreenenter"",""0"",""460315""
","
","
","""event"",""trial"",""time""
""fullscreenenter"",""0"",""460315""
","
","1846.5999999940395","","","","","","","","50","0,0,0","6","blank","267","null","0.5381087192353108","0.1293127254565031","0.3275044745138986","0","","","","","","","","",""
"","html-keyboard-response","94","819280","0.0-56.0-1.0","""event"",""trial"",""time""
""fullscreenenter"",""0"",""460315""
","
","
","""event"",""trial"",""time""
""fullscreenenter"",""0"",""460315""
","
","null","<p></p>","null","","","","","","","","","","","","","","","","","","","","","","","",""
"","do_trial","95","822483","0.0-57.0-0.0","""event"",""trial"",""time""
""fullscreenenter"",""0"",""460315""
","
","
","""event"",""trial"",""time""
""fullscreenenter"",""0"",""460315""
","
","589.3000000119209","","","","","","","","51","1,0,1","6","blank","268","null","0.4657268276968912","0.2238749613539153","0.2262876114014817","1","","","","","","","","",""
"","html-keyboard-response","96","823490","0.0-57.0-1.0","""event"",""trial"",""time""
""fullscreenenter"",""0"",""460315""
","
","
","""event"",""trial"",""time""
""fullscreenenter"",""0"",""460315""
","
","null","<p></p>","null","","","","","","","","","","","","","","","","","","","","","","","",""
"","break","97","894556","0.0-58.0-0.0","""event"",""trial"",""time""
""fullscreenenter"",""0"",""460315""
","
","
","""event"",""trial"",""time""
""fullscreenenter"",""0"",""460315""
","
","71058.69999998808","<div class='center'><p>Time to take a quick break! You have 2 minutes to rest, but you can move on sooner if you'd like.</p><p> Press the <b>space bar</b> to continue.</p></div>","32","","","","","","","","","","","","","","","","","","","","","","","",""
"","do_trial","98","898394","0.0-58.0-1.0","""event"",""trial"",""time""
""fullscreenenter"",""0"",""460315""
","
","
","""event"",""trial"",""time""
""fullscreenenter"",""0"",""460315""
","
","1223.5999999940395","","","","","","","","49","1,0,0","6","blank","269","null","0.4606355950647022","0.05564303003183728","0.439110095339064","1","","","","","","","","",""
"","html-keyboard-response","99","899399","0.0-58.0-2.0","""event"",""trial"",""time""
""fullscreenenter"",""0"",""460315""
","
","
","""event"",""trial"",""time""
""fullscreenenter"",""0"",""460315""
","
","null","<p></p>","null","","","","","","","","","","","","","","","","","","","","","","","",""
"","do_trial","100","902761","0.0-59.0-0.0","""event"",""trial"",""time""
""fullscreenenter"",""0"",""460315""
","
","
","""event"",""trial"",""time""
""fullscreenenter"",""0"",""460315""
","
","750.3000000119209","","","","","","","","50","0,0,0","6","blank","270","null","0.5864254622321947","0.11458948439564857","0.3549413404674761","0","","","","","","","","",""
"","html-keyboard-response","101","903767","0.0-59.0-1.0","""event"",""trial"",""time""
""fullscreenenter"",""0"",""460315""
","
","
","""event"",""trial"",""time""
""fullscreenenter"",""0"",""460315""
","
","null","<p></p>","null","","","","","","","","","","","","","","","","","","","","","","","",""
"","do_recog","102","909789","0.0-60.0-0.0","""event"",""trial"",""time""
""fullscreenenter"",""0"",""460315""
","
","
","""event"",""trial"",""time""
""fullscreenenter"",""0"",""460315""
","
","null","","","","","","","","null","","","","271","probe-59","","","","","1","[object Object]","74","1","0","","","",""
"","html-keyboard-response","103","910796","0.0-60.0-1.0","""event"",""trial"",""time""
""fullscreenenter"",""0"",""460315""
","
","
","""event"",""trial"",""time""
""fullscreenenter"",""0"",""460315""
","
","null","<p></p>","null","","","","","","","","","","","","","","","","","","","","","","","",""
"","do_trial","104","914354","0.0-61.0-0.0","""event"",""trial"",""time""
""fullscreenenter"",""0"",""460315""
","
","
","""event"",""trial"",""time""
""fullscreenenter"",""0"",""460315""
","
","945.6999999880791","","","","","","","","50","1,0,1","6","blank","272","null","0.5775551463459122","0.09203600808811363","0.33618794052539863","0","","","","","","","","",""
"","html-keyboard-response","105","915359","0.0-61.0-1.0","""event"",""trial"",""time""
""fullscreenenter"",""0"",""460315""
","
","
","""event"",""trial"",""time""
""fullscreenenter"",""0"",""460315""
","
","null","<p></p>","null","","","","","","","","","","","","","","","","","","","","","","","",""
"","do_trial","106","919076","0.0-62.0-0.0","""event"",""trial"",""time""
""fullscreenenter"",""0"",""460315""
","
","
","""event"",""trial"",""time""
""fullscreenenter"",""0"",""460315""
","
","1105.4000000059605","","","","","","","","49","1,0,1","6","blank","273","null","0.599271873856938","0.05790139317659847","0.416554658929594","1","","","","","","","","",""
"","html-keyboard-response","107","920080","0.0-62.0-1.0","""event"",""trial"",""time""
""fullscreenenter"",""0"",""460315""
","
","
","""event"",""trial"",""time""
""fullscreenenter"",""0"",""460315""
","
","null","<p></p>","null","","","","","","","","","","","","","","","","","","","","","","","",""
"","do_trial","108","923497","0.0-63.0-0.0","""event"",""trial"",""time""
""fullscreenenter"",""0"",""460315""
","
","
","""event"",""trial"",""time""
""fullscreenenter"",""0"",""460315""
","
","802","","","","","","","","50","1,1,0","6","blank","274","null","0.6336194004750564","0.17296072658492506","0.3146135044046533","1","","","","","","","","",""
"","html-keyboard-response","109","924503","0.0-63.0-1.0","""event"",""trial"",""time""
""fullscreenenter"",""0"",""460315""
","
","
","""event"",""trial"",""time""
""fullscreenenter"",""0"",""460315""
","
","null","<p></p>","null","","","","","","","","","","","","","","","","","","","","","","","",""
"","do_trial","110","927810","0.0-64.0-0.0","""event"",""trial"",""time""
""fullscreenenter"",""0"",""460315""
","
","
","""event"",""trial"",""time""
""fullscreenenter"",""0"",""460315""
","
","694","","","","","","","","49","1,0,0","6","blank","275","null","0.5305537062704688","0.16001969643607322","0.2755527365172841","1","","","","","","","","",""
"","html-keyboard-response","111","928816","0.0-64.0-1.0","""event"",""trial"",""time""
""fullscreenenter"",""0"",""460315""
","
","
","""event"",""trial"",""time""
""fullscreenenter"",""0"",""460315""
","
","null","<p></p>","null","","","","","","","","","","","","","","","","","","","","","","","",""
"","do_trial","112","932107","0.0-65.0-0.0","""event"",""trial"",""time""
""fullscreenenter"",""0"",""460315""
","
","
","""event"",""trial"",""time""
""fullscreenenter"",""0"",""460315""
","
","678.5","","","","","","","","49","0,0,1","6","blank","276","null","0.625172692518806","0.12215168395521525","0.39561786799745224","0","","","","","","","","",""
"","html-keyboard-response","113","933113","0.0-65.0-1.0","""event"",""trial"",""time""
""fullscreenenter"",""0"",""460315""
","
","
","""event"",""trial"",""time""
""fullscreenenter"",""0"",""460315""
","
","null","<p></p>","null","","","","","","","","","","","","","","","","","","","","","","","",""
"","do_trial","114","936297","0.0-66.0-0.0","""event"",""trial"",""time""
""fullscreenenter"",""0"",""460315""
","
","
","""event"",""trial"",""time""
""fullscreenenter"",""0"",""460315""
","
","571.3000000119209","","","","","","","","50","0,0,0","6","blank","277","null","0.4976143797453589","0.1815073721618871","0.276020874392561","0","","","","","","","","",""
"","html-keyboard-response","115","937303","0.0-66.0-1.0","""event"",""trial"",""time""
""fullscreenenter"",""0"",""460315""
","
","
","""event"",""trial"",""time""
""fullscreenenter"",""0"",""460315""
","
","null","<p></p>","null","","","","","","","","","","","","","","","","","","","","","","","",""
"","do_recog","116","940866","0.0-67.0-0.0","""event"",""trial"",""time""
""fullscreenenter"",""0"",""460315""
","
","
","""event"",""trial"",""time""
""fullscreenenter"",""0"",""460315""
","
","2043.7000000178814","","","","","","","","55","","","","278","probe-206","","","","","1","[object Object]","76","1","0","","","",""
"","html-keyboard-response","117","941870","0.0-67.0-1.0","""event"",""trial"",""time""
""fullscreenenter"",""0"",""460315""
","
","
","""event"",""trial"",""time""
""fullscreenenter"",""0"",""460315""
","
","null","<p></p>","null","","","","","","","","","","","","","","","","","","","","","","","",""
"","do_trial","118","945484","0.0-68.0-0.0","""event"",""trial"",""time""
""fullscreenenter"",""0"",""460315""
","
","
","""event"",""trial"",""time""
""fullscreenenter"",""0"",""460315""
","
","998.0999999940395","","","","","","","","49","0,0,0","6","blank","279","null","0.4487750227228773","0.1929372956797652","0.30768478835071866","0","","","","","","","","",""
"","html-keyboard-response","119","946490","0.0-68.0-1.0","""event"",""trial"",""time""
""fullscreenenter"",""0"",""460315""
","
","
","""event"",""trial"",""time""
""fullscreenenter"",""0"",""460315""
","
","null","<p></p>","null","","","","","","","","","","","","","","","","","","","","","","","",""
"","do_recog","120","949725","0.0-69.0-0.0","""event"",""trial"",""time""
""fullscreenenter"",""0"",""460315""
","
","
","""event"",""trial"",""time""
""fullscreenenter"",""0"",""460315""
","
","1714.7000000178814","","","","","","","","53","","","","280","probe-158","","","","","1","[object Object]","119","2","1","","","",""
"","html-keyboard-response","121","950729","0.0-69.0-1.0","""event"",""trial"",""time""
""fullscreenenter"",""0"",""460315""
","
","
","""event"",""trial"",""time""
""fullscreenenter"",""0"",""460315""
","
","null","<p></p>","null","","","","","","","","","","","","","","","","","","","","","","","",""
"","do_trial","122","954426","0.0-70.0-0.0","""event"",""trial"",""time""
""fullscreenenter"",""0"",""460315""
","
","
","""event"",""trial"",""time""
""fullscreenenter"",""0"",""460315""
","
","1075.9000000059605","","","","","","","","49","1,0,0","6","blank","281","null","0.48638202364813","0.12221346723460753","0.2332801387682034","1","","","","","","","","",""
"","html-keyboard-response","123","955431","0.0-70.0-1.0","""event"",""trial"",""time""
""fullscreenenter"",""0"",""460315""
","
","
","""event"",""trial"",""time""
""fullscreenenter"",""0"",""460315""
","
","null","<p></p>","null","","","","","","","","","","","","","","","","","","","","","","","",""
"","do_trial","124","958885","0.0-71.0-0.0","""event"",""trial"",""time""
""fullscreenenter"",""0"",""460315""
","
","
","""event"",""trial"",""time""
""fullscreenenter"",""0"",""460315""
","
","829.6000000238419","","","","","","","","50","1,0,1","6","blank","282","null","0.5751314843570959","0.05298797439234806","0.2820814743162616","0","","","","","","","","",""
"","html-keyboard-response","125","959892","0.0-71.0-1.0","""event"",""trial"",""time""
""fullscreenenter"",""0"",""460315""
","
","
","""event"",""trial"",""time""
""fullscreenenter"",""0"",""460315""
","
","null","<p></p>","null","","","","","","","","","","","","","","","","","","","","","","","",""
"","do_trial","126","963018","0.0-72.0-0.0","""event"",""trial"",""time""
""fullscreenenter"",""0"",""460315""
","
","
","""event"",""trial"",""time""
""fullscreenenter"",""0"",""460315""
","
","512.2999999821186","","","","","","","","49","1,1,0","6","blank","283","null","0.641729713771625","0.17549507931856564","0.17709784900239178","1","","","","","","","","",""
"","html-keyboard-response","127","964023","0.0-72.0-1.0","""event"",""trial"",""time""
""fullscreenenter"",""0"",""460315""
","
","
","""event"",""trial"",""time""
""fullscreenenter"",""0"",""460315""
","
","null","<p></p>","null","","","","","","","","","","","","","","","","","","","","","","","",""
"","do_trial","128","967063","0.0-73.0-0.0","""event"",""trial"",""time""
""fullscreenenter"",""0"",""460315""
","
","
","""event"",""trial"",""time""
""fullscreenenter"",""0"",""460315""
","
","426.09999999403954","","","","","","","","49","0,0,1","6","blank","284","null","0.8065080152946261","0.17373546638989226","0.2915348265175419","0","","","","","","","","",""
"","html-keyboard-response","129","968070","0.0-73.0-1.0","""event"",""trial"",""time""
""fullscreenenter"",""0"",""460315""
","
","
","""event"",""trial"",""time""
""fullscreenenter"",""0"",""460315""
","
","null","<p></p>","null","","","","","","","","","","","","","","","","","","","","","","","",""
"","do_trial","130","971643","0.0-74.0-0.0","""event"",""trial"",""time""
""fullscreenenter"",""0"",""460315""
","
","
","""event"",""trial"",""time""
""fullscreenenter"",""0"",""460315""
","
","960.2999999821186","","","","","","","","50","1,0,0","6","blank","285","null","0.8204377068462857","0.10190093359753633","0.19558480105042997","0","","","","","","","","",""
"","html-keyboard-response","131","972646","0.0-74.0-1.0","""event"",""trial"",""time""
""fullscreenenter"",""0"",""460315""
","
","
","""event"",""trial"",""time""
""fullscreenenter"",""0"",""460315""
","
","null","<p></p>","null","","","","","","","","","","","","","","","","","","","","","","","",""
"","do_recog","132","976971","0.0-75.0-0.0","""event"",""trial"",""time""
""fullscreenenter"",""0"",""460315""
","
","
","""event"",""trial"",""time""
""fullscreenenter"",""0"",""460315""
","
","2803.800000011921","","","","","","","","54","","","","286","probe-225","","","","","1","[object Object]","31","0","1","","","",""
"","html-keyboard-response","133","977976","0.0-75.0-1.0","""event"",""trial"",""time""
""fullscreenenter"",""0"",""460315""
","
","
","""event"",""trial"",""time""
""fullscreenenter"",""0"",""460315""
","
","null","<p></p>","null","","","","","","","","","","","","","","","","","","","","","","","",""
"","do_trial","134","981841","0.0-76.0-0.0","""event"",""trial"",""time""
""fullscreenenter"",""0"",""460315""
","
","
","""event"",""trial"",""time""
""fullscreenenter"",""0"",""460315""
","
","1251.2999999821186","","","","","","","","49","0,0,0","6","blank","287","null","0.7276866346499827","0.05056983078728448","0.28684886109677254","0","","","","","","","","",""
"","html-keyboard-response","135","982848","0.0-76.0-1.0","""event"",""trial"",""time""
""fullscreenenter"",""0"",""460315""
","
","
","""event"",""trial"",""time""
""fullscreenenter"",""0"",""460315""
","
","null","<p></p>","null","","","","","","","","","","","","","","","","","","","","","","","",""
"","do_trial","136","986427","0.0-77.0-0.0","""event"",""trial"",""time""
""fullscreenenter"",""0"",""460315""
","
","
","""event"",""trial"",""time""
""fullscreenenter"",""0"",""460315""
","
","958.5","","","","","","","","50","1,1,0","6","blank","288","null","0.5754779439635102","0.11482908693376583","0.322340746065984","1","","","","","","","","",""
"","html-keyboard-response","137","987433","0.0-77.0-1.0","""event"",""trial"",""time""
""fullscreenenter"",""0"",""460315""
","
","
","""event"",""trial"",""time""
""fullscreenenter"",""0"",""460315""
","
","null","<p></p>","null","","","","","","","","","","","","","","","","","","","","","","","",""
"","do_trial","138","991487","0.0-78.0-0.0","""event"",""trial"",""time""
""fullscreenenter"",""0"",""460315""
","
","
","""event"",""trial"",""time""
""fullscreenenter"",""0"",""460315""
","
","1441.2000000178814","","","","","","","","50","1,0,1","6","blank","289","null","0.5811783891527076","0.1146157453128176","0.4587350898139833","0","","","","","","","","",""
"","html-keyboard-response","139","992493","0.0-78.0-1.0","""event"",""trial"",""time""
""fullscreenenter"",""0"",""460315""
","
","
","""event"",""trial"",""time""
""fullscreenenter"",""0"",""460315""
","
","null","<p></p>","null","","","","","","","","","","","","","","","","","","","","","","","",""
"","do_recog","140","996281","0.0-79.0-0.0","""event"",""trial"",""time""
""fullscreenenter"",""0"",""460315""
","
","
","""event"",""trial"",""time""
""fullscreenenter"",""0"",""460315""
","
","2267.9000000059605","","","","","","","","56","","","","290","probe-07","","","","","1","[object Object]","118","2","0","","","",""
"","html-keyboard-response","141","997287","0.0-79.0-1.0","""event"",""trial"",""time""
""fullscreenenter"",""0"",""460315""
","
","
","""event"",""trial"",""time""
""fullscreenenter"",""0"",""460315""
","
","null","<p></p>","null","","","","","","","","","","","","","","","","","","","","","","","",""
"","do_trial","142","1000915","0.0-80.0-0.0","""event"",""trial"",""time""
""fullscreenenter"",""0"",""460315""
","
","
","""event"",""trial"",""time""
""fullscreenenter"",""0"",""460315""
","
","1014.3000000119209","","","","","","","","50","0,0,0","6","blank","291","null","0.5810341219698203","0.06443567883139242","0.345369033978634","0","","","","","","","","",""
"","html-keyboard-response","143","1001922","0.0-80.0-1.0","""event"",""trial"",""time""
""fullscreenenter"",""0"",""460315""
","
","
","""event"",""trial"",""time""
""fullscreenenter"",""0"",""460315""
","
","null","<p></p>","null","","","","","","","","","","","","","","","","","","","","","","","",""
"","do_trial","144","1005513","0.0-81.0-0.0","""event"",""trial"",""time""
""fullscreenenter"",""0"",""460315""
","
","
","""event"",""trial"",""time""
""fullscreenenter"",""0"",""460315""
","
","979.0999999940395","","","","","","","","49","0,0,0","6","blank","292","null","0.5547074771154109","0.18856568617181726","0.2629811497901666","0","","","","","","","","",""
"","html-keyboard-response","145","1006520","0.0-81.0-1.0","""event"",""trial"",""time""
""fullscreenenter"",""0"",""460315""
","
","
","""event"",""trial"",""time""
""fullscreenenter"",""0"",""460315""
","
","null","<p></p>","null","","","","","","","","","","","","","","","","","","","","","","","",""
"","do_trial","146","1010307","0.0-82.0-0.0","""event"",""trial"",""time""
""fullscreenenter"",""0"",""460315""
","
","
","""event"",""trial"",""time""
""fullscreenenter"",""0"",""460315""
","
","1174.5999999940395","","","","","","","","51","0,0,0","6","blank","293","null","0.6279156078968917","0.1299415508452611","0.2079908634707248","0","","","","","","","","",""
"","html-keyboard-response","147","1011313","0.0-82.0-1.0","""event"",""trial"",""time""
""fullscreenenter"",""0"",""460315""
","
","
","""event"",""trial"",""time""
""fullscreenenter"",""0"",""460315""
","
","null","<p></p>","null","","","","","","","","","","","","","","","","","","","","","","","",""
"","do_trial","148","1014476","0.0-83.0-0.0","""event"",""trial"",""time""
""fullscreenenter"",""0"",""460315""
","
","
","""event"",""trial"",""time""
""fullscreenenter"",""0"",""460315""
","
","549.3000000119209","","","","","","","","50","0,0,1","6","blank","294","null","0.4993736632237893","0.059048702002773866","0.4049554195142928","0","","","","","","","","",""
"","html-keyboard-response","149","1015486","0.0-83.0-1.0","""event"",""trial"",""time""
""fullscreenenter"",""0"",""460315""
","
","
","""event"",""trial"",""time""
""fullscreenenter"",""0"",""460315""
","
","null","<p></p>","null","","","","","","","","","","","","","","","","","","","","","","","",""
"","do_trial","150","1018763","0.0-84.0-0.0","""event"",""trial"",""time""
""fullscreenenter"",""0"",""460315""
","
","
","""event"",""trial"",""time""
""fullscreenenter"",""0"",""460315""
","
","648.5","","","","","","","","49","0,0,1","6","blank","295","null","0.48007558455619814","0.08823876290382104","0.4379555039689072","0","","","","","","","","",""
"","html-keyboard-response","151","1019769","0.0-84.0-1.0","""event"",""trial"",""time""
""fullscreenenter"",""0"",""460315""
","
","
","""event"",""trial"",""time""
""fullscreenenter"",""0"",""460315""
","
","null","<p></p>","null","","","","","","","","","","","","","","","","","","","","","","","",""
"","do_recog","152","1023656","0.0-85.0-0.0","""event"",""trial"",""time""
""fullscreenenter"",""0"",""460315""
","
","
","""event"",""trial"",""time""
""fullscreenenter"",""0"",""460315""
","
","2368.5999999940395","","","","","","","","54","","","","296","probe-209","","","","","1","[object Object]","152","3","1","","","",""
"","html-keyboard-response","153","1024662","0.0-85.0-1.0","""event"",""trial"",""time""
""fullscreenenter"",""0"",""460315""
","
","
","""event"",""trial"",""time""
""fullscreenenter"",""0"",""460315""
","
","null","<p></p>","null","","","","","","","","","","","","","","","","","","","","","","","",""
"","do_trial","154","1028057","0.0-86.0-0.0","""event"",""trial"",""time""
""fullscreenenter"",""0"",""460315""
","
","
","""event"",""trial"",""time""
""fullscreenenter"",""0"",""460315""
","
","779.7999999821186","","","","","","","","50","1,0,0","6","blank","297","null","0.40520776637294637","0.07558282585487269","0.4928926375320044","0","","","","","","","","",""
"","html-keyboard-response","155","1029062","0.0-86.0-1.0","""event"",""trial"",""time""
""fullscreenenter"",""0"",""460315""
","
","
","""event"",""trial"",""time""
""fullscreenenter"",""0"",""460315""
","
","null","<p></p>","null","","","","","","","","","","","","","","","","","","","","","","","",""
"","do_trial","156","1032445","0.0-87.0-0.0","""event"",""trial"",""time""
""fullscreenenter"",""0"",""460315""
","
","
","""event"",""trial"",""time""
""fullscreenenter"",""0"",""460315""
","
","772.9000000059605","","","","","","","","50","0,0,0","6","blank","298","null","0.43455729858688585","0.12277085811289222","0.6435674839464792","0","","","","","","","","",""
"","html-keyboard-response","157","1033451","0.0-87.0-1.0","""event"",""trial"",""time""
""fullscreenenter"",""0"",""460315""
","
","
","""event"",""trial"",""time""
""fullscreenenter"",""0"",""460315""
","
","null","<p></p>","null","","","","","","","","","","","","","","","","","","","","","","","",""
"","do_trial","158","1036740","0.0-88.0-0.0","""event"",""trial"",""time""
""fullscreenenter"",""0"",""460315""
","
","
","""event"",""trial"",""time""
""fullscreenenter"",""0"",""460315""
","
","668.5999999940395","","","","","","","","49","1,0,1","6","blank","299","null","0.46005126771653937","0.08487076710581751","0.6456679083670416","1","","","","","","","","",""
"","html-keyboard-response","159","1037746","0.0-88.0-1.0","""event"",""trial"",""time""
""fullscreenenter"",""0"",""460315""
","
","
","""event"",""trial"",""time""
""fullscreenenter"",""0"",""460315""
","
","null","<p></p>","null","","","","","","","","","","","","","","","","","","","","","","","",""
"","do_trial","160","1041542","0.0-89.0-0.0","""event"",""trial"",""time""
""fullscreenenter"",""0"",""460315""
","
","
","""event"",""trial"",""time""
""fullscreenenter"",""0"",""460315""
","
","1182.5999999940395","","","","","","","","49","0,0,0","6","blank","300","null","0.3044545869665045","0.055879878620608996","0.5504158622644083","0","","","","","","","","",""
"","html-keyboard-response","161","1042548","0.0-89.0-1.0","""event"",""trial"",""time""
""fullscreenenter"",""0"",""460315""
","
","
","""event"",""trial"",""time""
""fullscreenenter"",""0"",""460315""
","
","null","<p></p>","null","","","","","","","","","","","","","","","","","","","","","","","",""
"","do_trial","162","1045842","0.0-90.0-0.0","""event"",""trial"",""time""
""fullscreenenter"",""0"",""460315""
","
","
","""event"",""trial"",""time""
""fullscreenenter"",""0"",""460315""
","
","678.6999999880791","","","","","","","","50","0,0,1","6","blank","301","null","0.33200095104278066","0.21108068779597816","0.5516880760710674","0","","","","","","","","",""
"","html-keyboard-response","163","1046847","0.0-90.0-1.0","""event"",""trial"",""time""
""fullscreenenter"",""0"",""460315""
","
","
","""event"",""trial"",""time""
""fullscreenenter"",""0"",""460315""
","
","null","<p></p>","null","","","","","","","","","","","","","","","","","","","","","","","",""
"","do_trial","164","1050476","0.0-91.0-0.0","""event"",""trial"",""time""
""fullscreenenter"",""0"",""460315""
","
","
","""event"",""trial"",""time""
""fullscreenenter"",""0"",""460315""
","
","1013.9000000059605","","","","","","","","49","1,0,1","6","blank","302","null","0.24428555993902465","0.11690197124254531","0.5308272197063912","1","","","","","","","","",""
"","html-keyboard-response","165","1051482","0.0-91.0-1.0","""event"",""trial"",""time""
""fullscreenenter"",""0"",""460315""
","
","
","""event"",""trial"",""time""
""fullscreenenter"",""0"",""460315""
","
","null","<p></p>","null","","","","","","","","","","","","","","","","","","","","","","","",""
"","do_trial","166","1055093","0.0-92.0-0.0","""event"",""trial"",""time""
""fullscreenenter"",""0"",""460315""
","
","
","""event"",""trial"",""time""
""fullscreenenter"",""0"",""460315""
","
","986.7999999821186","","","","","","","","49","0,1,1","6","blank","303","null","0.3030301485474562","0.11281260121433186","0.5752630958850586","0","","","","","","","","",""
"","html-keyboard-response","167","1056100","0.0-92.0-1.0","""event"",""trial"",""time""
""fullscreenenter"",""0"",""460315""
","
","
","""event"",""trial"",""time""
""fullscreenenter"",""0"",""460315""
","
","null","<p></p>","null","","","","","","","","","","","","","","","","","","","","","","","",""
"","do_recog","168","1059747","0.0-93.0-0.0","""event"",""trial"",""time""
""fullscreenenter"",""0"",""460315""
","
","
","""event"",""trial"",""time""
""fullscreenenter"",""0"",""460315""
","
","2127.9000000059605","","","","","","","","54","","","","304","probe-226","","","","","1","[object Object]","78","1","1","","","",""
"","html-keyboard-response","169","1060753","0.0-93.0-1.0","""event"",""trial"",""time""
""fullscreenenter"",""0"",""460315""
","
","
","""event"",""trial"",""time""
""fullscreenenter"",""0"",""460315""
","
","null","<p></p>","null","","","","","","","","","","","","","","","","","","","","","","","",""
"","do_trial","170","1066879","0.0-94.0-0.0","""event"",""trial"",""time""
""fullscreenenter"",""0"",""460315""
","
","
","""event"",""trial"",""time""
""fullscreenenter"",""0"",""460315""
","
","null","","","","","","","","null","1,0,1","6","blank","305","null","0.33119370328665637","0.1377960846114707","0.5626375352270925","","","","","","","","","",""
"","html-keyboard-response","171","1067886","0.0-94.0-1.0","""event"",""trial"",""time""
""fullscreenenter"",""0"",""460315""
","
","
","""event"",""trial"",""time""
""fullscreenenter"",""0"",""460315""
","
","null","<p></p>","null","","","","","","","","","","","","","","","","","","","","","","","",""
"","do_recog","172","1071594","0.0-95.0-0.0","""event"",""trial"",""time""
""fullscreenenter"",""0"",""460315""
","
","
","""event"",""trial"",""time""
""fullscreenenter"",""0"",""460315""
","
","2188.4000000059605","","","","","","","","54","","","","306","probe-251","","","","","0","[object Object]","null","null","0","","","",""
"","html-keyboard-response","173","1072601","0.0-95.0-1.0","""event"",""trial"",""time""
""fullscreenenter"",""0"",""460315""
","
","
","""event"",""trial"",""time""
""fullscreenenter"",""0"",""460315""
","
","null","<p></p>","null","","","","","","","","","","","","","","","","","","","","","","","",""
"","do_trial","174","1076406","0.0-96.0-0.0","""event"",""trial"",""time""
""fullscreenenter"",""0"",""460315""
","
","
","""event"",""trial"",""time""
""fullscreenenter"",""0"",""460315""
","
","1191.300000011921","","","","","","","","50","0,0,1","6","blank","307","null","0.29546950631968916","0.13275045923746742","0.5903894221944387","0","","","","","","","","",""
"","html-keyboard-response","175","1077412","0.0-96.0-1.0","""event"",""trial"",""time""
""fullscreenenter"",""0"",""460315""
","
","
","""event"",""trial"",""time""
""fullscreenenter"",""0"",""460315""
","
","null","<p></p>","null","","","","","","","","","","","","","","","","","","","","","","","",""
"","do_trial","176","1081023","0.0-97.0-0.0","""event"",""trial"",""time""
""fullscreenenter"",""0"",""460315""
","
","
","""event"",""trial"",""time""
""fullscreenenter"",""0"",""460315""
","
","994.0999999940395","","","","","","","","50","1,0,0","6","blank","308","null","0.24356434579996408","0.2004168319673284","0.6402222125458833","0","","","","","","","","",""
"","html-keyboard-response","177","1082030","0.0-97.0-1.0","""event"",""trial"",""time""
""fullscreenenter"",""0"",""460315""
","
","
","""event"",""trial"",""time""
""fullscreenenter"",""0"",""460315""
","
","null","<p></p>","null","","","","","","","","","","","","","","","","","","","","","","","",""
"","break","178","1202037","0.0-98.0-0.0","""event"",""trial"",""time""
""fullscreenenter"",""0"",""460315""
","
","
","""event"",""trial"",""time""
""fullscreenenter"",""0"",""460315""
","
","null","<div class='center'><p>Time to take a quick break! You have 2 minutes to rest, but you can move on sooner if you'd like.</p><p> Press the <b>space bar</b> to continue.</p></div>","null","","","","","","","","","","","","","","","","","","","","","","","",""
"","do_trial","179","1206293","0.0-98.0-1.0","""event"",""trial"",""time""
""fullscreenenter"",""0"",""460315""
","
","
","""event"",""trial"",""time""
""fullscreenenter"",""0"",""460315""
","
","1644.2999999821186","","","","","","","","50","0,1,1","6","blank","309","null","0.28861467581230715","0.16814448879651353","0.706109119888154","1","","","","","","","","",""
"","html-keyboard-response","180","1207299","0.0-98.0-2.0","""event"",""trial"",""time""
""fullscreenenter"",""0"",""460315""
","
","
","""event"",""trial"",""time""
""fullscreenenter"",""0"",""460315""
","
","null","<p></p>","null","","","","","","","","","","","","","","","","","","","","","","","",""
"","do_recog","181","1211118","0.0-99.0-0.0","""event"",""trial"",""time""
""fullscreenenter"",""0"",""460315""
","
","
","""event"",""trial"",""time""
""fullscreenenter"",""0"",""460315""
","
","2301.300000011921","","","","","","","","54","","","","310","probe-25","","","","","1","[object Object]","75","1","1","","","",""
"","html-keyboard-response","182","1212123","0.0-99.0-1.0","""event"",""trial"",""time""
""fullscreenenter"",""0"",""460315""
","
","
","""event"",""trial"",""time""
""fullscreenenter"",""0"",""460315""
","
","null","<p></p>","null","","","","","","","","","","","","","","","","","","","","","","","",""
"","do_trial","183","1216149","0.0-100.0-0.0","""event"",""trial"",""time""
""fullscreenenter"",""0"",""460315""
","
","
","""event"",""trial"",""time""
""fullscreenenter"",""0"",""460315""
","
","1411.5","","","","","","","","50","0,0,1","6","blank","311","null","0.24200010103960065","0.17429277445342498","0.6943663764013709","0","","","","","","","","",""
"","html-keyboard-response","184","1217155","0.0-100.0-1.0","""event"",""trial"",""time""
""fullscreenenter"",""0"",""460315""
","
","
","""event"",""trial"",""time""
""fullscreenenter"",""0"",""460315""
","
","null","<p></p>","null","","","","","","","","","","","","","","","","","","","","","","","",""
"","do_recog","185","1220362","0.0-101.0-0.0","""event"",""trial"",""time""
""fullscreenenter"",""0"",""460315""
","
","
","""event"",""trial"",""time""
""fullscreenenter"",""0"",""460315""
","
","1687.199999988079","","","","","","","","55","","","","312","probe-135","","","","","1","[object Object]","192","4","0","","","",""
"","html-keyboard-response","186","1221369","0.0-101.0-1.0","""event"",""trial"",""time""
""fullscreenenter"",""0"",""460315""
","
","
","""event"",""trial"",""time""
""fullscreenenter"",""0"",""460315""
","
","null","<p></p>","null","","","","","","","","","","","","","","","","","","","","","","","",""
"","do_trial","187","1225078","0.0-102.0-0.0","""event"",""trial"",""time""
""fullscreenenter"",""0"",""460315""
","
","
","""event"",""trial"",""time""
""fullscreenenter"",""0"",""460315""
","
","1096","","","","","","","","50","1,0,0","6","blank","313","null","0.14390080866053928","0.22495833850334757","0.6386034787325503","0","","","","","","","","",""
"","html-keyboard-response","188","1226085","0.0-102.0-1.0","""event"",""trial"",""time""
""fullscreenenter"",""0"",""460315""
","
","
","""event"",""trial"",""time""
""fullscreenenter"",""0"",""460315""
","
","null","<p></p>","null","","","","","","","","","","","","","","","","","","","","","","","",""
"","do_trial","189","1229476","0.0-103.0-0.0","""event"",""trial"",""time""
""fullscreenenter"",""0"",""460315""
","
","
","""event"",""trial"",""time""
""fullscreenenter"",""0"",""460315""
","
","780.2000000178814","","","","","","","","49","1,0,1","6","blank","314","null","0.2652086783269535","0.17885988112329929","0.5364616498020216","1","","","","","","","","",""
"","html-keyboard-response","190","1230482","0.0-103.0-1.0","""event"",""trial"",""time""
""fullscreenenter"",""0"",""460315""
","
","
","""event"",""trial"",""time""
""fullscreenenter"",""0"",""460315""
","
","null","<p></p>","null","","","","","","","","","","","","","","","","","","","","","","","",""
"","do_trial","191","1234148","0.0-104.0-0.0","""event"",""trial"",""time""
""fullscreenenter"",""0"",""460315""
","
","
","""event"",""trial"",""time""
""fullscreenenter"",""0"",""460315""
","
","1054","","","","","","","","49","0,0,1","6","blank","315","null","0.1387694473882079","0.1332364911255239","0.6087086002631114","0","","","","","","","","",""
"","html-keyboard-response","192","1235155","0.0-104.0-1.0","""event"",""trial"",""time""
""fullscreenenter"",""0"",""460315""
","
","
","""event"",""trial"",""time""
""fullscreenenter"",""0"",""460315""
","
","null","<p></p>","null","","","","","","","","","","","","","","","","","","","","","","","",""
"","do_recog","193","1238284","0.0-105.0-0.0","""event"",""trial"",""time""
""fullscreenenter"",""0"",""460315""
","
","
","""event"",""trial"",""time""
""fullscreenenter"",""0"",""460315""
","
","1607.300000011921","","","","","","","","53","","","","316","probe-22","","","","","1","[object Object]","158","3","1","","","",""
"","html-keyboard-response","194","1239291","0.0-105.0-1.0","""event"",""trial"",""time""
""fullscreenenter"",""0"",""460315""
","
","
","""event"",""trial"",""time""
""fullscreenenter"",""0"",""460315""
","
","null","<p></p>","null","","","","","","","","","","","","","","","","","","","","","","","",""
"","do_trial","195","1242906","0.0-106.0-0.0","""event"",""trial"",""time""
""fullscreenenter"",""0"",""460315""
","
","
","""event"",""trial"",""time""
""fullscreenenter"",""0"",""460315""
","
","1001.5999999940395","","","","","","","","50","0,0,0","6","blank","317","null","0.32579933226314495","0.19042540178375833","0.5920022222991765","0","","","","","","","","",""
"","html-keyboard-response","196","1243910","0.0-106.0-1.0","""event"",""trial"",""time""
""fullscreenenter"",""0"",""460315""
","
","
","""event"",""trial"",""time""
""fullscreenenter"",""0"",""460315""
","
","null","<p></p>","null","","","","","","","","","","","","","","","","","","","","","","","",""
"","do_trial","197","1247376","0.0-107.0-0.0","""event"",""trial"",""time""
""fullscreenenter"",""0"",""460315""
","
","
","""event"",""trial"",""time""
""fullscreenenter"",""0"",""460315""
","
","853.0999999940395","","","","","","","","49","0,0,0","6","blank","318","null","0.3224243257749655","0.14763450287835486","0.4482295493772155","0","","","","","","","","",""
"","html-keyboard-response","198","1248382","0.0-107.0-1.0","""event"",""trial"",""time""
""fullscreenenter"",""0"",""460315""
","
","
","""event"",""trial"",""time""
""fullscreenenter"",""0"",""460315""
","
","null","<p></p>","null","","","","","","","","","","","","","","","","","","","","","","","",""
"","do_recog","199","1251839","0.0-108.0-0.0","""event"",""trial"",""time""
""fullscreenenter"",""0"",""460315""
","
","
","""event"",""trial"",""time""
""fullscreenenter"",""0"",""460315""
","
","1936","","","","","","","","54","","","","319","probe-174","","","","","1","[object Object]","195","4","1","","","",""
"","html-keyboard-response","200","1252845","0.0-108.0-1.0","""event"",""trial"",""time""
""fullscreenenter"",""0"",""460315""
","
","
","""event"",""trial"",""time""
""fullscreenenter"",""0"",""460315""
","
","null","<p></p>","null","","","","","","","","","","","","","","","","","","","","","","","",""
"","do_trial","201","1256497","0.0-109.0-0.0","""event"",""trial"",""time""
""fullscreenenter"",""0"",""460315""
","
","
","""event"",""trial"",""time""
""fullscreenenter"",""0"",""460315""
","
","1039.4000000059605","","","","","","","","49","0,0,0","6","blank","320","null","0.34673755769580367","0.1996521087361826","0.5960835141152396","0","","","","","","","","",""
"","html-keyboard-response","202","1257503","0.0-109.0-1.0","""event"",""trial"",""time""
""fullscreenenter"",""0"",""460315""
","
","
","""event"",""trial"",""time""
""fullscreenenter"",""0"",""460315""
","
","null","<p></p>","null","","","","","","","","","","","","","","","","","","","","","","","",""
"","do_trial","203","1261519","0.0-110.0-0.0","""event"",""trial"",""time""
""fullscreenenter"",""0"",""460315""
","
","
","""event"",""trial"",""time""
""fullscreenenter"",""0"",""460315""
","
","1402.0999999940395","","","","","","","","49","0,0,0","6","blank","321","null","0.2838886669237876","0.14865986670877848","0.476679376204484","0","","","","","","","","",""
"","html-keyboard-response","204","1262526","0.0-110.0-1.0","""event"",""trial"",""time""
""fullscreenenter"",""0"",""460315""
","
","
","""event"",""trial"",""time""
""fullscreenenter"",""0"",""460315""
","
","null","<p></p>","null","","","","","","","","","","","","","","","","","","","","","","","",""
"","do_recog","205","1265521","0.0-111.0-0.0","""event"",""trial"",""time""
""fullscreenenter"",""0"",""460315""
","
","
","""event"",""trial"",""time""
""fullscreenenter"",""0"",""460315""
","
","1475.5999999940395","","","","","","","","54","","","","322","probe-245","","","","","0","[object Object]","null","null","0","","","",""
"","html-keyboard-response","206","1266528","0.0-111.0-1.0","""event"",""trial"",""time""
""fullscreenenter"",""0"",""460315""
","
","
","""event"",""trial"",""time""
""fullscreenenter"",""0"",""460315""
","
","null","<p></p>","null","","","","","","","","","","","","","","","","","","","","","","","",""
"","do_trial","207","1269916","0.0-112.0-0.0","""event"",""trial"",""time""
""fullscreenenter"",""0"",""460315""
","
","
","""event"",""trial"",""time""
""fullscreenenter"",""0"",""460315""
","
","765.8000000119209","","","","","","","","49","1,0,1","6","blank","323","null","0.2148769318898029","0.0994564510902949","0.5146644663279626","1","","","","","","","","",""
"","html-keyboard-response","208","1270923","0.0-112.0-1.0","""event"",""trial"",""time""
""fullscreenenter"",""0"",""460315""
","
","
","""event"",""trial"",""time""
""fullscreenenter"",""0"",""460315""
","
","null","<p></p>","null","","","","","","","","","","","","","","","","","","","","","","","",""
"","do_recog","209","1273857","0.0-113.0-0.0","""event"",""trial"",""time""
""fullscreenenter"",""0"",""460315""
","
","
","""event"",""trial"",""time""
""fullscreenenter"",""0"",""460315""
","
","1413.699999988079","","","","","","","","53","","","","324","probe-137","","","","","1","[object Object]","199","4","1","","","",""
"","html-keyboard-response","210","1274863","0.0-113.0-1.0","""event"",""trial"",""time""
""fullscreenenter"",""0"",""460315""
","
","
","""event"",""trial"",""time""
""fullscreenenter"",""0"",""460315""
","
","null","<p></p>","null","","","","","","","","","","","","","","","","","","","","","","","",""
"","do_trial","211","1279273","0.0-114.0-0.0","""event"",""trial"",""time""
""fullscreenenter"",""0"",""460315""
","
","
","""event"",""trial"",""time""
""fullscreenenter"",""0"",""460315""
","
","1786.4000000059605","","","","","","","","49","0,0,1","6","blank","325","null","0.18558681998640367","0.08061308018361574","0.5828620412409624","0","","","","","","","","",""
"","html-keyboard-response","212","1280279","0.0-114.0-1.0","""event"",""trial"",""time""
""fullscreenenter"",""0"",""460315""
","
","
","""event"",""trial"",""time""
""fullscreenenter"",""0"",""460315""
","
","null","<p></p>","null","","","","","","","","","","","","","","","","","","","","","","","",""
"","do_recog","213","1284098","0.0-115.0-0.0","""event"",""trial"",""time""
""fullscreenenter"",""0"",""460315""
","
","
","""event"",""trial"",""time""
""fullscreenenter"",""0"",""460315""
","
","2298.699999988079","","","","","","","","53","","","","326","probe-19","","","","","1","[object Object]","159","3","1","","","",""
"","html-keyboard-response","214","1285105","0.0-115.0-1.0","""event"",""trial"",""time""
""fullscreenenter"",""0"",""460315""
","
","
","""event"",""trial"",""time""
""fullscreenenter"",""0"",""460315""
","
","null","<p></p>","null","","","","","","","","","","","","","","","","","","","","","","","",""
"","do_trial","215","1288795","0.0-116.0-0.0","""event"",""trial"",""time""
""fullscreenenter"",""0"",""460315""
","
","
","""event"",""trial"",""time""
""fullscreenenter"",""0"",""460315""
","
","1076.0999999940395","","","","","","","","50","1,0,0","6","blank","327","null","0.4045343004236087","0.06360343646785914","0.5515601594610596","0","","","","","","","","",""
"","html-keyboard-response","216","1289801","0.0-116.0-1.0","""event"",""trial"",""time""
""fullscreenenter"",""0"",""460315""
","
","
","""event"",""trial"",""time""
""fullscreenenter"",""0"",""460315""
","
","null","<p></p>","null","","","","","","","","","","","","","","","","","","","","","","","",""
"","do_trial","217","1292736","0.0-117.0-0.0","""event"",""trial"",""time""
""fullscreenenter"",""0"",""460315""
","
","
","""event"",""trial"",""time""
""fullscreenenter"",""0"",""460315""
","
","322.5","","","","","","","","51","0,0,1","6","blank","328","null","0.3213243178250646","0.060119695380995104","0.5711452879455742","1","","","","","","","","",""
"","html-keyboard-response","218","1293742","0.0-117.0-1.0","""event"",""trial"",""time""
""fullscreenenter"",""0"",""460315""
","
","
","""event"",""trial"",""time""
""fullscreenenter"",""0"",""460315""
","
","null","<p></p>","null","","","","","","","","","","","","","","","","","","","","","","","",""
"","do_trial","219","1297300","0.0-118.0-0.0","""event"",""trial"",""time""
""fullscreenenter"",""0"",""460315""
","
","
","""event"",""trial"",""time""
""fullscreenenter"",""0"",""460315""
","
","935.3000000119209","","","","","","","","49","0,0,0","6","blank","329","null","0.2935119513011226","0.06802680730019045","0.5893711276570601","0","","","","","","","","",""
"","html-keyboard-response","220","1298304","0.0-118.0-1.0","""event"",""trial"",""time""
""fullscreenenter"",""0"",""460315""
","
","
","""event"",""trial"",""time""
""fullscreenenter"",""0"",""460315""
","
","null","<p></p>","null","","","","","","","","","","","","","","","","","","","","","","","",""
"","do_trial","221","1301772","0.0-119.0-0.0","""event"",""trial"",""time""
""fullscreenenter"",""0"",""460315""
","
","
","""event"",""trial"",""time""
""fullscreenenter"",""0"",""460315""
","
","841.5","","","","","","","","50","1,0,1","6","blank","330","null","0.3549197556995115","0.06353720352558787","0.6813342681009283","0","","","","","","","","",""
"","html-keyboard-response","222","1302778","0.0-119.0-1.0","""event"",""trial"",""time""
""fullscreenenter"",""0"",""460315""
","
","
","""event"",""trial"",""time""
""fullscreenenter"",""0"",""460315""
","
","null","<p></p>","null","","","","","","","","","","","","","","","","","","","","","","","",""
"","do_trial","223","1305996","0.0-120.0-0.0","""event"",""trial"",""time""
""fullscreenenter"",""0"",""460315""
","
","
","""event"",""trial"",""time""
""fullscreenenter"",""0"",""460315""
","
","605.1000000238419","","","","","","","","49","0,1,1","6","blank","331","null","0.2634705769799304","0.10942403133306858","0.7563213357575843","0","","","","","","","","",""
"","html-keyboard-response","224","1307002","0.0-120.0-1.0","""event"",""trial"",""time""
""fullscreenenter"",""0"",""460315""
","
","
","""event"",""trial"",""time""
""fullscreenenter"",""0"",""460315""
","
","null","<p></p>","null","","","","","","","","","","","","","","","","","","","","","","","",""
"","do_recog","225","1310662","0.0-121.0-0.0","""event"",""trial"",""time""
""fullscreenenter"",""0"",""460315""
","
","
","""event"",""trial"",""time""
""fullscreenenter"",""0"",""460315""
","
","2140.0999999940395","","","","","","","","56","","","","332","probe-90","","","","","1","[object Object]","194","4","0","","","",""
"","html-keyboard-response","226","1311669","0.0-121.0-1.0","""event"",""trial"",""time""
""fullscreenenter"",""0"",""460315""
","
","
","""event"",""trial"",""time""
""fullscreenenter"",""0"",""460315""
","
","null","<p></p>","null","","","","","","","","","","","","","","","","","","","","","","","",""
"","do_trial","227","1315306","0.0-122.0-0.0","""event"",""trial"",""time""
""fullscreenenter"",""0"",""460315""
","
","
","""event"",""trial"",""time""
""fullscreenenter"",""0"",""460315""
","
","1023.5999999940395","","","","","","","","50","1,0,1","6","blank","333","null","0.2492250395299655","0.05279168654975008","0.665891829146563","0","","","","","","","","",""
"","html-keyboard-response","228","1316313","0.0-122.0-1.0","""event"",""trial"",""time""
""fullscreenenter"",""0"",""460315""
","
","
","""event"",""trial"",""time""
""fullscreenenter"",""0"",""460315""
","
","null","<p></p>","null","","","","","","","","","","","","","","","","","","","","","","","",""
"","do_trial","229","1319625","0.0-123.0-0.0","""event"",""trial"",""time""
""fullscreenenter"",""0"",""460315""
","
","
","""event"",""trial"",""time""
""fullscreenenter"",""0"",""460315""
","
","697.0999999940395","","","","","","","","49","0,0,1","6","blank","334","null","0.38147044265492003","0.051392733620342315","0.6935577060739847","0","","","","","","","","",""
"","html-keyboard-response","230","1320631","0.0-123.0-1.0","""event"",""trial"",""time""
""fullscreenenter"",""0"",""460315""
","
","
","""event"",""trial"",""time""
""fullscreenenter"",""0"",""460315""
","
","null","<p></p>","null","","","","","","","","","","","","","","","","","","","","","","","",""
"","do_trial","231","1324796","0.0-124.0-0.0","""event"",""trial"",""time""
""fullscreenenter"",""0"",""460315""
","
","
","""event"",""trial"",""time""
""fullscreenenter"",""0"",""460315""
","
","1551.2000000178814","","","","","","","","49","1,0,0","6","blank","335","null","0.30682527694055334","0.21589192678470615","0.6118663409782156","1","","","","","","","","",""
"","html-keyboard-response","232","1325804","0.0-124.0-1.0","""event"",""trial"",""time""
""fullscreenenter"",""0"",""460315""
","
","
","""event"",""trial"",""time""
""fullscreenenter"",""0"",""460315""
","
","null","<p></p>","null","","","","","","","","","","","","","","","","","","","","","","","",""
"","do_trial","233","1329992","0.0-125.0-0.0","""event"",""trial"",""time""
""fullscreenenter"",""0"",""460315""
","
","
","""event"",""trial"",""time""
""fullscreenenter"",""0"",""460315""
","
","1576.5","","","","","","","","49","0,0,1","6","blank","336","null","0.4848444476901406","0.07961172526494315","0.6194739104690264","0","","","","","","","","",""
"","html-keyboard-response","234","1330998","0.0-125.0-1.0","""event"",""trial"",""time""
""fullscreenenter"",""0"",""460315""
","
","
","""event"",""trial"",""time""
""fullscreenenter"",""0"",""460315""
","
","null","<p></p>","null","","","","","","","","","","","","","","","","","","","","","","","",""
"","do_recog","235","1335067","0.0-126.0-0.0","""event"",""trial"",""time""
""fullscreenenter"",""0"",""460315""
","
","
","""event"",""trial"",""time""
""fullscreenenter"",""0"",""460315""
","
","2551.800000011921","","","","","","","","53","","","","337","probe-156","","","","","1","[object Object]","70","1","1","","","",""
"","html-keyboard-response","236","1336071","0.0-126.0-1.0","""event"",""trial"",""time""
""fullscreenenter"",""0"",""460315""
","
","
","""event"",""trial"",""time""
""fullscreenenter"",""0"",""460315""
","
","null","<p></p>","null","","","","","","","","","","","","","","","","","","","","","","","",""
"","do_trial","237","1340607","0.0-127.0-0.0","""event"",""trial"",""time""
""fullscreenenter"",""0"",""460315""
","
","
","""event"",""trial"",""time""
""fullscreenenter"",""0"",""460315""
","
","1921.5999999940395","","","","","","","","50","0,0,1","6","blank","338","null","0.35267625362098143","0.10871404786895973","0.6429610519536908","0","","","","","","","","",""
"","html-keyboard-response","238","1341616","0.0-127.0-1.0","""event"",""trial"",""time""
""fullscreenenter"",""0"",""460315""
","
","
","""event"",""trial"",""time""
""fullscreenenter"",""0"",""460315""
","
","null","<p></p>","null","","","","","","","","","","","","","","","","","","","","","","","",""
"","do_trial","239","1344877","0.0-128.0-0.0","""event"",""trial"",""time""
""fullscreenenter"",""0"",""460315""
","
","
","""event"",""trial"",""time""
""fullscreenenter"",""0"",""460315""
","
","636.0999999940395","","","","","","","","49","1,0,1","6","blank","339","null","0.2921955966359841","0.06901540184535049","0.5410147143225255","1","","","","","","","","",""
"","html-keyboard-response","240","1345884","0.0-128.0-1.0","""event"",""trial"",""time""
""fullscreenenter"",""0"",""460315""
","
","
","""event"",""trial"",""time""
""fullscreenenter"",""0"",""460315""
","
","null","<p></p>","null","","","","","","","","","","","","","","","","","","","","","","","",""
"","do_trial","241","1349805","0.0-129.0-0.0","""event"",""trial"",""time""
""fullscreenenter"",""0"",""460315""
","
","
","""event"",""trial"",""time""
""fullscreenenter"",""0"",""460315""
","
","1308.5999999940395","","","","","","","","49","1,0,1","6","blank","340","null","0.40398168973483367","0.11153029233222204","0.5045994227968273","1","","","","","","","","",""
"","html-keyboard-response","242","1350811","0.0-129.0-1.0","""event"",""trial"",""time""
""fullscreenenter"",""0"",""460315""
","
","
","""event"",""trial"",""time""
""fullscreenenter"",""0"",""460315""
","
","null","<p></p>","null","","","","","","","","","","","","","","","","","","","","","","","",""
"","do_trial","243","1354770","0.0-130.0-0.0","""event"",""trial"",""time""
""fullscreenenter"",""0"",""460315""
","
","
","""event"",""trial"",""time""
""fullscreenenter"",""0"",""460315""
","
","1335.199999988079","","","","","","","","49","1,0,0","6","blank","341","null","0.39571443356868885","0.26913951550832815","0.5978871769829764","1","","","","","","","","",""
"","html-keyboard-response","244","1355776","0.0-130.0-1.0","""event"",""trial"",""time""
""fullscreenenter"",""0"",""460315""
","
","
","""event"",""trial"",""time""
""fullscreenenter"",""0"",""460315""
","
","null","<p></p>","null","","","","","","","","","","","","","","","","","","","","","","","",""
"","do_trial","245","1359483","0.0-131.0-0.0","""event"",""trial"",""time""
""fullscreenenter"",""0"",""460315""
","
","
","""event"",""trial"",""time""
""fullscreenenter"",""0"",""460315""
","
","1092.199999988079","","","","","","","","49","0,0,0","6","blank","342","null","0.18503048805902853","0.07293505487371209","0.6913671733636858","0","","","","","","","","",""
"","html-keyboard-response","246","1360490","0.0-131.0-1.0","""event"",""trial"",""time""
""fullscreenenter"",""0"",""460315""
","
","
","""event"",""trial"",""time""
""fullscreenenter"",""0"",""460315""
","
","null","<p></p>","null","","","","","","","","","","","","","","","","","","","","","","","",""
"","do_trial","247","1364641","0.0-132.0-0.0","""event"",""trial"",""time""
""fullscreenenter"",""0"",""460315""
","
","
","""event"",""trial"",""time""
""fullscreenenter"",""0"",""460315""
","
","1534.300000011921","","","","","","","","49","0,0,1","6","blank","343","null","0.2718481430940944","0.09467375179822471","0.7463117549863411","0","","","","","","","","",""
"","html-keyboard-response","248","1365647","0.0-132.0-1.0","""event"",""trial"",""time""
""fullscreenenter"",""0"",""460315""
","
","
","""event"",""trial"",""time""
""fullscreenenter"",""0"",""460315""
","
","null","<p></p>","null","","","","","","","","","","","","","","","","","","","","","","","",""
"","do_trial","249","1369180","0.0-133.0-0.0","""event"",""trial"",""time""
""fullscreenenter"",""0"",""460315""
","
","
","""event"",""trial"",""time""
""fullscreenenter"",""0"",""460315""
","
","910.7999999821186","","","","","","","","50","0,0,0","6","blank","344","null","0.23176456382563884","0.08307237389357161","0.8041936252675292","0","","","","","","","","",""
"","html-keyboard-response","250","1370185","0.0-133.0-1.0","""event"",""trial"",""time""
""fullscreenenter"",""0"",""460315""
","
","
","""event"",""trial"",""time""
""fullscreenenter"",""0"",""460315""
","
","null","<p></p>","null","","","","","","","","","","","","","","","","","","","","","","","",""
"","do_recog","251","1374031","0.0-134.0-0.0","""event"",""trial"",""time""
""fullscreenenter"",""0"",""460315""
","
","
","""event"",""trial"",""time""
""fullscreenenter"",""0"",""460315""
","
","2327","","","","","","","","53","","","","345","probe-98","","","","","1","[object Object]","155","3","1","","","",""
"","html-keyboard-response","252","1375039","0.0-134.0-1.0","""event"",""trial"",""time""
""fullscreenenter"",""0"",""460315""
","
","
","""event"",""trial"",""time""
""fullscreenenter"",""0"",""460315""
","
","null","<p></p>","null","","","","","","","","","","","","","","","","","","","","","","","",""
"","do_trial","253","1379269","0.0-135.0-0.0","""event"",""trial"",""time""
""fullscreenenter"",""0"",""460315""
","
","
","""event"",""trial"",""time""
""fullscreenenter"",""0"",""460315""
","
","1619.5999999940395","","","","","","","","49","0,0,1","6","blank","346","null","0.24745290907431788","0.05434691600223779","0.8047931180195508","0","","","","","","","","",""
"","html-keyboard-response","254","1380275","0.0-135.0-1.0","""event"",""trial"",""time""
""fullscreenenter"",""0"",""460315""
","
","
","""event"",""trial"",""time""
""fullscreenenter"",""0"",""460315""
","
","null","<p></p>","null","","","","","","","","","","","","","","","","","","","","","","","",""
"","do_trial","255","1383510","0.0-136.0-0.0","""event"",""trial"",""time""
""fullscreenenter"",""0"",""460315""
","
","
","""event"",""trial"",""time""
""fullscreenenter"",""0"",""460315""
","
","623.3000000119209","","","","","","","","50","0,1,1","6","blank","347","null","0.4336890082671384","0.10069978548358176","0.565408426301244","1","","","","","","","","",""
"","html-keyboard-response","256","1384519","0.0-136.0-1.0","""event"",""trial"",""time""
""fullscreenenter"",""0"",""460315""
","
","
","""event"",""trial"",""time""
""fullscreenenter"",""0"",""460315""
","
","null","<p></p>","null","","","","","","","","","","","","","","","","","","","","","","","",""
"","do_trial","257","1388086","0.0-137.0-0.0","""event"",""trial"",""time""
""fullscreenenter"",""0"",""460315""
","
","
","""event"",""trial"",""time""
""fullscreenenter"",""0"",""460315""
","
","951.5999999940395","","","","","","","","50","1,0,1","6","blank","348","null","0.44617249240453705","0.1334900806975626","0.3528689890346904","0","","","","","","","","",""
"","html-keyboard-response","258","1389092","0.0-137.0-1.0","""event"",""trial"",""time""
""fullscreenenter"",""0"",""460315""
","
","
","""event"",""trial"",""time""
""fullscreenenter"",""0"",""460315""
","
","null","<p></p>","null","","","","","","","","","","","","","","","","","","","","","","","",""
"","break","259","1433711","0.0-138.0-0.0","""event"",""trial"",""time""
""fullscreenenter"",""0"",""460315""
","
","
","""event"",""trial"",""time""
""fullscreenenter"",""0"",""460315""
","
","44611.5","<div class='center'><p>Time to take a quick break! You have 2 minutes to rest, but you can move on sooner if you'd like.</p><p> Press the <b>space bar</b> to continue.</p></div>","32","","","","","","","","","","","","","","","","","","","","","","","",""
"","do_trial","260","1437149","0.0-138.0-1.0","""event"",""trial"",""time""
""fullscreenenter"",""0"",""460315""
","
","
","""event"",""trial"",""time""
""fullscreenenter"",""0"",""460315""
","
","805","","","","","","","","50","1,0,0","6","blank","349","null","0.5061366272803596","0.11352529633630849","0.22474630955258626","0","","","","","","","","",""
"","html-keyboard-response","261","1438156","0.0-138.0-2.0","""event"",""trial"",""time""
""fullscreenenter"",""0"",""460315""
","
","
","""event"",""trial"",""time""
""fullscreenenter"",""0"",""460315""
","
","null","<p></p>","null","","","","","","","","","","","","","","","","","","","","","","","",""
"","do_trial","262","1441803","0.0-139.0-0.0","""event"",""trial"",""time""
""fullscreenenter"",""0"",""460315""
","
","
","""event"",""trial"",""time""
""fullscreenenter"",""0"",""460315""
","
","1035.1000000238419","","","","","","","","49","1,0,0","6","blank","350","null","0.6362293781038687","0.3144346750721219","0.20536558944602235","1","","","","","","","","",""
"","html-keyboard-response","263","1442810","0.0-139.0-1.0","""event"",""trial"",""time""
""fullscreenenter"",""0"",""460315""
","
","
","""event"",""trial"",""time""
""fullscreenenter"",""0"",""460315""
","
","null","<p></p>","null","","","","","","","","","","","","","","","","","","","","","","","",""
"","do_trial","264","1446751","0.0-140.0-0.0","""event"",""trial"",""time""
""fullscreenenter"",""0"",""460315""
","
","
","""event"",""trial"",""time""
""fullscreenenter"",""0"",""460315""
","
","1328.4000000059605","","","","","","","","49","1,1,1","6","blank","351","null","0.7462274822416909","0.4014379300522571","0.16646451512757846","1","","","","","","","","",""
"","html-keyboard-response","265","1447758","0.0-140.0-1.0","""event"",""trial"",""time""
""fullscreenenter"",""0"",""460315""
","
","
","""event"",""trial"",""time""
""fullscreenenter"",""0"",""460315""
","
","null","<p></p>","null","","","","","","","","","","","","","","","","","","","","","","","",""
"","do_recog","266","1450607","0.0-141.0-0.0","""event"",""trial"",""time""
""fullscreenenter"",""0"",""460315""
","
","
","""event"",""trial"",""time""
""fullscreenenter"",""0"",""460315""
","
","1329.9000000059605","","","","","","","","53","","","","352","probe-182","","","","","1","[object Object]","32","0","1","","","",""
"","html-keyboard-response","267","1451613","0.0-141.0-1.0","""event"",""trial"",""time""
""fullscreenenter"",""0"",""460315""
","
","
","""event"",""trial"",""time""
""fullscreenenter"",""0"",""460315""
","
","null","<p></p>","null","","","","","","","","","","","","","","","","","","","","","","","",""
"","do_trial","268","1455327","0.0-142.0-0.0","""event"",""trial"",""time""
""fullscreenenter"",""0"",""460315""
","
","
","""event"",""trial"",""time""
""fullscreenenter"",""0"",""460315""
","
","1099.4000000059605","","","","","","","","49","1,0,0","6","blank","353","null","0.6487888484837987","0.44047918483513643","0.10116697753191123","1","","","","","","","","",""
"","html-keyboard-response","269","1456334","0.0-142.0-1.0","""event"",""trial"",""time""
""fullscreenenter"",""0"",""460315""
","
","
","""event"",""trial"",""time""
""fullscreenenter"",""0"",""460315""
","
","null","<p></p>","null","","","","","","","","","","","","","","","","","","","","","","","",""
"","do_trial","270","1459517","0.0-143.0-0.0","""event"",""trial"",""time""
""fullscreenenter"",""0"",""460315""
","
","
","""event"",""trial"",""time""
""fullscreenenter"",""0"",""460315""
","
","556.3000000119209","","","","","","","","49","1,0,0","6","blank","354","null","0.7678383440854463","0.3914648069516759","0.1404883610301912","1","","","","","","","","",""
"","html-keyboard-response","271","1460525","0.0-143.0-1.0","""event"",""trial"",""time""
""fullscreenenter"",""0"",""460315""
","
","
","""event"",""trial"",""time""
""fullscreenenter"",""0"",""460315""
","
","null","<p></p>","null","","","","","","","","","","","","","","","","","","","","","","","",""
"","do_trial","272","1464458","0.0-144.0-0.0","""event"",""trial"",""time""
""fullscreenenter"",""0"",""460315""
","
","
","""event"",""trial"",""time""
""fullscreenenter"",""0"",""460315""
","
","1318.9000000059605","","","","","","","","49","1,0,1","6","blank","355","null","0.8001591289971668","0.18506913002623537","0.13649539179090092","1","","","","","","","","",""
"","html-keyboard-response","273","1465465","0.0-144.0-1.0","""event"",""trial"",""time""
""fullscreenenter"",""0"",""460315""
","
","
","""event"",""trial"",""time""
""fullscreenenter"",""0"",""460315""
","
