"success","trial_type","trial_index","time_elapsed","internal_node_id","interactions","blur_events","focus_events","fullscreenenter_events","fullscreenexit_events","rt","stimulus","key_press","subject_id","participant_id","age","gender","prompt","response","choice_outcomes","context_n","context_img_id","trial_n","probe_img_id","pR_red","pR_white","pR_black","outcome","is_valid","image_to_show","probed_trial","probed_context","correct","probe","probed_trial_n","probed_context_n","context_im"
"true","fullscreen","0","2538","0.0-0.0","""event"",""trial"",""time""
""fullscreenenter"",""0"",""1577""
","
","
","""event"",""trial"",""time""
""fullscreenenter"",""0"",""1577""
","
","","","","","","","","","","","","","","","","","","","","","","","","","","",""
"","pavlovia","1","2543","0.0-1.0","""event"",""trial"",""time""
""fullscreenenter"",""0"",""1577""
","
","
","""event"",""trial"",""time""
""fullscreenenter"",""0"",""1577""
","
","","","","","","","","","","","","","","","","","","","","","","","","","","",""
"","welc_back","2","12389","0.0-2.0","""event"",""trial"",""time""
""fullscreenenter"",""0"",""1577""
","
","
","""event"",""trial"",""time""
""fullscreenenter"",""0"",""1577""
","
","null","run_exp/static/audio/clip_29_welcome_back.m4a","null","1255","1249","16","Female","<div class='center'><p>Welcome to day 2!</p><p> Yesterday, you were the head captain of a pirate ship. You asked your fellow pirates to rob other ships of their gold across six different islands.</p></div>","","","","","","","","","","","","","","","","","","",""
"","html-keyboard-response","3","13992","0.0-3.0","""event"",""trial"",""time""
""fullscreenenter"",""0"",""1577""
","
","
","""event"",""trial"",""time""
""fullscreenenter"",""0"",""1577""
","
","1601.699999988079","<div class='center'><p>Welcome to day 2!</p><p> Yesterday, you were the head captain of a pirate ship. You asked your fellow pirates to rob other ships of their gold across six different islands.</p><p><b>[Press the space bar to continue]</b></p></div>","32","","","","","","","","","","","","","","","","","","","","","","","",""
"","day_1_summary_goal","4","31205","0.0-4.0","""event"",""trial"",""time""
""fullscreenenter"",""0"",""1577""
","
","
","""event"",""trial"",""time""
""fullscreenenter"",""0"",""1577""
","
","null","run_exp/static/audio/clip_30_goal_of_game.m4a","null","","","","","<div class='center'><p>Today, like yesterday, you get to pick which pirate you want to rob the next ship.</p><p>If the pirate is successful in robbing a ship, you get gold coins that look like this: </p><p><img src='run_exp/static/images/tutorial/reward.png' height='150'></p><p> If they were not successful in robbing the ship, then you will get no gold coins and you'll see a big red x like this: </p><p><img src='run_exp/static/images/tutorial/reward_no.png' height='150'></p></div>","","","","","","","","","","","","","","","","","","",""
"","html-keyboard-response","5","31384","0.0-5.0","""event"",""trial"",""time""
""fullscreenenter"",""0"",""1577""
","
","
","""event"",""trial"",""time""
""fullscreenenter"",""0"",""1577""
","
","178.79999999701977","<div class='center'><p>Today, like yesterday, you get to pick which pirate you want to rob the next ship.</p><p>If the pirate is successful in robbing a ship, you get gold coins that look like this: </p><p><img src='run_exp/static/images/tutorial/reward.png' height='150'></p><p> If they were not successful in robbing the ship, then you will get no gold coins and you'll see a big red x like this: </p><p><img src='run_exp/static/images/tutorial/reward_no.png' height='150'></p><p><b>[Press the space bar to continue]</b></p></div>","32","","","","","","","","","","","","","","","","","","","","","","","",""
"","day_1_summary_pick","6","46074","0.0-6.0","""event"",""trial"",""time""
""fullscreenenter"",""0"",""1577""
","
","
","""event"",""trial"",""time""
""fullscreenenter"",""0"",""1577""
","
","null","run_exp/static/audio/clip_31_how_to_pick_a_pirate.m4a","null","","","","","<div class='center'><p>Also, just like yesterday, you will use the 1,2,3 keys on your keyboard to pick a pirate. Press '1' to choose red beard, '2' to choose white beard, and '3' to choose black beard . You only have 3 seconds to pick a pirate, so please make a choice quickly!</p></div>","","","","","","","","","","","","","","","","","","",""
"","html-keyboard-response","7","46382","0.0-7.0","""event"",""trial"",""time""
""fullscreenenter"",""0"",""1577""
","
","
","""event"",""trial"",""time""
""fullscreenenter"",""0"",""1577""
","
","307.40000000596046","<div class='center'><p>Also, just like yesterday, you will use the 1,2,3 keys on your keyboard to pick a pirate. Press '1' to choose red beard, '2' to choose white beard, and '3' to choose black beard . You only have 3 seconds to pick a pirate, so please make a choice quickly!</p><p><b>[Press the space bar to continue]</b></p></div>","32","","","","","","","","","","","","","","","","","","","","","","","",""
"","test_phase_begin","8","76774","0.0-8.0","""event"",""trial"",""time""
""fullscreenenter"",""0"",""1577""
","
","
","""event"",""trial"",""time""
""fullscreenenter"",""0"",""1577""
","
","null","run_exp/static/audio/clip_32_final_place.m4a","null","","","","","<div class='center'><p>You’ve arrived at the final island of your journey! Unfortunately, it’s very foggy out, so you won’t be able to see it in the distance like the other islands you've visited.</p><p>You’ll still be deciding which pirate you want to rob a ship like before. However, because of the fog, you also won’t be able to see the ship.</p><p>This means you do not have to remember the ships you rob on this island.</p><p>Unlike yesterday, you won't be visiting multiple islands today. You will stay on this island for the entire game. This game will last ~30 minutes.</p></div>","","","","","","","","","","","","","","","","","","",""
"","html-keyboard-response","9","78174","0.0-9.0","""event"",""trial"",""time""
""fullscreenenter"",""0"",""1577""
","
","
","""event"",""trial"",""time""
""fullscreenenter"",""0"",""1577""
","
","1399.5999999940395","<div class='center'><p>You’ve arrived at the final island of your journey! Unfortunately, it’s very foggy out, so you won’t be able to see it in the distance like the other islands you've visited.</p><p>You’ll still be deciding which pirate you want to rob a ship like before. However, because of the fog, you also won’t be able to see the ship.</p><p>This means you do not have to remember the ships you rob on this island.</p><p>Unlike yesterday, you won't be visiting multiple islands today. You will stay on this island for the entire game. This game will last ~30 minutes.</p><p><b>[Press the space bar to continue]</b></p></div>","32","","","","","","","","","","","","","","","","","","","","","","","",""
"","explain_probe_1","10","85883","0.0-10.0","""event"",""trial"",""time""
""fullscreenenter"",""0"",""1577""
","
","
","""event"",""trial"",""time""
""fullscreenenter"",""0"",""1577""
","
","null","run_exp/static/audio/clip_33_recognition_1.m4a","null","","","","","<div class='center'><p> Sometimes you’ll be shown a ship, and you will be asked if you saw this ship on a past island.</p><p> Here is an example of what you will see.</p><p><img src='run_exp/static/images/tutorial/example_recog_trial.png' height='500'></p></div>","","","","","","","","","","","","","","","","","","",""
"","html-keyboard-response","11","87149","0.0-11.0","""event"",""trial"",""time""
""fullscreenenter"",""0"",""1577""
","
","
","""event"",""trial"",""time""
""fullscreenenter"",""0"",""1577""
","
","1265","<div class='center'><p> Sometimes you’ll be shown a ship, and you will be asked if you saw this ship on a past island.</p><p> Here is an example of what you will see.</p><p><img src='run_exp/static/images/tutorial/example_recog_trial.png' height='500'></p><p><b>[Press the space bar to continue]</b></p></div>","32","","","","","","","","","","","","","","","","","","","","","","","",""
"","explain_probe_2","12","108880","0.0-12.0","""event"",""trial"",""time""
""fullscreenenter"",""0"",""1577""
","
","
","""event"",""trial"",""time""
""fullscreenenter"",""0"",""1577""
","
","null","run_exp/static/audio/clip_34_recognition_2.m4a","null","","","","","<div class='center'><p> You will press the 5, 6, 7, 8 keys on your keyboard to respond.</p><p>If you are sure you saw the ship, press <b>5</b> on your keyboard.</p><p> If you think you saw it before but aren't sure, then press <b>6</b>.</p><p> If you think you have <b>not</b> seen it before but aren't sure, then press <b>7</b>.</p><p> If you are sure you did <b>not</b> see the ship before, then press <b>8</b>.</p><p><img src='run_exp/static/images/tutorial/example_recog_trial.png' height='500'></p></div>","","","","","","","","","","","","","","","","","","",""
"","html-keyboard-response","13","110076","0.0-13.0","""event"",""trial"",""time""
""fullscreenenter"",""0"",""1577""
","
","
","""event"",""trial"",""time""
""fullscreenenter"",""0"",""1577""
","
","1194.5","<div class='center'><p> You will press the 5, 6, 7, 8 keys on your keyboard to respond.</p><p>If you are sure you saw the ship, press <b>5</b> on your keyboard.</p><p> If you think you saw it before but aren't sure, then press <b>6</b>.</p><p> If you think you have <b>not</b> seen it before but aren't sure, then press <b>7</b>.</p><p> If you are sure you did <b>not</b> see the ship before, then press <b>8</b>.</p><p><img src='run_exp/static/images/tutorial/example_recog_trial.png' height='500'></p><p><b>[Press the space bar to continue]</b></p></div>","32","","","","","","","","","","","","","","","","","","","","","","","",""
"","explain_outcome","14","127270","0.0-14.0","""event"",""trial"",""time""
""fullscreenenter"",""0"",""1577""
","
","
","""event"",""trial"",""time""
""fullscreenenter"",""0"",""1577""
","
","null","run_exp/static/audio/clip_35_recognition_3.m4a","null","","","","","<div class='center'><p> If you remember correctly, then you’ll get a gold coin like this: </p><p><img src='run_exp/static/images/tutorial/reward_small.png' height='200'></p><p>If you do not remember correctly, then you'll see a red x like this: </p><p><img src='run_exp/static/images/tutorial/reward_no.png' height='200'></p><p>Importantly, when you are shown a ship, take the time to remind yourself which island you saw it on. This will help you in the next part of the study.</p></div>","","","","","","","","","","","","","","","","","","",""
"","html-keyboard-response","15","127870","0.0-15.0","""event"",""trial"",""time""
""fullscreenenter"",""0"",""1577""
","
","
","""event"",""trial"",""time""
""fullscreenenter"",""0"",""1577""
","
","599.2000000029802","<div class='center'><p> If you remember correctly, then you’ll get a gold coin like this: </p><p><img src='run_exp/static/images/tutorial/reward_small.png' height='200'></p><p>If you do not remember correctly, then you'll see a red x like this: </p><p><img src='run_exp/static/images/tutorial/reward_no.png' height='200'></p><p>Importantly, when you are shown a ship, take the time to remind yourself which island you saw it on. This will help you in the next part of the study.</p><p><b>[Press the space bar to continue]</b></p></div>","32","","","","","","","","","","","","","","","","","","","","","","","",""
"","begin_test_phase","16","143675","0.0-16.0","""event"",""trial"",""time""
""fullscreenenter"",""0"",""1577""
","
","
","""event"",""trial"",""time""
""fullscreenenter"",""0"",""1577""
","
","null","run_exp/static/audio/clip_36_begin_final.m4a","null","","","","","<div class='center'><p>Let's go over the important points again. Your job is to: </p><p>1. Pick the pirate who is best at robbing ships and will bring you back gold coins. </p><p>2. Correctly remember whether or not you saw a ship before. If you did see the ship before, remind yourself on which island you saw it. </p></div>","","","","","","","","","","","","","","","","","","",""
"","html-keyboard-response","17","144086","0.0-17.0","""event"",""trial"",""time""
""fullscreenenter"",""0"",""1577""
","
","
","""event"",""trial"",""time""
""fullscreenenter"",""0"",""1577""
","
","366.29999999701977","<div class='center'><p>Let's go over the important points again. Your job is to: </p><p>1. Pick the pirate who is best at robbing ships and will bring you back gold coins. </p><p>2. Correctly remember whether or not you saw a ship before. If you did see the ship before, remind yourself on which island you saw it. </p><p><b>[Press the space bar to continue]</b></p></div>","32","","","","","","","","","","","","","","","","","","","","","","","",""
"","do_welcome","18","148093","0.0-18.0","""event"",""trial"",""time""
""fullscreenenter"",""0"",""1577""
","
","
","""event"",""trial"",""time""
""fullscreenenter"",""0"",""1577""
","
","null","","","","","","","","null","","","","","","","","","","","","","","","","","",""
"","do_trial","19","151853","0.0-19.0-0.0","""event"",""trial"",""time""
""fullscreenenter"",""0"",""1577""
","
","
","""event"",""trial"",""time""
""fullscreenenter"",""0"",""1577""
","
","1210.6000000089407","","","","","","","","49","0,1,0","6","blank","230","null","0.13068586543196456","0.6959487212699065","0.48567890391783947","0","","","","","","","","",""
"","html-keyboard-response","20","152856","0.0-19.0-1.0","""event"",""trial"",""time""
""fullscreenenter"",""0"",""1577""
","
","
","""event"",""trial"",""time""
""fullscreenenter"",""0"",""1577""
","
","null","<p></p>","null","","","","","","","","","","","","","","","","","","","","","","","",""
"","do_trial","21","155679","0.0-20.0-0.0","""event"",""trial"",""time""
""fullscreenenter"",""0"",""1577""
","
","
","""event"",""trial"",""time""
""fullscreenenter"",""0"",""1577""
","
","275.59999999403954","","","","","","","","50","1,0,1","6","blank","231","null","0.2567010731631622","0.7380227597347568","0.4390982830418082","0","","","","","","","","",""
"","html-keyboard-response","22","156682","0.0-20.0-1.0","""event"",""trial"",""time""
""fullscreenenter"",""0"",""1577""
","
","
","""event"",""trial"",""time""
""fullscreenenter"",""0"",""1577""
","
","null","<p></p>","null","","","","","","","","","","","","","","","","","","","","","","","",""
"","do_trial","23","159263","0.0-21.0-0.0","""event"",""trial"",""time""
""fullscreenenter"",""0"",""1577""
","
","
","""event"",""trial"",""time""
""fullscreenenter"",""0"",""1577""
","
","32.6000000089407","","","","","","","","51","0,1,1","6","blank","232","null","0.12709879099256086","0.7196595349076406","0.36612291220276755","1","","","","","","","","",""
"","html-keyboard-response","24","160265","0.0-21.0-1.0","""event"",""trial"",""time""
""fullscreenenter"",""0"",""1577""
","
","
","""event"",""trial"",""time""
""fullscreenenter"",""0"",""1577""
","
","null","<p></p>","null","","","","","","","","","","","","","","","","","","","","","","","",""
"","do_trial","25","163101","0.0-22.0-0.0","""event"",""trial"",""time""
""fullscreenenter"",""0"",""1577""
","
","
","""event"",""trial"",""time""
""fullscreenenter"",""0"",""1577""
","
","283.90000000596046","","","","","","","","51","0,1,0","6","blank","233","null","0.09832272839983568","0.6415102958554972","0.31184628333772463","0","","","","","","","","",""
"","html-keyboard-response","26","164103","0.0-22.0-1.0","""event"",""trial"",""time""
""fullscreenenter"",""0"",""1577""
","
","
","""event"",""trial"",""time""
""fullscreenenter"",""0"",""1577""
","
","null","<p></p>","null","","","","","","","","","","","","","","","","","","","","","","","",""
"","do_trial","27","166913","0.0-23.0-0.0","""event"",""trial"",""time""
""fullscreenenter"",""0"",""1577""
","
","
","""event"",""trial"",""time""
""fullscreenenter"",""0"",""1577""
","
","258.8999999910593","","","","","","","","51","0,0,0","6","blank","234","null","0.2147776347479317","0.5633851136725313","0.19686172206458763","0","","","","","","","","",""
"","html-keyboard-response","28","167915","0.0-23.0-1.0","""event"",""trial"",""time""
""fullscreenenter"",""0"",""1577""
","
","
","""event"",""trial"",""time""
""fullscreenenter"",""0"",""1577""
","
","null","<p></p>","null","","","","","","","","","","","","","","","","","","","","","","","",""
"","do_trial","29","170748","0.0-24.0-0.0","""event"",""trial"",""time""
""fullscreenenter"",""0"",""1577""
","
","
","""event"",""trial"",""time""
""fullscreenenter"",""0"",""1577""
","
","279.5","","","","","","","","50","0,1,0","6","blank","235","null","0.06979368895611467","0.5741366221990097","0.17194154971967507","1","","","","","","","","",""
"","html-keyboard-response","30","171750","0.0-24.0-1.0","""event"",""trial"",""time""
""fullscreenenter"",""0"",""1577""
","
","
","""event"",""trial"",""time""
""fullscreenenter"",""0"",""1577""
","
","null","<p></p>","null","","","","","","","","","","","","","","","","","","","","","","","",""
"","do_trial","31","174628","0.0-25.0-0.0","""event"",""trial"",""time""
""fullscreenenter"",""0"",""1577""
","
","
","""event"",""trial"",""time""
""fullscreenenter"",""0"",""1577""
","
","325.90000000596046","","","","","","","","50","0,0,0","6","blank","236","null","0.14913485473507213","0.43807334147758104","0.2573525588673059","0","","","","","","","","",""
"","html-keyboard-response","32","175631","0.0-25.0-1.0","""event"",""trial"",""time""
""fullscreenenter"",""0"",""1577""
","
","
","""event"",""trial"",""time""
""fullscreenenter"",""0"",""1577""
","
","null","<p></p>","null","","","","","","","","","","","","","","","","","","","","","","","",""
"","do_trial","33","178258","0.0-26.0-0.0","""event"",""trial"",""time""
""fullscreenenter"",""0"",""1577""
","
","
","""event"",""trial"",""time""
""fullscreenenter"",""0"",""1577""
","
","72.90000000596046","","","","","","","","50","0,1,0","6","blank","237","null","0.0924130144113279","0.4600746543421218","0.17352505595867285","1","","","","","","","","",""
"","html-keyboard-response","34","179260","0.0-26.0-1.0","""event"",""trial"",""time""
""fullscreenenter"",""0"",""1577""
","
","
","""event"",""trial"",""time""
""fullscreenenter"",""0"",""1577""
","
","null","<p></p>","null","","","","","","","","","","","","","","","","","","","","","","","",""
"","do_trial","35","182125","0.0-27.0-0.0","""event"",""trial"",""time""
""fullscreenenter"",""0"",""1577""
","
","
","""event"",""trial"",""time""
""fullscreenenter"",""0"",""1577""
","
","313.79999999701977","","","","","","","","49","0,0,1","6","blank","238","null","0.1364006366835392","0.40628789193009396","0.20927644144841265","0","","","","","","","","",""
"","html-keyboard-response","36","183128","0.0-27.0-1.0","""event"",""trial"",""time""
""fullscreenenter"",""0"",""1577""
","
","
","""event"",""trial"",""time""
""fullscreenenter"",""0"",""1577""
","
","null","<p></p>","null","","","","","","","","","","","","","","","","","","","","","","","",""
"","do_trial","37","185686","0.0-28.0-0.0","""event"",""trial"",""time""
""fullscreenenter"",""0"",""1577""
","
","
","""event"",""trial"",""time""
""fullscreenenter"",""0"",""1577""
","
","0.20000000298023224","","","","","","","","49","1,0,1","6","blank","239","null","0.18810461699024056","0.44030785585859505","0.1931228488096899","1","","","","","","","","",""
"","html-keyboard-response","38","186688","0.0-28.0-1.0","""event"",""trial"",""time""
""fullscreenenter"",""0"",""1577""
","
","
","""event"",""trial"",""time""
""fullscreenenter"",""0"",""1577""
","
","null","<p></p>","null","","","","","","","","","","","","","","","","","","","","","","","",""
"","do_trial","39","189625","0.0-29.0-0.0","""event"",""trial"",""time""
""fullscreenenter"",""0"",""1577""
","
","
","""event"",""trial"",""time""
""fullscreenenter"",""0"",""1577""
","
","385.29999999701977","","","","","","","","49","0,0,0","6","blank","240","null","0.16305355848893668","0.4279905796525319","0.17568721573833712","0","","","","","","","","",""
"","html-keyboard-response","40","190627","0.0-29.0-1.0","""event"",""trial"",""time""
""fullscreenenter"",""0"",""1577""
","
","
","""event"",""trial"",""time""
""fullscreenenter"",""0"",""1577""
","
","null","<p></p>","null","","","","","","","","","","","","","","","","","","","","","","","",""
"","do_recog","41","196642","0.0-30.0-0.0","""event"",""trial"",""time""
""fullscreenenter"",""0"",""1577""
","
","
","""event"",""trial"",""time""
""fullscreenenter"",""0"",""1577""
","
","null","","","","","","","","null","","","","241","probe-236","","","","","0","[object Object]","null","null","0","","","",""
"","html-keyboard-response","42","197645","0.0-30.0-1.0","""event"",""trial"",""time""
""fullscreenenter"",""0"",""1577""
","
","
","""event"",""trial"",""time""
""fullscreenenter"",""0"",""1577""
","
","null","<p></p>","null","","","","","","","","","","","","","","","","","","","","","","","",""
"","do_trial","43","201672","0.0-31.0-0.0","""event"",""trial"",""time""
""fullscreenenter"",""0"",""1577""
","
","
","""event"",""trial"",""time""
""fullscreenenter"",""0"",""1577""
","
","1474.3999999910593","","","","","","","","50","0,0,0","6","blank","242","null","0.07718626898855128","0.4342978262269096","0.25972885383830424","0","","","","","","","","",""
"","html-keyboard-response","44","202677","0.0-31.0-1.0","""event"",""trial"",""time""
""fullscreenenter"",""0"",""1577""
","
","
","""event"",""trial"",""time""
""fullscreenenter"",""0"",""1577""
","
","null","<p></p>","null","","","","","","","","","","","","","","","","","","","","","","","",""
"","do_recog","45","208689","0.0-32.0-0.0","""event"",""trial"",""time""
""fullscreenenter"",""0"",""1577""
","
","
","""event"",""trial"",""time""
""fullscreenenter"",""0"",""1577""
","
","null","","","","","","","","null","","","","243","probe-40","","","","","1","[object Object]","76","1","0","","","",""
"","html-keyboard-response","46","209692","0.0-32.0-1.0","""event"",""trial"",""time""
""fullscreenenter"",""0"",""1577""
","
","
","""event"",""trial"",""time""
""fullscreenenter"",""0"",""1577""
","
","null","<p></p>","null","","","","","","","","","","","","","","","","","","","","","","","",""
"","do_trial","47","213210","0.0-33.0-0.0","""event"",""trial"",""time""
""fullscreenenter"",""0"",""1577""
","
","
","""event"",""trial"",""time""
""fullscreenenter"",""0"",""1577""
","
","966.9000000059605","","","","","","","","49","0,0,0","6","blank","244","null","0.26435804716901584","0.28943380543848735","0.20010429309974556","0","","","","","","","","",""
"","html-keyboard-response","48","214213","0.0-33.0-1.0","""event"",""trial"",""time""
""fullscreenenter"",""0"",""1577""
","
","
","""event"",""trial"",""time""
""fullscreenenter"",""0"",""1577""
","
","null","<p></p>","null","","","","","","","","","","","","","","","","","","","","","","","",""
"","do_trial","49","217041","0.0-34.0-0.0","""event"",""trial"",""time""
""fullscreenenter"",""0"",""1577""
","
","
","""event"",""trial"",""time""
""fullscreenenter"",""0"",""1577""
","
","276.40000000596046","","","","","","","","50","1,0,0","6","blank","245","null","0.4240204330473801","0.2903552380409255","0.1425343518100568","0","","","","","","","","",""
"","html-keyboard-response","50","218043","0.0-34.0-1.0","""event"",""trial"",""time""
""fullscreenenter"",""0"",""1577""
","
","
","""event"",""trial"",""time""
""fullscreenenter"",""0"",""1577""
","
","null","<p></p>","null","","","","","","","","","","","","","","","","","","","","","","","",""
"","do_trial","51","220882","0.0-35.0-0.0","""event"",""trial"",""time""
""fullscreenenter"",""0"",""1577""
","
","
","""event"",""trial"",""time""
""fullscreenenter"",""0"",""1577""
","
","286.20000000298023","","","","","","","","50","0,0,0","6","blank","246","null","0.6061564754977482","0.4697991347612075","0.1418631496578033","0","","","","","","","","",""
"","html-keyboard-response","52","221887","0.0-35.0-1.0","""event"",""trial"",""time""
""fullscreenenter"",""0"",""1577""
","
","
","""event"",""trial"",""time""
""fullscreenenter"",""0"",""1577""
","
","null","<p></p>","null","","","","","","","","","","","","","","","","","","","","","","","",""
"","do_trial","53","224753","0.0-36.0-0.0","""event"",""trial"",""time""
""fullscreenenter"",""0"",""1577""
","
","
","""event"",""trial"",""time""
""fullscreenenter"",""0"",""1577""
","
","316","","","","","","","","50","1,0,0","6","blank","247","null","0.7334185258974977","0.29591922340460103","0.1294591949793726","0","","","","","","","","",""
"","html-keyboard-response","54","225755","0.0-36.0-1.0","""event"",""trial"",""time""
""fullscreenenter"",""0"",""1577""
","
","
","""event"",""trial"",""time""
""fullscreenenter"",""0"",""1577""
","
","null","<p></p>","null","","","","","","","","","","","","","","","","","","","","","","","",""
"","do_recog","55","229547","0.0-37.0-0.0","""event"",""trial"",""time""
""fullscreenenter"",""0"",""1577""
","
","
","""event"",""trial"",""time""
""fullscreenenter"",""0"",""1577""
","
","2283.699999988079","","","","","","","","55","","","","248","probe-104","","","","","1","[object Object]","110","2","0","","","",""
"","html-keyboard-response","56","230549","0.0-37.0-1.0","""event"",""trial"",""time""
""fullscreenenter"",""0"",""1577""
","
","
","""event"",""trial"",""time""
""fullscreenenter"",""0"",""1577""
","
","null","<p></p>","null","","","","","","","","","","","","","","","","","","","","","","","",""
"","do_trial","57","234223","0.0-38.0-0.0","""event"",""trial"",""time""
""fullscreenenter"",""0"",""1577""
","
","
","""event"",""trial"",""time""
""fullscreenenter"",""0"",""1577""
","
","1123.4000000059605","","","","","","","","51","0,1,0","6","blank","249","null","0.5883772323987956","0.2829526514076087","0.08872949435725459","0","","","","","","","","",""
"","html-keyboard-response","58","235226","0.0-38.0-1.0","""event"",""trial"",""time""
""fullscreenenter"",""0"",""1577""
","
","
","""event"",""trial"",""time""
""fullscreenenter"",""0"",""1577""
","
","null","<p></p>","null","","","","","","","","","","","","","","","","","","","","","","","",""
"","do_recog","59","239121","0.0-39.0-0.0","""event"",""trial"",""time""
""fullscreenenter"",""0"",""1577""
","
","
","""event"",""trial"",""time""
""fullscreenenter"",""0"",""1577""
","
","2387.3999999910593","","","","","","","","56","","","","250","probe-39","","","","","1","[object Object]","38","0","0","","","",""
"","html-keyboard-response","60","240123","0.0-39.0-1.0","""event"",""trial"",""time""
""fullscreenenter"",""0"",""1577""
","
","
","""event"",""trial"",""time""
""fullscreenenter"",""0"",""1577""
","
","null","<p></p>","null","","","","","","","","","","","","","","","","","","","","","","","",""
"","do_trial","61","244054","0.0-40.0-0.0","""event"",""trial"",""time""
""fullscreenenter"",""0"",""1577""
","
","
","""event"",""trial"",""time""
""fullscreenenter"",""0"",""1577""
","
","1386.2000000029802","","","","","","","","50","1,0,0","6","blank","251","null","0.51974338769501","0.20499231848688604","0.06495590495727024","0","","","","","","","","",""
"","html-keyboard-response","62","245056","0.0-40.0-1.0","""event"",""trial"",""time""
""fullscreenenter"",""0"",""1577""
","
","
","""event"",""trial"",""time""
""fullscreenenter"",""0"",""1577""
","
","null","<p></p>","null","","","","","","","","","","","","","","","","","","","","","","","",""
"","do_trial","63","247969","0.0-41.0-0.0","""event"",""trial"",""time""
""fullscreenenter"",""0"",""1577""
","
","
","""event"",""trial"",""time""
""fullscreenenter"",""0"",""1577""
","
","361.70000000298023","","","","","","","","50","1,0,1","6","blank","252","null","0.6146185990481349","0.3233952960279532","0.10191836283259838","0","","","","","","","","",""
"","html-keyboard-response","64","248971","0.0-41.0-1.0","""event"",""trial"",""time""
""fullscreenenter"",""0"",""1577""
","
","
","""event"",""trial"",""time""
""fullscreenenter"",""0"",""1577""
","
","null","<p></p>","null","","","","","","","","","","","","","","","","","","","","","","","",""
"","do_trial","65","251834","0.0-42.0-0.0","""event"",""trial"",""time""
""fullscreenenter"",""0"",""1577""
","
","
","""event"",""trial"",""time""
""fullscreenenter"",""0"",""1577""
","
","313.29999999701977","","","","","","","","51","0,0,0","6","blank","253","null","0.4011744900934474","0.21704557961956192","0.0737484441086956","0","","","","","","","","",""
"","html-keyboard-response","66","252837","0.0-42.0-1.0","""event"",""trial"",""time""
""fullscreenenter"",""0"",""1577""
","
","
","""event"",""trial"",""time""
""fullscreenenter"",""0"",""1577""
","
","null","<p></p>","null","","","","","","","","","","","","","","","","","","","","","","","",""
"","do_trial","67","255726","0.0-43.0-0.0","""event"",""trial"",""time""
""fullscreenenter"",""0"",""1577""
","
","
","""event"",""trial"",""time""
""fullscreenenter"",""0"",""1577""
","
","338.90000000596046","","","","","","","","51","1,0,0","6","blank","254","null","0.46719550728967557","0.3601822515445258","0.07737386509162475","0","","","","","","","","",""
"","html-keyboard-response","68","256728","0.0-43.0-1.0","""event"",""trial"",""time""
""fullscreenenter"",""0"",""1577""
","
","
","""event"",""trial"",""time""
""fullscreenenter"",""0"",""1577""
","
","null","<p></p>","null","","","","","","","","","","","","","","","","","","","","","","","",""
"","do_trial","69","259502","0.0-44.0-0.0","""event"",""trial"",""time""
""fullscreenenter"",""0"",""1577""
","
","
","""event"",""trial"",""time""
""fullscreenenter"",""0"",""1577""
","
","222.20000000298023","","","","","","","","51","1,0,0","6","blank","255","null","0.4787941752153843","0.18476586186966248","0.07234715843740017","0","","","","","","","","",""
"","html-keyboard-response","70","260504","0.0-44.0-1.0","""event"",""trial"",""time""
""fullscreenenter"",""0"",""1577""
","
","
","""event"",""trial"",""time""
""fullscreenenter"",""0"",""1577""
","
","null","<p></p>","null","","","","","","","","","","","","","","","","","","","","","","","",""
"","do_trial","71","263292","0.0-45.0-0.0","""event"",""trial"",""time""
""fullscreenenter"",""0"",""1577""
","
","
","""event"",""trial"",""time""
""fullscreenenter"",""0"",""1577""
","
","237.40000000596046","","","","","","","","50","1,1,0","6","blank","256","null","0.5906685518592479","0.3503496452417473","0.10032959234814184","1","","","","","","","","",""
"","html-keyboard-response","72","264294","0.0-45.0-1.0","""event"",""trial"",""time""
""fullscreenenter"",""0"",""1577""
","
","
","""event"",""trial"",""time""
""fullscreenenter"",""0"",""1577""
","
","null","<p></p>","null","","","","","","","","","","","","","","","","","","","","","","","",""
"","do_recog","73","267911","0.0-46.0-0.0","""event"",""trial"",""time""
""fullscreenenter"",""0"",""1577""
","
","
","""event"",""trial"",""time""
""fullscreenenter"",""0"",""1577""
","
","2107.7999999970198","","","","","","","","53","","","","257","probe-85","","","","","1","[object Object]","115","2","1","","","",""
"","html-keyboard-response","74","268913","0.0-46.0-1.0","""event"",""trial"",""time""
""fullscreenenter"",""0"",""1577""
","
","
","""event"",""trial"",""time""
""fullscreenenter"",""0"",""1577""
","
","null","<p></p>","null","","","","","","","","","","","","","","","","","","","","","","","",""
"","do_trial","75","272418","0.0-47.0-0.0","""event"",""trial"",""time""
""fullscreenenter"",""0"",""1577""
","
","
","""event"",""trial"",""time""
""fullscreenenter"",""0"",""1577""
","
","954.7000000029802","","","","","","","","49","1,0,0","6","blank","258","null","0.7835267163324311","0.29902358726157885","0.05932825881436998","1","","","","","","","","",""
"","html-keyboard-response","76","273420","0.0-47.0-1.0","""event"",""trial"",""time""
""fullscreenenter"",""0"",""1577""
","
","
","""event"",""trial"",""time""
""fullscreenenter"",""0"",""1577""
","
","null","<p></p>","null","","","","","","","","","","","","","","","","","","","","","","","",""
"","do_trial","77","276301","0.0-48.0-0.0","""event"",""trial"",""time""
""fullscreenenter"",""0"",""1577""
","
","
","""event"",""trial"",""time""
""fullscreenenter"",""0"",""1577""
","
","331.20000000298023","","","","","","","","50","1,1,0","6","blank","259","null","0.5465260191286684","0.35718730599050214","0.057244377337131294","1","","","","","","","","",""
"","html-keyboard-response","78","277303","0.0-48.0-1.0","""event"",""trial"",""time""
""fullscreenenter"",""0"",""1577""
","
","
","""event"",""trial"",""time""
""fullscreenenter"",""0"",""1577""
","
","null","<p></p>","null","","","","","","","","","","","","","","","","","","","","","","","",""
"","do_trial","79","280222","0.0-49.0-0.0","""event"",""trial"",""time""
""fullscreenenter"",""0"",""1577""
","
","
","""event"",""trial"",""time""
""fullscreenenter"",""0"",""1577""
","
","368.5","","","","","","","","50","1,0,0","6","blank","260","null","0.6092006592905559","0.37092712578661674","0.08311714987660819","0","","","","","","","","",""
"","html-keyboard-response","80","281224","0.0-49.0-1.0","""event"",""trial"",""time""
""fullscreenenter"",""0"",""1577""
","
","
","""event"",""trial"",""time""
""fullscreenenter"",""0"",""1577""
","
","null","<p></p>","null","","","","","","","","","","","","","","","","","","","","","","","",""
"","do_trial","81","284118","0.0-50.0-0.0","""event"",""trial"",""time""
""fullscreenenter"",""0"",""1577""
","
","
","""event"",""trial"",""time""
""fullscreenenter"",""0"",""1577""
","
","342.30000001192093","","","","","","","","51","1,1,0","6","blank","261","null","0.497982057877182","0.48731675266452856","0.15694244955015502","0","","","","","","","","",""
"","html-keyboard-response","82","285119","0.0-50.0-1.0","""event"",""trial"",""time""
""fullscreenenter"",""0"",""1577""
","
","
","""event"",""trial"",""time""
""fullscreenenter"",""0"",""1577""
","
","null","<p></p>","null","","","","","","","","","","","","","","","","","","","","","","","",""
"","do_trial","83","287973","0.0-51.0-0.0","""event"",""trial"",""time""
""fullscreenenter"",""0"",""1577""
","
","
","""event"",""trial"",""time""
""fullscreenenter"",""0"",""1577""
","
","303.30000001192093","","","","","","","","50","1,0,0","6","blank","262","null","0.5970810173669223","0.45637669212367293","0.1411130478575028","0","","","","","","","","",""
"","html-keyboard-response","84","288976","0.0-51.0-1.0","""event"",""trial"",""time""
""fullscreenenter"",""0"",""1577""
","
","
","""event"",""trial"",""time""
""fullscreenenter"",""0"",""1577""
","
","null","<p></p>","null","","","","","","","","","","","","","","","","","","","","","","","",""
"","do_trial","85","291795","0.0-52.0-0.0","""event"",""trial"",""time""
""fullscreenenter"",""0"",""1577""
","
","
","""event"",""trial"",""time""
""fullscreenenter"",""0"",""1577""
","
","268.90000000596046","","","","","","","","50","0,1,1","6","blank","263","null","0.5517874539616071","0.3453574618942725","0.06339550194035057","1","","","","","","","","",""
"","html-keyboard-response","86","292797","0.0-52.0-1.0","""event"",""trial"",""time""
""fullscreenenter"",""0"",""1577""
","
","
","""event"",""trial"",""time""
""fullscreenenter"",""0"",""1577""
","
","null","<p></p>","null","","","","","","","","","","","","","","","","","","","","","","","",""
"","do_trial","87","295616","0.0-53.0-0.0","""event"",""trial"",""time""
""fullscreenenter"",""0"",""1577""
","
","
","""event"",""trial"",""time""
""fullscreenenter"",""0"",""1577""
","
","267","","","","","","","","49","0,1,0","6","blank","264","null","0.49838950408925775","0.48140560748809164","0.150895329846042","0","","","","","","","","",""
"","html-keyboard-response","88","296617","0.0-53.0-1.0","""event"",""trial"",""time""
""fullscreenenter"",""0"",""1577""
","
","
","""event"",""trial"",""time""
""fullscreenenter"",""0"",""1577""
","
","null","<p></p>","null","","","","","","","","","","","","","","","","","","","","","","","",""
"","do_recog","89","300524","0.0-54.0-0.0","""event"",""trial"",""time""
""fullscreenenter"",""0"",""1577""
","
","
","""event"",""trial"",""time""
""fullscreenenter"",""0"",""1577""
","
","2397.6000000089407","","","","","","","","55","","","","265","probe-124","","","","","1","[object Object]","150","3","0","","","",""
"","html-keyboard-response","90","301525","0.0-54.0-1.0","""event"",""trial"",""time""
""fullscreenenter"",""0"",""1577""
","
","
","""event"",""trial"",""time""
""fullscreenenter"",""0"",""1577""
","
","null","<p></p>","null","","","","","","","","","","","","","","","","","","","","","","","",""
"","do_trial","91","304882","0.0-55.0-0.0","""event"",""trial"",""time""
""fullscreenenter"",""0"",""1577""
","
","
","""event"",""trial"",""time""
""fullscreenenter"",""0"",""1577""
","
","805.0999999940395","","","","","","","","49","1,1,0","6","blank","266","null","0.4900117012995625","0.36695671196547985","0.13178283360207102","1","","","","","","","","",""
"","html-keyboard-response","92","305885","0.0-55.0-1.0","""event"",""trial"",""time""
""fullscreenenter"",""0"",""1577""
","
","
","""event"",""trial"",""time""
""fullscreenenter"",""0"",""1577""
","
","null","<p></p>","null","","","","","","","","","","","","","","","","","","","","","","","",""
"","do_trial","93","308736","0.0-56.0-0.0","""event"",""trial"",""time""
""fullscreenenter"",""0"",""1577""
","
","
","""event"",""trial"",""time""
""fullscreenenter"",""0"",""1577""
","
","300.20000000298023","","","","","","","","49","0,0,0","6","blank","267","null","0.5941402602918938","0.3009571751462427","0.10125754451609983","0","","","","","","","","",""
"","html-keyboard-response","94","309738","0.0-56.0-1.0","""event"",""trial"",""time""
""fullscreenenter"",""0"",""1577""
","
","
","""event"",""trial"",""time""
""fullscreenenter"",""0"",""1577""
","
","null","<p></p>","null","","","","","","","","","","","","","","","","","","","","","","","",""
"","do_trial","95","312609","0.0-57.0-0.0","""event"",""trial"",""time""
""fullscreenenter"",""0"",""1577""
","
","
","""event"",""trial"",""time""
""fullscreenenter"",""0"",""1577""
","
","316.29999999701977","","","","","","","","50","0,0,0","6","blank","268","null","0.44811798460333224","0.2706257175977478","0.1109045411410496","0","","","","","","","","",""
"","html-keyboard-response","96","313611","0.0-57.0-1.0","""event"",""trial"",""time""
""fullscreenenter"",""0"",""1577""
","
","
","""event"",""trial"",""time""
""fullscreenenter"",""0"",""1577""
","
","null","<p></p>","null","","","","","","","","","","","","","","","","","","","","","","","",""
"","break","97","315337","0.0-58.0-0.0","""event"",""trial"",""time""
""fullscreenenter"",""0"",""1577""
","
","
","""event"",""trial"",""time""
""fullscreenenter"",""0"",""1577""
","
","1724.5","<div class='center'><p>Time to take a quick break! You have 2 minutes to rest, but you can move on sooner if you'd like.</p><p> Press the <b>space bar</b> to continue.</p></div>","32","","","","","","","","","","","","","","","","","","","","","","","",""
"","do_recog","98","318366","0.0-58.0-1.0","""event"",""trial"",""time""
""fullscreenenter"",""0"",""1577""
","
","
","""event"",""trial"",""time""
""fullscreenenter"",""0"",""1577""
","
","1521.5999999940395","","","","","","","","56","","","","269","probe-63","","","","","1","[object Object]","196","4","0","","","",""
"","html-keyboard-response","99","319368","0.0-58.0-2.0","""event"",""trial"",""time""
""fullscreenenter"",""0"",""1577""
","
","
","""event"",""trial"",""time""
""fullscreenenter"",""0"",""1577""
","
","null","<p></p>","null","","","","","","","","","","","","","","","","","","","","","","","",""
"","do_trial","100","322627","0.0-59.0-0.0","""event"",""trial"",""time""
""fullscreenenter"",""0"",""1577""
","
","
","""event"",""trial"",""time""
""fullscreenenter"",""0"",""1577""
","
","710","","","","","","","","50","1,0,0","6","blank","270","null","0.42153591278004526","0.2863579466667091","0.14841346010289339","0","","","","","","","","",""
"","html-keyboard-response","101","323630","0.0-59.0-1.0","""event"",""trial"",""time""
""fullscreenenter"",""0"",""1577""
","
","
","""event"",""trial"",""time""
""fullscreenenter"",""0"",""1577""
","
","null","<p></p>","null","","","","","","","","","","","","","","","","","","","","","","","",""
"","do_recog","102","326675","0.0-60.0-0.0","""event"",""trial"",""time""
""fullscreenenter"",""0"",""1577""
","
","
","""event"",""trial"",""time""
""fullscreenenter"",""0"",""1577""
","
","1536.5","","","","","","","","56","","","","271","probe-229","","","","","1","[object Object]","154","3","0","","","",""
"","html-keyboard-response","103","327678","0.0-60.0-1.0","""event"",""trial"",""time""
""fullscreenenter"",""0"",""1577""
","
","
","""event"",""trial"",""time""
""fullscreenenter"",""0"",""1577""
","
","null","<p></p>","null","","","","","","","","","","","","","","","","","","","","","","","",""
"","do_trial","104","330984","0.0-61.0-0.0","""event"",""trial"",""time""
""fullscreenenter"",""0"",""1577""
","
","
","""event"",""trial"",""time""
""fullscreenenter"",""0"",""1577""
","
","755","","","","","","","","50","1,0,0","6","blank","272","null","0.47009565728967645","0.2955452293346823","0.05283236115561934","0","","","","","","","","",""
"","html-keyboard-response","105","331986","0.0-61.0-1.0","""event"",""trial"",""time""
""fullscreenenter"",""0"",""1577""
","
","
","""event"",""trial"",""time""
""fullscreenenter"",""0"",""1577""
","
","null","<p></p>","null","","","","","","","","","","","","","","","","","","","","","","","",""
"","do_recog","106","335033","0.0-62.0-0.0","""event"",""trial"",""time""
""fullscreenenter"",""0"",""1577""
","
","
","""event"",""trial"",""time""
""fullscreenenter"",""0"",""1577""
","
","1539","","","","","","","","56","","","","273","probe-90","","","","","1","[object Object]","36","0","0","","","",""
"","html-keyboard-response","107","336035","0.0-62.0-1.0","""event"",""trial"",""time""
""fullscreenenter"",""0"",""1577""
","
","
","""event"",""trial"",""time""
""fullscreenenter"",""0"",""1577""
","
","null","<p></p>","null","","","","","","","","","","","","","","","","","","","","","","","",""
"","do_trial","108","339233","0.0-63.0-0.0","""event"",""trial"",""time""
""fullscreenenter"",""0"",""1577""
","
","
","""event"",""trial"",""time""
""fullscreenenter"",""0"",""1577""
","
","647.8000000119209","","","","","","","","51","0,0,0","6","blank","274","null","0.4396870409584315","0.1974074501415344","0.07490259276671205","0","","","","","","","","",""
"","html-keyboard-response","109","340236","0.0-63.0-1.0","""event"",""trial"",""time""
""fullscreenenter"",""0"",""1577""
","
","
","""event"",""trial"",""time""
""fullscreenenter"",""0"",""1577""
","
","null","<p></p>","null","","","","","","","","","","","","","","","","","","","","","","","",""
"","do_recog","110","343736","0.0-64.0-0.0","""event"",""trial"",""time""
""fullscreenenter"",""0"",""1577""
","
","
","""event"",""trial"",""time""
""fullscreenenter"",""0"",""1577""
","
","1990.7999999970198","","","","","","","","53","","","","275","probe-146","","","","","1","[object Object]","78","1","1","","","",""
"","html-keyboard-response","111","344739","0.0-64.0-1.0","""event"",""trial"",""time""
""fullscreenenter"",""0"",""1577""
","
","
","""event"",""trial"",""time""
""fullscreenenter"",""0"",""1577""
","
","null","<p></p>","null","","","","","","","","","","","","","","","","","","","","","","","",""
"","do_trial","112","348123","0.0-65.0-0.0","""event"",""trial"",""time""
""fullscreenenter"",""0"",""1577""
","
","
","""event"",""trial"",""time""
""fullscreenenter"",""0"",""1577""
","
","834.7000000029802","","","","","","","","49","0,0,0","6","blank","276","null","0.4354296107490863","0.20619466084305982","0.07503223674780606","0","","","","","","","","",""
"","html-keyboard-response","113","349126","0.0-65.0-1.0","""event"",""trial"",""time""
""fullscreenenter"",""0"",""1577""
","
","
","""event"",""trial"",""time""
""fullscreenenter"",""0"",""1577""
","
","null","<p></p>","null","","","","","","","","","","","","","","","","","","","","","","","",""
"","do_recog","114","352037","0.0-66.0-0.0","""event"",""trial"",""time""
""fullscreenenter"",""0"",""1577""
","
","
","""event"",""trial"",""time""
""fullscreenenter"",""0"",""1577""
","
","1400.2000000029802","","","","","","","","56","","","","277","probe-103","","","","","1","[object Object]","113","2","0","","","",""
"","html-keyboard-response","115","353039","0.0-66.0-1.0","""event"",""trial"",""time""
""fullscreenenter"",""0"",""1577""
","
","
","""event"",""trial"",""time""
""fullscreenenter"",""0"",""1577""
","
","null","<p></p>","null","","","","","","","","","","","","","","","","","","","","","","","",""
"","do_trial","116","356329","0.0-67.0-0.0","""event"",""trial"",""time""
""fullscreenenter"",""0"",""1577""
","
","
","""event"",""trial"",""time""
""fullscreenenter"",""0"",""1577""
","
","740.8999999910593","","","","","","","","50","1,0,0","6","blank","278","null","0.5554846572452874","0.21593679446181824","0.06578427927041645","0","","","","","","","","",""
"","html-keyboard-response","117","357332","0.0-67.0-1.0","""event"",""trial"",""time""
""fullscreenenter"",""0"",""1577""
","
","
","""event"",""trial"",""time""
""fullscreenenter"",""0"",""1577""
","
","null","<p></p>","null","","","","","","","","","","","","","","","","","","","","","","","",""
"","do_trial","118","360293","0.0-68.0-0.0","""event"",""trial"",""time""
""fullscreenenter"",""0"",""1577""
","
","
","""event"",""trial"",""time""
""fullscreenenter"",""0"",""1577""
","
","408.70000000298023","","","","","","","","50","0,0,0","6","blank","279","null","0.5925521417260347","0.3212638272700593","0.087553190008299","0","","","","","","","","",""
"","html-keyboard-response","119","361296","0.0-68.0-1.0","""event"",""trial"",""time""
""fullscreenenter"",""0"",""1577""
","
","
","""event"",""trial"",""time""
""fullscreenenter"",""0"",""1577""
","
","null","<p></p>","null","","","","","","","","","","","","","","","","","","","","","","","",""
"","do_trial","120","364066","0.0-69.0-0.0","""event"",""trial"",""time""
""fullscreenenter"",""0"",""1577""
","
","
","""event"",""trial"",""time""
""fullscreenenter"",""0"",""1577""
","
","217.3999999910593","","","","","","","","50","1,0,0","6","blank","280","null","0.7473818037641475","0.24222197922132904","0.1224724504631476","0","","","","","","","","",""
"","html-keyboard-response","121","365068","0.0-69.0-1.0","""event"",""trial"",""time""
""fullscreenenter"",""0"",""1577""
","
","
","""event"",""trial"",""time""
""fullscreenenter"",""0"",""1577""
","
","null","<p></p>","null","","","","","","","","","","","","","","","","","","","","","","","",""
"","do_trial","122","367917","0.0-70.0-0.0","""event"",""trial"",""time""
""fullscreenenter"",""0"",""1577""
","
","
","""event"",""trial"",""time""
""fullscreenenter"",""0"",""1577""
","
","298.70000000298023","","","","","","","","50","1,0,0","6","blank","281","null","0.5713056000278361","0.19434693003172704","0.10273996651445741","0","","","","","","","","",""
"","html-keyboard-response","123","368919","0.0-70.0-1.0","""event"",""trial"",""time""
""fullscreenenter"",""0"",""1577""
","
","
","""event"",""trial"",""time""
""fullscreenenter"",""0"",""1577""
","
","null","<p></p>","null","","","","","","","","","","","","","","","","","","","","","","","",""
"","do_recog","124","372182","0.0-71.0-0.0","""event"",""trial"",""time""
""fullscreenenter"",""0"",""1577""
","
","
","""event"",""trial"",""time""
""fullscreenenter"",""0"",""1577""
","
","1753.1000000089407","","","","","","","","53","","","","282","probe-10","","","","","1","[object Object]","34","0","1","","","",""
"","html-keyboard-response","125","373187","0.0-71.0-1.0","""event"",""trial"",""time""
""fullscreenenter"",""0"",""1577""
","
","
","""event"",""trial"",""time""
""fullscreenenter"",""0"",""1577""
","
","null","<p></p>","null","","","","","","","","","","","","","","","","","","","","","","","",""
"","do_trial","126","376522","0.0-72.0-0.0","""event"",""trial"",""time""
""fullscreenenter"",""0"",""1577""
","
","
","""event"",""trial"",""time""
""fullscreenenter"",""0"",""1577""
","
","784.2000000029802","","","","","","","","49","1,0,0","6","blank","283","null","0.7647576101290834","0.35275635042714654","0.06883751044475482","1","","","","","","","","",""
"","html-keyboard-response","127","377523","0.0-72.0-1.0","""event"",""trial"",""time""
""fullscreenenter"",""0"",""1577""
","
","
","""event"",""trial"",""time""
""fullscreenenter"",""0"",""1577""
","
","null","<p></p>","null","","","","","","","","","","","","","","","","","","","","","","","",""
"","do_trial","128","380381","0.0-73.0-0.0","""event"",""trial"",""time""
""fullscreenenter"",""0"",""1577""
","
","
","""event"",""trial"",""time""
""fullscreenenter"",""0"",""1577""
","
","305.29999999701977","","","","","","","","49","1,0,0","6","blank","284","null","0.7525994672159901","0.4356519465120154","0.08687357790189737","1","","","","","","","","",""
"","html-keyboard-response","129","381384","0.0-73.0-1.0","""event"",""trial"",""time""
""fullscreenenter"",""0"",""1577""
","
","
","""event"",""trial"",""time""
""fullscreenenter"",""0"",""1577""
","
","null","<p></p>","null","","","","","","","","","","","","","","","","","","","","","","","",""
"","do_recog","130","384119","0.0-74.0-0.0","""event"",""trial"",""time""
""fullscreenenter"",""0"",""1577""
","
","
","""event"",""trial"",""time""
""fullscreenenter"",""0"",""1577""
","
","1226.5999999940395","","","","","","","","56","","","","285","probe-201","","","","","1","[object Object]","192","4","0","","","",""
"","html-keyboard-response","131","385121","0.0-74.0-1.0","""event"",""trial"",""time""
""fullscreenenter"",""0"",""1577""
","
","
","""event"",""trial"",""time""
""fullscreenenter"",""0"",""1577""
","
","null","<p></p>","null","","","","","","","","","","","","","","","","","","","","","","","",""
"","do_trial","132","388048","0.0-75.0-0.0","""event"",""trial"",""time""
""fullscreenenter"",""0"",""1577""
","
","
","""event"",""trial"",""time""
""fullscreenenter"",""0"",""1577""
","
","382.3999999910593","","","","","","","","49","1,0,0","6","blank","286","null","0.6398663695084127","0.5777450283147606","0.15147989585277385","1","","","","","","","","",""
"","html-keyboard-response","133","389051","0.0-75.0-1.0","""event"",""trial"",""time""
""fullscreenenter"",""0"",""1577""
","
","
","""event"",""trial"",""time""
""fullscreenenter"",""0"",""1577""
","
","null","<p></p>","null","","","","","","","","","","","","","","","","","","","","","","","",""
"","do_recog","134","392427","0.0-76.0-0.0","""event"",""trial"",""time""
""fullscreenenter"",""0"",""1577""
","
","
","""event"",""trial"",""time""
""fullscreenenter"",""0"",""1577""
","
","1867.3999999910593","","","","","","","","53","","","","287","probe-72","","","","","1","[object Object]","157","3","1","","","",""
"","html-keyboard-response","135","393429","0.0-76.0-1.0","""event"",""trial"",""time""
""fullscreenenter"",""0"",""1577""
","
","
","""event"",""trial"",""time""
""fullscreenenter"",""0"",""1577""
","
","null","<p></p>","null","","","","","","","","","","","","","","","","","","","","","","","",""
"","do_trial","136","396575","0.0-77.0-0.0","""event"",""trial"",""time""
""fullscreenenter"",""0"",""1577""
","
","
","""event"",""trial"",""time""
""fullscreenenter"",""0"",""1577""
","
","597.2000000029802","","","","","","","","49","1,1,1","6","blank","288","null","0.6021621925552536","0.4571781919589619","0.19367628945075088","1","","","","","","","","",""
"","html-keyboard-response","137","397578","0.0-77.0-1.0","""event"",""trial"",""time""
""fullscreenenter"",""0"",""1577""
","
","
","""event"",""trial"",""time""
""fullscreenenter"",""0"",""1577""
","
","null","<p></p>","null","","","","","","","","","","","","","","","","","","","","","","","",""
"","do_trial","138","400391","0.0-78.0-0.0","""event"",""trial"",""time""
""fullscreenenter"",""0"",""1577""
","
","
","""event"",""trial"",""time""
""fullscreenenter"",""0"",""1577""
","
","267.3999999910593","","","","","","","","49","1,1,0","6","blank","289","null","0.6858037462533103","0.3692523835969954","0.10857317277260144","1","","","","","","","","",""
"","html-keyboard-response","139","401394","0.0-78.0-1.0","""event"",""trial"",""time""
""fullscreenenter"",""0"",""1577""
","
","
","""event"",""trial"",""time""
""fullscreenenter"",""0"",""1577""
","
","null","<p></p>","null","","","","","","","","","","","","","","","","","","","","","","","",""
"","do_trial","140","404325","0.0-79.0-0.0","""event"",""trial"",""time""
""fullscreenenter"",""0"",""1577""
","
","
","""event"",""trial"",""time""
""fullscreenenter"",""0"",""1577""
","
","380.79999999701977","","","","","","","","49","0,1,0","6","blank","290","null","0.789062106890144","0.3202147697462471","0.10539965563917403","0","","","","","","","","",""
"","html-keyboard-response","141","405327","0.0-79.0-1.0","""event"",""trial"",""time""
""fullscreenenter"",""0"",""1577""
","
","
","""event"",""trial"",""time""
""fullscreenenter"",""0"",""1577""
","
","null","<p></p>","null","","","","","","","","","","","","","","","","","","","","","","","",""
"","do_trial","142","408212","0.0-80.0-0.0","""event"",""trial"",""time""
""fullscreenenter"",""0"",""1577""
","
","
","""event"",""trial"",""time""
""fullscreenenter"",""0"",""1577""
","
","334.5","","","","","","","","49","1,1,1","6","blank","291","null","0.7152852485806794","0.455628014063397","0.0593848492757767","1","","","","","","","","",""
"","html-keyboard-response","143","409214","0.0-80.0-1.0","""event"",""trial"",""time""
""fullscreenenter"",""0"",""1577""
","
","
","""event"",""trial"",""time""
""fullscreenenter"",""0"",""1577""
","
","null","<p></p>","null","","","","","","","","","","","","","","","","","","","","","","","",""
"","do_recog","144","412803","0.0-81.0-0.0","""event"",""trial"",""time""
""fullscreenenter"",""0"",""1577""
","
","
","""event"",""trial"",""time""
""fullscreenenter"",""0"",""1577""
","
","2080.5","","","","","","","","55","","","","292","probe-03","","","","","1","[object Object]","77","1","0","","","",""
"","html-keyboard-response","145","413806","0.0-81.0-1.0","""event"",""trial"",""time""
""fullscreenenter"",""0"",""1577""
","
","
","""event"",""trial"",""time""
""fullscreenenter"",""0"",""1577""
","
","null","<p></p>","null","","","","","","","","","","","","","","","","","","","","","","","",""
"","do_trial","146","416742","0.0-82.0-0.0","""event"",""trial"",""time""
""fullscreenenter"",""0"",""1577""
","
","
","""event"",""trial"",""time""
""fullscreenenter"",""0"",""1577""
","
","383.79999999701977","","","","","","","","49","1,0,0","6","blank","293","null","0.7758708606770433","0.355014555080012","0.09363129891396214","1","","","","","","","","",""
"","html-keyboard-response","147","417744","0.0-82.0-1.0","""event"",""trial"",""time""
""fullscreenenter"",""0"",""1577""
","
","
","""event"",""trial"",""time""
""fullscreenenter"",""0"",""1577""
","
","null","<p></p>","null","","","","","","","","","","","","","","","","","","","","","","","",""
"","do_trial","148","420520","0.0-83.0-0.0","""event"",""trial"",""time""
""fullscreenenter"",""0"",""1577""
","
","
","""event"",""trial"",""time""
""fullscreenenter"",""0"",""1577""
","
","225.79999999701977","","","","","","","","49","1,0,1","6","blank","294","null","0.7306949234303934","0.3404064985736613","0.2536981318058968","1","","","","","","","","",""
"","html-keyboard-response","149","421522","0.0-83.0-1.0","""event"",""trial"",""time""
""fullscreenenter"",""0"",""1577""
","
","
","""event"",""trial"",""time""
""fullscreenenter"",""0"",""1577""
","
","null","<p></p>","null","","","","","","","","","","","","","","","","","","","","","","","",""
"","do_recog","150","424531","0.0-84.0-0.0","""event"",""trial"",""time""
""fullscreenenter"",""0"",""1577""
","
","
","""event"",""trial"",""time""
""fullscreenenter"",""0"",""1577""
","
","1500.5","","","","","","","","53","","","","295","probe-191","","","","","1","[object Object]","71","1","1","","","",""
"","html-keyboard-response","151","425533","0.0-84.0-1.0","""event"",""trial"",""time""
""fullscreenenter"",""0"",""1577""
","
","
","""event"",""trial"",""time""
""fullscreenenter"",""0"",""1577""
","
","null","<p></p>","null","","","","","","","","","","","","","","","","","","","","","","","",""
"","do_trial","152","428574","0.0-85.0-0.0","""event"",""trial"",""time""
""fullscreenenter"",""0"",""1577""
","
","
","""event"",""trial"",""time""
""fullscreenenter"",""0"",""1577""
","
","490.79999999701977","","","","","","","","49","1,0,0","6","blank","296","null","0.7947049254391719","0.2690805264722099","0.3838991588986066","1","","","","","","","","",""
"","html-keyboard-response","153","429577","0.0-85.0-1.0","""event"",""trial"",""time""
""fullscreenenter"",""0"",""1577""
","
","
","""event"",""trial"",""time""
""fullscreenenter"",""0"",""1577""
","
","null","<p></p>","null","","","","","","","","","","","","","","","","","","","","","","","",""
"","do_trial","154","432520","0.0-86.0-0.0","""event"",""trial"",""time""
""fullscreenenter"",""0"",""1577""
","
","
","""event"",""trial"",""time""
""fullscreenenter"",""0"",""1577""
","
","391.40000000596046","","","","","","","","49","0,0,0","6","blank","297","null","0.7520303385188974","0.21954882428296527","0.3308444924618567","0","","","","","","","","",""
"","html-keyboard-response","155","433521","0.0-86.0-1.0","""event"",""trial"",""time""
""fullscreenenter"",""0"",""1577""
","
","
","""event"",""trial"",""time""
""fullscreenenter"",""0"",""1577""
","
","null","<p></p>","null","","","","","","","","","","","","","","","","","","","","","","","",""
"","do_trial","156","436413","0.0-87.0-0.0","""event"",""trial"",""time""
""fullscreenenter"",""0"",""1577""
","
","
","""event"",""trial"",""time""
""fullscreenenter"",""0"",""1577""
","
","341","","","","","","","","49","0,0,0","6","blank","298","null","0.3561463821265015","0.368211421487611","0.3684612918819032","0","","","","","","","","",""
"","html-keyboard-response","157","437416","0.0-87.0-1.0","""event"",""trial"",""time""
""fullscreenenter"",""0"",""1577""
","
","
","""event"",""trial"",""time""
""fullscreenenter"",""0"",""1577""
","
","null","<p></p>","null","","","","","","","","","","","","","","","","","","","","","","","",""
"","do_trial","158","440272","0.0-88.0-0.0","""event"",""trial"",""time""
""fullscreenenter"",""0"",""1577""
","
","
","""event"",""trial"",""time""
""fullscreenenter"",""0"",""1577""
","
","305.5","","","","","","","","49","0,0,0","6","blank","299","null","0.33820168414204005","0.4863672457929254","0.2554557218293051","0","","","","","","","","",""
"","html-keyboard-response","159","441274","0.0-88.0-1.0","""event"",""trial"",""time""
""fullscreenenter"",""0"",""1577""
","
","
","""event"",""trial"",""time""
""fullscreenenter"",""0"",""1577""
","
","null","<p></p>","null","","","","","","","","","","","","","","","","","","","","","","","",""
"","do_trial","160","444146","0.0-89.0-0.0","""event"",""trial"",""time""
""fullscreenenter"",""0"",""1577""
","
","
","""event"",""trial"",""time""
""fullscreenenter"",""0"",""1577""
","
","328.8999999910593","","","","","","","","50","0,1,0","6","blank","300","null","0.2579466278143705","0.5366611084064871","0.20318903076759218","1","","","","","","","","",""
"","html-keyboard-response","161","445148","0.0-89.0-1.0","""event"",""trial"",""time""
""fullscreenenter"",""0"",""1577""
","
","
","""event"",""trial"",""time""
""fullscreenenter"",""0"",""1577""
","
","null","<p></p>","null","","","","","","","","","","","","","","","","","","","","","","","",""
"","do_trial","162","447969","0.0-90.0-0.0","""event"",""trial"",""time""
""fullscreenenter"",""0"",""1577""
","
","
","""event"",""trial"",""time""
""fullscreenenter"",""0"",""1577""
","
","269.5","","","","","","","","50","0,1,0","6","blank","301","null","0.3432507443149451","0.5669724253075027","0.2909953774158823","1","","","","","","","","",""
"","html-keyboard-response","163","448971","0.0-90.0-1.0","""event"",""trial"",""time""
""fullscreenenter"",""0"",""1577""
","
","
","""event"",""trial"",""time""
""fullscreenenter"",""0"",""1577""
","
","null","<p></p>","null","","","","","","","","","","","","","","","","","","","","","","","",""
"","do_trial","164","451881","0.0-91.0-0.0","""event"",""trial"",""time""
""fullscreenenter"",""0"",""1577""
","
","
","""event"",""trial"",""time""
""fullscreenenter"",""0"",""1577""
","
","356","","","","","","","","50","1,0,0","6","blank","302","null","0.3143740934316751","0.42423574866470354","0.31879759132617025","0","","","","","","","","",""
"","html-keyboard-response","165","452884","0.0-91.0-1.0","""event"",""trial"",""time""
""fullscreenenter"",""0"",""1577""
","
","
","""event"",""trial"",""time""
""fullscreenenter"",""0"",""1577""
","
","null","<p></p>","null","","","","","","","","","","","","","","","","","","","","","","","",""
"","do_recog","166","456238","0.0-92.0-0.0","""event"",""trial"",""time""
""fullscreenenter"",""0"",""1577""
","
","
","""event"",""trial"",""time""
""fullscreenenter"",""0"",""1577""
","
","1846.4000000059605","","","","","","","","55","","","","303","probe-177","","","","","1","[object Object]","116","2","0","","","",""
"","html-keyboard-response","167","457241","0.0-92.0-1.0","""event"",""trial"",""time""
""fullscreenenter"",""0"",""1577""
","
","
","""event"",""trial"",""time""
""fullscreenenter"",""0"",""1577""
","
","null","<p></p>","null","","","","","","","","","","","","","","","","","","","","","","","",""
"","do_trial","168","460723","0.0-93.0-0.0","""event"",""trial"",""time""
""fullscreenenter"",""0"",""1577""
","
","
","""event"",""trial"",""time""
""fullscreenenter"",""0"",""1577""
","
","932.6000000089407","","","","","","","","50","0,1,0","6","blank","304","null","0.20421414169776841","0.5746293838810999","0.2145360237621923","1","","","","","","","","",""
"","html-keyboard-response","169","461725","0.0-93.0-1.0","""event"",""trial"",""time""
""fullscreenenter"",""0"",""1577""
","
","
","""event"",""trial"",""time""
""fullscreenenter"",""0"",""1577""
","
","null","<p></p>","null","","","","","","","","","","","","","","","","","","","","","","","",""
"","do_recog","170","464591","0.0-94.0-0.0","""event"",""trial"",""time""
""fullscreenenter"",""0"",""1577""
","
","
","""event"",""trial"",""time""
""fullscreenenter"",""0"",""1577""
","
","1356.3999999910593","","","","","","","","56","","","","305","probe-252","","","","","0","[object Object]","null","null","1","","","",""
"","html-keyboard-response","171","465593","0.0-94.0-1.0","""event"",""trial"",""time""
""fullscreenenter"",""0"",""1577""
","
","
","""event"",""trial"",""time""
""fullscreenenter"",""0"",""1577""
","
","null","<p></p>","null","","","","","","","","","","","","","","","","","","","","","","","",""
"","do_trial","172","469012","0.0-95.0-0.0","""event"",""trial"",""time""
""fullscreenenter"",""0"",""1577""
","
","
","""event"",""trial"",""time""
""fullscreenenter"",""0"",""1577""
","
","869.5","","","","","","","","51","1,1,1","6","blank","306","null","0.2731488173729026","0.7096866269657693","0.2720631750903974","1","","","","","","","","",""
"","html-keyboard-response","173","470015","0.0-95.0-1.0","""event"",""trial"",""time""
""fullscreenenter"",""0"",""1577""
","
","
","""event"",""trial"",""time""
""fullscreenenter"",""0"",""1577""
","
","null","<p></p>","null","","","","","","","","","","","","","","","","","","","","","","","",""
"","do_recog","174","473441","0.0-96.0-0.0","""event"",""trial"",""time""
""fullscreenenter"",""0"",""1577""
","
","
","""event"",""trial"",""time""
""fullscreenenter"",""0"",""1577""
","
","1917.9000000059605","","","","","","","","55","","","","307","probe-107","","","","","1","[object Object]","112","2","0","","","",""
"","html-keyboard-response","175","474444","0.0-96.0-1.0","""event"",""trial"",""time""
""fullscreenenter"",""0"",""1577""
","
","
","""event"",""trial"",""time""
""fullscreenenter"",""0"",""1577""
","
","null","<p></p>","null","","","","","","","","","","","","","","","","","","","","","","","",""
"","do_trial","176","477515","0.0-97.0-0.0","""event"",""trial"",""time""
""fullscreenenter"",""0"",""1577""
","
","
","""event"",""trial"",""time""
""fullscreenenter"",""0"",""1577""
","
","519.4000000059605","","","","","","","","51","1,0,0","6","blank","308","null","0.37382167224916446","0.7299179599077426","0.3023689753512593","0","","","","","","","","",""
"","html-keyboard-response","177","478518","0.0-97.0-1.0","""event"",""trial"",""time""
""fullscreenenter"",""0"",""1577""
","
","
","""event"",""trial"",""time""
""fullscreenenter"",""0"",""1577""
","
","null","<p></p>","null","","","","","","","","","","","","","","","","","","","","","","","",""
"","break","178","479337","0.0-98.0-0.0","""event"",""trial"",""time""
""fullscreenenter"",""0"",""1577""
","
","
","""event"",""trial"",""time""
""fullscreenenter"",""0"",""1577""
","
","818","<div class='center'><p>Time to take a quick break! You have 2 minutes to rest, but you can move on sooner if you'd like.</p><p> Press the <b>space bar</b> to continue.</p></div>","32","","","","","","","","","","","","","","","","","","","","","","","",""
"","do_trial","179","482492","0.0-98.0-1.0","""event"",""trial"",""time""
""fullscreenenter"",""0"",""1577""
","
","
","""event"",""trial"",""time""
""fullscreenenter"",""0"",""1577""
","
","606.8999999910593","","","","","","","","50","0,1,1","6","blank","309","null","0.31574878021889774","0.7701009578136069","0.31429258528746823","1","","","","","","","","",""
"","html-keyboard-response","180","483495","0.0-98.0-2.0","""event"",""trial"",""time""
""fullscreenenter"",""0"",""1577""
","
","
","""event"",""trial"",""time""
""fullscreenenter"",""0"",""1577""
","
","null","<p></p>","null","","","","","","","","","","","","","","","","","","","","","","","",""
"","do_trial","181","486368","0.0-99.0-0.0","""event"",""trial"",""time""
""fullscreenenter"",""0"",""1577""
","
","
","""event"",""trial"",""time""
""fullscreenenter"",""0"",""1577""
","
","321.40000000596046","","","","","","","","50","0,1,0","6","blank","310","null","0.24818147388555495","0.7023912717428464","0.1943447955859465","1","","","","","","","","",""
"","html-keyboard-response","182","487371","0.0-99.0-1.0","""event"",""trial"",""time""
""fullscreenenter"",""0"",""1577""
","
","
","""event"",""trial"",""time""
""fullscreenenter"",""0"",""1577""
","
","null","<p></p>","null","","","","","","","","","","","","","","","","","","","","","","","",""
"","do_trial","183","490150","0.0-100.0-0.0","""event"",""trial"",""time""
""fullscreenenter"",""0"",""1577""
","
","
","""event"",""trial"",""time""
""fullscreenenter"",""0"",""1577""
","
","227.70000000298023","","","","","","","","50","0,1,1","6","blank","311","null","0.16672819349582166","0.7395838414653944","0.35312062942013484","1","","","","","","","","",""
"","html-keyboard-response","184","491152","0.0-100.0-1.0","""event"",""trial"",""time""
""fullscreenenter"",""0"",""1577""
","
","
","""event"",""trial"",""time""
""fullscreenenter"",""0"",""1577""
","
","null","<p></p>","null","","","","","","","","","","","","","","","","","","","","","","","",""
"","do_trial","185","494035","0.0-101.0-0.0","""event"",""trial"",""time""
""fullscreenenter"",""0"",""1577""
","
","
","""event"",""trial"",""time""
""fullscreenenter"",""0"",""1577""
","
","333.59999999403954","","","","","","","","50","0,1,0","6","blank","312","null","0.14507206212420853","0.5623005577308888","0.33876521605014115","1","","","","","","","","",""
"","html-keyboard-response","186","495038","0.0-101.0-1.0","""event"",""trial"",""time""
""fullscreenenter"",""0"",""1577""
","
","
","""event"",""trial"",""time""
""fullscreenenter"",""0"",""1577""
","
","null","<p></p>","null","","","","","","","","","","","","","","","","","","","","","","","",""
"","do_trial","187","498012","0.0-102.0-0.0","""event"",""trial"",""time""
""fullscreenenter"",""0"",""1577""
","
","
","""event"",""trial"",""time""
""fullscreenenter"",""0"",""1577""
","
","423.5","","","","","","","","50","0,0,0","6","blank","313","null","0.16700631761307985","0.5744667294110806","0.26167062132218855","0","","","","","","","","",""
"","html-keyboard-response","188","499014","0.0-102.0-1.0","""event"",""trial"",""time""
""fullscreenenter"",""0"",""1577""
","
","
","""event"",""trial"",""time""
""fullscreenenter"",""0"",""1577""
","
","null","<p></p>","null","","","","","","","","","","","","","","","","","","","","","","","",""
"","do_trial","189","502083","0.0-103.0-0.0","""event"",""trial"",""time""
""fullscreenenter"",""0"",""1577""
","
","
","""event"",""trial"",""time""
""fullscreenenter"",""0"",""1577""
","
","518.5999999940395","","","","","","","","50","0,1,0","6","blank","314","null","0.24928467991402875","0.6277595871446447","0.17143942527350778","1","","","","","","","","",""
"","html-keyboard-response","190","503084","0.0-103.0-1.0","""event"",""trial"",""time""
""fullscreenenter"",""0"",""1577""
","
","
","""event"",""trial"",""time""
""fullscreenenter"",""0"",""1577""
","
","null","<p></p>","null","","","","","","","","","","","","","","","","","","","","","","","",""
"","do_recog","191","506059","0.0-104.0-0.0","""event"",""trial"",""time""
""fullscreenenter"",""0"",""1577""
","
","
","""event"",""trial"",""time""
""fullscreenenter"",""0"",""1577""
","
","1466.4000000059605","","","","","","","","56","","","","315","probe-232","","","","","0","[object Object]","null","null","1","","","",""
"","html-keyboard-response","192","507061","0.0-104.0-1.0","""event"",""trial"",""time""
""fullscreenenter"",""0"",""1577""
","
","
","""event"",""trial"",""time""
""fullscreenenter"",""0"",""1577""
","
","null","<p></p>","null","","","","","","","","","","","","","","","","","","","","","","","",""
"","do_trial","193","510278","0.0-105.0-0.0","""event"",""trial"",""time""
""fullscreenenter"",""0"",""1577""
","
","
","""event"",""trial"",""time""
""fullscreenenter"",""0"",""1577""
","
","664.1999999880791","","","","","","","","50","1,0,1","6","blank","316","null","0.3372664857710197","0.5237191672225738","0.2911166703596742","0","","","","","","","","",""
"","html-keyboard-response","194","511280","0.0-105.0-1.0","""event"",""trial"",""time""
""fullscreenenter"",""0"",""1577""
","
","
","""event"",""trial"",""time""
""fullscreenenter"",""0"",""1577""
","
","null","<p></p>","null","","","","","","","","","","","","","","","","","","","","","","","",""
"","do_trial","195","514687","0.0-106.0-0.0","""event"",""trial"",""time""
""fullscreenenter"",""0"",""1577""
","
","
","""event"",""trial"",""time""
""fullscreenenter"",""0"",""1577""
","
","855.7999999970198","","","","","","","","51","0,0,1","6","blank","317","null","0.254711551067746","0.4870402846779691","0.16036883553693415","1","","","","","","","","",""
"","html-keyboard-response","196","515689","0.0-106.0-1.0","""event"",""trial"",""time""
""fullscreenenter"",""0"",""1577""
","
","
","""event"",""trial"",""time""
""fullscreenenter"",""0"",""1577""
","
","null","<p></p>","null","","","","","","","","","","","","","","","","","","","","","","","",""
"","do_trial","197","518624","0.0-107.0-0.0","""event"",""trial"",""time""
""fullscreenenter"",""0"",""1577""
","
","
","""event"",""trial"",""time""
""fullscreenenter"",""0"",""1577""
","
","384.40000000596046","","","","","","","","51","0,1,0","6","blank","318","null","0.11636685544381319","0.46882327942802293","0.26502557894746703","0","","","","","","","","",""
"","html-keyboard-response","198","519626","0.0-107.0-1.0","""event"",""trial"",""time""
""fullscreenenter"",""0"",""1577""
","
","
","""event"",""trial"",""time""
""fullscreenenter"",""0"",""1577""
","
","null","<p></p>","null","","","","","","","","","","","","","","","","","","","","","","","",""
"","do_recog","199","523331","0.0-108.0-0.0","""event"",""trial"",""time""
""fullscreenenter"",""0"",""1577""
","
","
","""event"",""trial"",""time""
""fullscreenenter"",""0"",""1577""
","
","2196","","","","","","","","53","","","","319","probe-81","","","","","1","[object Object]","33","0","1","","","",""
"","html-keyboard-response","200","524333","0.0-108.0-1.0","""event"",""trial"",""time""
""fullscreenenter"",""0"",""1577""
","
","
","""event"",""trial"",""time""
""fullscreenenter"",""0"",""1577""
","
","null","<p></p>","null","","","","","","","","","","","","","","","","","","","","","","","",""
"","do_trial","201","527615","0.0-109.0-0.0","""event"",""trial"",""time""
""fullscreenenter"",""0"",""1577""
","
","
","""event"",""trial"",""time""
""fullscreenenter"",""0"",""1577""
","
","731.2000000029802","","","","","","","","49","0,0,0","6","blank","320","null","0.21855139797356196","0.3396264210624115","0.21981968150071013","0","","","","","","","","",""
"","html-keyboard-response","202","528618","0.0-109.0-1.0","""event"",""trial"",""time""
""fullscreenenter"",""0"",""1577""
","
","
","""event"",""trial"",""time""
""fullscreenenter"",""0"",""1577""
","
","null","<p></p>","null","","","","","","","","","","","","","","","","","","","","","","","",""
"","do_trial","203","531567","0.0-110.0-0.0","""event"",""trial"",""time""
""fullscreenenter"",""0"",""1577""
","
","
","""event"",""trial"",""time""
""fullscreenenter"",""0"",""1577""
","
","399.29999999701977","","","","","","","","51","1,1,0","6","blank","321","null","0.19558070691363194","0.5690610430615342","0.16164625051805673","0","","","","","","","","",""
"","html-keyboard-response","204","532569","0.0-110.0-1.0","""event"",""trial"",""time""
""fullscreenenter"",""0"",""1577""
","
","
","""event"",""trial"",""time""
""fullscreenenter"",""0"",""1577""
","
","null","<p></p>","null","","","","","","","","","","","","","","","","","","","","","","","",""
"","do_trial","205","535359","0.0-111.0-0.0","""event"",""trial"",""time""
""fullscreenenter"",""0"",""1577""
","
","
","""event"",""trial"",""time""
""fullscreenenter"",""0"",""1577""
","
","243.29999999701977","","","","","","","","50","1,1,0","6","blank","322","null","0.22759033191664663","0.6113118086431031","0.19695331155878673","1","","","","","","","","",""
"","html-keyboard-response","206","536361","0.0-111.0-1.0","""event"",""trial"",""time""
""fullscreenenter"",""0"",""1577""
","
","
","""event"",""trial"",""time""
""fullscreenenter"",""0"",""1577""
","
","null","<p></p>","null","","","","","","","","","","","","","","","","","","","","","","","",""
"","do_trial","207","539142","0.0-112.0-0.0","""event"",""trial"",""time""
""fullscreenenter"",""0"",""1577""
","
","
","""event"",""trial"",""time""
""fullscreenenter"",""0"",""1577""
","
","231.1000000089407","","","","","","","","50","1,0,0","6","blank","323","null","0.32279097156653114","0.6307968791490675","0.2695504230801622","0","","","","","","","","",""
"","html-keyboard-response","208","540144","0.0-112.0-1.0","""event"",""trial"",""time""
""fullscreenenter"",""0"",""1577""
","
","
","""event"",""trial"",""time""
""fullscreenenter"",""0"",""1577""
","
","null","<p></p>","null","","","","","","","","","","","","","","","","","","","","","","","",""
"","do_trial","209","542972","0.0-113.0-0.0","""event"",""trial"",""time""
""fullscreenenter"",""0"",""1577""
","
","
","""event"",""trial"",""time""
""fullscreenenter"",""0"",""1577""
","
","277.79999999701977","","","","","","","","50","0,1,1","6","blank","324","null","0.2016815862475343","0.6742585680517672","0.28003075763173174","1","","","","","","","","",""
"","html-keyboard-response","210","543975","0.0-113.0-1.0","""event"",""trial"",""time""
""fullscreenenter"",""0"",""1577""
","
","
","""event"",""trial"",""time""
""fullscreenenter"",""0"",""1577""
","
","null","<p></p>","null","","","","","","","","","","","","","","","","","","","","","","","",""
"","do_recog","211","547657","0.0-114.0-0.0","""event"",""trial"",""time""
""fullscreenenter"",""0"",""1577""
","
","
","""event"",""trial"",""time""
""fullscreenenter"",""0"",""1577""
","
","2173.7000000029802","","","","","","","","55","","","","325","probe-98","","","","","1","[object Object]","151","3","0","","","",""
"","html-keyboard-response","212","548661","0.0-114.0-1.0","""event"",""trial"",""time""
""fullscreenenter"",""0"",""1577""
","
","
","""event"",""trial"",""time""
""fullscreenenter"",""0"",""1577""
","
","null","<p></p>","null","","","","","","","","","","","","","","","","","","","","","","","",""
"","do_trial","213","551958","0.0-115.0-0.0","""event"",""trial"",""time""
""fullscreenenter"",""0"",""1577""
","
","
","""event"",""trial"",""time""
""fullscreenenter"",""0"",""1577""
","
","746","","","","","","","","50","0,1,1","6","blank","326","null","0.11007034500209564","0.6620026022131813","0.3953823777512584","1","","","","","","","","",""
"","html-keyboard-response","214","552960","0.0-115.0-1.0","""event"",""trial"",""time""
""fullscreenenter"",""0"",""1577""
","
","
","""event"",""trial"",""time""
""fullscreenenter"",""0"",""1577""
","
","null","<p></p>","null","","","","","","","","","","","","","","","","","","","","","","","",""
"","do_trial","215","556475","0.0-116.0-0.0","""event"",""trial"",""time""
""fullscreenenter"",""0"",""1577""
","
","
","""event"",""trial"",""time""
""fullscreenenter"",""0"",""1577""
","
","964.5","","","","","","","","50","0,1,0","6","blank","327","null","0.18985869783420228","0.6637057113210255","0.29287064532003493","1","","","","","","","","",""
"","html-keyboard-response","216","557478","0.0-116.0-1.0","""event"",""trial"",""time""
""fullscreenenter"",""0"",""1577""
","
","
","""event"",""trial"",""time""
""fullscreenenter"",""0"",""1577""
","
","null","<p></p>","null","","","","","","","","","","","","","","","","","","","","","","","",""
"","do_trial","217","560503","0.0-117.0-0.0","""event"",""trial"",""time""
""fullscreenenter"",""0"",""1577""
","
","
","""event"",""trial"",""time""
""fullscreenenter"",""0"",""1577""
","
","471.3999999910593","","","","","","","","50","1,1,0","6","blank","328","null","0.25331602408123116","0.5672387882046485","0.06771666411826577","1","","","","","","","","",""
"","html-keyboard-response","218","561506","0.0-117.0-1.0","""event"",""trial"",""time""
""fullscreenenter"",""0"",""1577""
","
","
","""event"",""trial"",""time""
""fullscreenenter"",""0"",""1577""
","
","null","<p></p>","null","","","","","","","","","","","","","","","","","","","","","","","",""
"","do_recog","219","564801","0.0-118.0-0.0","""event"",""trial"",""time""
""fullscreenenter"",""0"",""1577""
","
","
","""event"",""trial"",""time""
""fullscreenenter"",""0"",""1577""
","
","1785.7999999970198","","","","","","","","55","","","","329","probe-245","","","","","0","[object Object]","null","null","1","","","",""
"","html-keyboard-response","220","565803","0.0-118.0-1.0","""event"",""trial"",""time""
""fullscreenenter"",""0"",""1577""
","
","
","""event"",""trial"",""time""
""fullscreenenter"",""0"",""1577""
","
","null","<p></p>","null","","","","","","","","","","","","","","","","","","","","","","","",""
"","do_trial","221","569128","0.0-119.0-0.0","""event"",""trial"",""time""
""fullscreenenter"",""0"",""1577""
","
","
","""event"",""trial"",""time""
""fullscreenenter"",""0"",""1577""
","
","773.5","","","","","","","","50","1,1,1","6","blank","330","null","0.24395311840765174","0.5331245035152546","0.3047845283104779","1","","","","","","","","",""
"","html-keyboard-response","222","570131","0.0-119.0-1.0","""event"",""trial"",""time""
""fullscreenenter"",""0"",""1577""
","
","
","""event"",""trial"",""time""
""fullscreenenter"",""0"",""1577""
","
","null","<p></p>","null","","","","","","","","","","","","","","","","","","","","","","","",""
"","do_trial","223","572687","0.0-120.0-0.0","""event"",""trial"",""time""
""fullscreenenter"",""0"",""1577""
","
","
","""event"",""trial"",""time""
""fullscreenenter"",""0"",""1577""
","
","0.4000000059604645","","","","","","","","50","0,1,1","6","blank","331","null","0.19964099618431227","0.5551950589583714","0.29577827935899476","1","","","","","","","","",""
"","html-keyboard-response","224","573689","0.0-120.0-1.0","""event"",""trial"",""time""
""fullscreenenter"",""0"",""1577""
","
","
","""event"",""trial"",""time""
""fullscreenenter"",""0"",""1577""
","
","null","<p></p>","null","","","","","","","","","","","","","","","","","","","","","","","",""
"","do_recog","225","576947","0.0-121.0-0.0","""event"",""trial"",""time""
""fullscreenenter"",""0"",""1577""
","
","
","""event"",""trial"",""time""
""fullscreenenter"",""0"",""1577""
","
","1749.5","","","","","","","","55","","","","332","probe-24","","","","","1","[object Object]","155","3","0","","","",""
"","html-keyboard-response","226","577949","0.0-121.0-1.0","""event"",""trial"",""time""
""fullscreenenter"",""0"",""1577""
","
","
","""event"",""trial"",""time""
""fullscreenenter"",""0"",""1577""
","
","null","<p></p>","null","","","","","","","","","","","","","","","","","","","","","","","",""
"","do_trial","227","581222","0.0-122.0-0.0","""event"",""trial"",""time""
""fullscreenenter"",""0"",""1577""
","
","
","""event"",""trial"",""time""
""fullscreenenter"",""0"",""1577""
","
","721.5999999940395","","","","","","","","50","0,1,0","6","blank","333","null","0.2570450871278218","0.7686276416438439","0.3699905778479498","1","","","","","","","","",""
"","html-keyboard-response","228","582224","0.0-122.0-1.0","""event"",""trial"",""time""
""fullscreenenter"",""0"",""1577""
","
","
","""event"",""trial"",""time""
""fullscreenenter"",""0"",""1577""
","
","null","<p></p>","null","","","","","","","","","","","","","","","","","","","","","","","",""
"","do_trial","229","585165","0.0-123.0-0.0","""event"",""trial"",""time""
""fullscreenenter"",""0"",""1577""
","
","
","""event"",""trial"",""time""
""fullscreenenter"",""0"",""1577""
","
","390.69999998807907","","","","","","","","50","0,1,0","6","blank","334","null","0.1717236246387319","0.8199854316578629","0.2752158715710242","1","","","","","","","","",""
"","html-keyboard-response","230","586167","0.0-123.0-1.0","""event"",""trial"",""time""
""fullscreenenter"",""0"",""1577""
","
","
","""event"",""trial"",""time""
""fullscreenenter"",""0"",""1577""
","
","null","<p></p>","null","","","","","","","","","","","","","","","","","","","","","","","",""
"","do_trial","231","589015","0.0-124.0-0.0","""event"",""trial"",""time""
""fullscreenenter"",""0"",""1577""
","
","
","""event"",""trial"",""time""
""fullscreenenter"",""0"",""1577""
","
","295.29999999701977","","","","","","","","50","0,0,0","6","blank","335","null","0.12066813573366916","0.7738012157548311","0.35183951746385916","0","","","","","","","","",""
"","html-keyboard-response","232","590017","0.0-124.0-1.0","""event"",""trial"",""time""
""fullscreenenter"",""0"",""1577""
","
","
","""event"",""trial"",""time""
""fullscreenenter"",""0"",""1577""
","
","null","<p></p>","null","","","","","","","","","","","","","","","","","","","","","","","",""
"","do_trial","233","592894","0.0-125.0-0.0","""event"",""trial"",""time""
""fullscreenenter"",""0"",""1577""
","
","
","""event"",""trial"",""time""
""fullscreenenter"",""0"",""1577""
","
","325.5","","","","","","","","50","0,1,0","6","blank","336","null","0.22046313059969755","0.8292715686357045","0.3398941496642427","1","","","","","","","","",""
"","html-keyboard-response","234","593896","0.0-125.0-1.0","""event"",""trial"",""time""
""fullscreenenter"",""0"",""1577""
","
","
","""event"",""trial"",""time""
""fullscreenenter"",""0"",""1577""
","
","null","<p></p>","null","","","","","","","","","","","","","","","","","","","","","","","",""
"","do_trial","235","596792","0.0-126.0-0.0","""event"",""trial"",""time""
""fullscreenenter"",""0"",""1577""
","
","
","""event"",""trial"",""time""
""fullscreenenter"",""0"",""1577""
","
","346.09999999403954","","","","","","","","50","0,1,0","6","blank","337","null","0.2596347786069561","0.7497793763718943","0.28268094534694377","1","","","","","","","","",""
"","html-keyboard-response","236","597795","0.0-126.0-1.0","""event"",""trial"",""time""
""fullscreenenter"",""0"",""1577""
","
","
","""event"",""trial"",""time""
""fullscreenenter"",""0"",""1577""
","
","null","<p></p>","null","","","","","","","","","","","","","","","","","","","","","","","",""
"","do_trial","237","600667","0.0-127.0-0.0","""event"",""trial"",""time""
""fullscreenenter"",""0"",""1577""
","
","
","""event"",""trial"",""time""
""fullscreenenter"",""0"",""1577""
","
","321.40000000596046","","","","","","","","50","0,1,0","6","blank","338","null","0.08163787001342582","0.6623106003749291","0.22113923136228336","1","","","","","","","","",""
"","html-keyboard-response","238","601669","0.0-127.0-1.0","""event"",""trial"",""time""
""fullscreenenter"",""0"",""1577""
","
","
","""event"",""trial"",""time""
""fullscreenenter"",""0"",""1577""
","
","null","<p></p>","null","","","","","","","","","","","","","","","","","","","","","","","",""
"","do_recog","239","605556","0.0-128.0-0.0","""event"",""trial"",""time""
""fullscreenenter"",""0"",""1577""
","
","
","""event"",""trial"",""time""
""fullscreenenter"",""0"",""1577""
","
","2378.7999999970198","","","","","","","","53","","","","339","probe-128","","","","","1","[object Object]","198","4","1","","","",""
"","html-keyboard-response","240","606558","0.0-128.0-1.0","""event"",""trial"",""time""
""fullscreenenter"",""0"",""1577""
","
","
","""event"",""trial"",""time""
""fullscreenenter"",""0"",""1577""
","
","null","<p></p>","null","","","","","","","","","","","","","","","","","","","","","","","",""
"","do_trial","241","609812","0.0-129.0-0.0","""event"",""trial"",""time""
""fullscreenenter"",""0"",""1577""
","
","
","""event"",""trial"",""time""
""fullscreenenter"",""0"",""1577""
","
","703","","","","","","","","50","1,1,0","6","blank","340","null","0.11257526445616702","0.6546096474219846","0.37169074769916144","1","","","","","","","","",""
"","html-keyboard-response","242","610814","0.0-129.0-1.0","""event"",""trial"",""time""
""fullscreenenter"",""0"",""1577""
","
","
","""event"",""trial"",""time""
""fullscreenenter"",""0"",""1577""
","
","null","<p></p>","null","","","","","","","","","","","","","","","","","","","","","","","",""
"","do_recog","243","613715","0.0-130.0-0.0","""event"",""trial"",""time""
""fullscreenenter"",""0"",""1577""
","
","
","""event"",""trial"",""time""
""fullscreenenter"",""0"",""1577""
","
","1393","","","","","","","","53","","","","341","probe-158","","","","","1","[object Object]","31","0","1","","","",""
"","html-keyboard-response","244","614717","0.0-130.0-1.0","""event"",""trial"",""time""
""fullscreenenter"",""0"",""1577""
","
","
","""event"",""trial"",""time""
""fullscreenenter"",""0"",""1577""
","
","null","<p></p>","null","","","","","","","","","","","","","","","","","","","","","","","",""
"","do_trial","245","617926","0.0-131.0-0.0","""event"",""trial"",""time""
""fullscreenenter"",""0"",""1577""
","
","
","""event"",""trial"",""time""
""fullscreenenter"",""0"",""1577""
","
","656.5999999940395","","","","","","","","50","0,0,0","6","blank","342","null","0.11141757160662148","0.5694089892699139","0.33997575293297794","0","","","","","","","","",""
"","html-keyboard-response","246","618932","0.0-131.0-1.0","""event"",""trial"",""time""
""fullscreenenter"",""0"",""1577""
","
","
","""event"",""trial"",""time""
""fullscreenenter"",""0"",""1577""
","
","null","<p></p>","null","","","","","","","","","","","","","","","","","","","","","","","",""
"","do_trial","247","621842","0.0-132.0-0.0","""event"",""trial"",""time""
""fullscreenenter"",""0"",""1577""
","
","
","""event"",""trial"",""time""
""fullscreenenter"",""0"",""1577""
","
","357.59999999403954","","","","","","","","50","0,1,0","6","blank","343","null","0.19920277693300287","0.5915676754491501","0.3346757947042695","1","","","","","","","","",""
"","html-keyboard-response","248","622844","0.0-132.0-1.0","""event"",""trial"",""time""
""fullscreenenter"",""0"",""1577""
","
","
","""event"",""trial"",""time""
""fullscreenenter"",""0"",""1577""
","
","null","<p></p>","null","","","","","","","","","","","","","","","","","","","","","","","",""
"","do_trial","249","625753","0.0-133.0-0.0","""event"",""trial"",""time""
""fullscreenenter"",""0"",""1577""
","
","
","""event"",""trial"",""time""
""fullscreenenter"",""0"",""1577""
","
","357.1000000089407","","","","","","","","50","0,1,1","6","blank","344","null","0.22097785175476617","0.5705129275043759","0.3453917600377308","1","","","","","","","","",""
"","html-keyboard-response","250","626755","0.0-133.0-1.0","""event"",""trial"",""time""
""fullscreenenter"",""0"",""1577""
","
","
","""event"",""trial"",""time""
""fullscreenenter"",""0"",""1577""
","
","null","<p></p>","null","","","","","","","","","","","","","","","","","","","","","","","",""
"","do_trial","251","629600","0.0-134.0-0.0","""event"",""trial"",""time""
""fullscreenenter"",""0"",""1577""
","
","
","""event"",""trial"",""time""
""fullscreenenter"",""0"",""1577""
","
","292.70000000298023","","","","","","","","50","0,1,0","6","blank","345","null","0.1540471371239189","0.6261252660237818","0.3170444875949964","1","","","","","","","","",""
"","html-keyboard-response","252","630602","0.0-134.0-1.0","""event"",""trial"",""time""
""fullscreenenter"",""0"",""1577""
","
","
","""event"",""trial"",""time""
""fullscreenenter"",""0"",""1577""
","
","null","<p></p>","null","","","","","","","","","","","","","","","","","","","","","","","",""
"","do_trial","253","633449","0.0-135.0-0.0","""event"",""trial"",""time""
""fullscreenenter"",""0"",""1577""
","
","
","""event"",""trial"",""time""
""fullscreenenter"",""0"",""1577""
","
","296.90000000596046","","","","","","","","50","0,1,1","6","blank","346","null","0.17956703499837892","0.6277712928118813","0.350143223783493","1","","","","","","","","",""
"","html-keyboard-response","254","634452","0.0-135.0-1.0","""event"",""trial"",""time""
""fullscreenenter"",""0"",""1577""
","
","
","""event"",""trial"",""time""
""fullscreenenter"",""0"",""1577""
","
","null","<p></p>","null","","","","","","","","","","","","","","","","","","","","","","","",""
"","do_trial","255","637244","0.0-136.0-0.0","""event"",""trial"",""time""
""fullscreenenter"",""0"",""1577""
","
","
","""event"",""trial"",""time""
""fullscreenenter"",""0"",""1577""
","
","241.69999998807907","","","","","","","","50","0,0,0","6","blank","347","null","0.23357386258720134","0.7075050924063637","0.318209022325223","0","","","","","","","","",""
"","html-keyboard-response","256","638246","0.0-136.0-1.0","""event"",""trial"",""time""
""fullscreenenter"",""0"",""1577""
","
","
","""event"",""trial"",""time""
""fullscreenenter"",""0"",""1577""
","
","null","<p></p>","null","","","","","","","","","","","","","","","","","","","","","","","",""
"","do_trial","257","640949","0.0-137.0-0.0","""event"",""trial"",""time""
""fullscreenenter"",""0"",""1577""
","
","
","""event"",""trial"",""time""
""fullscreenenter"",""0"",""1577""
","
","152.09999999403954","","","","","","","","50","0,0,0","6","blank","348","null","0.4026100598511442","0.46081040395087314","0.31494635866151116","0","","","","","","","","",""
"","html-keyboard-response","258","641951","0.0-137.0-1.0","""event"",""trial"",""time""
""fullscreenenter"",""0"",""1577""
","
","
","""event"",""trial"",""time""
""fullscreenenter"",""0"",""1577""
","
","null","<p></p>","null","","","","","","","","","","","","","","","","","","","","","","","",""
"","break","259","643038","0.0-138.0-0.0","""event"",""trial"",""time""
""fullscreenenter"",""0"",""1577""
","
","
","""event"",""trial"",""time""
""fullscreenenter"",""0"",""1577""
","
","1086","<div class='center'><p>Time to take a quick break! You have 2 minutes to rest, but you can move on sooner if you'd like.</p><p> Press the <b>space bar</b> to continue.</p></div>","32","","","","","","","","","","","","","","","","","","","","","","","",""
"","do_recog","260","646165","0.0-138.0-1.0","""event"",""trial"",""time""
""fullscreenenter"",""0"",""1577""
","
","
","""event"",""trial"",""time""
""fullscreenenter"",""0"",""1577""
","
","1619.2000000029802","","","","","","","","56","","","","349","probe-76","","","","","1","[object Object]","118","2","0","","","",""
"","html-keyboard-response","261","647167","0.0-138.0-2.0","""event"",""trial"",""time""
""fullscreenenter"",""0"",""1577""
","
","
","""event"",""trial"",""time""
""fullscreenenter"",""0"",""1577""
","
","null","<p></p>","null","","","","","","","","","","","","","","","","","","","","","","","",""
"","do_trial","262","650319","0.0-139.0-0.0","""event"",""trial"",""time""
""fullscreenenter"",""0"",""1577""
","
","
","""event"",""trial"",""time""
""fullscreenenter"",""0"",""1577""
","
","600.1000000089407","","","","","","","","50","1,1,0","6","blank","350","null","0.4503430492738436","0.2570347470487038","0.2283079234273738","1","","","","","","","","",""
"","html-keyboard-response","263","651320","0.0-139.0-1.0","""event"",""trial"",""time""
""fullscreenenter"",""0"",""1577""
","
","
","""event"",""trial"",""time""
""fullscreenenter"",""0"",""1577""
","
","null","<p></p>","null","","","","","","","","","","","","","","","","","","","","","","","",""
"","do_trial","264","654208","0.0-140.0-0.0","""event"",""trial"",""time""
""fullscreenenter"",""0"",""1577""
","
","
","""event"",""trial"",""time""
""fullscreenenter"",""0"",""1577""
","
","336.6000000089407","","","","","","","","50","1,0,0","6","blank","351","null","0.5518588850104231","0.30653459572562747","0.22555653608837867","0","","","","","","","","",""
"","html-keyboard-response","265","655210","0.0-140.0-1.0","""event"",""trial"",""time""
""fullscreenenter"",""0"",""1577""
","
","
","""event"",""trial"",""time""
""fullscreenenter"",""0"",""1577""
","
","null","<p></p>","null","","","","","","","","","","","","","","","","","","","","","","","",""
"","do_recog","266","658567","0.0-141.0-0.0","""event"",""trial"",""time""
""fullscreenenter"",""0"",""1577""
","
","
","""event"",""trial"",""time""
""fullscreenenter"",""0"",""1577""
","
","1848.5999999940395","","","","","","","","55","","","","352","probe-75","","","","","1","[object Object]","79","1","0","","","",""
"","html-keyboard-response","267","659570","0.0-141.0-1.0","""event"",""trial"",""time""
""fullscreenenter"",""0"",""1577""
","
","
","""event"",""trial"",""time""
""fullscreenenter"",""0"",""1577""
","
","null","<p></p>","null","","","","","","","","","","","","","","","","","","","","","","","",""
"","do_trial","268","662484","0.0-142.0-0.0","""event"",""trial"",""time""
""fullscreenenter"",""0"",""1577""
","
","
","""event"",""trial"",""time""
""fullscreenenter"",""0"",""1577""
","
","360.90000000596046","","","","","","","","50","0,0,0","6","blank","353","null","0.7201531635035516","0.2502797698346227","0.20732561763082089","0","","","","","","","","",""
"","html-keyboard-response","269","663488","0.0-142.0-1.0","""event"",""trial"",""time""
""fullscreenenter"",""0"",""1577""
","
","
","""event"",""trial"",""time""
""fullscreenenter"",""0"",""1577""
","
","null","<p></p>","null","","","","","","","","","","","","","","","","","","","","","","","",""
"","do_trial","270","666491","0.0-143.0-0.0","""event"",""trial"",""time""
""fullscreenenter"",""0"",""1577""
","
","
","""event"",""trial"",""time""
""fullscreenenter"",""0"",""1577""
","
","451.90000000596046","","","","","","","","50","1,0,0","6","blank","354","null","0.8073014703791812","0.09087366396003348","0.4061368495279376","0","","","","","","","","",""
"","html-keyboard-response","271","667494","0.0-143.0-1.0","""event"",""trial"",""time""
""fullscreenenter"",""0"",""1577""
","
","
","""event"",""trial"",""time""
""fullscreenenter"",""0"",""1577""
","
","null","<p></p>","null","","","","","","","","","","","","","","","","","","","","","","","",""
"","do_recog","272","670453","0.0-144.0-0.0","""event"",""trial"",""time""
""fullscreenenter"",""0"",""1577""
","
","
","""event"",""trial"",""time""
""fullscreenenter"",""0"",""1577""
","
","1450.2999999970198","","","","","","","","55","","","","355","probe-86","","","","","1","[object Object]","119","2","0","","","",""
"","html-keyboard-response","273","671455","0.0-144.0-1.0","""event"",""trial"",""time""
""fullscreenenter"",""0"",""1577""
","
","
","""event"",""trial"",""time""
""fullscreenenter"",""0"",""1577""
","
","null","<p></p>","null","","","","","","","","","","","","","","","","","","","","","","","",""
"","do_trial","274","674519","0.0-145.0-0.0","""event"",""trial"",""time""
""fullscreenenter"",""0"",""1577""
","
","
","""event"",""trial"",""time""
""fullscreenenter"",""0"",""1577""
","
","512.7999999970198","","","","","","","","50","1,0,0","6","blank","356","null","0.7913765809221169","0.05503959313408016","0.29769008289253185","0","","","","","","","","",""
"","html-keyboard-response","275","675521","0.0-145.0-1.0","""event"",""trial"",""time""
""fullscreenenter"",""0"",""1577""
","
","
","""event"",""trial"",""time""
""fullscreenenter"",""0"",""1577""
","
","null","<p></p>","null","","","","","","","","","","","","","","","","","","","","","","","",""
"","do_trial","276","678395","0.0-146.0-0.0","""event"",""trial"",""time""
""fullscreenenter"",""0"",""1577""
","
","
","""event"",""trial"",""time""
""fullscreenenter"",""0"",""1577""
","
","323.79999999701977","","","","","","","","49","0,0,0","6","blank","357","null","0.7196195695525269","0.09284765354817173","0.3360964570781","0","","","","","","","","",""
"","html-keyboard-response","277","679396","0.0-146.0-1.0","""event"",""trial"",""time""
""fullscreenenter"",""0"",""1577""
","
","
","""event"",""trial"",""time""
""fullscreenenter"",""0"",""1577""
","
