"success","trial_type","trial_index","time_elapsed","internal_node_id","rt","stimulus","key_press","subject_id","response","choice_outcomes","context_n","context_img_id","trial_n","probe_img_id","pR_red","pR_white","pR_black","outcome","is_valid","image_to_show","probed_trial","probed_context","correct","context_id"
"true","fullscreen","0","11596","0.0-0.0","","","","","","","","","","","","","","","","","","","",""
"","pavlovia","1","11601","0.0-1.0","","","","","","","","","","","","","","","","","","","",""
"","html-keyboard-response","2","29813","0.0-2.0","18211","<div class='center'><p>Welcome! This is the second day of the experiment. This part will last ~30 minutes. </p><br><p>Just as a reminder, you are the head captain of a pirate ship traveling around the world to different places. </p><p>Today,you’ve arrived at the final destination of your journey!</p><p> Unfortunately, it’s very foggy out, so you won’t be able to see it in the distance like the places you visited yesterday.</p><p>You’ll still be deciding which pirates you want to rob ships. Because of the fog, however, you won't be able to see which ship your chosen pirate is robbing. </p><p><b>[Press the space bar to go over the instructions]</b></p></div>","32","612934eb6efb3e2749abb9d2","","","","","","","","","","","","","","","",""
"","html-keyboard-response","3","51834","0.0-3.0","22020","<div class='center'><p>Like yesterday,as the head captain of the ship, you have one important things to do: </p><b><p> Pick the pirate who you think will be most successful at robbing the next ship.</p></b><p>This is important in determining how much bonus money you’ll win.</p><br><p>The game will start by showing you the pirates. First pick a pirate using the <b> 1, 2, 3 </b> buttons on your keyboard. </p><p> Press <b>'1'</b> to choose red beard, <b>'2'</b> to choose white beard, and <b>'3'</b> to choose black beard</p><p> You only have 3 seconds to pick a pirate, so please make a choice quickly! If you are too slow, you’ll have to wait a bit during the time out.</p><p> Don’t feel rushed, but please do try to make a choice every time.</p><p>How good a pirate is at robbing a ship will change depending on the place they are in and how good the defenses are of the ship.</p><p><b>[Press the space bar to begin the practice game]</b></p></div>","32","","","","","","","","","","","","","","","","",""
"","html-keyboard-response","4","80751","0.0-4.0","28913","<div class='center'><p>Unlike yesterday, sometimes you’ll be asked if you’ve seen a ship before (see the example below). You will use the 5, 6, 7, 8 buttons on your keyboard to respond. </p><p> If you definitely did not see the ship, pick the the big red thumbs down by pressing <b>5</b>.</p><p> If you don’t think you saw it but aren’t sure, then pick the small red thumbs down by pressing <b>6</b>.</p><p> If you think you might have seen it, then pick the small green thumbs up by pressing <b>7</b>.</p><p> If you definitely did see this ship before, then pick the big thumb green thumbs up by pressing <b>8</b>.</p><p> If you recall it correctly, then you’ll get a gold coin!</p><p><b>[Press the space bar to the experiment]</b></p><p><img src='run_exp/static/images/example_recog_trial.png' height='500'></p></div>","32","","","","","","","","","","","","","","","","",""
"","do_welcome","5","82262","0.0-5.0-0.0","null","","","","null","","","","","","","","","","","","","","",""
"","do_trial","6","86492","0.0-6.0-0.0","1696","","","","50","0,1,0","6","blank","240","null","0.06330097144131455","1","0.18924543720357176","1","","","","","",""
"","do_recog","7","91867","0.0-7.0-0.0","3868","","","","53","","","","241","probe-53","","","","","1","[object Object]","201","5","0",""
"","do_trial","8","96342","0.0-8.0-0.0","1935","","","","51","0,1,0","6","blank","242","null","0.08059608611506945","0.9010469611639239","0.19989850885964042","0","","","","","",""
"","do_trial","9","102384","0.0-9.0-0.0","null","","","","null","0,0,0","6","blank","243","null","0.14110247209218327","0.7228237434444654","0.23246593991804385","","","","","","",""
"","do_trial","10","106009","0.0-10.0-0.0","1093","","","","51","0,1,1","6","blank","244","null","0.09946991742249699","0.7545721819155509","0.16046929704809273","1","","","","","",""
"","do_trial","11","110021","0.0-11.0-0.0","1481","","","","50","0,0,0","6","blank","245","null","0.11833062068722267","0.7975941994984421","0.2863095359736431","0","","","","","",""
"","do_trial","12","114703","0.0-12.0-0.0","2151.000000000029","","","","51","0,0,1","6","blank","246","null","0.07329271102276941","0.7634239415233941","0.3650789636838334","1","","","","","",""
"","do_recog","13","118020","0.0-13.0-0.0","1810","","","","53","","","","247","probe-121","","","","","1","[object Object]","121","3","0",""
"","do_trial","14","121435","0.0-14.0-0.0","883.0000000000291","","","","50","0,0,0","6","blank","248","null","0.10920683844469271","0.8568809887908444","0.40268211605815235","0","","","","","",""
"","do_recog","15","124497","0.0-15.0-0.0","1555","","","","53","","","","249","probe-247","","","","","0","[object Object]","null","null","1",""
"","do_trial","16","128079","0.0-16.0-0.0","1048","","","","49","1,1,1","6","blank","250","null","0.07291557616290374","0.7819249544469892","0.6003329241728989","1","","","","","",""
"","do_trial","17","131570","0.0-17.0-0.0","959","","","","50","0,0,1","6","blank","251","null","0.06972983091958627","0.6833332416181077","0.4634511521297206","0","","","","","",""
"","do_trial","18","134607","0.0-18.0-0.0","509","","","","51","0,1,0","6","blank","252","null","0.06609322798375238","0.7397804230835879","0.46438035487064666","0","","","","","",""
"","do_recog","19","137815","0.0-19.0-0.0","1702","","","","53","","","","253","probe-102","","","","","1","[object Object]","163","4","0",""
"","do_trial","20","142023","0.0-20.0-0.0","1676","","","","49","0,1,0","6","blank","254","null","0.4180083347538732","0.4819132322527516","0.3009934437155422","0","","","","","",""
"","do_recog","21","145390","0.0-21.0-0.0","1860","","","","54","","","","255","probe-67","","","","","1","[object Object]","43","1","0",""
"","do_trial","22","148693","0.0-22.0-0.0","773","","","","50","0,0,0","6","blank","256","null","0.5650179427645511","0.4456952272661313","0.11132497430211734","0","","","","","",""
"","do_recog","23","152735","0.0-23.0-0.0","2535","","","","53","","","","257","probe-202","","","","","1","[object Object]","82","2","0",""
"","do_trial","24","156903","0.0-24.0-0.0","1637","","","","51","1,0,0","6","blank","258","null","0.6732433699806971","0.5394627310674772","0.2070759704620846","0","","","","","",""
"","do_recog","25","159556","0.0-25.0-0.0","1147","","","","56","","","","259","probe-218","","","","","1","[object Object]","122","3","1",""
"","do_trial","26","162549","0.0-26.0-0.0","460.0000000000291","","","","49","0,1,0","6","blank","260","null","0.5950624578034847","0.5439562224153002","0.18592280990457105","0","","","","","",""
"","do_recog","27","165106","0.0-27.0-0.0","1051","","","","55","","","","261","probe-103","","","","","1","[object Object]","48","1","1",""
"","do_trial","28","168670","0.0-28.0-0.0","1028","","","","50","0,0,0","6","blank","262","null","0.5713995261980219","0.4072144858796098","0.1503175666261743","0","","","","","",""
"","do_recog","29","172963","0.0-29.0-0.0","2784","","","","53","","","","263","probe-71","","","","","1","[object Object]","87","2","0",""
"","do_trial","30","177781","0.0-30.0-0.0","2281","","","","50","1,1,0","6","blank","264","null","0.6161097246736158","0.4116349732182757","0.16877903909391662","1","","","","","",""
"","do_recog","31","181461","0.0-31.0-0.0","2173","","","","55","","","","265","probe-182","","","","","1","[object Object]","125","3","1",""
"","do_trial","32","184523","0.0-32.0-0.0","521","","","","50","1,0,0","6","blank","266","null","0.6860870307302718","0.2357928715909248","0.14392537905597266","0","","","","","",""
"","do_trial","33","187867","0.0-33.0-0.0","805","","","","49","1,0,0","6","blank","267","null","0.6977014715705534","0.23569842373251643","0.12434431773412202","1","","","","","",""
"","do_trial","34","191229","0.0-34.0-0.0","822","","","","49","0,0,0","6","blank","268","null","0.7008395455181949","0.27547276674527976","0.2141868982896522","0","","","","","",""
"","do_trial","35","194230","0.0-35.0-0.0","461","","","","50","0,0,1","6","blank","269","null","0.7196750510343902","0.2766426562650754","0.17469923527565076","0","","","","","",""
"","do_trial","36","197315","0.0-36.0-0.0","545","","","","51","1,1,0","6","blank","270","null","0.7416300014032073","0.3260220064186655","0.050030484443587875","0","","","","","",""
"","do_trial","37","200554","0.0-37.0-0.0","698","","","","49","1,0,1","6","blank","271","null","0.8344999011436515","0.3527107670062694","0.06320053021040664","1","","","","","",""
"","do_recog","38","203975","0.0-38.0-0.0","1914.0000000000582","","","","53","","","","272","probe-210","","","","","1","[object Object]","203","5","0",""
"","do_trial","39","207130","0.0-39.0-0.0","614","","","","50","1,0,0","6","blank","273","null","0.8935542244249416","0.2637286358493081","0.06255579040831526","0","","","","","",""
"","do_recog","40","209759","0.0-40.0-0.0","1119","","","","56","","","","274","probe-185","","","","","1","[object Object]","161","4","1",""
"","do_trial","41","213259","0.0-41.0-0.0","960","","","","49","1,0,0","6","blank","275","null","0.9308194067003244","0.4287177066999363","0.13983063381397023","1","","","","","",""
"","do_trial","42","216383","0.0-42.0-0.0","584","","","","49","0,1,0","6","blank","276","null","0.7208888987800267","0.4644055724297149","0.14028434337038162","0","","","","","",""
"","do_trial","43","219630","0.0-43.0-0.0","707.9999999999418","","","","50","1,0,0","6","blank","277","null","0.8999838876966324","0.5274252781495213","0.10665530429251707","0","","","","","",""
"","do_trial","44","222490","0.0-44.0-0.0","321","","","","51","1,0,0","6","blank","278","null","0.9207656182902056","0.4370809978658427","0.13525508349652646","0","","","","","",""
"","do_trial","45","225432","0.0-45.0-0.0","401","","","","50","1,0,0","6","blank","279","null","0.8691598826612168","0.4184599543571353","0.13735701589211005","0","","","","","",""
"","do_recog","46","227775","0.0-46.0-0.0","837","","","","56","","","","280","probe-104","","","","","1","[object Object]","89","2","1",""
"","do_trial","47","230773","0.0-47.0-0.0","464","","","","49","1,0,0","6","blank","281","null","0.9242431988233605","0.3631815781913498","0.055880829671748185","1","","","","","",""
"","do_trial","48","233741","0.0-48.0-0.0","435","","","","50","1,1,0","6","blank","282","null","0.7514837589959582","0.5362276814218766","0.05558902855502833","1","","","","","",""
"","do_trial","49","236718","0.0-49.0-0.0","443.9999999999418","","","","50","1,1,0","6","blank","283","null","1","0.37619836087084585","0.09177137641631351","1","","","","","",""
"","do_trial","50","239726","0.0-50.0-0.0","474.0000000000582","","","","49","1,0,0","6","blank","284","null","0.8894011739456991","0.4671689007773588","0.05906246239631301","1","","","","","",""
"","do_trial","51","242698","0.0-51.0-0.0","441","","","","50","1,0,0","6","blank","285","null","0.9023047833422941","0.3186534487352991","0.07730141205492438","0","","","","","",""
"","do_recog","52","246008","0.0-52.0-0.0","1804","","","","56","","","","286","probe-211","","","","","1","[object Object]","44","1","1",""
"","do_trial","53","249135","0.0-53.0-0.0","595","","","","49","1,0,0","6","blank","287","null","0.9228365279842534","0.3388314943381203","0.1386672795525008","1","","","","","",""
"","do_recog","54","252383","0.0-54.0-0.0","1741","","","","56","","","","288","probe-188","","","","","1","[object Object]","120","3","1",""
"","do_trial","55","255357","0.0-55.0-0.0","444","","","","49","0,1,0","6","blank","289","null","0.6914118042376225","0.41076528172065835","0.1746689081113943","0","","","","","",""
"","do_recog","56","257743","0.0-56.0-0.0","878.9999999999418","","","","56","","","","290","probe-195","","","","","1","[object Object]","80","2","1",""
"","do_trial","57","260769","0.0-57.0-0.0","495","","","","51","1,0,0","6","blank","291","null","0.7117991669822235","0.43667618581256323","0.13418862492558775","0","","","","","",""
"","do_trial","58","263856","0.0-58.0-0.0","552","","","","50","0,0,0","6","blank","292","null","0.7130428491947904","0.3915022599376704","0.12762719692588875","0","","","","","",""
"","do_trial","59","266853","0.0-59.0-0.0","468","","","","49","1,1,0","6","blank","293","null","0.7445005898594923","0.4181449419012278","0.13547708372320533","1","","","","","",""
"","do_trial","60","270277","0.0-60.0-0.0","890.0000000000582","","","","50","1,1,0","6","blank","294","null","0.793732660192599","0.4310247305836472","0.22409226144208666","1","","","","","",""
"","do_recog","61","272669","0.0-61.0-0.0","886","","","","56","","","","295","probe-242","","","","","0","[object Object]","null","null","0",""
"","do_trial","62","275933","0.0-62.0-0.0","734","","","","49","1,0,0","6","blank","296","null","0.772275178512963","0.4624577904837673","0.11545474425245415","1","","","","","",""
"","do_recog","63","278996","0.0-63.0-0.0","1556","","","","54","","","","297","probe-147","","","","","1","[object Object]","88","2","0",""
"","do_trial","64","282118","0.0-64.0-0.0","591","","","","50","0,0,0","6","blank","298","null","0.840233316227557","0.39215644218861484","0.1609913733170296","0","","","","","",""
"","do_trial","65","285054","0.0-65.0-0.0","405.0000000000582","","","","51","1,0,0","6","blank","299","null","0.8077324029784265","0.4200136987940307","0.12582356969518874","0","","","","","",""
"","do_trial","66","288053","0.0-66.0-0.0","467","","","","49","1,1,1","6","blank","300","null","0.5217687421912032","0.5514363043884645","0.2725909972062239","1","","","","","",""
"","do_trial","67","291042","0.0-67.0-0.0","458","","","","49","0,0,1","6","blank","301","null","0.22687249681117952","0.30460910532788793","0.3117187593921132","0","","","","","",""
"","do_recog","68","294552","0.0-68.0-0.0","2002.9999999999418","","","","54","","","","302","probe-100","","","","","1","[object Object]","124","3","0",""
"","do_trial","69","297898","0.0-69.0-0.0","816","","","","50","0,0,0","6","blank","303","null","0.08346606141617846","0.4570029258618634","0.5088620956292644","0","","","","","",""
"","do_trial","70","300737","0.0-70.0-0.0","309","","","","51","0,0,1","6","blank","304","null","0.09395187719276032","0.5000003529240563","0.6112493765171816","1","","","","","",""
"","do_recog","71","303428","0.0-71.0-0.0","1184","","","","56","","","","305","probe-58","","","","","1","[object Object]","128","3","1",""
"","do_trial","72","306951","0.0-72.0-0.0","994","","","","51","0,1,1","6","blank","306","null","0.2422237407860667","0.7124507275594093","0.6371016975939221","1","","","","","",""
"","do_trial","73","310061","0.0-73.0-0.0","582","","","","51","1,1,0","6","blank","307","null","0.24408777041968374","0.5943930577669942","0.5799729697624457","0","","","","","",""
"","do_recog","74","312357","0.0-74.0-0.0","791","","","","56","","","","308","probe-215","","","","","1","[object Object]","123","3","1",""
"","do_trial","75","315516","0.0-75.0-0.0","629","","","","49","0,1,1","6","blank","309","null","0.14368843239741957","0.5571182553092151","0.7174679873050315","0","","","","","",""
"","do_recog","76","317822","0.0-76.0-0.0","801","","","","56","","","","310","probe-154","","","","","1","[object Object]","127","3","1",""
"","do_trial","77","321372","0.0-77.0-0.0","1019","","","","50","0,0,1","6","blank","311","null","0.05113342361818474","0.45316153538654563","0.7530778971244858","0","","","","","",""
"","do_recog","78","324013","0.0-78.0-0.0","1133","","","","54","","","","312","probe-194","","","","","1","[object Object]","207","5","0",""
"","do_trial","79","327500","0.0-79.0-0.0","958","","","","51","0,1,1","6","blank","313","null","0.10501777937623036","0.40531338236788117","0.829497140261814","1","","","","","",""
"","do_recog","80","330250","0.0-80.0-0.0","1244","","","","56","","","","314","probe-12","","","","","1","[object Object]","166","4","1",""
"","do_trial","81","334252","0.0-81.0-0.0","1471.0000000000582","","","","51","0,0,1","6","blank","315","null","0.11253869656079832","0.31845795062862636","0.8664704712914455","1","","","","","",""
"","do_recog","82","336478","0.0-82.0-0.0","721","","","","56","","","","316","probe-96","","","","","1","[object Object]","41","1","1",""
"","do_trial","83","339698","0.0-83.0-0.0","689.0000000000582","","","","51","0,0,1","6","blank","317","null","0.09844453021156042","0.22889928163750894","0.8600083754643295","1","","","","","",""
"","do_trial","84","342815","0.0-84.0-0.0","588","","","","51","0,0,0","6","blank","318","null","0.1037199241736779","0.24959188400384988","0.7256567492211294","0","","","","","",""
"","do_trial","85","345746","0.0-85.0-0.0","401","","","","50","0,1,1","6","blank","319","null","0.07874556350895652","0.25910045897744716","0.768179089643458","1","","","","","",""
"","do_trial","86","349060","0.0-86.0-0.0","782.0000000000582","","","","50","0,0,1","6","blank","320","null","0.05315440850925348","0.25694594979528573","0.7915711401346259","0","","","","","",""
"","do_trial","87","352215","0.0-87.0-0.0","623","","","","49","0,0,1","6","blank","321","null","0.07708257228554569","0.2892899227440908","0.7646150498593137","0","","","","","",""
"","do_recog","88","354529","0.0-88.0-0.0","808","","","","56","","","","322","probe-94","","","","","1","[object Object]","167","4","1",""
"","do_trial","89","357877","0.0-89.0-0.0","815","","","","51","0,1,1","6","blank","323","null","0.11888842211978133","0.24501020230165288","0.847073486733888","1","","","","","",""
"","do_recog","90","360393","0.0-90.0-0.0","1012","","","","56","","","","324","probe-160","","","","","1","[object Object]","202","5","1",""
"","do_trial","91","364322","0.0-91.0-0.0","1395.0000000000582","","","","50","1,1,1","6","blank","325","null","0.16410423538971775","0.3357946466180943","0.858359631754362","1","","","","","",""
"","do_trial","92","367854","0.0-92.0-0.0","999","","","","50","0,1,1","6","blank","326","null","0.05686622296247254","0.4024611816821335","0.7831989499170127","1","","","","","",""
"","do_trial","93","372683","0.0-93.0-0.0","2296.999999999942","","","","50","0,1,1","6","blank","327","null","0.11643661936956473","0.3824889162091863","1","1","","","","","",""
"","do_recog","94","374895","0.0-94.0-0.0","705","","","","56","","","","328","probe-05","","","","","1","[object Object]","46","1","1",""
"","do_trial","95","378348","0.0-95.0-0.0","915.0000000000582","","","","50","0,0,1","6","blank","329","null","0.16982652710711502","0.3258713389071089","0.8449366856774906","0","","","","","",""
"","do_trial","96","381405","0.0-96.0-0.0","523","","","","49","0,1,1","6","blank","330","null","0.14157383533613863","0.36675993323059686","0.6885452420256649","0","","","","","",""
"","do_recog","97","383672","0.0-97.0-0.0","758","","","","56","","","","331","probe-82","","","","","1","[object Object]","164","4","1",""
"","do_trial","98","387154","0.0-98.0-0.0","951","","","","50","1,1,1","6","blank","332","null","0.15664282863768544","0.3716105765412977","0.6791872854972338","1","","","","","",""
"","do_trial","99","390173","0.0-99.0-0.0","488","","","","51","0,1,0","6","blank","333","null","0.15527033629373027","0.48136523903834844","0.6487364424017252","0","","","","","",""
"","do_recog","100","392138","0.0-100.0-0.0","459","","","","56","","","","334","probe-251","","","","","0","[object Object]","null","null","0",""
"","do_trial","101","394831","0.0-101.0-0.0","162","","","","49","0,0,0","6","blank","335","null","0.08120077997973653","0.4342288165569047","0.8357982660497077","0","","","","","",""
"","do_recog","102","396879","0.0-102.0-0.0","540.9999999999418","","","","56","","","","336","probe-180","","","","","1","[object Object]","47","1","1",""
"","do_trial","103","399832","0.0-103.0-0.0","418","","","","50","1,1,1","6","blank","337","null","0.11460648638678805","0.4536225062525913","0.9384082428779763","1","","","","","",""
"","do_recog","104","401892","0.0-104.0-0.0","553.9999999999418","","","","56","","","","338","probe-151","","","","","1","[object Object]","208","5","1",""
"","do_trial","105","405042","0.0-105.0-0.0","618","","","","51","1,1,1","6","blank","339","null","0.15239019882183918","0.39270703673302476","0.8408154779166865","1","","","","","",""
"","do_recog","106","406967","0.0-106.0-0.0","419","","","","56","","","","340","probe-200","","","","","1","[object Object]","84","2","1",""
"","do_trial","107","409923","0.0-107.0-0.0","423.9999999999418","","","","51","0,1,1","6","blank","341","null","0.07687188017277563","0.48742001946594754","0.8533099246012453","1","","","","","",""
"","do_recog","108","411828","0.0-108.0-0.0","399","","","","56","","","","342","probe-142","","","","","1","[object Object]","169","4","1",""
"","do_trial","109","414805","0.0-109.0-0.0","445","","","","51","0,0,1","6","blank","343","null","0.08651205090332698","0.3375738811110103","0.8886677322560015","1","","","","","",""
"","do_recog","110","416741","0.0-110.0-0.0","430","","","","56","","","","344","probe-225","","","","","1","[object Object]","160","4","1",""
"","do_trial","111","420112","0.0-111.0-0.0","839","","","","51","0,0,1","6","blank","345","null","0.10183765427680387","0.5871827069760138","0.5379100771093244","1","","","","","",""
"","do_trial","112","423176","0.0-112.0-0.0","532","","","","51","0,0,1","6","blank","346","null","0.25392746721330267","0.673461254491574","0.32226752447179857","1","","","","","",""
"","do_trial","113","426043","0.0-113.0-0.0","336","","","","51","0,1,0","6","blank","347","null","0.35369508909888936","0.5508068651322229","0.26708877092027117","0","","","","","",""
"","do_recog","114","428305","0.0-114.0-0.0","756","","","","56","","","","348","probe-44","","","","","1","[object Object]","83","2","1",""
"","do_trial","115","431306","0.0-115.0-0.0","469","","","","49","0,1,0","6","blank","349","null","0.38992258108212513","0.7392247004628395","0.3394174984577377","0","","","","","",""
"","do_recog","116","433770","0.0-116.0-0.0","957","","","","54","","","","350","probe-76","","","","","1","[object Object]","165","4","0",""
"","do_trial","117","437075","0.0-117.0-0.0","774","","","","51","0,1,1","6","blank","351","null","0.3380420559841016","0.6377304013679629","0.3866217540853309","1","","","","","",""
"","do_recog","118","439679","0.0-118.0-0.0","1098","","","","55","","","","352","probe-86","","","","","1","[object Object]","162","4","1",""
"","do_trial","119","442800","0.0-119.0-0.0","591.9999999999418","","","","51","1,1,0","6","blank","353","null","0.5067668325071881","0.7459091456187278","0.30598628038492587","0","","","","","",""
"","do_recog","120","444870","0.0-120.0-0.0","563","","","","56","","","","354","probe-34","","","","","1","[object Object]","129","3","1",""
"","do_trial","121","447975","0.0-121.0-0.0","573.0000000001164","","","","49","0,0,0","6","blank","355","null","0.5491574883693319","0.7705777765117741","0.2953423420963528","0","","","","","",""
"","do_recog","122","450299","0.0-122.0-0.0","818","","","","56","","","","356","probe-62","","","","","1","[object Object]","200","5","1",""
"","do_trial","123","453723","0.0-123.0-0.0","892","","","","50","1,1,1","6","blank","357","null","0.5283663197325783","0.7106172684053425","0.1752284171201315","1","","","","","",""
"","do_trial","124","457964","0.0-124.0-0.0","1705","","","","50","1,0,1","6","blank","358","null","0.5996182955109773","0.7869766417726982","0.2070461518381491","0","","","","","",""
"","do_recog","125","460514","0.0-125.0-0.0","1045","","","","56","","","","359","probe-243","","","","","0","[object Object]","null","null","0",""
"","do_trial","126","464518","0.0-126.0-0.0","1472","","","","51","0,0,0","6","blank","360","null","0.4471113614403884","0.5926646433458909","0.14131845684835212","0","","","","","",""
"","do_trial","127","468170","0.0-127.0-0.0","1127","","","","51","0,0,0","6","blank","361","null","0.41552445936915894","0.47713340657466385","0.3536331143139674","0","","","","","",""
"","do_recog","128","470486","0.0-128.0-0.0","810","","","","56","","","","362","probe-254","","","","","0","[object Object]","null","null","0",""
"","do_trial","129","473836","0.0-129.0-0.0","817.9999999998836","","","","49","0,0,1","6","blank","363","null","0.4902701334916703","0.5433515812293712","0.23955790800876733","0","","","","","",""
"","do_recog","130","475975","0.0-130.0-0.0","633","","","","54","","","","364","probe-187","","","","","1","[object Object]","209","5","0",""
"","do_trial","131","480515","0.0-131.0-0.0","2010","","","","50","1,1,0","6","blank","365","null","0.35106500678276986","0.7417135832779311","0.1309995580610283","1","","","","","",""
"","do_trial","132","483759","0.0-132.0-0.0","713","","","","50","1,1,1","6","blank","366","null","0.27694978351204913","0.7134406877571329","0.09044146668524376","1","","","","","",""
"","do_trial","133","486875","0.0-133.0-0.0","585","","","","51","1,0,1","6","blank","367","null","0.3787868127143259","0.6903440097709469","0.05898741680076589","1","","","","","",""
"","do_recog","134","489157","0.0-134.0-0.0","776","","","","56","","","","368","probe-139","","","","","1","[object Object]","42","1","1",""
"","do_trial","135","492686","0.0-135.0-0.0","998","","","","51","1,1,0","6","blank","369","null","0.3129248746251263","0.7606743222990524","0.11983670196612192","0","","","","","",""
"","do_recog","136","494902","0.0-136.0-0.0","709","","","","56","","","","370","probe-241","","","","","0","[object Object]","null","null","0",""
"","do_trial","137","498431","0.0-137.0-0.0","999","","","","49","0,1,0","6","blank","371","null","0.45178450815724985","0.7927919922315237","0.08989394089963657","0","","","","","",""
"","do_trial","138","501503","0.0-138.0-0.0","539","","","","50","1,0,0","6","blank","372","null","0.4729785236198436","0.7171638742202414","0.22031698371780953","0","","","","","",""
"","do_trial","139","504436","0.0-139.0-0.0","402","","","","51","0,1,0","6","blank","373","null","0.5153790934214189","0.9020378039063836","0.3070425726579114","0","","","","","",""
"","do_trial","140","509615","0.0-140.0-0.0","2647","","","","50","0,1,0","6","blank","374","null","0.4911426566226553","0.8329683792420158","0.1310271482070373","1","","","","","",""
"","do_recog","141","511927","0.0-141.0-0.0","806","","","","56","","","","375","probe-04","","","","","1","[object Object]","126","3","1",""
"","do_trial","142","515097","0.0-142.0-0.0","640","","","","49","0,1,0","6","blank","376","null","0.4743196215521919","1","0.2418333354875401","0","","","","","",""
"","do_trial","143","518072","0.0-143.0-0.0","448","","","","50","1,1,0","6","blank","377","null","0.5082710520055579","0.8847380232777101","0.25713377004699145","1","","","","","",""
"","do_recog","144","520300","0.0-144.0-0.0","721","","","","56","","","","378","probe-73","","","","","1","[object Object]","49","1","1",""
"","do_trial","145","523470","0.0-145.0-0.0","639.0000000001164","","","","49","0,1,0","6","blank","379","null","0.5246793698527878","0.8803795019722219","0.3021211727502561","0","","","","","",""
"","do_recog","146","525542","0.0-146.0-0.0","566","","","","55","","","","380","probe-130","","","","","1","[object Object]","205","5","1",""
"","do_trial","147","528833","0.0-147.0-0.0","760","","","","50","1,0,0","6","blank","381","null","0.4627830820145088","0.7829127177366288","0.2292464384797785","0","","","","","",""
"","do_recog","148","530862","0.0-148.0-0.0","522.9999999998836","","","","54","","","","382","probe-45","","","","","1","[object Object]","45","1","0",""
"","do_trial","149","533990","0.0-149.0-0.0","596","","","","50","0,1,0","6","blank","383","null","0.48674876310167015","0.7226627895124093","0.23494982343699264","1","","","","","",""
"","do_recog","150","536411","0.0-150.0-0.0","915.0000000001164","","","","56","","","","384","probe-171","","","","","1","[object Object]","86","2","1",""
"","do_trial","151","539972","0.0-151.0-0.0","1030","","","","50","0,1,1","6","blank","385","null","0.63440771318195","0.7425198134934994","0.16929644910441624","1","","","","","",""
"","do_trial","152","543052","0.0-152.0-0.0","546","","","","50","0,0,0","6","blank","386","null","0.6615864634932828","0.7641295537859496","0.23356783289130342","0","","","","","",""
"","do_trial","153","546223","0.0-153.0-0.0","641","","","","51","0,1,1","6","blank","387","null","0.6189196171275168","0.717536370975284","0.3321053060860221","1","","","","","",""
"","do_recog","154","548484","0.0-154.0-0.0","756","","","","56","","","","388","probe-150","","","","","1","[object Object]","85","2","1",""
"","do_trial","155","551881","0.0-155.0-0.0","866","","","","50","0,1,0","6","blank","389","null","0.5380217409767607","0.5569977163504914","0.0909536837811875","1","","","","","",""
"","do_recog","156","554483","0.0-156.0-0.0","1095.9999999998836","","","","56","","","","390","probe-118","","","","","1","[object Object]","81","2","1",""
"","do_trial","157","559044","0.0-157.0-0.0","2030","","","","50","0,1,0","6","blank","391","null","0.4625668953580079","0.6049560032657944","0.12556253417868937","1","","","","","",""
"","do_recog","158","561173","0.0-158.0-0.0","623","","","","56","","","","392","probe-43","","","","","1","[object Object]","206","5","1",""
"","do_trial","159","564444","0.0-159.0-0.0","739","","","","50","0,1,1","6","blank","393","null","0.3585180116794298","0.499908007154244","0.5416738928885811","1","","","","","",""
"","do_trial","160","567347","0.0-160.0-0.0","373","","","","49","0,0,1","6","blank","394","null","0.39354554200125175","0.1953501763925386","0.5115207200205341","0","","","","","",""
"","do_trial","161","570889","0.0-161.0-0.0","1012","","","","50","0,1,0","6","blank","395","null","0.23578467140379214","0.1601167354692468","0.41820023143505664","1","","","","","",""
"","do_trial","162","573859","0.0-162.0-0.0","437.0000000001164","","","","51","0,0,0","6","blank","396","null","0.2481171651896802","0.0834156736158544","0.487408275708612","0","","","","","",""
"","do_trial","163","576761","0.0-163.0-0.0","373.0000000001164","","","","50","0,0,1","6","blank","397","null","0.3324447277274305","0.13088022710790032","0.5667615496202381","0","","","","","",""
"","do_recog","164","579044","0.0-164.0-0.0","778","","","","56","","","","398","probe-99","","","","","1","[object Object]","168","4","1",""
"","do_trial","165","582342","0.0-165.0-0.0","767","","","","49","0,0,0","6","blank","399","null","0.2683757297716608","0.08787273008593552","0.6139370371229841","0","","","","","",""
"","do_trial","166","585520","0.0-166.0-0.0","647","","","","50","0,1,0","6","blank","400","null","0.4104705944419282","0.12059985908590666","0.7156048574071204","1","","","","","",""
"","do_trial","167","588767","0.0-167.0-0.0","717.0000000001164","","","","49","0,0,1","6","blank","401","null","0.28244028669863264","0.06957118861070717","0.7559548481788043","0","","","","","",""
"","do_trial","168","591659","0.0-168.0-0.0","360","","","","50","0,0,0","6","blank","402","null","0.24178648788198168","0.12108529740254666","0.7335774005633704","0","","","","","",""
"","do_recog","169","594027","0.0-169.0-0.0","862","","","","56","","","","403","probe-120","","","","","1","[object Object]","204","5","1",""
"","do_trial","170","597980","0.0-170.0-0.0","1423","","","","51","1,0,1","6","blank","404","null","0.3296205916251588","0.19532888631068068","0.8876496591153307","1","","","","","",""
"","do_trial","171","601114","0.0-171.0-0.0","603","","","","50","0,0,1","6","blank","405","null","0.4175112392543687","0.23163059046042805","0.8348383690651977","0","","","","","",""
"","do_recog","172","603700","0.0-172.0-0.0","1080","","","","56","","","","406","probe-253","","","","","0","[object Object]","null","null","0",""
"","do_trial","173","607140","0.0-173.0-0.0","907","","","","49","1,1,1","6","blank","407","null","0.372233335414898","0.3057046539404795","0.9074901181063468","1","","","","","",""
"","do_recog","174","609538","0.0-174.0-0.0","891","","","","56","","","","408","probe-256","","","","","0","[object Object]","null","null","0",""
"","do_trial","175","612862","0.0-175.0-0.0","791.9999999998836","","","","50","1,0,1","6","blank","409","null","0.18222043735021623","0.4055116942264423","0.8832047392646287","0","","","","","",""
"","do_trial","176","615826","0.0-176.0-0.0","431","","","","51","0,0,1","6","blank","410","null","0.25123902430336736","0.3222392304259077","0.7631580108807497","1","","","","","",""
"","do_trial","177","618842","0.0-177.0-0.0","483.9999999998836","","","","49","0,0,1","6","blank","411","null","0.20710878853994835","0.22417746348701584","0.846654962808226","0","","","","","",""
"","do_recog","178","621207","0.0-178.0-0.0","858","","","","56","","","","412","probe-248","","","","","0","[object Object]","null","null","0",""
"","do_trial","179","624416","0.0-179.0-0.0","674","","","","49","1,0,1","6","blank","413","null","0.271037683305822","0.22449769609325393","0.7810196244736805","1","","","","","",""
"","do_trial","180","627358","0.0-180.0-0.0","407","","","","51","0,1,1","6","blank","414","null","0.3343292881070037","0.13310090010497155","0.7875952438667707","1","","","","","",""
"","do_trial","181","630324","0.0-181.0-0.0","435","","","","50","0,0,0","6","blank","415","null","0.23127097743197822","0.19243758374668943","0.8066664139740762","0","","","","","",""
"","do_trial","182","633222","0.0-182.0-0.0","362.0000000001164","","","","51","0,1,1","6","blank","416","null","0.3614466589956635","0.13895557334691094","0.8130983252268016","1","","","","","",""
"","do_recog","183","635527","0.0-183.0-0.0","798","","","","56","","","","417","probe-255","","","","","0","[object Object]","null","null","0",""
"","do_trial","184","638811","0.0-184.0-0.0","751.0000000001164","","","","50","1,0,1","6","blank","418","null","0.4368280250989783","0.11427773236663123","0.878830838471222","0","","","","","",""
"","do_recog","185","641018","0.0-185.0-0.0","700.0000000001164","","","","56","","","","419","probe-245","","","","","0","[object Object]","null","null","0",""
"","do_pick_best_pirate","186","642426","0.0-186.0-0.0","402","","","","49","","","","","","","","","","","","","","",""
"","do_pick_best_pirate","187","648411","0.0-187.0-0.0","4979.000000000116","","","","50","","","","","","","","","","","","","","",""
"","do_pick_best_pirate","188","653084","0.0-188.0-0.0","3665","","","","50","","","","","","","","","","","","","","",""
"","do_pick_best_pirate","189","655250","0.0-189.0-0.0","1159.9999999998836","","","","49","","","","","","","","","","","","","","",""
"","do_pick_best_pirate","190","658136","0.0-190.0-0.0","1879","","","","51","","","","","","","","","","","","","","",""
"","do_pick_best_pirate","191","661729","0.0-191.0-0.0","2587","","","","49","","","","","","","","","","","","","","",""
"","html-keyboard-response","192","667903","0.0-192.0-0.0","6173","<div class='center'>You are all done with both parts of the experiment! You made $15 plus $3 in bonus payment!! Thank you for participating. You will recieve your payment within 3 days<p><b>[Press the space bar to end the experiment]</b></p></div>","32","","","","","","","","","","","","","","","","",""
