success,trial_type,trial_index,time_elapsed,internal_node_id,rt,stimulus,subject_id,key_press,response,choice_outcomes,context_n,context_img_id,trial_n,probe_img_id,pR_red,pR_white,pR_black,outcome,is_valid,image_to_show,probed_trial,probed_context,correct,context_id
TRUE,fullscreen,0,2316,0.0-0.0,,,,,,,,,,,,,,,,,,,,
,pavlovia,1,2319,0.0-1.0,,,,,,,,,,,,,,,,,,,,
,html-keyboard-response,2,10665,0.0-2.0,8345.82,"<div class='center'><p>Like yesterday,as the head captain of the ship, you have one important things to do: </p><b><p> Pick the pirate who you think will be most successful at robbing the next ship.</p></b><p>This is important in determining how much bonus money you’ll win.</p><br><p>The game will start by showing you the pirates. First pick a pirate using the <b> 1, 2, 3 </b> buttons on your keyboard. </p><p> Press <b>'1'</b> to choose red beard, <b>'2'</b> to choose white beard, and <b>'3'</b> to choose black beard</p><p> You only have 3 seconds to pick a pirate, so please make a choice quickly! If you are too slow, you’ll have to wait a bit during the time out.</p><p> Don’t feel rushed, but please do try to make a choice every time.</p><p>How good a pirate is at robbing a ship will change depending on the place they are in and how good the defenses are of the ship.</p><p><b>[Press the space bar to begin the practice game]</b></p></div>",615dd486a486a2cac95cd590,32,,,,,,,,,,,,,,,,
,html-keyboard-response,3,24586,0.0-3.0,13920.74,"<div class='center'><p>You’ve arrived at the final island of your journey! Unfortunately, it’s very foggy out, so you won’t be able to see it in the distance like the previous islands you've visited.</p><p>You’ll still be deciding which pirate you want to rob a ship like before. However, because of the fog, you also won’t be able to see the ship.</p><p>This means you do not have to remember the ships you rob on this island.</p><p><b>[Press the space bar to continue]</b></p></div>",,32,,,,,,,,,,,,,,,,
,html-keyboard-response,4,36591,0.0-4.0,12005.465,"<div class='center'><p> Sometimes you’ll be shown a ship, and you will be asked if you saw this ship on a past island.</p><p> Here is an example of what you will see.</p><p><b>[Press the space bar to continue]</b></p><p><img src='run_exp/static/images/tutorial/example_recog_trial.png' height='500'></p></div>",,32,,,,,,,,,,,,,,,,
,html-keyboard-response,5,39400,0.0-5.0,2807.555,"<div class='center'><p> You will press the 5, 6, 7, 8 buttons on your keyboard to respond.</p><p>If you are very sure saw the ship, press <b>5</b> on your keyboard.</p><p> If you think you  saw it before but are not sure, then press <b>6</b>.</p><p> If you think you have not seen it before but are not sure, then press <b>7</b>.</p><p> If you are sure you did not see the ship before, then press <b>8</b>.</p><p><b>[Press the space bar to continue]</b></p><p><img src='run_exp/static/images/tutorial/example_recog_trial.png' height='500'></p></div>",,32,,,,,,,,,,,,,,,,
,html-keyboard-response,6,47176,0.0-6.0,7775.815,"<div class='center'><p> If you remember correctly, then you’ll get a gold coin like this: </p><p><img src='run_exp/static/images/tutorial/reward_small.png' height='200'></p><p>If you do not remember correctly, then you'll see a red x like this: </p><p><img src='run_exp/static/images/tutorial/reward_no.png' height='200'></p><p>Importantly, when you are shown a ship, take the time to remind yourself which island you saw it on. This will help you in the next part of the study.</p><p><b>[Press the space bar to continue]</b></p></div>",,32,,,,,,,,,,,,,,,,
,html-keyboard-response,7,50159,0.0-7.0,2982.61,"<div class='center'><p>Let's go over the important points again. Your job is to: </p><p>1. Pick the pirate who is best at robbing ships and will bring you back gold coins. </p><p>2. Correctly remember whether or not you saw a ship before. If you did see the ship before, remind yourself on which island you saw the ship. </p><p><b>[Press the space bar to begin the next part of the study]</b></p></div>",,32,,,,,,,,,,,,,,,,
,do_welcome,8,51676,0.0-8.0,null,,,,null,,,,,,,,,,,,,,,
,do_trial,9,55807,0.0-9.0-0.0,1585.135,,,,50,"0,1,0",6,blank,230,null,0.330182622,0.375575,0.291657642,1,,,,,,
,html-keyboard-response,10,56813,0.0-9.0-1.0,null,<p></p>,,null,,,,,,,,,,,,,,,,
,do_trial,11,59816,0.0-10.0-0.0,457.59,,,,50,"0,1,0",6,blank,231,null,0.193749258,0.33823926,0.167153315,1,,,,,,
,html-keyboard-response,12,60821,0.0-10.0-1.0,null,<p></p>,,null,,,,,,,,,,,,,,,,
,do_trial,13,63791,0.0-11.0-0.0,425.28,,,,50,"1,0,0",6,blank,232,null,0.157924701,0.370582093,0.190988693,0,,,,,,
,html-keyboard-response,14,64795,0.0-11.0-1.0,null,<p></p>,,null,,,,,,,,,,,,,,,,
,do_trial,15,67627,0.0-12.0-0.0,292.7999999,,,,50,"0,1,0",6,blank,233,null,0.091494231,0.323126712,0.240074084,1,,,,,,
,html-keyboard-response,16,68630,0.0-12.0-1.0,null,<p></p>,,null,,,,,,,,,,,,,,,,
,do_trial,17,71484,0.0-13.0-0.0,310.5100001,,,,50,"0,1,0",6,blank,234,null,0.11982331,0.386777037,0.182645206,1,,,,,,
,html-keyboard-response,18,72488,0.0-13.0-1.0,null,<p></p>,,null,,,,,,,,,,,,,,,,
,do_trial,19,75311,0.0-14.0-0.0,279.085,,,,50,"0,1,0",6,blank,235,null,0.067144963,0.413493803,0.240951564,1,,,,,,
,html-keyboard-response,20,76317,0.0-14.0-1.0,null,<p></p>,,null,,,,,,,,,,,,,,,,
,do_trial,21,79152,0.0-15.0-0.0,289.99,,,,50,"0,0,0",6,blank,236,null,0.067257442,0.28989967,0.236035999,0,,,,,,
,html-keyboard-response,22,80155,0.0-15.0-1.0,null,<p></p>,,null,,,,,,,,,,,,,,,,
,do_trial,23,82995,0.0-16.0-0.0,299.21,,,,50,"0,0,0",6,blank,237,null,0.062300451,0.401005157,0.240083899,0,,,,,,
,html-keyboard-response,24,83997,0.0-16.0-1.0,null,<p></p>,,null,,,,,,,,,,,,,,,,
,do_trial,25,86824,0.0-17.0-0.0,281.735,,,,50,"1,0,0",6,blank,238,null,0.13868715,0.373091957,0.297342167,0,,,,,,
,html-keyboard-response,26,87828,0.0-17.0-1.0,null,<p></p>,,null,,,,,,,,,,,,,,,,
,do_trial,27,90614,0.0-18.0-0.0,242.935,,,,50,"0,1,0",6,blank,239,null,0.12907442,0.327933032,0.275430979,1,,,,,,
,html-keyboard-response,28,91617,0.0-18.0-1.0,null,<p></p>,,null,,,,,,,,,,,,,,,,
,do_trial,29,94528,0.0-19.0-0.0,365.0100001,,,,50,"0,0,1",6,blank,240,null,0.17485821,0.302154839,0.352594843,0,,,,,,
,html-keyboard-response,30,95532,0.0-19.0-1.0,null,<p></p>,,null,,,,,,,,,,,,,,,,
,do_recog,31,101546,0.0-20.0-0.0,null,,,,null,,,,241,probe-23,,,,,1,[object Object],202,5,0,
,html-keyboard-response,32,102550,0.0-20.0-1.0,null,<p></p>,,null,,,,,,,,,,,,,,,,
,do_trial,33,105480,0.0-21.0-0.0,385.6749999,,,,50,"1,1,0",6,blank,242,null,0.359115529,0.351382188,0.337922296,1,,,,,,
,html-keyboard-response,34,106485,0.0-21.0-1.0,null,<p></p>,,null,,,,,,,,,,,,,,,,
,do_trial,35,109306,0.0-22.0-0.0,280.455,,,,50,"0,1,0",6,blank,243,null,0.34689496,0.39226517,0.254420103,1,,,,,,
,html-keyboard-response,36,110310,0.0-22.0-1.0,null,<p></p>,,null,,,,,,,,,,,,,,,,
,do_trial,37,113186,0.0-23.0-0.0,335.8400001,,,,50,"0,0,0",6,blank,244,null,0.534893294,0.288760044,0.179460377,0,,,,,,
,html-keyboard-response,38,114189,0.0-23.0-1.0,null,<p></p>,,null,,,,,,,,,,,,,,,,
,do_trial,39,117045,0.0-24.0-0.0,312.8699999,,,,50,"1,0,0",6,blank,245,null,0.523174262,0.256811511,0.256365824,0,,,,,,
,html-keyboard-response,40,118050,0.0-24.0-1.0,null,<p></p>,,null,,,,,,,,,,,,,,,,
,do_trial,41,120921,0.0-25.0-0.0,330.295,,,,50,"0,0,1",6,blank,246,null,0.552039204,0.348902163,0.244155537,0,,,,,,
,html-keyboard-response,42,121925,0.0-25.0-1.0,null,<p></p>,,null,,,,,,,,,,,,,,,,
,do_recog,43,124957,0.0-26.0-0.0,1521.725,,,,55,,,,247,probe-195,,,,,1,[object Object],205,5,0,
,html-keyboard-response,44,125961,0.0-26.0-1.0,null,<p></p>,,null,,,,,,,,,,,,,,,,
,do_trial,45,128998,0.0-27.0-0.0,494.7650001,,,,50,"1,1,0",6,blank,248,null,0.683954353,0.277951067,0.152591962,1,,,,,,
,html-keyboard-response,46,129999,0.0-27.0-1.0,null,<p></p>,,null,,,,,,,,,,,,,,,,
,do_trial,47,132877,0.0-28.0-0.0,333.31,,,,50,"1,0,1",6,blank,249,null,0.592060175,0.328980068,0.201567432,0,,,,,,
,html-keyboard-response,48,133881,0.0-28.0-1.0,null,<p></p>,,null,,,,,,,,,,,,,,,,
,do_trial,49,136868,0.0-29.0-0.0,442.925,,,,50,"1,0,0",6,blank,250,null,0.535228804,0.232624386,0.128208644,0,,,,,,
,html-keyboard-response,50,137871,0.0-29.0-1.0,null,<p></p>,,null,,,,,,,,,,,,,,,,
,do_trial,51,140750,0.0-30.0-0.0,333.035,,,,50,"0,1,0",6,blank,251,null,0.546409862,0.350030811,0.203158755,1,,,,,,
,html-keyboard-response,52,141754,0.0-30.0-1.0,null,<p></p>,,null,,,,,,,,,,,,,,,,
,do_trial,53,144765,0.0-31.0-0.0,466.2650001,,,,50,"0,0,0",6,blank,252,null,0.588880745,0.273024501,0.22208225,0,,,,,,
,html-keyboard-response,54,145769,0.0-31.0-1.0,null,<p></p>,,null,,,,,,,,,,,,,,,,
,do_recog,55,148768,0.0-32.0-0.0,1492.4,,,,53,,,,253,probe-178,,,,,1,[object Object],123,3,1,
,html-keyboard-response,56,149773,0.0-32.0-1.0,null,<p></p>,,null,,,,,,,,,,,,,,,,
,do_trial,57,152752,0.0-33.0-0.0,439.87,,,,50,"0,0,0",6,blank,254,null,0.513147733,0.241671671,0.275137274,0,,,,,,
,html-keyboard-response,58,153755,0.0-33.0-1.0,null,<p></p>,,null,,,,,,,,,,,,,,,,
,do_recog,59,156956,0.0-34.0-0.0,1690.465,,,,55,,,,255,probe-94,,,,,1,[object Object],160,4,0,
,html-keyboard-response,60,157960,0.0-34.0-1.0,null,<p></p>,,null,,,,,,,,,,,,,,,,
,do_trial,61,160847,0.0-35.0-0.0,346.96,,,,50,"0,1,0",6,blank,256,null,0.31828892,0.367748476,0.181880592,1,,,,,,
,html-keyboard-response,62,161853,0.0-35.0-1.0,null,<p></p>,,null,,,,,,,,,,,,,,,,
,do_trial,63,164756,0.0-36.0-0.0,358.75,,,,50,"1,1,1",6,blank,257,null,0.448692956,0.370729147,0.212356275,1,,,,,,
,html-keyboard-response,64,165760,0.0-36.0-1.0,null,<p></p>,,null,,,,,,,,,,,,,,,,
,do_trial,65,168720,0.0-37.0-0.0,418.6099999,,,,50,"1,0,0",6,blank,258,null,0.487721665,0.198573664,0.223852318,0,,,,,,
,html-keyboard-response,66,169724,0.0-37.0-1.0,null,<p></p>,,null,,,,,,,,,,,,,,,,
,do_trial,67,172676,0.0-38.0-0.0,407.135,,,,50,"0,0,0",6,blank,259,null,0.45412915,0.075172827,0.113202138,0,,,,,,
,html-keyboard-response,68,173680,0.0-38.0-1.0,null,<p></p>,,null,,,,,,,,,,,,,,,,
,do_recog,69,177132,0.0-39.0-0.0,1940.31,,,,54,,,,260,probe-203,,,,,1,[object Object],120,3,1,
,html-keyboard-response,70,178135,0.0-39.0-1.0,null,<p></p>,,null,,,,,,,,,,,,,,,,
,do_trial,71,181176,0.0-40.0-0.0,498.6899999,,,,50,"1,0,0",6,blank,261,null,0.628869671,0.104135097,0.156993354,0,,,,,,
,html-keyboard-response,72,182181,0.0-40.0-1.0,null,<p></p>,,null,,,,,,,,,,,,,,,,
,do_recog,73,184952,0.0-41.0-0.0,1263.125,,,,55,,,,262,probe-148,,,,,1,[object Object],165,4,0,
,html-keyboard-response,74,185956,0.0-41.0-1.0,null,<p></p>,,null,,,,,,,,,,,,,,,,
,do_trial,75,188855,0.0-42.0-0.0,358.2,,,,50,"1,0,1",6,blank,263,null,0.71428121,0.099977614,0.222896858,0,,,,,,
,html-keyboard-response,76,189857,0.0-42.0-1.0,null,<p></p>,,null,,,,,,,,,,,,,,,,
,do_recog,77,193303,0.0-43.0-0.0,1939.38,,,,54,,,,264,probe-177,,,,,1,[object Object],204,5,1,
,html-keyboard-response,78,194306,0.0-43.0-1.0,null,<p></p>,,null,,,,,,,,,,,,,,,,
,do_trial,79,197270,0.0-44.0-0.0,425.375,,,,50,"1,0,1",6,blank,265,null,0.746048866,0.223754229,0.221862582,0,,,,,,
,html-keyboard-response,80,198274,0.0-44.0-1.0,null,<p></p>,,null,,,,,,,,,,,,,,,,
,do_trial,81,201243,0.0-45.0-0.0,424.1000001,,,,50,"0,0,0",6,blank,266,null,0.573877165,0.196226576,0.095027832,0,,,,,,
,html-keyboard-response,82,202247,0.0-45.0-1.0,null,<p></p>,,null,,,,,,,,,,,,,,,,
,do_recog,83,205192,0.0-46.0-0.0,1436.145,,,,55,,,,267,probe-182,,,,,1,[object Object],40,1,0,
,html-keyboard-response,84,206196,0.0-46.0-1.0,null,<p></p>,,null,,,,,,,,,,,,,,,,
,do_trial,85,209017,0.0-47.0-0.0,276.9000001,,,,50,"1,0,0",6,blank,268,null,0.580517802,0.267187487,0.113186471,0,,,,,,
,html-keyboard-response,86,210020,0.0-47.0-1.0,null,<p></p>,,null,,,,,,,,,,,,,,,,
,do_trial,87,213025,0.0-48.0-0.0,461.11,,,,50,"1,0,0",6,blank,269,null,0.711533069,0.210376879,0.091090271,0,,,,,,
,html-keyboard-response,88,214029,0.0-48.0-1.0,null,<p></p>,,null,,,,,,,,,,,,,,,,
,do_trial,89,217078,0.0-49.0-0.0,508.1300001,,,,51,"1,0,0",6,blank,270,null,0.781282182,0.143683014,0.162434537,0,,,,,,
,html-keyboard-response,90,218083,0.0-49.0-1.0,null,<p></p>,,null,,,,,,,,,,,,,,,,
,do_trial,91,221050,0.0-50.0-0.0,422.4650001,,,,49,"1,0,0",6,blank,271,null,0.848889778,0.268669829,0.068125743,1,,,,,,
,html-keyboard-response,92,222053,0.0-50.0-1.0,null,<p></p>,,null,,,,,,,,,,,,,,,,
,do_trial,93,224998,0.0-51.0-0.0,403.385,,,,49,"1,0,1",6,blank,272,null,0.724755942,0.281553731,0.053122525,1,,,,,,
,html-keyboard-response,94,226001,0.0-51.0-1.0,null,<p></p>,,null,,,,,,,,,,,,,,,,
,do_trial,95,228855,0.0-52.0-0.0,310.385,,,,49,"1,0,0",6,blank,273,null,0.669045055,0.30214667,0.170927064,1,,,,,,
,html-keyboard-response,96,229859,0.0-52.0-1.0,null,<p></p>,,null,,,,,,,,,,,,,,,,
,do_trial,97,232761,0.0-53.0-0.0,356.885,,,,49,"0,0,0",6,blank,274,null,0.777836031,0.359011152,0.213650142,0,,,,,,
,html-keyboard-response,98,233766,0.0-53.0-1.0,null,<p></p>,,null,,,,,,,,,,,,,,,,
,do_recog,99,236721,0.0-54.0-0.0,1444.29,,,,53,,,,275,probe-12,,,,,1,[object Object],81,2,1,
,html-keyboard-response,100,237725,0.0-54.0-1.0,null,<p></p>,,null,,,,,,,,,,,,,,,,
,do_trial,101,240732,0.0-55.0-0.0,466.73,,,,49,"1,0,0",6,blank,276,null,0.776338265,0.206844465,0.135067985,1,,,,,,
,html-keyboard-response,102,241738,0.0-55.0-1.0,null,<p></p>,,null,,,,,,,,,,,,,,,,
,do_trial,103,244704,0.0-56.0-0.0,420.99,,,,49,"1,1,0",6,blank,277,null,0.606504292,0.250966567,0.122372054,1,,,,,,
,html-keyboard-response,104,245710,0.0-56.0-1.0,null,<p></p>,,null,,,,,,,,,,,,,,,,
,do_trial,105,248673,0.0-57.0-0.0,418.1499999,,,,49,"0,1,0",6,blank,278,null,0.481827692,0.265477556,0.066638336,0,,,,,,
,html-keyboard-response,106,249677,0.0-57.0-1.0,null,<p></p>,,null,,,,,,,,,,,,,,,,
,do_trial,107,252519,0.0-58.0-0.0,297.315,,,,49,"0,0,0",6,blank,279,null,0.523807576,0.192050331,0.1358104,0,,,,,,
,html-keyboard-response,108,253523,0.0-58.0-1.0,null,<p></p>,,null,,,,,,,,,,,,,,,,
,do_trial,109,256507,0.0-59.0-0.0,443.7750001,,,,49,"1,1,0",6,blank,280,null,0.46111415,0.351590717,0.091609506,1,,,,,,
,html-keyboard-response,110,257510,0.0-59.0-1.0,null,<p></p>,,null,,,,,,,,,,,,,,,,
,do_trial,111,260448,0.0-60.0-0.0,392.9099999,,,,49,"1,0,0",6,blank,281,null,0.608566664,0.256967646,0.091530742,1,,,,,,
,html-keyboard-response,112,261449,0.0-60.0-1.0,null,<p></p>,,null,,,,,,,,,,,,,,,,
,do_trial,113,264347,0.0-61.0-0.0,357.1500001,,,,49,"0,1,0",6,blank,282,null,0.480677977,0.213236103,0.068749981,0,,,,,,
,html-keyboard-response,114,265350,0.0-61.0-1.0,null,<p></p>,,null,,,,,,,,,,,,,,,,
,do_recog,115,268295,0.0-62.0-0.0,1434.475,,,,55,,,,283,probe-108,,,,,1,[object Object],80,2,0,
,html-keyboard-response,116,269300,0.0-62.0-1.0,null,<p></p>,,null,,,,,,,,,,,,,,,,
,do_trial,117,272223,0.0-63.0-0.0,377.555,,,,49,"0,0,1",6,blank,284,null,0.580423328,0.20419031,0.10941505,0,,,,,,
,html-keyboard-response,118,273227,0.0-63.0-1.0,null,<p></p>,,null,,,,,,,,,,,,,,,,
,do_recog,119,276206,0.0-64.0-0.0,1469.32,,,,55,,,,285,probe-206,,,,,1,[object Object],122,3,0,
,html-keyboard-response,120,277210,0.0-64.0-1.0,null,<p></p>,,null,,,,,,,,,,,,,,,,
,do_trial,121,280229,0.0-65.0-0.0,474.535,,,,50,"0,0,0",6,blank,286,null,0.528267688,0.200479437,0.173635146,0,,,,,,
,html-keyboard-response,122,281233,0.0-65.0-1.0,null,<p></p>,,null,,,,,,,,,,,,,,,,
,do_trial,123,284218,0.0-66.0-0.0,445.715,,,,50,"1,0,0",6,blank,287,null,0.632829754,0.241600436,0.205048687,0,,,,,,
,html-keyboard-response,124,285219,0.0-66.0-1.0,null,<p></p>,,null,,,,,,,,,,,,,,,,
,do_trial,125,288134,0.0-67.0-0.0,370.445,,,,50,"1,0,0",6,blank,288,null,0.701886822,0.2384439,0.201423651,0,,,,,,
,html-keyboard-response,126,289141,0.0-67.0-1.0,null,<p></p>,,null,,,,,,,,,,,,,,,,
,do_trial,127,292070,0.0-68.0-0.0,384.8849999,,,,51,"1,0,0",6,blank,289,null,0.664549501,0.229699918,0.065852007,0,,,,,,
,html-keyboard-response,128,293074,0.0-68.0-1.0,null,<p></p>,,null,,,,,,,,,,,,,,,,
,do_trial,129,295975,0.0-69.0-0.0,356.2200001,,,,51,"1,0,0",6,blank,290,null,0.701761231,0.266668953,0.088469864,0,,,,,,
,html-keyboard-response,130,296979,0.0-69.0-1.0,null,<p></p>,,null,,,,,,,,,,,,,,,,
,do_recog,131,300138,0.0-70.0-0.0,1652.615,,,,53,,,,291,probe-01,,,,,1,[object Object],203,5,1,
,html-keyboard-response,132,301142,0.0-70.0-1.0,null,<p></p>,,null,,,,,,,,,,,,,,,,
,do_trial,133,304142,0.0-71.0-0.0,454.5300001,,,,51,"1,0,0",6,blank,292,null,0.687815934,0.174357935,0.111041628,0,,,,,,
,html-keyboard-response,134,305146,0.0-71.0-1.0,null,<p></p>,,null,,,,,,,,,,,,,,,,
,do_recog,135,308189,0.0-72.0-0.0,1533.3,,,,53,,,,293,probe-208,,,,,1,[object Object],126,3,1,
,html-keyboard-response,136,309193,0.0-72.0-1.0,null,<p></p>,,null,,,,,,,,,,,,,,,,
,do_trial,137,312141,0.0-73.0-0.0,403.71,,,,49,"1,0,0",6,blank,294,null,0.893418918,0.194887335,0.198378568,1,,,,,,
,html-keyboard-response,138,313144,0.0-73.0-1.0,null,<p></p>,,null,,,,,,,,,,,,,,,,
,do_trial,139,316117,0.0-74.0-0.0,428.23,,,,49,"0,1,0",6,blank,295,null,0.590273064,0.422083184,0.228991882,0,,,,,,
,html-keyboard-response,140,317121,0.0-74.0-1.0,null,<p></p>,,null,,,,,,,,,,,,,,,,
,do_trial,141,320141,0.0-75.0-0.0,474.575,,,,49,"1,0,1",6,blank,296,null,0.45080784,0.729697166,0.262243064,1,,,,,,
,html-keyboard-response,142,321145,0.0-75.0-1.0,null,<p></p>,,null,,,,,,,,,,,,,,,,
,do_trial,143,324165,0.0-76.0-0.0,474.4449999,,,,49,"1,1,1",6,blank,297,null,0.556129678,0.673036259,0.171466157,1,,,,,,
,html-keyboard-response,144,325169,0.0-76.0-1.0,null,<p></p>,,null,,,,,,,,,,,,,,,,
,do_recog,145,327965,0.0-77.0-0.0,1287.045,,,,55,,,,298,probe-198,,,,,1,[object Object],208,5,0,
,html-keyboard-response,146,328969,0.0-77.0-1.0,null,<p></p>,,null,,,,,,,,,,,,,,,,
,do_trial,147,331901,0.0-78.0-0.0,387.5299999,,,,49,"0,0,0",6,blank,299,null,0.407299304,0.596368919,0.104454071,0,,,,,,
,html-keyboard-response,148,332905,0.0-78.0-1.0,null,<p></p>,,null,,,,,,,,,,,,,,,,
,do_recog,149,335701,0.0-79.0-0.0,1284.68,,,,55,,,,300,probe-32,,,,,1,[object Object],201,5,0,
,html-keyboard-response,150,336704,0.0-79.0-1.0,null,<p></p>,,null,,,,,,,,,,,,,,,,
,do_trial,151,339612,0.0-80.0-0.0,363.08,,,,49,"1,1,1",6,blank,301,null,0.464817651,0.652059556,0.135063815,1,,,,,,
,html-keyboard-response,152,340616,0.0-80.0-1.0,null,<p></p>,,null,,,,,,,,,,,,,,,,
,do_trial,153,343635,0.0-81.0-0.0,475.845,,,,49,"0,1,0",6,blank,302,null,0.365754493,0.635012092,0.060365301,0,,,,,,
,html-keyboard-response,154,344638,0.0-81.0-1.0,null,<p></p>,,null,,,,,,,,,,,,,,,,
,do_trial,155,347628,0.0-82.0-0.0,444.59,,,,49,"0,1,0",6,blank,303,null,0.160856442,0.71427427,0.127875047,0,,,,,,
,html-keyboard-response,156,348632,0.0-82.0-1.0,null,<p></p>,,null,,,,,,,,,,,,,,,,
,do_recog,157,351636,0.0-83.0-0.0,1493.62,,,,53,,,,304,probe-83,,,,,1,[object Object],83,2,1,
,html-keyboard-response,158,352639,0.0-83.0-1.0,null,<p></p>,,null,,,,,,,,,,,,,,,,
,do_trial,159,355500,0.0-84.0-0.0,315.74,,,,49,"0,1,0",6,blank,305,null,0.25851835,0.746290915,0.121226856,0,,,,,,
,html-keyboard-response,160,356504,0.0-84.0-1.0,null,<p></p>,,null,,,,,,,,,,,,,,,,
,do_trial,161,359427,0.0-85.0-0.0,377.8799999,,,,49,"0,1,1",6,blank,306,null,0.230881536,0.612840331,0.051854436,0,,,,,,
,html-keyboard-response,162,360431,0.0-85.0-1.0,null,<p></p>,,null,,,,,,,,,,,,,,,,
,do_trial,163,363425,0.0-86.0-0.0,450.8850001,,,,49,"0,1,0",6,blank,307,null,0.259221846,0.577225919,0.133918866,0,,,,,,
,html-keyboard-response,164,364428,0.0-86.0-1.0,null,<p></p>,,null,,,,,,,,,,,,,,,,
,do_trial,165,367448,0.0-87.0-0.0,478.845,,,,49,"1,1,0",6,blank,308,null,0.295884507,0.779755362,0.13796986,1,,,,,,
,html-keyboard-response,166,368453,0.0-87.0-1.0,null,<p></p>,,null,,,,,,,,,,,,,,,,
,do_trial,167,371422,0.0-88.0-0.0,429.085,,,,49,"0,0,0",6,blank,309,null,0.410978759,0.703470535,0.098853758,0,,,,,,
,html-keyboard-response,168,372425,0.0-88.0-1.0,null,<p></p>,,null,,,,,,,,,,,,,,,,
,do_trial,169,375419,0.0-89.0-0.0,448.0849999,,,,49,"0,1,0",6,blank,310,null,0.39420099,0.518980864,0.143911222,0,,,,,,
,html-keyboard-response,170,376423,0.0-89.0-1.0,null,<p></p>,,null,,,,,,,,,,,,,,,,
,do_recog,171,379590,0.0-90.0-0.0,1661.13,,,,53,,,,311,probe-176,,,,,1,[object Object],85,2,1,
,html-keyboard-response,172,380594,0.0-90.0-1.0,null,<p></p>,,null,,,,,,,,,,,,,,,,
,do_trial,173,383490,0.0-91.0-0.0,351.8750001,,,,49,"0,1,0",6,blank,312,null,0.30407241,0.531544527,0.075113252,0,,,,,,
,html-keyboard-response,174,384494,0.0-91.0-1.0,null,<p></p>,,null,,,,,,,,,,,,,,,,
,do_recog,175,387377,0.0-92.0-0.0,1374.675,,,,55,,,,313,probe-173,,,,,1,[object Object],209,5,0,
,html-keyboard-response,176,388381,0.0-92.0-1.0,null,<p></p>,,null,,,,,,,,,,,,,,,,
,do_trial,177,391234,0.0-93.0-0.0,308.265,,,,49,"0,1,0",6,blank,314,null,0.177556908,0.528526959,0.084154687,0,,,,,,
,html-keyboard-response,178,392238,0.0-93.0-1.0,null,<p></p>,,null,,,,,,,,,,,,,,,,
,do_trial,179,395207,0.0-94.0-0.0,425.9850001,,,,49,"0,1,0",6,blank,315,null,0.137952622,0.532167905,0.250986815,0,,,,,,
,html-keyboard-response,180,396211,0.0-94.0-1.0,null,<p></p>,,null,,,,,,,,,,,,,,,,
,do_recog,181,399130,0.0-95.0-0.0,1410.39,,,,55,,,,316,probe-22,,,,,1,[object Object],169,4,0,
,html-keyboard-response,182,400134,0.0-95.0-1.0,null,<p></p>,,null,,,,,,,,,,,,,,,,
,do_trial,183,403010,0.0-96.0-0.0,331.245,,,,49,"0,1,0",6,blank,317,null,0.192431341,0.579917534,0.280071151,0,,,,,,
,html-keyboard-response,184,404014,0.0-96.0-1.0,null,<p></p>,,null,,,,,,,,,,,,,,,,
,do_recog,185,406313,0.0-97.0-0.0,788.4099999,,,,53,,,,318,probe-46,,,,,1,[object Object],163,4,1,
,html-keyboard-response,186,407317,0.0-97.0-1.0,null,<p></p>,,null,,,,,,,,,,,,,,,,
,do_trial,187,410159,0.0-98.0-0.0,299.02,,,,49,"1,1,0",6,blank,319,null,0.320437356,0.632040619,0.205695883,1,,,,,,
,html-keyboard-response,188,411165,0.0-98.0-1.0,null,<p></p>,,null,,,,,,,,,,,,,,,,
,do_recog,189,413389,0.0-99.0-0.0,717.35,,,,53,,,,320,probe-165,,,,,1,[object Object],129,3,1,
,html-keyboard-response,190,414393,0.0-99.0-1.0,null,<p></p>,,null,,,,,,,,,,,,,,,,
,do_trial,191,417248,0.0-100.0-0.0,310.575,,,,49,"1,1,0",6,blank,321,null,0.438540131,0.630536258,0.083536644,1,,,,,,
,html-keyboard-response,192,418252,0.0-100.0-1.0,null,<p></p>,,null,,,,,,,,,,,,,,,,
,do_trial,193,421760,0.0-101.0-0.0,965.05,,,,49,"0,1,0",6,blank,322,null,0.309484241,0.737380743,0.090701459,0,,,,,,
,html-keyboard-response,194,422766,0.0-101.0-1.0,null,<p></p>,,null,,,,,,,,,,,,,,,,
,do_trial,195,425782,0.0-102.0-0.0,474.505,,,,49,"0,1,0",6,blank,323,null,0.390424512,0.713221693,0.057371797,0,,,,,,
,html-keyboard-response,196,426786,0.0-102.0-1.0,null,<p></p>,,null,,,,,,,,,,,,,,,,
,do_trial,197,429782,0.0-103.0-0.0,454.33,,,,49,"0,1,1",6,blank,324,null,0.404887739,0.640157648,0.108210073,0,,,,,,
,html-keyboard-response,198,430786,0.0-103.0-1.0,null,<p></p>,,null,,,,,,,,,,,,,,,,
,do_trial,199,433808,0.0-104.0-0.0,477.605,,,,49,"1,1,0",6,blank,325,null,0.330352714,0.653777572,0.11719238,1,,,,,,
,html-keyboard-response,200,434812,0.0-104.0-1.0,null,<p></p>,,null,,,,,,,,,,,,,,,,
,do_trial,201,437830,0.0-105.0-0.0,474.9899999,,,,49,"0,0,0",6,blank,326,null,0.433550399,0.650079021,0.0559425,0,,,,,,
,html-keyboard-response,202,438834,0.0-105.0-1.0,null,<p></p>,,null,,,,,,,,,,,,,,,,
,do_recog,203,441047,0.0-106.0-0.0,702.88,,,,53,,,,327,probe-155,,,,,1,[object Object],125,3,1,
,html-keyboard-response,204,442050,0.0-106.0-1.0,null,<p></p>,,null,,,,,,,,,,,,,,,,
,do_trial,205,444904,0.0-107.0-0.0,308.795,,,,49,"1,1,0",6,blank,328,null,0.364277861,0.650141637,0.059863821,1,,,,,,
,html-keyboard-response,206,445908,0.0-107.0-1.0,null,<p></p>,,null,,,,,,,,,,,,,,,,
,do_trial,207,448942,0.0-108.0-0.0,491.625,,,,49,"0,1,0",6,blank,329,null,0.26676414,0.624820466,0.29828026,0,,,,,,
,html-keyboard-response,208,449946,0.0-108.0-1.0,null,<p></p>,,null,,,,,,,,,,,,,,,,
,do_trial,209,452869,0.0-109.0-0.0,380.2700001,,,,49,"0,0,0",6,blank,330,null,0.235778787,0.654727997,0.263090531,0,,,,,,
,html-keyboard-response,210,453873,0.0-109.0-1.0,null,<p></p>,,null,,,,,,,,,,,,,,,,
,do_trial,211,456772,0.0-110.0-0.0,356.8749999,,,,49,"0,1,0",6,blank,331,null,0.340081144,0.787065202,0.167281712,0,,,,,,
,html-keyboard-response,212,457776,0.0-110.0-1.0,null,<p></p>,,null,,,,,,,,,,,,,,,,
,do_trial,213,460717,0.0-111.0-0.0,398.795,,,,49,"0,0,0",6,blank,332,null,0.288158835,0.75867303,0.07580635,0,,,,,,
,html-keyboard-response,214,461720,0.0-111.0-1.0,null,<p></p>,,null,,,,,,,,,,,,,,,,
,do_recog,215,464119,0.0-112.0-0.0,887.5299999,,,,53,,,,333,probe-188,,,,,1,[object Object],42,1,1,
,html-keyboard-response,216,465123,0.0-112.0-1.0,null,<p></p>,,null,,,,,,,,,,,,,,,,
,do_trial,217,467930,0.0-113.0-0.0,267.2999999,,,,49,"0,0,0",6,blank,334,null,0.346792258,0.623606738,0.076288319,0,,,,,,
,html-keyboard-response,218,468934,0.0-113.0-1.0,null,<p></p>,,null,,,,,,,,,,,,,,,,
,do_trial,219,471780,0.0-114.0-0.0,304.4499999,,,,49,"0,1,0",6,blank,335,null,0.302181635,0.509760434,0.053697848,0,,,,,,
,html-keyboard-response,220,472784,0.0-114.0-1.0,null,<p></p>,,null,,,,,,,,,,,,,,,,
,do_trial,221,475782,0.0-115.0-0.0,453.49,,,,49,"1,1,1",6,blank,336,null,0.318713846,0.552762683,0.226665908,1,,,,,,
,html-keyboard-response,222,476786,0.0-115.0-1.0,null,<p></p>,,null,,,,,,,,,,,,,,,,
,do_trial,223,479777,0.0-116.0-0.0,451.0999999,,,,49,"1,1,0",6,blank,337,null,0.2360058,0.603697496,0.154660445,1,,,,,,
,html-keyboard-response,224,480781,0.0-116.0-1.0,null,<p></p>,,null,,,,,,,,,,,,,,,,
,do_recog,225,483005,0.0-117.0-0.0,715.105,,,,53,,,,338,probe-43,,,,,1,[object Object],41,1,1,
,html-keyboard-response,226,484008,0.0-117.0-1.0,null,<p></p>,,null,,,,,,,,,,,,,,,,
,do_trial,227,486845,0.0-118.0-0.0,291.3,,,,49,"1,0,0",6,blank,339,null,0.329728002,0.659596957,0.202799435,1,,,,,,
,html-keyboard-response,228,487846,0.0-118.0-1.0,null,<p></p>,,null,,,,,,,,,,,,,,,,
,do_trial,229,490715,0.0-119.0-0.0,325.555,,,,49,"0,1,0",6,blank,340,null,0.274376034,0.581037991,0.260604924,0,,,,,,
,html-keyboard-response,230,491718,0.0-119.0-1.0,null,<p></p>,,null,,,,,,,,,,,,,,,,
,do_trial,231,494577,0.0-120.0-0.0,315.8,,,,49,"0,0,0",6,blank,341,null,0.240281716,0.661897996,0.209725907,0,,,,,,
,html-keyboard-response,232,495580,0.0-120.0-1.0,null,<p></p>,,null,,,,,,,,,,,,,,,,
,do_trial,233,498484,0.0-121.0-0.0,357.7599999,,,,49,"1,1,0",6,blank,342,null,0.346092849,0.614180857,0.234672556,1,,,,,,
,html-keyboard-response,234,499486,0.0-121.0-1.0,null,<p></p>,,null,,,,,,,,,,,,,,,,
,do_trial,235,502449,0.0-122.0-0.0,421.265,,,,49,"0,1,0",6,blank,343,null,0.303623022,0.588576878,0.164432439,0,,,,,,
,html-keyboard-response,236,503452,0.0-122.0-1.0,null,<p></p>,,null,,,,,,,,,,,,,,,,
,do_trial,237,506349,0.0-123.0-0.0,352.005,,,,49,"1,0,0",6,blank,344,null,0.406417262,0.505390433,0.125549806,1,,,,,,
,html-keyboard-response,238,507354,0.0-123.0-1.0,null,<p></p>,,null,,,,,,,,,,,,,,,,
,do_recog,239,509749,0.0-124.0-0.0,884.015,,,,53,,,,345,probe-172,,,,,1,[object Object],46,1,1,
,html-keyboard-response,240,510753,0.0-124.0-1.0,null,<p></p>,,null,,,,,,,,,,,,,,,,
,do_trial,241,514229,0.0-125.0-0.0,927.655,,,,49,"1,1,0",6,blank,346,null,0.398739077,0.507403555,0.211430609,1,,,,,,
,html-keyboard-response,242,515232,0.0-125.0-1.0,null,<p></p>,,null,,,,,,,,,,,,,,,,
,do_trial,243,518141,0.0-126.0-0.0,364.1049999,,,,49,"1,0,0",6,blank,347,null,0.511980992,0.446198022,0.067322807,1,,,,,,
,html-keyboard-response,244,519142,0.0-126.0-1.0,null,<p></p>,,null,,,,,,,,,,,,,,,,
,do_trial,245,522087,0.0-127.0-0.0,405.38,,,,49,"1,1,0",6,blank,348,null,0.630790676,0.564815865,0.136092155,1,,,,,,
,html-keyboard-response,246,523090,0.0-127.0-1.0,null,<p></p>,,null,,,,,,,,,,,,,,,,
,do_recog,247,525375,0.0-128.0-0.0,778.615,,,,53,,,,349,probe-87,,,,,1,[object Object],43,1,1,
,html-keyboard-response,248,526379,0.0-128.0-1.0,null,<p></p>,,null,,,,,,,,,,,,,,,,
,do_trial,249,529224,0.0-129.0-0.0,303.6249999,,,,49,"0,0,0",6,blank,350,null,0.558799446,0.424722389,0.197800909,0,,,,,,
,html-keyboard-response,250,530227,0.0-129.0-1.0,null,<p></p>,,null,,,,,,,,,,,,,,,,
,do_trial,251,533079,0.0-130.0-0.0,309.995,,,,49,"1,1,0",6,blank,351,null,0.532863358,0.381935428,0.295591423,1,,,,,,
,html-keyboard-response,252,534082,0.0-130.0-1.0,null,<p></p>,,null,,,,,,,,,,,,,,,,
,do_trial,253,536978,0.0-131.0-0.0,351.19,,,,49,"1,1,0",6,blank,352,null,0.628359023,0.244348012,0.178857516,1,,,,,,
,html-keyboard-response,254,537983,0.0-131.0-1.0,null,<p></p>,,null,,,,,,,,,,,,,,,,
,do_trial,255,540857,0.0-132.0-0.0,328.67,,,,49,"1,0,0",6,blank,353,null,0.514685813,0.22931793,0.131689346,1,,,,,,
,html-keyboard-response,256,541860,0.0-132.0-1.0,null,<p></p>,,null,,,,,,,,,,,,,,,,
,do_trial,257,545091,0.0-133.0-0.0,685.2599999,,,,49,"1,0,1",6,blank,354,null,0.569126531,0.114887677,0.27253287,1,,,,,,
,html-keyboard-response,258,546096,0.0-133.0-1.0,null,<p></p>,,null,,,,,,,,,,,,,,,,
,do_recog,259,548431,0.0-134.0-0.0,828.58,,,,53,,,,355,probe-225,,,,,1,[object Object],86,2,1,
,html-keyboard-response,260,549435,0.0-134.0-1.0,null,<p></p>,,null,,,,,,,,,,,,,,,,
,do_trial,261,552274,0.0-135.0-0.0,294.48,,,,49,"1,0,1",6,blank,356,null,0.577185764,0.294051369,0.280589382,1,,,,,,
,html-keyboard-response,262,553277,0.0-135.0-1.0,null,<p></p>,,null,,,,,,,,,,,,,,,,
,do_recog,263,555616,0.0-136.0-0.0,831.575,,,,53,,,,357,probe-156,,,,,1,[object Object],121,3,1,
,html-keyboard-response,264,556620,0.0-136.0-1.0,null,<p></p>,,null,,,,,,,,,,,,,,,,
,do_trial,265,559458,0.0-137.0-0.0,293.135,,,,49,"0,1,0",6,blank,358,null,0.544531927,0.282563196,0.129630669,0,,,,,,
,html-keyboard-response,266,560461,0.0-137.0-1.0,null,<p></p>,,null,,,,,,,,,,,,,,,,
,do_trial,267,563592,0.0-138.0-0.0,588.67,,,,49,"1,1,0",6,blank,359,null,0.52203101,0.333945958,0.179713222,1,,,,,,
,html-keyboard-response,268,564593,0.0-138.0-1.0,null,<p></p>,,null,,,,,,,,,,,,,,,,
,do_trial,269,567634,0.0-139.0-0.0,500.355,,,,49,"1,0,0",6,blank,360,null,0.600824448,0.321312047,0.160854384,1,,,,,,
,html-keyboard-response,270,568637,0.0-139.0-1.0,null,<p></p>,,null,,,,,,,,,,,,,,,,
,do_trial,271,571618,0.0-140.0-0.0,436.155,,,,49,"1,1,0",6,blank,361,null,0.710848633,0.351592726,0.164489154,1,,,,,,
,html-keyboard-response,272,572621,0.0-140.0-1.0,null,<p></p>,,null,,,,,,,,,,,,,,,,
,do_recog,273,575064,0.0-141.0-0.0,933.32,,,,53,,,,362,probe-82,,,,,1,[object Object],127,3,1,
,html-keyboard-response,274,576068,0.0-141.0-1.0,null,<p></p>,,null,,,,,,,,,,,,,,,,
,do_trial,275,579056,0.0-142.0-0.0,445.175,,,,49,"1,1,0",6,blank,363,null,0.693043001,0.323707151,0.123091287,1,,,,,,
,html-keyboard-response,276,580060,0.0-142.0-1.0,null,<p></p>,,null,,,,,,,,,,,,,,,,
,do_recog,277,582311,0.0-143.0-0.0,742.14,,,,53,,,,364,probe-80,,,,,1,[object Object],200,5,1,
,html-keyboard-response,278,583315,0.0-143.0-1.0,null,<p></p>,,null,,,,,,,,,,,,,,,,
,do_trial,279,586230,0.0-144.0-0.0,371.785,,,,49,"1,0,0",6,blank,365,null,0.784344413,0.294241226,0.194009447,1,,,,,,
,html-keyboard-response,280,587234,0.0-144.0-1.0,null,<p></p>,,null,,,,,,,,,,,,,,,,
,do_trial,281,590233,0.0-145.0-0.0,454.96,,,,49,"1,1,1",6,blank,366,null,0.672339489,0.27911778,0.200305404,1,,,,,,
,html-keyboard-response,282,591237,0.0-145.0-1.0,null,<p></p>,,null,,,,,,,,,,,,,,,,
,do_recog,283,593396,0.0-146.0-0.0,653.11,,,,53,,,,367,probe-181,,,,,1,[object Object],84,2,1,
,html-keyboard-response,284,594400,0.0-146.0-1.0,null,<p></p>,,null,,,,,,,,,,,,,,,,
,do_trial,285,597241,0.0-147.0-0.0,296.2550001,,,,49,"1,0,0",6,blank,368,null,0.665181651,0.340545729,0.068594644,1,,,,,,
,html-keyboard-response,286,598245,0.0-147.0-1.0,null,<p></p>,,null,,,,,,,,,,,,,,,,
,do_recog,287,600417,0.0-148.0-0.0,661.11,,,,53,,,,369,probe-123,,,,,1,[object Object],49,1,1,
,html-keyboard-response,288,601418,0.0-148.0-1.0,null,<p></p>,,null,,,,,,,,,,,,,,,,
,do_trial,289,604444,0.0-149.0-0.0,485.415,,,,49,"0,1,0",6,blank,370,null,0.62391405,0.398675543,0.074139463,0,,,,,,
,html-keyboard-response,290,605448,0.0-149.0-1.0,null,<p></p>,,null,,,,,,,,,,,,,,,,
,do_trial,291,608553,0.0-150.0-0.0,560.14,,,,49,"0,1,0",6,blank,371,null,0.599451093,0.393967796,0.066796029,0,,,,,,
,html-keyboard-response,292,609559,0.0-150.0-1.0,null,<p></p>,,null,,,,,,,,,,,,,,,,
,do_trial,293,612592,0.0-151.0-0.0,488.895,,,,49,"1,0,0",6,blank,372,null,0.563321821,0.358575416,0.173786499,1,,,,,,
,html-keyboard-response,294,613598,0.0-151.0-1.0,null,<p></p>,,null,,,,,,,,,,,,,,,,
,do_trial,295,616688,0.0-152.0-0.0,544.9249999,,,,49,"1,1,0",6,blank,373,null,0.474216878,0.495715015,0.165525741,1,,,,,,
,html-keyboard-response,296,617692,0.0-152.0-1.0,null,<p></p>,,null,,,,,,,,,,,,,,,,
,do_trial,297,620985,0.0-153.0-0.0,748.1,,,,49,"1,0,0",6,blank,374,null,0.497529455,0.476953486,0.181599808,1,,,,,,
,html-keyboard-response,298,621989,0.0-153.0-1.0,null,<p></p>,,null,,,,,,,,,,,,,,,,
,do_recog,299,624547,0.0-154.0-0.0,1052.14,,,,53,,,,375,probe-147,,,,,1,[object Object],164,4,1,
,html-keyboard-response,300,625551,0.0-154.0-1.0,null,<p></p>,,null,,,,,,,,,,,,,,,,
,do_trial,301,628472,0.0-155.0-0.0,375,,,,49,"0,0,0",6,blank,376,null,0.481342598,0.404294813,0.138332573,0,,,,,,
,html-keyboard-response,302,629475,0.0-155.0-1.0,null,<p></p>,,null,,,,,,,,,,,,,,,,
,do_trial,303,632408,0.0-156.0-0.0,388.205,,,,49,"0,0,0",6,blank,377,null,0.531936997,0.275902383,0.104192643,0,,,,,,
,html-keyboard-response,304,633414,0.0-156.0-1.0,null,<p></p>,,null,,,,,,,,,,,,,,,,
,do_trial,305,636277,0.0-157.0-0.0,320.165,,,,49,"1,0,0",6,blank,378,null,0.638071727,0.340227461,0.066971445,1,,,,,,
,html-keyboard-response,306,637281,0.0-157.0-1.0,null,<p></p>,,null,,,,,,,,,,,,,,,,
,do_recog,307,639633,0.0-158.0-0.0,845.17,,,,53,,,,379,probe-189,,,,,1,[object Object],207,5,1,
,html-keyboard-response,308,640636,0.0-158.0-1.0,null,<p></p>,,null,,,,,,,,,,,,,,,,
,do_trial,309,643494,0.0-159.0-0.0,314.5649999,,,,49,"0,1,0",6,blank,380,null,0.661747994,0.196461374,0.179441523,0,,,,,,
,html-keyboard-response,310,644498,0.0-159.0-1.0,null,<p></p>,,null,,,,,,,,,,,,,,,,
,do_trial,311,647438,0.0-160.0-0.0,395.575,,,,49,"0,0,0",6,blank,381,null,0.716067533,0.215815286,0.110942707,0,,,,,,
,html-keyboard-response,312,648442,0.0-160.0-1.0,null,<p></p>,,null,,,,,,,,,,,,,,,,
,do_trial,313,651386,0.0-161.0-0.0,404.125,,,,49,"1,0,0",6,blank,382,null,0.593613859,0.108594875,0.095092839,1,,,,,,
,html-keyboard-response,314,652391,0.0-161.0-1.0,null,<p></p>,,null,,,,,,,,,,,,,,,,
,do_trial,315,655370,0.0-162.0-0.0,437.2200001,,,,49,"1,0,0",6,blank,383,null,0.668275903,0.311450588,0.214174292,1,,,,,,
,html-keyboard-response,316,656374,0.0-162.0-1.0,null,<p></p>,,null,,,,,,,,,,,,,,,,
,do_recog,317,658657,0.0-163.0-0.0,777.28,,,,53,,,,384,probe-03,,,,,1,[object Object],87,2,1,
,html-keyboard-response,318,659661,0.0-163.0-1.0,null,<p></p>,,null,,,,,,,,,,,,,,,,
,do_trial,319,662700,0.0-164.0-0.0,494.5949999,,,,49,"0,0,0",6,blank,385,null,0.543558447,0.325203529,0.088077803,0,,,,,,
,html-keyboard-response,320,663704,0.0-164.0-1.0,null,<p></p>,,null,,,,,,,,,,,,,,,,
,do_recog,321,666002,0.0-165.0-0.0,790.165,,,,53,,,,386,probe-161,,,,,1,[object Object],82,2,1,
,html-keyboard-response,322,667006,0.0-165.0-1.0,null,<p></p>,,null,,,,,,,,,,,,,,,,
,do_trial,323,669861,0.0-166.0-0.0,310.905,,,,49,"0,1,0",6,blank,387,null,0.523860882,0.34043179,0.125261545,0,,,,,,
,html-keyboard-response,324,670865,0.0-166.0-1.0,null,<p></p>,,null,,,,,,,,,,,,,,,,
,do_trial,325,673910,0.0-167.0-0.0,499.79,,,,49,"1,0,0",6,blank,388,null,0.681648035,0.328761496,0.197759189,1,,,,,,
,html-keyboard-response,326,674914,0.0-167.0-1.0,null,<p></p>,,null,,,,,,,,,,,,,,,,
,do_trial,327,677986,0.0-168.0-0.0,531.3449999,,,,49,"0,0,0",6,blank,389,null,0.527630578,0.359480867,0.147989088,0,,,,,,
,html-keyboard-response,328,678990,0.0-168.0-1.0,null,<p></p>,,null,,,,,,,,,,,,,,,,
,do_recog,329,681155,0.0-169.0-0.0,656.97,,,,53,,,,390,probe-138,,,,,1,[object Object],128,3,1,
,html-keyboard-response,330,682159,0.0-169.0-1.0,null,<p></p>,,null,,,,,,,,,,,,,,,,
,do_trial,331,685241,0.0-170.0-0.0,541.58,,,,49,"1,0,0",6,blank,391,null,0.520767243,0.302336262,0.122571297,1,,,,,,
,html-keyboard-response,332,686246,0.0-170.0-1.0,null,<p></p>,,null,,,,,,,,,,,,,,,,
,do_trial,333,689291,0.0-171.0-0.0,502.5149999,,,,49,"0,0,0",6,blank,392,null,0.44820783,0.279478355,0.079359496,0,,,,,,
,html-keyboard-response,334,690296,0.0-171.0-1.0,null,<p></p>,,null,,,,,,,,,,,,,,,,
,do_trial,335,693372,0.0-172.0-0.0,531.4049999,,,,49,"0,0,0",6,blank,393,null,0.508033549,0.302948909,0.097178373,0,,,,,,
,html-keyboard-response,336,694377,0.0-172.0-1.0,null,<p></p>,,null,,,,,,,,,,,,,,,,
,do_trial,337,697354,0.0-173.0-0.0,434.65,,,,49,"1,1,0",6,blank,394,null,0.443829616,0.255756003,0.114587133,1,,,,,,
,html-keyboard-response,338,698358,0.0-173.0-1.0,null,<p></p>,,null,,,,,,,,,,,,,,,,
,do_recog,339,700573,0.0-174.0-0.0,704.395,,,,53,,,,395,probe-04,,,,,1,[object Object],48,1,1,
,html-keyboard-response,340,701577,0.0-174.0-1.0,null,<p></p>,,null,,,,,,,,,,,,,,,,
,do_trial,341,704516,0.0-175.0-0.0,394.005,,,,49,"1,0,0",6,blank,396,null,0.561557571,0.267519889,0.06800845,1,,,,,,
,html-keyboard-response,342,705520,0.0-175.0-1.0,null,<p></p>,,null,,,,,,,,,,,,,,,,
,do_recog,343,707635,0.0-176.0-0.0,605.12,,,,53,,,,397,probe-56,,,,,1,[object Object],89,2,1,
,html-keyboard-response,344,708638,0.0-176.0-1.0,null,<p></p>,,null,,,,,,,,,,,,,,,,
,do_trial,345,711605,0.0-177.0-0.0,420.01,,,,49,"1,0,0",6,blank,398,null,0.581565997,0.278566023,0.14823703,1,,,,,,
,html-keyboard-response,346,712608,0.0-177.0-1.0,null,<p></p>,,null,,,,,,,,,,,,,,,,
,do_trial,347,715612,0.0-178.0-0.0,458.2700001,,,,49,"1,1,0",6,blank,399,null,0.595746516,0.367548751,0.203618655,1,,,,,,
,html-keyboard-response,348,716616,0.0-178.0-1.0,null,<p></p>,,null,,,,,,,,,,,,,,,,
,do_trial,349,719599,0.0-179.0-0.0,443.33,,,,49,"1,0,0",6,blank,400,null,0.540958836,0.210098192,0.127910536,1,,,,,,
,html-keyboard-response,350,720604,0.0-179.0-1.0,null,<p></p>,,null,,,,,,,,,,,,,,,,
,do_trial,351,723796,0.0-180.0-0.0,647.58,,,,49,"0,0,0",6,blank,401,null,0.318887691,0.316559655,0.283640442,0,,,,,,
,html-keyboard-response,352,724801,0.0-180.0-1.0,null,<p></p>,,null,,,,,,,,,,,,,,,,
,do_trial,353,727718,0.0-181.0-0.0,378.045,,,,49,"0,0,1",6,blank,402,null,0.229749893,0.293826614,0.343557714,0,,,,,,
,html-keyboard-response,354,728722,0.0-181.0-1.0,null,<p></p>,,null,,,,,,,,,,,,,,,,
,do_recog,355,731007,0.0-182.0-0.0,778.525,,,,53,,,,403,probe-41,,,,,1,[object Object],44,1,1,
,html-keyboard-response,356,732011,0.0-182.0-1.0,null,<p></p>,,null,,,,,,,,,,,,,,,,
,do_trial,357,734996,0.0-183.0-0.0,439.775,,,,49,"0,0,0",6,blank,404,null,0.091104863,0.271546683,0.480683228,0,,,,,,
,html-keyboard-response,358,736000,0.0-183.0-1.0,null,<p></p>,,null,,,,,,,,,,,,,,,,
,do_recog,359,738206,0.0-184.0-0.0,700.13,,,,53,,,,405,probe-101,,,,,1,[object Object],167,4,1,
,html-keyboard-response,360,739210,0.0-184.0-1.0,null,<p></p>,,null,,,,,,,,,,,,,,,,
,do_trial,361,742162,0.0-185.0-0.0,407.535,,,,49,"0,0,1",6,blank,406,null,0.118961373,0.300903477,0.50480909,0,,,,,,
,html-keyboard-response,362,743166,0.0-185.0-1.0,null,<p></p>,,null,,,,,,,,,,,,,,,,
,do_trial,363,746039,0.0-186.0-0.0,332.92,,,,49,"0,0,1",6,blank,407,null,0.221515431,0.41580501,0.488519061,0,,,,,,
,html-keyboard-response,364,747043,0.0-186.0-1.0,null,<p></p>,,null,,,,,,,,,,,,,,,,
,do_trial,365,749886,0.0-187.0-0.0,302.195,,,,49,"0,0,0",6,blank,408,null,0.190910611,0.410451423,0.647860155,0,,,,,,
,html-keyboard-response,366,750890,0.0-187.0-1.0,null,<p></p>,,null,,,,,,,,,,,,,,,,
,do_trial,367,753701,0.0-188.0-0.0,271.175,,,,49,"0,1,0",6,blank,409,null,0.102115277,0.442533132,0.522945876,0,,,,,,
,html-keyboard-response,368,754705,0.0-188.0-1.0,null,<p></p>,,null,,,,,,,,,,,,,,,,
,do_trial,369,757554,0.0-189.0-0.0,304.75,,,,49,"0,0,0",6,blank,410,null,0.138060594,0.320005862,0.501395116,0,,,,,,
,html-keyboard-response,370,758558,0.0-189.0-1.0,null,<p></p>,,null,,,,,,,,,,,,,,,,
,do_trial,371,761458,0.0-190.0-0.0,355.25,,,,49,"0,0,1",6,blank,411,null,0.05911114,0.317120688,0.529270856,0,,,,,,
,html-keyboard-response,372,762463,0.0-190.0-1.0,null,<p></p>,,null,,,,,,,,,,,,,,,,
,do_recog,373,764664,0.0-191.0-0.0,693.275,,,,53,,,,412,probe-142,,,,,1,[object Object],124,3,1,
,html-keyboard-response,374,765668,0.0-191.0-1.0,null,<p></p>,,null,,,,,,,,,,,,,,,,
,do_trial,375,768522,0.0-192.0-0.0,309.0100001,,,,49,"0,0,0",6,blank,413,null,0.150988016,0.387511084,0.579230199,0,,,,,,
,html-keyboard-response,376,769526,0.0-192.0-1.0,null,<p></p>,,null,,,,,,,,,,,,,,,,
,do_recog,377,771748,0.0-193.0-0.0,716.1750001,,,,53,,,,414,probe-103,,,,,1,[object Object],161,4,1,
,html-keyboard-response,378,772751,0.0-193.0-1.0,null,<p></p>,,null,,,,,,,,,,,,,,,,
,do_trial,379,775590,0.0-194.0-0.0,297.905,,,,49,"0,1,1",6,blank,415,null,0.250236559,0.388641646,0.491854309,0,,,,,,
,html-keyboard-response,380,776594,0.0-194.0-1.0,null,<p></p>,,null,,,,,,,,,,,,,,,,
,do_trial,381,779566,0.0-195.0-0.0,431.12,,,,49,"1,0,0",6,blank,416,null,0.240409451,0.258088077,0.505702757,1,,,,,,
,html-keyboard-response,382,780568,0.0-195.0-1.0,null,<p></p>,,null,,,,,,,,,,,,,,,,
,do_trial,383,783472,0.0-196.0-0.0,359.0300001,,,,49,"0,1,1",6,blank,417,null,0.261528789,0.265928603,0.508915805,0,,,,,,
,html-keyboard-response,384,784473,0.0-196.0-1.0,null,<p></p>,,null,,,,,,,,,,,,,,,,
,do_trial,385,787404,0.0-197.0-0.0,390.67,,,,49,"0,0,1",6,blank,418,null,0.101173448,0.308625584,0.600122512,0,,,,,,
,html-keyboard-response,386,788408,0.0-197.0-1.0,null,<p></p>,,null,,,,,,,,,,,,,,,,
,do_trial,387,791399,0.0-198.0-0.0,448.425,,,,49,"0,0,1",6,blank,419,null,0.061445898,0.34643751,0.597842926,0,,,,,,
,html-keyboard-response,388,792403,0.0-198.0-1.0,null,<p></p>,,null,,,,,,,,,,,,,,,,
,do_recog,389,794760,0.0-199.0-0.0,846.795,,,,53,,,,420,probe-126,,,,,1,[object Object],162,4,1,
,html-keyboard-response,390,795763,0.0-199.0-1.0,null,<p></p>,,null,,,,,,,,,,,,,,,,
,do_trial,391,798647,0.0-200.0-0.0,339.1550001,,,,49,"0,1,0",6,blank,421,null,0.110967952,0.31165831,0.602776381,0,,,,,,
,html-keyboard-response,392,799653,0.0-200.0-1.0,null,<p></p>,,null,,,,,,,,,,,,,,,,
,do_recog,393,801934,0.0-201.0-0.0,773.03,,,,53,,,,422,probe-104,,,,,1,[object Object],166,4,1,
,html-keyboard-response,394,802938,0.0-201.0-1.0,null,<p></p>,,null,,,,,,,,,,,,,,,,
,do_trial,395,805784,0.0-202.0-0.0,300.89,,,,49,"0,0,1",6,blank,423,null,0.072758809,0.437975936,0.557026456,0,,,,,,
,html-keyboard-response,396,806788,0.0-202.0-1.0,null,<p></p>,,null,,,,,,,,,,,,,,,,
,do_trial,397,809789,0.0-203.0-0.0,458.7899999,,,,49,"0,1,0",6,blank,424,null,0.071112543,0.375576216,0.596092333,0,,,,,,
,html-keyboard-response,398,810793,0.0-203.0-1.0,null,<p></p>,,null,,,,,,,,,,,,,,,,
,do_recog,399,812984,0.0-204.0-0.0,680.285,,,,53,,,,425,probe-31,,,,,1,[object Object],168,4,1,
,html-keyboard-response,400,813988,0.0-204.0-1.0,null,<p></p>,,null,,,,,,,,,,,,,,,,
,do_trial,401,816973,0.0-205.0-0.0,442.015,,,,49,"0,0,1",6,blank,426,null,0.132694874,0.432633779,0.591912065,0,,,,,,
,html-keyboard-response,402,817977,0.0-205.0-1.0,null,<p></p>,,null,,,,,,,,,,,,,,,,
,do_trial,403,820975,0.0-206.0-0.0,453.235,,,,49,"0,1,1",6,blank,427,null,0.114343365,0.3979353,0.555698201,0,,,,,,
,html-keyboard-response,404,821978,0.0-206.0-1.0,null,<p></p>,,null,,,,,,,,,,,,,,,,
,do_trial,405,825165,0.0-207.0-0.0,643.83,,,,49,"0,0,0",6,blank,428,null,0.149271063,0.403309561,0.633914895,0,,,,,,
,html-keyboard-response,406,826170,0.0-207.0-1.0,null,<p></p>,,null,,,,,,,,,,,,,,,,
,do_recog,407,828573,0.0-208.0-0.0,893.1,,,,53,,,,429,probe-163,,,,,1,[object Object],88,2,1,
,html-keyboard-response,408,829576,0.0-208.0-1.0,null,<p></p>,,null,,,,,,,,,,,,,,,,
,do_trial,409,832579,0.0-209.0-0.0,461.7549999,,,,49,"1,1,1",6,blank,430,null,0.144151979,0.522034043,0.698645866,1,,,,,,
,html-keyboard-response,410,833581,0.0-209.0-1.0,null,<p></p>,,null,,,,,,,,,,,,,,,,
,do_trial,411,836695,0.0-210.0-0.0,569.59,,,,49,"0,0,1",6,blank,431,null,0.263541588,0.312372622,0.633050351,0,,,,,,
,html-keyboard-response,412,837699,0.0-210.0-1.0,null,<p></p>,,null,,,,,,,,,,,,,,,,
,do_trial,413,840682,0.0-211.0-0.0,442.555,,,,49,"0,0,0",6,blank,432,null,0.082773228,0.288613429,0.582643891,0,,,,,,
,html-keyboard-response,414,841688,0.0-211.0-1.0,null,<p></p>,,null,,,,,,,,,,,,,,,,
,do_recog,415,844059,0.0-212.0-0.0,864.195,,,,53,,,,433,probe-95,,,,,1,[object Object],45,1,1,
,html-keyboard-response,416,845062,0.0-212.0-1.0,null,<p></p>,,null,,,,,,,,,,,,,,,,
,do_trial,417,848029,0.0-213.0-0.0,425.205,,,,49,"0,0,1",6,blank,434,null,0.10227652,0.213024885,0.513128809,0,,,,,,
,html-keyboard-response,418,849033,0.0-213.0-1.0,null,<p></p>,,null,,,,,,,,,,,,,,,,
,do_recog,419,851488,0.0-214.0-0.0,942.7,,,,53,,,,435,probe-167,,,,,1,[object Object],206,5,1,
,html-keyboard-response,420,852492,0.0-214.0-1.0,null,<p></p>,,null,,,,,,,,,,,,,,,,
,do_trial,421,855437,0.0-215.0-0.0,400.0800001,,,,49,"0,1,0",6,blank,436,null,0.168863258,0.271632885,0.453408088,0,,,,,,
,html-keyboard-response,422,856438,0.0-215.0-1.0,null,<p></p>,,null,,,,,,,,,,,,,,,,
,do_trial,423,859442,0.0-216.0-0.0,465.905,,,,49,"0,0,1",6,blank,437,null,0.11142718,0.170084084,0.622711953,0,,,,,,
,html-keyboard-response,424,860446,0.0-216.0-1.0,null,<p></p>,,null,,,,,,,,,,,,,,,,
,do_recog,425,862936,0.0-217.0-0.0,979.085,,,,53,,,,438,probe-38,,,,,1,[object Object],47,1,1,
,html-keyboard-response,426,863940,0.0-217.0-1.0,null,<p></p>,,null,,,,,,,,,,,,,,,,
,do_trial,427,866912,0.0-218.0-0.0,426.87,,,,49,"1,0,0",6,blank,439,null,0.206622544,0.278814135,0.499065153,1,,,,,,
,html-keyboard-response,428,867917,0.0-218.0-1.0,null,<p></p>,,null,,,,,,,,,,,,,,,,
,do_trial,429,870960,0.0-219.0-0.0,498.2200001,,,,49,"0,0,0",6,blank,440,null,0.20537314,0.228601239,0.655102472,0,,,,,,
,html-keyboard-response,430,871962,0.0-219.0-1.0,null,<p></p>,,null,,,,,,,,,,,,,,,,
,do_trial,431,874694,0.0-220.0-0.0,187.36,,,,50,"1,0,1",6,blank,441,null,0.250121717,0.264879891,0.554592119,0,,,,,,
,html-keyboard-response,432,875698,0.0-220.0-1.0,null,<p></p>,,null,,,,,,,,,,,,,,,,
,do_recog,433,877903,0.0-221.0-0.0,693.69,,,,53,,,,442,probe-247,,,,,0,[object Object],null,null,0,
,html-keyboard-response,434,878907,0.0-221.0-1.0,null,<p></p>,,null,,,,,,,,,,,,,,,,
,do_trial,435,881951,0.0-222.0-0.0,500.6500001,,,,51,"0,0,0",6,blank,443,null,0.112181009,0.289591625,0.62530745,0,,,,,,
,html-keyboard-response,436,882958,0.0-222.0-1.0,null,<p></p>,,null,,,,,,,,,,,,,,,,
,do_recog,437,885312,0.0-223.0-0.0,842.92,,,,53,,,,444,probe-255,,,,,0,[object Object],null,null,0,
,html-keyboard-response,438,886315,0.0-223.0-1.0,null,<p></p>,,null,,,,,,,,,,,,,,,,
,do_trial,439,889174,0.0-224.0-0.0,315.72,,,,49,"0,0,1",6,blank,445,null,0.062804657,0.386151195,0.588672287,0,,,,,,
,html-keyboard-response,440,890178,0.0-224.0-1.0,null,<p></p>,,null,,,,,,,,,,,,,,,,
,do_trial,441,893248,0.0-225.0-0.0,525.3750001,,,,49,"0,0,1",6,blank,446,null,0.065834514,0.271796788,0.569642821,0,,,,,,
,html-keyboard-response,442,894251,0.0-225.0-1.0,null,<p></p>,,null,,,,,,,,,,,,,,,,
,do_trial,443,897195,0.0-226.0-0.0,402.4449999,,,,49,"0,0,0",6,blank,447,null,0.090019747,0.23092372,0.658848658,0,,,,,,
,html-keyboard-response,444,898199,0.0-226.0-1.0,null,<p></p>,,null,,,,,,,,,,,,,,,,
,do_trial,445,901157,0.0-227.0-0.0,414.705,,,,49,"0,0,1",6,blank,448,null,0.113903475,0.30329325,0.550136265,0,,,,,,
,html-keyboard-response,446,902161,0.0-227.0-1.0,null,<p></p>,,null,,,,,,,,,,,,,,,,
,do_trial,447,905127,0.0-228.0-0.0,421.005,,,,49,"0,0,1",6,blank,449,null,0.073079944,0.252923386,0.571853829,0,,,,,,
,html-keyboard-response,448,906129,0.0-228.0-1.0,null,<p></p>,,null,,,,,,,,,,,,,,,,
,do_trial,449,909065,0.0-229.0-0.0,397.025,,,,49,"0,0,1",6,blank,450,null,0.162381056,0.177827087,0.498870189,0,,,,,,
,html-keyboard-response,450,910069,0.0-229.0-1.0,null,<p></p>,,null,,,,,,,,,,,,,,,,
,do_trial,451,913031,0.0-230.0-0.0,416.625,,,,49,"0,0,1",6,blank,451,null,0.12815682,0.193065394,0.504429704,0,,,,,,
,html-keyboard-response,452,914034,0.0-230.0-1.0,null,<p></p>,,null,,,,,,,,,,,,,,,,
,do_recog,453,916883,0.0-231.0-0.0,1340.165,,,,55,,,,452,probe-234,,,,,0,[object Object],null,null,1,
,html-keyboard-response,454,917888,0.0-231.0-1.0,null,<p></p>,,null,,,,,,,,,,,,,,,,
,do_trial,455,920734,0.0-232.0-0.0,301.55,,,,49,"0,1,0",6,blank,453,null,0.258286708,0.229560034,0.419976712,0,,,,,,
,html-keyboard-response,456,921738,0.0-232.0-1.0,null,<p></p>,,null,,,,,,,,,,,,,,,,
,do_trial,457,924595,0.0-233.0-0.0,314.96,,,,49,"0,0,0",6,blank,454,null,0.153913957,0.260128096,0.398707013,0,,,,,,
,html-keyboard-response,458,925599,0.0-233.0-1.0,null,<p></p>,,null,,,,,,,,,,,,,,,,
,do_trial,459,928526,0.0-234.0-0.0,382.35,,,,49,"0,1,0",6,blank,455,null,0.387935234,0.216763455,0.240385274,0,,,,,,
,html-keyboard-response,460,929529,0.0-234.0-1.0,null,<p></p>,,null,,,,,,,,,,,,,,,,
,do_trial,461,932443,0.0-235.0-0.0,370.775,,,,49,"1,0,0",6,blank,456,null,0.565335826,0.09473547,0.238134673,1,,,,,,
,html-keyboard-response,462,933448,0.0-235.0-1.0,null,<p></p>,,null,,,,,,,,,,,,,,,,
,do_recog,463,936443,0.0-236.0-0.0,1486.055,,,,53,,,,457,probe-236,,,,,0,[object Object],null,null,0,
,html-keyboard-response,464,937446,0.0-236.0-1.0,null,<p></p>,,null,,,,,,,,,,,,,,,,
,do_trial,465,940333,0.0-237.0-0.0,342.3649999,,,,49,"0,0,0",6,blank,458,null,0.51599758,0.101287099,0.33324067,0,,,,,,
,html-keyboard-response,466,941337,0.0-237.0-1.0,null,<p></p>,,null,,,,,,,,,,,,,,,,
,do_recog,467,944379,0.0-238.0-0.0,1533.19,,,,56,,,,459,probe-239,,,,,0,[object Object],null,null,1,
,html-keyboard-response,468,945383,0.0-238.0-1.0,null,<p></p>,,null,,,,,,,,,,,,,,,,
,do_trial,469,948497,0.0-239.0-0.0,572.24,,,,49,"1,0,0",6,blank,460,null,0.56734989,0.20276589,0.20471178,1,,,,,,
,html-keyboard-response,470,949501,0.0-239.0-1.0,null,<p></p>,,null,,,,,,,,,,,,,,,,
,do_recog,471,952153,0.0-240.0-0.0,1145.315,,,,56,,,,461,probe-232,,,,,0,[object Object],null,null,1,
,html-keyboard-response,472,953157,0.0-240.0-1.0,null,<p></p>,,null,,,,,,,,,,,,,,,,
,do_trial,473,956001,0.0-241.0-0.0,301.6949999,,,,49,"1,0,0",6,blank,462,null,0.596532934,0.239584085,0.086888065,1,,,,,,
,html-keyboard-response,474,957005,0.0-241.0-1.0,null,<p></p>,,null,,,,,,,,,,,,,,,,
,do_trial,475,960324,0.0-242.0-0.0,774.4699999,,,,49,"1,0,0",6,blank,463,null,0.717212122,0.249490457,0.128175962,1,,,,,,
,html-keyboard-response,476,961328,0.0-242.0-1.0,null,<p></p>,,null,,,,,,,,,,,,,,,,
,do_recog,477,963954,0.0-243.0-0.0,1116.72,,,,55,,,,464,probe-246,,,,,0,[object Object],null,null,1,
,html-keyboard-response,478,964957,0.0-243.0-1.0,null,<p></p>,,null,,,,,,,,,,,,,,,,
,do_trial,479,968018,0.0-244.0-0.0,517.975,,,,49,"1,0,0",6,blank,465,null,0.703521961,0.194579755,0.138177827,1,,,,,,
,html-keyboard-response,480,969024,0.0-244.0-1.0,null,<p></p>,,null,,,,,,,,,,,,,,,,
,do_recog,481,971225,0.0-245.0-0.0,692.8000001,,,,56,,,,466,probe-250,,,,,0,[object Object],null,null,1,
,html-keyboard-response,482,972228,0.0-245.0-1.0,null,<p></p>,,null,,,,,,,,,,,,,,,,
,do_trial,483,975060,0.0-246.0-0.0,287,,,,49,"0,0,0",6,blank,467,null,0.718603292,0.13187029,0.285772645,0,,,,,,
,html-keyboard-response,484,976065,0.0-246.0-1.0,null,<p></p>,,null,,,,,,,,,,,,,,,,
,do_trial,485,979057,0.0-247.0-0.0,449.33,,,,49,"1,1,1",6,blank,468,null,0.680479052,0.18498098,0.218890903,1,,,,,,
,html-keyboard-response,486,980061,0.0-247.0-1.0,null,<p></p>,,null,,,,,,,,,,,,,,,,
,do_trial,487,983067,0.0-248.0-0.0,461.11,,,,49,"0,0,0",6,blank,469,null,0.729398049,0.159475541,0.134799099,0,,,,,,
,html-keyboard-response,488,984071,0.0-248.0-1.0,null,<p></p>,,null,,,,,,,,,,,,,,,,
,do_trial,489,986995,0.0-249.0-0.0,380.245,,,,49,"1,0,0",6,blank,470,null,0.800806097,0.187892398,0.20546284,1,,,,,,
,html-keyboard-response,490,987999,0.0-249.0-1.0,null,<p></p>,,null,,,,,,,,,,,,,,,,
,do_trial,491,990962,0.0-250.0-0.0,419.23,,,,49,"1,1,1",6,blank,471,null,0.757242462,0.183584769,0.116875964,1,,,,,,
,html-keyboard-response,492,991966,0.0-250.0-1.0,null,<p></p>,,null,,,,,,,,,,,,,,,,
,do_recog,493,994490,0.0-251.0-0.0,1013.925,,,,56,,,,472,probe-231,,,,,0,[object Object],null,null,1,
,html-keyboard-response,494,995495,0.0-251.0-1.0,null,<p></p>,,null,,,,,,,,,,,,,,,,
,do_trial,495,998467,0.0-252.0-0.0,427.79,,,,49,"1,1,1",6,blank,473,null,0.686668822,0.169307983,0.150645369,1,,,,,,
,html-keyboard-response,496,999473,0.0-252.0-1.0,null,<p></p>,,null,,,,,,,,,,,,,,,,
,do_trial,497,1002445,0.0-253.0-0.0,432.915,,,,49,"1,0,0",6,blank,474,null,0.736721015,0.159360659,0.107174441,1,,,,,,
,html-keyboard-response,498,1003449,0.0-253.0-1.0,null,<p></p>,,null,,,,,,,,,,,,,,,,
,do_trial,499,1006426,0.0-254.0-0.0,432.3399999,,,,49,"1,1,0",6,blank,475,null,0.641759562,0.259327058,0.078279655,1,,,,,,
,html-keyboard-response,500,1007430,0.0-254.0-1.0,null,<p></p>,,null,,,,,,,,,,,,,,,,
,do_trial,501,1010379,0.0-255.0-0.0,404.7450001,,,,49,"1,0,0",6,blank,476,null,0.696126957,0.268882952,0.114232018,1,,,,,,
,html-keyboard-response,502,1011385,0.0-255.0-1.0,null,<p></p>,,null,,,,,,,,,,,,,,,,
,do_trial,503,1014322,0.0-256.0-0.0,396.225,,,,49,"0,1,0",6,blank,477,null,0.609423991,0.327269121,0.069226917,0,,,,,,
,html-keyboard-response,504,1015325,0.0-256.0-1.0,null,<p></p>,,null,,,,,,,,,,,,,,,,
,do_trial,505,1018210,0.0-257.0-0.0,341.41,,,,49,"1,1,0",6,blank,478,null,0.56753716,0.327524634,0.130097953,1,,,,,,
,html-keyboard-response,506,1019215,0.0-257.0-1.0,null,<p></p>,,null,,,,,,,,,,,,,,,,
,do_recog,507,1021306,0.0-258.0-0.0,580.28,,,,56,,,,479,probe-248,,,,,0,[object Object],null,null,1,
,html-keyboard-response,508,1022309,0.0-258.0-1.0,null,<p></p>,,null,,,,,,,,,,,,,,,,
,do_pick_best_pirate,509,1023581,0.0-259.0-0.0,261.065,,,,49,,,,,,,,,,,,,,,
,do_pick_best_pirate,510,1026028,0.0-260.0-0.0,1440.755,,,,50,,,,,,,,,,,,,,,
,do_pick_best_pirate,511,1028060,0.0-261.0-0.0,1021.945,,,,50,,,,,,,,,,,,,,,
,do_pick_best_pirate,512,1029972,0.0-262.0-0.0,902.34,,,,50,,,,,,,,,,,,,,,
,do_pick_best_pirate,513,1031739,0.0-263.0-0.0,759.5599999,,,,50,,,,,,,,,,,,,,,
,do_pick_best_pirate,514,1033525,0.0-264.0-0.0,775.195,,,,50,,,,,,,,,,,,,,,
,html-keyboard-response,515,1041016,0.0-265.0-0.0,7489.765,<p>You are all done with the experiment!</p><p> You made $15 plus $2 in bonus payment!</p><p>Thank you for participating. You will recieve your payment within 3 days.<p><b>[Press the space bar to end the experiment]</b></p></div>,,32,,,,,,,,,,,,,,,,