"success","trial_type","trial_index","time_elapsed","internal_node_id","interactions","blur_events","focus_events","fullscreenenter_events","fullscreenexit_events","rt","stimulus","key_press","subject_id","participant_id","age","gender","prompt","response","choice_outcomes","context_n","context_img_id","trial_n","probe_img_id","pR_red","pR_white","pR_black","outcome","is_valid","image_to_show","probed_trial","probed_context","correct","probe","probed_trial_n","probed_context_n","context_im"
"true","fullscreen","0","2835","0.0-0.0","""event"",""trial"",""time""
""blur"",""0"",""0""
""focus"",""0"",""0""
""fullscreenenter"",""0"",""1894""
","""event"",""trial"",""time""
""blur"",""0"",""0""
","""event"",""trial"",""time""
""focus"",""0"",""0""
","""event"",""trial"",""time""
""fullscreenenter"",""0"",""1894""
","
","","","","","","","","","","","","","","","","","","","","","","","","","","",""
"","pavlovia","1","2838","0.0-1.0","""event"",""trial"",""time""
""blur"",""0"",""0""
""focus"",""0"",""0""
""fullscreenenter"",""0"",""1894""
","""event"",""trial"",""time""
""blur"",""0"",""0""
","""event"",""trial"",""time""
""focus"",""0"",""0""
","""event"",""trial"",""time""
""fullscreenenter"",""0"",""1894""
","
","","","","","","","","","","","","","","","","","","","","","","","","","","",""
"","welc_back","2","12608","0.0-2.0","""event"",""trial"",""time""
""blur"",""0"",""0""
""focus"",""0"",""0""
""fullscreenenter"",""0"",""1894""
","""event"",""trial"",""time""
""blur"",""0"",""0""
","""event"",""trial"",""time""
""focus"",""0"",""0""
","""event"",""trial"",""time""
""fullscreenenter"",""0"",""1894""
","
","null","run_exp/static/audio/clip_29_welcome_back.m4a","null","863","470","21","Male","<div class='center'><p>Welcome to day 2!</p><p> Yesterday, you were the head captain of a pirate ship. You asked your fellow pirates to rob other ships of their gold across six different islands.</p></div>","","","","","","","","","","","","","","","","","","",""
"","html-keyboard-response","3","14582","0.0-3.0","""event"",""trial"",""time""
""blur"",""0"",""0""
""focus"",""0"",""0""
""fullscreenenter"",""0"",""1894""
","""event"",""trial"",""time""
""blur"",""0"",""0""
","""event"",""trial"",""time""
""focus"",""0"",""0""
","""event"",""trial"",""time""
""fullscreenenter"",""0"",""1894""
","
","1972.800000000745","<div class='center'><p>Welcome to day 2!</p><p> Yesterday, you were the head captain of a pirate ship. You asked your fellow pirates to rob other ships of their gold across six different islands.</p><p><b>[Press the space bar to continue]</b></p></div>","32","","","","","","","","","","","","","","","","","","","","","","","",""
"","day_1_summary_goal","4","31766","0.0-4.0","""event"",""trial"",""time""
""blur"",""0"",""0""
""focus"",""0"",""0""
""fullscreenenter"",""0"",""1894""
","""event"",""trial"",""time""
""blur"",""0"",""0""
","""event"",""trial"",""time""
""focus"",""0"",""0""
","""event"",""trial"",""time""
""fullscreenenter"",""0"",""1894""
","
","null","run_exp/static/audio/clip_30_goal_of_game.m4a","null","","","","","<div class='center'><p>Today, like yesterday, you get to pick which pirate you want to rob the next ship.</p><p>If the pirate is successful in robbing a ship, you get gold coins that look like this: </p><p><img src='run_exp/static/images/tutorial/reward.png' height='150'></p><p> If they were not successful in robbing the ship, then you will get no gold coins and you'll see a big red x like this: </p><p><img src='run_exp/static/images/tutorial/reward_no.png' height='150'></p></div>","","","","","","","","","","","","","","","","","","",""
"","html-keyboard-response","5","31874","0.0-5.0","""event"",""trial"",""time""
""blur"",""0"",""0""
""focus"",""0"",""0""
""fullscreenenter"",""0"",""1894""
","""event"",""trial"",""time""
""blur"",""0"",""0""
","""event"",""trial"",""time""
""focus"",""0"",""0""
","""event"",""trial"",""time""
""fullscreenenter"",""0"",""1894""
","
","106.29999999888241","<div class='center'><p>Today, like yesterday, you get to pick which pirate you want to rob the next ship.</p><p>If the pirate is successful in robbing a ship, you get gold coins that look like this: </p><p><img src='run_exp/static/images/tutorial/reward.png' height='150'></p><p> If they were not successful in robbing the ship, then you will get no gold coins and you'll see a big red x like this: </p><p><img src='run_exp/static/images/tutorial/reward_no.png' height='150'></p><p><b>[Press the space bar to continue]</b></p></div>","32","","","","","","","","","","","","","","","","","","","","","","","",""
"","day_1_summary_pick","6","46546","0.0-6.0","""event"",""trial"",""time""
""blur"",""0"",""0""
""focus"",""0"",""0""
""fullscreenenter"",""0"",""1894""
","""event"",""trial"",""time""
""blur"",""0"",""0""
","""event"",""trial"",""time""
""focus"",""0"",""0""
","""event"",""trial"",""time""
""fullscreenenter"",""0"",""1894""
","
","null","run_exp/static/audio/clip_31_how_to_pick_a_pirate.m4a","null","","","","","<div class='center'><p>Also, just like yesterday, you will use the 1,2,3 keys on your keyboard to pick a pirate. Press '1' to choose red beard, '2' to choose white beard, and '3' to choose black beard . You only have 3 seconds to pick a pirate, so please make a choice quickly!</p></div>","","","","","","","","","","","","","","","","","","",""
"","html-keyboard-response","7","49705","0.0-7.0","""event"",""trial"",""time""
""blur"",""0"",""0""
""focus"",""0"",""0""
""fullscreenenter"",""0"",""1894""
","""event"",""trial"",""time""
""blur"",""0"",""0""
","""event"",""trial"",""time""
""focus"",""0"",""0""
","""event"",""trial"",""time""
""fullscreenenter"",""0"",""1894""
","
","3157.5","<div class='center'><p>Also, just like yesterday, you will use the 1,2,3 keys on your keyboard to pick a pirate. Press '1' to choose red beard, '2' to choose white beard, and '3' to choose black beard . You only have 3 seconds to pick a pirate, so please make a choice quickly!</p><p><b>[Press the space bar to continue]</b></p></div>","32","","","","","","","","","","","","","","","","","","","","","","","",""
"","test_phase_begin","8","80086","0.0-8.0","""event"",""trial"",""time""
""blur"",""0"",""0""
""focus"",""0"",""0""
""fullscreenenter"",""0"",""1894""
","""event"",""trial"",""time""
""blur"",""0"",""0""
","""event"",""trial"",""time""
""focus"",""0"",""0""
","""event"",""trial"",""time""
""fullscreenenter"",""0"",""1894""
","
","null","run_exp/static/audio/clip_32_final_place.m4a","null","","","","","<div class='center'><p>You’ve arrived at the final island of your journey! Unfortunately, it’s very foggy out, so you won’t be able to see it in the distance like the other islands you've visited.</p><p>You’ll still be deciding which pirate you want to rob a ship like before. However, because of the fog, you also won’t be able to see the ship.</p><p>This means you do not have to remember the ships you rob on this island.</p><p>Unlike yesterday, you won't be visiting multiple islands today. You will stay on this island for the entire game. This game will last ~30 minutes.</p></div>","","","","","","","","","","","","","","","","","","",""
"","html-keyboard-response","9","81723","0.0-9.0","""event"",""trial"",""time""
""blur"",""0"",""0""
""focus"",""0"",""0""
""fullscreenenter"",""0"",""1894""
","""event"",""trial"",""time""
""blur"",""0"",""0""
","""event"",""trial"",""time""
""focus"",""0"",""0""
","""event"",""trial"",""time""
""fullscreenenter"",""0"",""1894""
","
","1636.199999999255","<div class='center'><p>You’ve arrived at the final island of your journey! Unfortunately, it’s very foggy out, so you won’t be able to see it in the distance like the other islands you've visited.</p><p>You’ll still be deciding which pirate you want to rob a ship like before. However, because of the fog, you also won’t be able to see the ship.</p><p>This means you do not have to remember the ships you rob on this island.</p><p>Unlike yesterday, you won't be visiting multiple islands today. You will stay on this island for the entire game. This game will last ~30 minutes.</p><p><b>[Press the space bar to continue]</b></p></div>","32","","","","","","","","","","","","","","","","","","","","","","","",""
"","explain_probe_1","10","89426","0.0-10.0","""event"",""trial"",""time""
""blur"",""0"",""0""
""focus"",""0"",""0""
""fullscreenenter"",""0"",""1894""
","""event"",""trial"",""time""
""blur"",""0"",""0""
","""event"",""trial"",""time""
""focus"",""0"",""0""
","""event"",""trial"",""time""
""fullscreenenter"",""0"",""1894""
","
","null","run_exp/static/audio/clip_33_recognition_1.m4a","null","","","","","<div class='center'><p> Sometimes you’ll be shown a ship, and you will be asked if you saw this ship on a past island.</p><p> Here is an example of what you will see.</p><p><img src='run_exp/static/images/tutorial/example_recog_trial.png' height='500'></p></div>","","","","","","","","","","","","","","","","","","",""
"","html-keyboard-response","11","91305","0.0-11.0","""event"",""trial"",""time""
""blur"",""0"",""0""
""focus"",""0"",""0""
""fullscreenenter"",""0"",""1894""
","""event"",""trial"",""time""
""blur"",""0"",""0""
","""event"",""trial"",""time""
""focus"",""0"",""0""
","""event"",""trial"",""time""
""fullscreenenter"",""0"",""1894""
","
","1877.199999999255","<div class='center'><p> Sometimes you’ll be shown a ship, and you will be asked if you saw this ship on a past island.</p><p> Here is an example of what you will see.</p><p><img src='run_exp/static/images/tutorial/example_recog_trial.png' height='500'></p><p><b>[Press the space bar to continue]</b></p></div>","32","","","","","","","","","","","","","","","","","","","","","","","",""
"","explain_probe_2","12","113006","0.0-12.0","""event"",""trial"",""time""
""blur"",""0"",""0""
""focus"",""0"",""0""
""fullscreenenter"",""0"",""1894""
","""event"",""trial"",""time""
""blur"",""0"",""0""
","""event"",""trial"",""time""
""focus"",""0"",""0""
","""event"",""trial"",""time""
""fullscreenenter"",""0"",""1894""
","
","null","run_exp/static/audio/clip_34_recognition_2.m4a","null","","","","","<div class='center'><p> You will press the 5, 6, 7, 8 keys on your keyboard to respond.</p><p>If you are sure you saw the ship, press <b>5</b> on your keyboard.</p><p> If you think you saw it before but aren't sure, then press <b>6</b>.</p><p> If you think you have <b>not</b> seen it before but aren't sure, then press <b>7</b>.</p><p> If you are sure you did <b>not</b> see the ship before, then press <b>8</b>.</p><p><img src='run_exp/static/images/tutorial/example_recog_trial.png' height='500'></p></div>","","","","","","","","","","","","","","","","","","",""
"","html-keyboard-response","13","113483","0.0-13.0","""event"",""trial"",""time""
""blur"",""0"",""0""
""focus"",""0"",""0""
""fullscreenenter"",""0"",""1894""
","""event"",""trial"",""time""
""blur"",""0"",""0""
","""event"",""trial"",""time""
""focus"",""0"",""0""
","""event"",""trial"",""time""
""fullscreenenter"",""0"",""1894""
","
","475.59999999962747","<div class='center'><p> You will press the 5, 6, 7, 8 keys on your keyboard to respond.</p><p>If you are sure you saw the ship, press <b>5</b> on your keyboard.</p><p> If you think you saw it before but aren't sure, then press <b>6</b>.</p><p> If you think you have <b>not</b> seen it before but aren't sure, then press <b>7</b>.</p><p> If you are sure you did <b>not</b> see the ship before, then press <b>8</b>.</p><p><img src='run_exp/static/images/tutorial/example_recog_trial.png' height='500'></p><p><b>[Press the space bar to continue]</b></p></div>","32","","","","","","","","","","","","","","","","","","","","","","","",""
"","explain_outcome","14","130666","0.0-14.0","""event"",""trial"",""time""
""blur"",""0"",""0""
""focus"",""0"",""0""
""fullscreenenter"",""0"",""1894""
","""event"",""trial"",""time""
""blur"",""0"",""0""
","""event"",""trial"",""time""
""focus"",""0"",""0""
","""event"",""trial"",""time""
""fullscreenenter"",""0"",""1894""
","
","null","run_exp/static/audio/clip_35_recognition_3.m4a","null","","","","","<div class='center'><p> If you remember correctly, then you’ll get a gold coin like this: </p><p><img src='run_exp/static/images/tutorial/reward_small.png' height='200'></p><p>If you do not remember correctly, then you'll see a red x like this: </p><p><img src='run_exp/static/images/tutorial/reward_no.png' height='200'></p><p>Importantly, when you are shown a ship, take the time to remind yourself which island you saw it on. This will help you in the next part of the study.</p></div>","","","","","","","","","","","","","","","","","","",""
"","html-keyboard-response","15","131199","0.0-15.0","""event"",""trial"",""time""
""blur"",""0"",""0""
""focus"",""0"",""0""
""fullscreenenter"",""0"",""1894""
","""event"",""trial"",""time""
""blur"",""0"",""0""
","""event"",""trial"",""time""
""focus"",""0"",""0""
","""event"",""trial"",""time""
""fullscreenenter"",""0"",""1894""
","
","531.8000000007451","<div class='center'><p> If you remember correctly, then you’ll get a gold coin like this: </p><p><img src='run_exp/static/images/tutorial/reward_small.png' height='200'></p><p>If you do not remember correctly, then you'll see a red x like this: </p><p><img src='run_exp/static/images/tutorial/reward_no.png' height='200'></p><p>Importantly, when you are shown a ship, take the time to remind yourself which island you saw it on. This will help you in the next part of the study.</p><p><b>[Press the space bar to continue]</b></p></div>","32","","","","","","","","","","","","","","","","","","","","","","","",""
"","begin_test_phase","16","147006","0.0-16.0","""event"",""trial"",""time""
""blur"",""0"",""0""
""focus"",""0"",""0""
""fullscreenenter"",""0"",""1894""
","""event"",""trial"",""time""
""blur"",""0"",""0""
","""event"",""trial"",""time""
""focus"",""0"",""0""
","""event"",""trial"",""time""
""fullscreenenter"",""0"",""1894""
","
","null","run_exp/static/audio/clip_36_begin_final.m4a","null","","","","","<div class='center'><p>Let's go over the important points again. Your job is to: </p><p>1. Pick the pirate who is best at robbing ships and will bring you back gold coins. </p><p>2. Correctly remember whether or not you saw a ship before. If you did see the ship before, remind yourself on which island you saw it. </p></div>","","","","","","","","","","","","","","","","","","",""
"","html-keyboard-response","17","148893","0.0-17.0","""event"",""trial"",""time""
""blur"",""0"",""0""
""focus"",""0"",""0""
""fullscreenenter"",""0"",""1894""
","""event"",""trial"",""time""
""blur"",""0"",""0""
","""event"",""trial"",""time""
""focus"",""0"",""0""
","""event"",""trial"",""time""
""fullscreenenter"",""0"",""1894""
","
","1854.5","<div class='center'><p>Let's go over the important points again. Your job is to: </p><p>1. Pick the pirate who is best at robbing ships and will bring you back gold coins. </p><p>2. Correctly remember whether or not you saw a ship before. If you did see the ship before, remind yourself on which island you saw it. </p><p><b>[Press the space bar to continue]</b></p></div>","32","","","","","","","","","","","","","","","","","","","","","","","",""
"","do_welcome","18","152898","0.0-18.0","""event"",""trial"",""time""
""blur"",""0"",""0""
""focus"",""0"",""0""
""fullscreenenter"",""0"",""1894""
","""event"",""trial"",""time""
""blur"",""0"",""0""
","""event"",""trial"",""time""
""focus"",""0"",""0""
","""event"",""trial"",""time""
""fullscreenenter"",""0"",""1894""
","
","null","","","","","","","","null","","","","","","","","","","","","","","","","","",""
"","do_trial","19","158935","0.0-19.0-0.0","""event"",""trial"",""time""
""blur"",""0"",""0""
""focus"",""0"",""0""
""fullscreenenter"",""0"",""1894""
","""event"",""trial"",""time""
""blur"",""0"",""0""
","""event"",""trial"",""time""
""focus"",""0"",""0""
","""event"",""trial"",""time""
""fullscreenenter"",""0"",""1894""
","
","null","","","","","","","","null","0,0,0","6","blank","230","null","0.5481181816954329","0.2233840916524116","0.12599122155112485","","","","","","","","","",""
"","html-keyboard-response","20","159937","0.0-19.0-1.0","""event"",""trial"",""time""
""blur"",""0"",""0""
""focus"",""0"",""0""
""fullscreenenter"",""0"",""1894""
","""event"",""trial"",""time""
""blur"",""0"",""0""
","""event"",""trial"",""time""
""focus"",""0"",""0""
","""event"",""trial"",""time""
""fullscreenenter"",""0"",""1894""
","
","null","<p></p>","null","","","","","","","","","","","","","","","","","","","","","","","",""
"","do_trial","21","162936","0.0-20.0-0.0","""event"",""trial"",""time""
""blur"",""0"",""0""
""focus"",""0"",""0""
""fullscreenenter"",""0"",""1894""
","""event"",""trial"",""time""
""blur"",""0"",""0""
","""event"",""trial"",""time""
""focus"",""0"",""0""
","""event"",""trial"",""time""
""fullscreenenter"",""0"",""1894""
","
","461.09999999962747","","","","","","","","51","1,0,1","6","blank","231","null","0.6552946187798591","0.33908137692537593","0.13865731917696705","1","","","","","","","","",""
"","html-keyboard-response","22","163938","0.0-20.0-1.0","""event"",""trial"",""time""
""blur"",""0"",""0""
""focus"",""0"",""0""
""fullscreenenter"",""0"",""1894""
","""event"",""trial"",""time""
""blur"",""0"",""0""
","""event"",""trial"",""time""
""focus"",""0"",""0""
","""event"",""trial"",""time""
""fullscreenenter"",""0"",""1894""
","
","null","<p></p>","null","","","","","","","","","","","","","","","","","","","","","","","",""
"","do_trial","23","167232","0.0-21.0-0.0","""event"",""trial"",""time""
""blur"",""0"",""0""
""focus"",""0"",""0""
""fullscreenenter"",""0"",""1894""
","""event"",""trial"",""time""
""blur"",""0"",""0""
","""event"",""trial"",""time""
""focus"",""0"",""0""
","""event"",""trial"",""time""
""fullscreenenter"",""0"",""1894""
","
","757.5999999996275","","","","","","","","51","0,0,0","6","blank","232","null","0.6269232152751104","0.35061108056313445","0.14113355503559674","0","","","","","","","","",""
"","html-keyboard-response","24","168234","0.0-21.0-1.0","""event"",""trial"",""time""
""blur"",""0"",""0""
""focus"",""0"",""0""
""fullscreenenter"",""0"",""1894""
","""event"",""trial"",""time""
""blur"",""0"",""0""
","""event"",""trial"",""time""
""focus"",""0"",""0""
","""event"",""trial"",""time""
""fullscreenenter"",""0"",""1894""
","
","null","<p></p>","null","","","","","","","","","","","","","","","","","","","","","","","",""
"","do_trial","25","170798","0.0-22.0-0.0","""event"",""trial"",""time""
""blur"",""0"",""0""
""focus"",""0"",""0""
""fullscreenenter"",""0"",""1894""
","""event"",""trial"",""time""
""blur"",""0"",""0""
","""event"",""trial"",""time""
""focus"",""0"",""0""
","""event"",""trial"",""time""
""fullscreenenter"",""0"",""1894""
","
","30.90000000037253","","","","","","","","50","0,1,0","6","blank","233","null","0.604575791599959","0.2896798412481115","0.059682302552307775","1","","","","","","","","",""
"","html-keyboard-response","26","171800","0.0-22.0-1.0","""event"",""trial"",""time""
""blur"",""0"",""0""
""focus"",""0"",""0""
""fullscreenenter"",""0"",""1894""
","""event"",""trial"",""time""
""blur"",""0"",""0""
","""event"",""trial"",""time""
""focus"",""0"",""0""
","""event"",""trial"",""time""
""fullscreenenter"",""0"",""1894""
","
","null","<p></p>","null","","","","","","","","","","","","","","","","","","","","","","","",""
"","do_trial","27","174617","0.0-23.0-0.0","""event"",""trial"",""time""
""blur"",""0"",""0""
""focus"",""0"",""0""
""fullscreenenter"",""0"",""1894""
","""event"",""trial"",""time""
""blur"",""0"",""0""
","""event"",""trial"",""time""
""focus"",""0"",""0""
","""event"",""trial"",""time""
""fullscreenenter"",""0"",""1894""
","
","281","","","","","","","","50","1,0,0","6","blank","234","null","0.7148342945397016","0.286333158666832","0.11926094850187685","0","","","","","","","","",""
"","html-keyboard-response","28","175620","0.0-23.0-1.0","""event"",""trial"",""time""
""blur"",""0"",""0""
""focus"",""0"",""0""
""fullscreenenter"",""0"",""1894""
","""event"",""trial"",""time""
""blur"",""0"",""0""
","""event"",""trial"",""time""
""focus"",""0"",""0""
","""event"",""trial"",""time""
""fullscreenenter"",""0"",""1894""
","
","null","<p></p>","null","","","","","","","","","","","","","","","","","","","","","","","",""
"","do_trial","29","178256","0.0-24.0-0.0","""event"",""trial"",""time""
""blur"",""0"",""0""
""focus"",""0"",""0""
""fullscreenenter"",""0"",""1894""
","""event"",""trial"",""time""
""blur"",""0"",""0""
","""event"",""trial"",""time""
""focus"",""0"",""0""
","""event"",""trial"",""time""
""fullscreenenter"",""0"",""1894""
","
","102.80000000074506","","","","","","","","49","0,1,0","6","blank","235","null","0.8775564461514331","0.4325708683479227","0.13747561303457181","0","","","","","","","","",""
"","html-keyboard-response","30","179258","0.0-24.0-1.0","""event"",""trial"",""time""
""blur"",""0"",""0""
""focus"",""0"",""0""
""fullscreenenter"",""0"",""1894""
","""event"",""trial"",""time""
""blur"",""0"",""0""
","""event"",""trial"",""time""
""focus"",""0"",""0""
","""event"",""trial"",""time""
""fullscreenenter"",""0"",""1894""
","
","null","<p></p>","null","","","","","","","","","","","","","","","","","","","","","","","",""
"","do_trial","31","181836","0.0-25.0-0.0","""event"",""trial"",""time""
""blur"",""0"",""0""
""focus"",""0"",""0""
""fullscreenenter"",""0"",""1894""
","""event"",""trial"",""time""
""blur"",""0"",""0""
","""event"",""trial"",""time""
""focus"",""0"",""0""
","""event"",""trial"",""time""
""fullscreenenter"",""0"",""1894""
","
","43.899999998509884","","","","","","","","49","1,1,0","6","blank","236","null","0.6919515571599293","0.28938036421015234","0.16519309058057252","1","","","","","","","","",""
"","html-keyboard-response","32","182838","0.0-25.0-1.0","""event"",""trial"",""time""
""blur"",""0"",""0""
""focus"",""0"",""0""
""fullscreenenter"",""0"",""1894""
","""event"",""trial"",""time""
""blur"",""0"",""0""
","""event"",""trial"",""time""
""focus"",""0"",""0""
","""event"",""trial"",""time""
""fullscreenenter"",""0"",""1894""
","
","null","<p></p>","null","","","","","","","","","","","","","","","","","","","","","","","",""
"","do_trial","33","185572","0.0-26.0-0.0","""event"",""trial"",""time""
""blur"",""0"",""0""
""focus"",""0"",""0""
""fullscreenenter"",""0"",""1894""
","""event"",""trial"",""time""
""blur"",""0"",""0""
","""event"",""trial"",""time""
""focus"",""0"",""0""
","""event"",""trial"",""time""
""fullscreenenter"",""0"",""1894""
","
","199.5","","","","","","","","49","1,0,0","6","blank","237","null","0.74601369369564","0.1350982602739014","0.2777519665045353","1","","","","","","","","",""
"","html-keyboard-response","34","186573","0.0-26.0-1.0","""event"",""trial"",""time""
""blur"",""0"",""0""
""focus"",""0"",""0""
""fullscreenenter"",""0"",""1894""
","""event"",""trial"",""time""
""blur"",""0"",""0""
","""event"",""trial"",""time""
""focus"",""0"",""0""
","""event"",""trial"",""time""
""fullscreenenter"",""0"",""1894""
","
","null","<p></p>","null","","","","","","","","","","","","","","","","","","","","","","","",""
"","do_trial","35","189139","0.0-27.0-0.0","""event"",""trial"",""time""
""blur"",""0"",""0""
""focus"",""0"",""0""
""fullscreenenter"",""0"",""1894""
","""event"",""trial"",""time""
""blur"",""0"",""0""
","""event"",""trial"",""time""
""focus"",""0"",""0""
","""event"",""trial"",""time""
""fullscreenenter"",""0"",""1894""
","
","32.69999999925494","","","","","","","","49","1,0,0","6","blank","238","null","0.6995884726005944","0.1134967468004712","0.2492279567044055","1","","","","","","","","",""
"","html-keyboard-response","36","190141","0.0-27.0-1.0","""event"",""trial"",""time""
""blur"",""0"",""0""
""focus"",""0"",""0""
""fullscreenenter"",""0"",""1894""
","""event"",""trial"",""time""
""blur"",""0"",""0""
","""event"",""trial"",""time""
""focus"",""0"",""0""
","""event"",""trial"",""time""
""fullscreenenter"",""0"",""1894""
","
","null","<p></p>","null","","","","","","","","","","","","","","","","","","","","","","","",""
"","do_trial","37","192836","0.0-28.0-0.0","""event"",""trial"",""time""
""blur"",""0"",""0""
""focus"",""0"",""0""
""fullscreenenter"",""0"",""1894""
","""event"",""trial"",""time""
""blur"",""0"",""0""
","""event"",""trial"",""time""
""focus"",""0"",""0""
","""event"",""trial"",""time""
""fullscreenenter"",""0"",""1894""
","
","161.40000000037253","","","","","","","","49","1,0,0","6","blank","239","null","0.6547268387937883","0.27635227255279904","0.24348610350252833","1","","","","","","","","",""
"","html-keyboard-response","38","193838","0.0-28.0-1.0","""event"",""trial"",""time""
""blur"",""0"",""0""
""focus"",""0"",""0""
""fullscreenenter"",""0"",""1894""
","""event"",""trial"",""time""
""blur"",""0"",""0""
","""event"",""trial"",""time""
""focus"",""0"",""0""
","""event"",""trial"",""time""
""fullscreenenter"",""0"",""1894""
","
","null","<p></p>","null","","","","","","","","","","","","","","","","","","","","","","","",""
"","do_trial","39","196396","0.0-29.0-0.0","""event"",""trial"",""time""
""blur"",""0"",""0""
""focus"",""0"",""0""
""fullscreenenter"",""0"",""1894""
","""event"",""trial"",""time""
""blur"",""0"",""0""
","""event"",""trial"",""time""
""focus"",""0"",""0""
","""event"",""trial"",""time""
""fullscreenenter"",""0"",""1894""
","
","14.599999999627471","","","","","","","","49","1,0,0","6","blank","240","null","0.5293444848337482","0.36106620205932993","0.2073875475014798","1","","","","","","","","",""
"","html-keyboard-response","40","197399","0.0-29.0-1.0","""event"",""trial"",""time""
""blur"",""0"",""0""
""focus"",""0"",""0""
""fullscreenenter"",""0"",""1894""
","""event"",""trial"",""time""
""blur"",""0"",""0""
","""event"",""trial"",""time""
""focus"",""0"",""0""
","""event"",""trial"",""time""
""fullscreenenter"",""0"",""1894""
","
","null","<p></p>","null","","","","","","","","","","","","","","","","","","","","","","","",""
"","do_recog","41","203404","0.0-30.0-0.0","""event"",""trial"",""time""
""blur"",""0"",""0""
""focus"",""0"",""0""
""fullscreenenter"",""0"",""1894""
","""event"",""trial"",""time""
""blur"",""0"",""0""
","""event"",""trial"",""time""
""focus"",""0"",""0""
","""event"",""trial"",""time""
""fullscreenenter"",""0"",""1894""
","
","null","","","","","","","","null","","","","241","probe-191","","","","","1","[object Object]","110","2","0","","","",""
"","html-keyboard-response","42","204406","0.0-30.0-1.0","""event"",""trial"",""time""
""blur"",""0"",""0""
""focus"",""0"",""0""
""fullscreenenter"",""0"",""1894""
","""event"",""trial"",""time""
""blur"",""0"",""0""
","""event"",""trial"",""time""
""focus"",""0"",""0""
","""event"",""trial"",""time""
""fullscreenenter"",""0"",""1894""
","
","null","<p></p>","null","","","","","","","","","","","","","","","","","","","","","","","",""
"","do_trial","43","207439","0.0-31.0-0.0","""event"",""trial"",""time""
""blur"",""0"",""0""
""focus"",""0"",""0""
""fullscreenenter"",""0"",""1894""
","""event"",""trial"",""time""
""blur"",""0"",""0""
","""event"",""trial"",""time""
""focus"",""0"",""0""
","""event"",""trial"",""time""
""fullscreenenter"",""0"",""1894""
","
","499.5","","","","","","","","49","0,0,0","6","blank","242","null","0.5011275063123424","0.4481215688277586","0.22765734485632755","0","","","","","","","","",""
"","html-keyboard-response","44","208441","0.0-31.0-1.0","""event"",""trial"",""time""
""blur"",""0"",""0""
""focus"",""0"",""0""
""fullscreenenter"",""0"",""1894""
","""event"",""trial"",""time""
""blur"",""0"",""0""
","""event"",""trial"",""time""
""focus"",""0"",""0""
","""event"",""trial"",""time""
""fullscreenenter"",""0"",""1894""
","
","null","<p></p>","null","","","","","","","","","","","","","","","","","","","","","","","",""
"","do_recog","45","212426","0.0-32.0-0.0","""event"",""trial"",""time""
""blur"",""0"",""0""
""focus"",""0"",""0""
""fullscreenenter"",""0"",""1894""
","""event"",""trial"",""time""
""blur"",""0"",""0""
","""event"",""trial"",""time""
""focus"",""0"",""0""
","""event"",""trial"",""time""
""fullscreenenter"",""0"",""1894""
","
","2478.9000000003725","","","","","","","","56","","","","243","probe-236","","","","","0","[object Object]","null","null","1","","","",""
"","html-keyboard-response","46","213428","0.0-32.0-1.0","""event"",""trial"",""time""
""blur"",""0"",""0""
""focus"",""0"",""0""
""fullscreenenter"",""0"",""1894""
","""event"",""trial"",""time""
""blur"",""0"",""0""
","""event"",""trial"",""time""
""focus"",""0"",""0""
","""event"",""trial"",""time""
""fullscreenenter"",""0"",""1894""
","
","null","<p></p>","null","","","","","","","","","","","","","","","","","","","","","","","",""
"","do_trial","47","216616","0.0-33.0-0.0","""event"",""trial"",""time""
""blur"",""0"",""0""
""focus"",""0"",""0""
""fullscreenenter"",""0"",""1894""
","""event"",""trial"",""time""
""blur"",""0"",""0""
","""event"",""trial"",""time""
""focus"",""0"",""0""
","""event"",""trial"",""time""
""fullscreenenter"",""0"",""1894""
","
","652.8000000007451","","","","","","","","50","0,1,0","6","blank","244","null","0.505153153294833","0.4362410416771999","0.05061490583428194","1","","","","","","","","",""
"","html-keyboard-response","48","217618","0.0-33.0-1.0","""event"",""trial"",""time""
""blur"",""0"",""0""
""focus"",""0"",""0""
""fullscreenenter"",""0"",""1894""
","""event"",""trial"",""time""
""blur"",""0"",""0""
","""event"",""trial"",""time""
""focus"",""0"",""0""
","""event"",""trial"",""time""
""fullscreenenter"",""0"",""1894""
","
","null","<p></p>","null","","","","","","","","","","","","","","","","","","","","","","","",""
"","do_recog","49","220908","0.0-34.0-0.0","""event"",""trial"",""time""
""blur"",""0"",""0""
""focus"",""0"",""0""
""fullscreenenter"",""0"",""1894""
","""event"",""trial"",""time""
""blur"",""0"",""0""
","""event"",""trial"",""time""
""focus"",""0"",""0""
","""event"",""trial"",""time""
""fullscreenenter"",""0"",""1894""
","
","1785.5999999996275","","","","","","","","56","","","","245","probe-218","","","","","1","[object Object]","72","1","0","","","",""
"","html-keyboard-response","50","221910","0.0-34.0-1.0","""event"",""trial"",""time""
""blur"",""0"",""0""
""focus"",""0"",""0""
""fullscreenenter"",""0"",""1894""
","""event"",""trial"",""time""
""blur"",""0"",""0""
","""event"",""trial"",""time""
""focus"",""0"",""0""
","""event"",""trial"",""time""
""fullscreenenter"",""0"",""1894""
","
","null","<p></p>","null","","","","","","","","","","","","","","","","","","","","","","","",""
"","do_trial","51","224635","0.0-35.0-0.0","""event"",""trial"",""time""
""blur"",""0"",""0""
""focus"",""0"",""0""
""fullscreenenter"",""0"",""1894""
","""event"",""trial"",""time""
""blur"",""0"",""0""
","""event"",""trial"",""time""
""focus"",""0"",""0""
","""event"",""trial"",""time""
""fullscreenenter"",""0"",""1894""
","
","190.7000000011176","","","","","","","","49","1,0,0","6","blank","246","null","0.4068470507724847","0.5870717836390974","0.077198282945683","1","","","","","","","","",""
"","html-keyboard-response","52","225637","0.0-35.0-1.0","""event"",""trial"",""time""
""blur"",""0"",""0""
""focus"",""0"",""0""
""fullscreenenter"",""0"",""1894""
","""event"",""trial"",""time""
""blur"",""0"",""0""
","""event"",""trial"",""time""
""focus"",""0"",""0""
","""event"",""trial"",""time""
""fullscreenenter"",""0"",""1894""
","
","null","<p></p>","null","","","","","","","","","","","","","","","","","","","","","","","",""
"","do_recog","53","228936","0.0-36.0-0.0","""event"",""trial"",""time""
""blur"",""0"",""0""
""focus"",""0"",""0""
""fullscreenenter"",""0"",""1894""
","""event"",""trial"",""time""
""blur"",""0"",""0""
","""event"",""trial"",""time""
""focus"",""0"",""0""
","""event"",""trial"",""time""
""fullscreenenter"",""0"",""1894""
","
","1795.0999999996275","","","","","","","","54","","","","247","probe-165","","","","","1","[object Object]","196","4","1","","","",""
"","html-keyboard-response","54","229938","0.0-36.0-1.0","""event"",""trial"",""time""
""blur"",""0"",""0""
""focus"",""0"",""0""
""fullscreenenter"",""0"",""1894""
","""event"",""trial"",""time""
""blur"",""0"",""0""
","""event"",""trial"",""time""
""focus"",""0"",""0""
","""event"",""trial"",""time""
""fullscreenenter"",""0"",""1894""
","
","null","<p></p>","null","","","","","","","","","","","","","","","","","","","","","","","",""
"","do_trial","55","233000","0.0-37.0-0.0","""event"",""trial"",""time""
""blur"",""0"",""0""
""focus"",""0"",""0""
""fullscreenenter"",""0"",""1894""
","""event"",""trial"",""time""
""blur"",""0"",""0""
","""event"",""trial"",""time""
""focus"",""0"",""0""
","""event"",""trial"",""time""
""fullscreenenter"",""0"",""1894""
","
","528.0999999996275","","","","","","","","49","1,1,0","6","blank","248","null","0.3145782337290961","0.5623675639562346","0.19936042780266988","1","","","","","","","","",""
"","html-keyboard-response","56","234003","0.0-37.0-1.0","""event"",""trial"",""time""
""blur"",""0"",""0""
""focus"",""0"",""0""
""fullscreenenter"",""0"",""1894""
","""event"",""trial"",""time""
""blur"",""0"",""0""
","""event"",""trial"",""time""
""focus"",""0"",""0""
","""event"",""trial"",""time""
""fullscreenenter"",""0"",""1894""
","
","null","<p></p>","null","","","","","","","","","","","","","","","","","","","","","","","",""
"","do_trial","57","237043","0.0-38.0-0.0","""event"",""trial"",""time""
""blur"",""0"",""0""
""focus"",""0"",""0""
""fullscreenenter"",""0"",""1894""
","""event"",""trial"",""time""
""blur"",""0"",""0""
","""event"",""trial"",""time""
""focus"",""0"",""0""
","""event"",""trial"",""time""
""fullscreenenter"",""0"",""1894""
","
","506.69999999925494","","","","","","","","49","1,1,0","6","blank","249","null","0.19346296418688735","0.5481801087462391","0.14391177449214101","1","","","","","","","","",""
"","html-keyboard-response","58","238045","0.0-38.0-1.0","""event"",""trial"",""time""
""blur"",""0"",""0""
""focus"",""0"",""0""
""fullscreenenter"",""0"",""1894""
","""event"",""trial"",""time""
""blur"",""0"",""0""
","""event"",""trial"",""time""
""focus"",""0"",""0""
","""event"",""trial"",""time""
""fullscreenenter"",""0"",""1894""
","
","null","<p></p>","null","","","","","","","","","","","","","","","","","","","","","","","",""
"","do_trial","59","240924","0.0-39.0-0.0","""event"",""trial"",""time""
""blur"",""0"",""0""
""focus"",""0"",""0""
""fullscreenenter"",""0"",""1894""
","""event"",""trial"",""time""
""blur"",""0"",""0""
","""event"",""trial"",""time""
""focus"",""0"",""0""
","""event"",""trial"",""time""
""fullscreenenter"",""0"",""1894""
","
","346.90000000037253","","","","","","","","49","0,1,0","6","blank","250","null","0.3078225492033724","0.6344238968416724","0.12356141468459628","0","","","","","","","","",""
"","html-keyboard-response","60","241926","0.0-39.0-1.0","""event"",""trial"",""time""
""blur"",""0"",""0""
""focus"",""0"",""0""
""fullscreenenter"",""0"",""1894""
","""event"",""trial"",""time""
""blur"",""0"",""0""
","""event"",""trial"",""time""
""focus"",""0"",""0""
","""event"",""trial"",""time""
""fullscreenenter"",""0"",""1894""
","
","null","<p></p>","null","","","","","","","","","","","","","","","","","","","","","","","",""
"","do_trial","61","244601","0.0-40.0-0.0","""event"",""trial"",""time""
""blur"",""0"",""0""
""focus"",""0"",""0""
""fullscreenenter"",""0"",""1894""
","""event"",""trial"",""time""
""blur"",""0"",""0""
","""event"",""trial"",""time""
""focus"",""0"",""0""
","""event"",""trial"",""time""
""fullscreenenter"",""0"",""1894""
","
","136.7000000011176","","","","","","","","49","0,0,0","6","blank","251","null","0.19164007504254393","0.7418701522610285","0.07948810592228826","0","","","","","","","","",""
"","html-keyboard-response","62","245602","0.0-40.0-1.0","""event"",""trial"",""time""
""blur"",""0"",""0""
""focus"",""0"",""0""
""fullscreenenter"",""0"",""1894""
","""event"",""trial"",""time""
""blur"",""0"",""0""
","""event"",""trial"",""time""
""focus"",""0"",""0""
","""event"",""trial"",""time""
""fullscreenenter"",""0"",""1894""
","
","null","<p></p>","null","","","","","","","","","","","","","","","","","","","","","","","",""
"","do_trial","63","248276","0.0-41.0-0.0","""event"",""trial"",""time""
""blur"",""0"",""0""
""focus"",""0"",""0""
""fullscreenenter"",""0"",""1894""
","""event"",""trial"",""time""
""blur"",""0"",""0""
","""event"",""trial"",""time""
""focus"",""0"",""0""
","""event"",""trial"",""time""
""fullscreenenter"",""0"",""1894""
","
","139.90000000037253","","","","","","","","49","0,0,1","6","blank","252","null","0.26125120060209867","0.738643412160341","0.08786214893813638","0","","","","","","","","",""
"","html-keyboard-response","64","249278","0.0-41.0-1.0","""event"",""trial"",""time""
""blur"",""0"",""0""
""focus"",""0"",""0""
""fullscreenenter"",""0"",""1894""
","""event"",""trial"",""time""
""blur"",""0"",""0""
","""event"",""trial"",""time""
""focus"",""0"",""0""
","""event"",""trial"",""time""
""fullscreenenter"",""0"",""1894""
","
","null","<p></p>","null","","","","","","","","","","","","","","","","","","","","","","","",""
"","do_recog","65","252149","0.0-42.0-0.0","""event"",""trial"",""time""
""blur"",""0"",""0""
""focus"",""0"",""0""
""fullscreenenter"",""0"",""1894""
","""event"",""trial"",""time""
""blur"",""0"",""0""
","""event"",""trial"",""time""
""focus"",""0"",""0""
","""event"",""trial"",""time""
""fullscreenenter"",""0"",""1894""
","
","1367.2000000011176","","","","","","","","53","","","","253","probe-50","","","","","1","[object Object]","198","4","1","","","",""
"","html-keyboard-response","66","253151","0.0-42.0-1.0","""event"",""trial"",""time""
""blur"",""0"",""0""
""focus"",""0"",""0""
""fullscreenenter"",""0"",""1894""
","""event"",""trial"",""time""
""blur"",""0"",""0""
","""event"",""trial"",""time""
""focus"",""0"",""0""
","""event"",""trial"",""time""
""fullscreenenter"",""0"",""1894""
","
","null","<p></p>","null","","","","","","","","","","","","","","","","","","","","","","","",""
"","do_trial","67","255747","0.0-43.0-0.0","""event"",""trial"",""time""
""blur"",""0"",""0""
""focus"",""0"",""0""
""fullscreenenter"",""0"",""1894""
","""event"",""trial"",""time""
""blur"",""0"",""0""
","""event"",""trial"",""time""
""focus"",""0"",""0""
","""event"",""trial"",""time""
""fullscreenenter"",""0"",""1894""
","
","62.5","","","","","","","","49","0,1,0","6","blank","254","null","0.30480306445263716","0.566179677821938","0.09091825115524918","0","","","","","","","","",""
"","html-keyboard-response","68","256749","0.0-43.0-1.0","""event"",""trial"",""time""
""blur"",""0"",""0""
""focus"",""0"",""0""
""fullscreenenter"",""0"",""1894""
","""event"",""trial"",""time""
""blur"",""0"",""0""
","""event"",""trial"",""time""
""focus"",""0"",""0""
","""event"",""trial"",""time""
""fullscreenenter"",""0"",""1894""
","
","null","<p></p>","null","","","","","","","","","","","","","","","","","","","","","","","",""
"","do_recog","69","259784","0.0-44.0-0.0","""event"",""trial"",""time""
""blur"",""0"",""0""
""focus"",""0"",""0""
""fullscreenenter"",""0"",""1894""
","""event"",""trial"",""time""
""blur"",""0"",""0""
","""event"",""trial"",""time""
""focus"",""0"",""0""
","""event"",""trial"",""time""
""fullscreenenter"",""0"",""1894""
","
","1531.5","","","","","","","","55","","","","255","probe-63","","","","","1","[object Object]","74","1","0","","","",""
"","html-keyboard-response","70","260787","0.0-44.0-1.0","""event"",""trial"",""time""
""blur"",""0"",""0""
""focus"",""0"",""0""
""fullscreenenter"",""0"",""1894""
","""event"",""trial"",""time""
""blur"",""0"",""0""
","""event"",""trial"",""time""
""focus"",""0"",""0""
","""event"",""trial"",""time""
""fullscreenenter"",""0"",""1894""
","
","null","<p></p>","null","","","","","","","","","","","","","","","","","","","","","","","",""
"","do_trial","71","263604","0.0-45.0-0.0","""event"",""trial"",""time""
""blur"",""0"",""0""
""focus"",""0"",""0""
""fullscreenenter"",""0"",""1894""
","""event"",""trial"",""time""
""blur"",""0"",""0""
","""event"",""trial"",""time""
""focus"",""0"",""0""
","""event"",""trial"",""time""
""fullscreenenter"",""0"",""1894""
","
","283.30000000074506","","","","","","","","49","1,1,0","6","blank","256","null","0.34894227762998037","0.757358953141268","0.1353409981788072","1","","","","","","","","",""
"","html-keyboard-response","72","264605","0.0-45.0-1.0","""event"",""trial"",""time""
""blur"",""0"",""0""
""focus"",""0"",""0""
""fullscreenenter"",""0"",""1894""
","""event"",""trial"",""time""
""blur"",""0"",""0""
","""event"",""trial"",""time""
""focus"",""0"",""0""
","""event"",""trial"",""time""
""fullscreenenter"",""0"",""1894""
","
","null","<p></p>","null","","","","","","","","","","","","","","","","","","","","","","","",""
"","do_recog","73","267072","0.0-46.0-0.0","""event"",""trial"",""time""
""blur"",""0"",""0""
""focus"",""0"",""0""
""fullscreenenter"",""0"",""1894""
","""event"",""trial"",""time""
""blur"",""0"",""0""
","""event"",""trial"",""time""
""focus"",""0"",""0""
","""event"",""trial"",""time""
""fullscreenenter"",""0"",""1894""
","
","961.5","","","","","","","","53","","","","257","probe-53","","","","","1","[object Object]","199","4","1","","","",""
"","html-keyboard-response","74","268074","0.0-46.0-1.0","""event"",""trial"",""time""
""blur"",""0"",""0""
""focus"",""0"",""0""
""fullscreenenter"",""0"",""1894""
","""event"",""trial"",""time""
""blur"",""0"",""0""
","""event"",""trial"",""time""
""focus"",""0"",""0""
","""event"",""trial"",""time""
""fullscreenenter"",""0"",""1894""
","
","null","<p></p>","null","","","","","","","","","","","","","","","","","","","","","","","",""
"","do_trial","75","271129","0.0-47.0-0.0","""event"",""trial"",""time""
""blur"",""0"",""0""
""focus"",""0"",""0""
""fullscreenenter"",""0"",""1894""
","""event"",""trial"",""time""
""blur"",""0"",""0""
","""event"",""trial"",""time""
""focus"",""0"",""0""
","""event"",""trial"",""time""
""fullscreenenter"",""0"",""1894""
","
","522.2999999988824","","","","","","","","49","1,1,1","6","blank","258","null","0.3835860477274571","0.8540344836792549","0.1015034005539647","1","","","","","","","","",""
"","html-keyboard-response","76","272131","0.0-47.0-1.0","""event"",""trial"",""time""
""blur"",""0"",""0""
""focus"",""0"",""0""
""fullscreenenter"",""0"",""1894""
","""event"",""trial"",""time""
""blur"",""0"",""0""
","""event"",""trial"",""time""
""focus"",""0"",""0""
","""event"",""trial"",""time""
""fullscreenenter"",""0"",""1894""
","
","null","<p></p>","null","","","","","","","","","","","","","","","","","","","","","","","",""
"","do_recog","77","275244","0.0-48.0-0.0","""event"",""trial"",""time""
""blur"",""0"",""0""
""focus"",""0"",""0""
""fullscreenenter"",""0"",""1894""
","""event"",""trial"",""time""
""blur"",""0"",""0""
","""event"",""trial"",""time""
""focus"",""0"",""0""
","""event"",""trial"",""time""
""fullscreenenter"",""0"",""1894""
","
","1608.199999999255","","","","","","","","54","","","","259","probe-66","","","","","1","[object Object]","119","2","1","","","",""
"","html-keyboard-response","78","276247","0.0-48.0-1.0","""event"",""trial"",""time""
""blur"",""0"",""0""
""focus"",""0"",""0""
""fullscreenenter"",""0"",""1894""
","""event"",""trial"",""time""
""blur"",""0"",""0""
","""event"",""trial"",""time""
""focus"",""0"",""0""
","""event"",""trial"",""time""
""fullscreenenter"",""0"",""1894""
","
","null","<p></p>","null","","","","","","","","","","","","","","","","","","","","","","","",""
"","do_trial","79","279413","0.0-49.0-0.0","""event"",""trial"",""time""
""blur"",""0"",""0""
""focus"",""0"",""0""
""fullscreenenter"",""0"",""1894""
","""event"",""trial"",""time""
""blur"",""0"",""0""
","""event"",""trial"",""time""
""focus"",""0"",""0""
","""event"",""trial"",""time""
""fullscreenenter"",""0"",""1894""
","
","633.5999999996275","","","","","","","","49","1,1,0","6","blank","260","null","0.2696498075156932","0.6708972133872817","0.17083443886274607","1","","","","","","","","",""
"","html-keyboard-response","80","280415","0.0-49.0-1.0","""event"",""trial"",""time""
""blur"",""0"",""0""
""focus"",""0"",""0""
""fullscreenenter"",""0"",""1894""
","""event"",""trial"",""time""
""blur"",""0"",""0""
","""event"",""trial"",""time""
""focus"",""0"",""0""
","""event"",""trial"",""time""
""fullscreenenter"",""0"",""1894""
","
","null","<p></p>","null","","","","","","","","","","","","","","","","","","","","","","","",""
"","do_recog","81","283385","0.0-50.0-0.0","""event"",""trial"",""time""
""blur"",""0"",""0""
""focus"",""0"",""0""
""fullscreenenter"",""0"",""1894""
","""event"",""trial"",""time""
""blur"",""0"",""0""
","""event"",""trial"",""time""
""focus"",""0"",""0""
","""event"",""trial"",""time""
""fullscreenenter"",""0"",""1894""
","
","1465.300000000745","","","","","","","","53","","","","261","probe-111","","","","","1","[object Object]","192","4","1","","","",""
"","html-keyboard-response","82","284388","0.0-50.0-1.0","""event"",""trial"",""time""
""blur"",""0"",""0""
""focus"",""0"",""0""
""fullscreenenter"",""0"",""1894""
","""event"",""trial"",""time""
""blur"",""0"",""0""
","""event"",""trial"",""time""
""focus"",""0"",""0""
","""event"",""trial"",""time""
""fullscreenenter"",""0"",""1894""
","
","null","<p></p>","null","","","","","","","","","","","","","","","","","","","","","","","",""
"","do_trial","83","287335","0.0-51.0-0.0","""event"",""trial"",""time""
""blur"",""0"",""0""
""focus"",""0"",""0""
""fullscreenenter"",""0"",""1894""
","""event"",""trial"",""time""
""blur"",""0"",""0""
","""event"",""trial"",""time""
""focus"",""0"",""0""
","""event"",""trial"",""time""
""fullscreenenter"",""0"",""1894""
","
","405.30000000074506","","","","","","","","49","1,1,1","6","blank","262","null","0.3512423826356689","0.7147026639263169","0.10801329703475121","1","","","","","","","","",""
"","html-keyboard-response","84","288337","0.0-51.0-1.0","""event"",""trial"",""time""
""blur"",""0"",""0""
""focus"",""0"",""0""
""fullscreenenter"",""0"",""1894""
","""event"",""trial"",""time""
""blur"",""0"",""0""
","""event"",""trial"",""time""
""focus"",""0"",""0""
","""event"",""trial"",""time""
""fullscreenenter"",""0"",""1894""
","
","null","<p></p>","null","","","","","","","","","","","","","","","","","","","","","","","",""
"","do_recog","85","291699","0.0-52.0-0.0","""event"",""trial"",""time""
""blur"",""0"",""0""
""focus"",""0"",""0""
""fullscreenenter"",""0"",""1894""
","""event"",""trial"",""time""
""blur"",""0"",""0""
","""event"",""trial"",""time""
""focus"",""0"",""0""
","""event"",""trial"",""time""
""fullscreenenter"",""0"",""1894""
","
","1856.800000000745","","","","","","","","55","","","","263","probe-161","","","","","1","[object Object]","70","1","0","","","",""
"","html-keyboard-response","86","292701","0.0-52.0-1.0","""event"",""trial"",""time""
""blur"",""0"",""0""
""focus"",""0"",""0""
""fullscreenenter"",""0"",""1894""
","""event"",""trial"",""time""
""blur"",""0"",""0""
","""event"",""trial"",""time""
""focus"",""0"",""0""
","""event"",""trial"",""time""
""fullscreenenter"",""0"",""1894""
","
","null","<p></p>","null","","","","","","","","","","","","","","","","","","","","","","","",""
"","do_trial","87","295817","0.0-53.0-0.0","""event"",""trial"",""time""
""blur"",""0"",""0""
""focus"",""0"",""0""
""fullscreenenter"",""0"",""1894""
","""event"",""trial"",""time""
""blur"",""0"",""0""
","""event"",""trial"",""time""
""focus"",""0"",""0""
","""event"",""trial"",""time""
""fullscreenenter"",""0"",""1894""
","
","579.4000000003725","","","","","","","","49","0,0,0","6","blank","264","null","0.3055039392102074","0.6305673271585903","0.1398693746696629","0","","","","","","","","",""
"","html-keyboard-response","88","296819","0.0-53.0-1.0","""event"",""trial"",""time""
""blur"",""0"",""0""
""focus"",""0"",""0""
""fullscreenenter"",""0"",""1894""
","""event"",""trial"",""time""
""blur"",""0"",""0""
","""event"",""trial"",""time""
""focus"",""0"",""0""
","""event"",""trial"",""time""
""fullscreenenter"",""0"",""1894""
","
","null","<p></p>","null","","","","","","","","","","","","","","","","","","","","","","","",""
"","do_recog","89","299498","0.0-54.0-0.0","""event"",""trial"",""time""
""blur"",""0"",""0""
""focus"",""0"",""0""
""fullscreenenter"",""0"",""1894""
","""event"",""trial"",""time""
""blur"",""0"",""0""
","""event"",""trial"",""time""
""focus"",""0"",""0""
","""event"",""trial"",""time""
""fullscreenenter"",""0"",""1894""
","
","1174","","","","","","","","53","","","","265","probe-129","","","","","1","[object Object]","30","0","1","","","",""
"","html-keyboard-response","90","300499","0.0-54.0-1.0","""event"",""trial"",""time""
""blur"",""0"",""0""
""focus"",""0"",""0""
""fullscreenenter"",""0"",""1894""
","""event"",""trial"",""time""
""blur"",""0"",""0""
","""event"",""trial"",""time""
""focus"",""0"",""0""
","""event"",""trial"",""time""
""fullscreenenter"",""0"",""1894""
","
","null","<p></p>","null","","","","","","","","","","","","","","","","","","","","","","","",""
"","do_trial","91","303604","0.0-55.0-0.0","""event"",""trial"",""time""
""blur"",""0"",""0""
""focus"",""0"",""0""
""fullscreenenter"",""0"",""1894""
","""event"",""trial"",""time""
""blur"",""0"",""0""
","""event"",""trial"",""time""
""focus"",""0"",""0""
","""event"",""trial"",""time""
""fullscreenenter"",""0"",""1894""
","
","572.1999999992549","","","","","","","","51","0,1,0","6","blank","266","null","0.14997562317132057","0.7843805149032899","0.08263984943369283","0","","","","","","","","",""
"","html-keyboard-response","92","304606","0.0-55.0-1.0","""event"",""trial"",""time""
""blur"",""0"",""0""
""focus"",""0"",""0""
""fullscreenenter"",""0"",""1894""
","""event"",""trial"",""time""
""blur"",""0"",""0""
","""event"",""trial"",""time""
""focus"",""0"",""0""
","""event"",""trial"",""time""
""fullscreenenter"",""0"",""1894""
","
","null","<p></p>","null","","","","","","","","","","","","","","","","","","","","","","","",""
"","do_trial","93","307598","0.0-56.0-0.0","""event"",""trial"",""time""
""blur"",""0"",""0""
""focus"",""0"",""0""
""fullscreenenter"",""0"",""1894""
","""event"",""trial"",""time""
""blur"",""0"",""0""
","""event"",""trial"",""time""
""focus"",""0"",""0""
","""event"",""trial"",""time""
""fullscreenenter"",""0"",""1894""
","
","458.90000000037253","","","","","","","","49","0,1,0","6","blank","267","null","0.295301829052866","0.8068506829556134","0.06689024928103213","0","","","","","","","","",""
"","html-keyboard-response","94","308601","0.0-56.0-1.0","""event"",""trial"",""time""
""blur"",""0"",""0""
""focus"",""0"",""0""
""fullscreenenter"",""0"",""1894""
","""event"",""trial"",""time""
""blur"",""0"",""0""
","""event"",""trial"",""time""
""focus"",""0"",""0""
","""event"",""trial"",""time""
""fullscreenenter"",""0"",""1894""
","
","null","<p></p>","null","","","","","","","","","","","","","","","","","","","","","","","",""
"","do_recog","95","311027","0.0-57.0-0.0","""event"",""trial"",""time""
""blur"",""0"",""0""
""focus"",""0"",""0""
""fullscreenenter"",""0"",""1894""
","""event"",""trial"",""time""
""blur"",""0"",""0""
","""event"",""trial"",""time""
""focus"",""0"",""0""
","""event"",""trial"",""time""
""fullscreenenter"",""0"",""1894""
","
","921.6000000014901","","","","","","","","53","","","","268","probe-243","","","","","0","[object Object]","null","null","0","","","",""
"","html-keyboard-response","96","312030","0.0-57.0-1.0","""event"",""trial"",""time""
""blur"",""0"",""0""
""focus"",""0"",""0""
""fullscreenenter"",""0"",""1894""
","""event"",""trial"",""time""
""blur"",""0"",""0""
","""event"",""trial"",""time""
""focus"",""0"",""0""
","""event"",""trial"",""time""
""fullscreenenter"",""0"",""1894""
","
","null","<p></p>","null","","","","","","","","","","","","","","","","","","","","","","","",""
"","break","97","313145","0.0-58.0-0.0","""event"",""trial"",""time""
""blur"",""0"",""0""
""focus"",""0"",""0""
""fullscreenenter"",""0"",""1894""
","""event"",""trial"",""time""
""blur"",""0"",""0""
","""event"",""trial"",""time""
""focus"",""0"",""0""
","""event"",""trial"",""time""
""fullscreenenter"",""0"",""1894""
","
","1114.2000000011176","<div class='center'><p>Time to take a quick break! You have 2 minutes to rest, but you can move on sooner if you'd like.</p><p> Press the <b>space bar</b> to continue.</p></div>","32","","","","","","","","","","","","","","","","","","","","","","","",""
"","do_trial","98","316926","0.0-58.0-1.0","""event"",""trial"",""time""
""blur"",""0"",""0""
""focus"",""0"",""0""
""fullscreenenter"",""0"",""1894""
","""event"",""trial"",""time""
""blur"",""0"",""0""
","""event"",""trial"",""time""
""focus"",""0"",""0""
","""event"",""trial"",""time""
""fullscreenenter"",""0"",""1894""
","
","1241.7999999988824","","","","","","","","49","0,1,1","6","blank","269","null","0.42104301241478054","0.823500249322056","0.19632887074188177","0","","","","","","","","",""
"","html-keyboard-response","99","317928","0.0-58.0-2.0","""event"",""trial"",""time""
""blur"",""0"",""0""
""focus"",""0"",""0""
""fullscreenenter"",""0"",""1894""
","""event"",""trial"",""time""
""blur"",""0"",""0""
","""event"",""trial"",""time""
""focus"",""0"",""0""
","""event"",""trial"",""time""
""fullscreenenter"",""0"",""1894""
","
","null","<p></p>","null","","","","","","","","","","","","","","","","","","","","","","","",""
"","do_recog","100","320990","0.0-59.0-0.0","""event"",""trial"",""time""
""blur"",""0"",""0""
""focus"",""0"",""0""
""fullscreenenter"",""0"",""1894""
","""event"",""trial"",""time""
""blur"",""0"",""0""
","""event"",""trial"",""time""
""focus"",""0"",""0""
","""event"",""trial"",""time""
""fullscreenenter"",""0"",""1894""
","
","1558.2999999988824","","","","","","","","53","","","","270","probe-237","","","","","0","[object Object]","null","null","0","","","",""
"","html-keyboard-response","101","321993","0.0-59.0-1.0","""event"",""trial"",""time""
""blur"",""0"",""0""
""focus"",""0"",""0""
""fullscreenenter"",""0"",""1894""
","""event"",""trial"",""time""
""blur"",""0"",""0""
","""event"",""trial"",""time""
""focus"",""0"",""0""
","""event"",""trial"",""time""
""fullscreenenter"",""0"",""1894""
","
","null","<p></p>","null","","","","","","","","","","","","","","","","","","","","","","","",""
"","do_trial","102","325112","0.0-60.0-0.0","""event"",""trial"",""time""
""blur"",""0"",""0""
""focus"",""0"",""0""
""fullscreenenter"",""0"",""1894""
","""event"",""trial"",""time""
""blur"",""0"",""0""
","""event"",""trial"",""time""
""focus"",""0"",""0""
","""event"",""trial"",""time""
""fullscreenenter"",""0"",""1894""
","
","587.0999999996275","","","","","","","","51","1,1,0","6","blank","271","null","0.3744290397230538","0.7224446596944927","0.1230286179142241","0","","","","","","","","",""
"","html-keyboard-response","103","326115","0.0-60.0-1.0","""event"",""trial"",""time""
""blur"",""0"",""0""
""focus"",""0"",""0""
""fullscreenenter"",""0"",""1894""
","""event"",""trial"",""time""
""blur"",""0"",""0""
","""event"",""trial"",""time""
""focus"",""0"",""0""
","""event"",""trial"",""time""
""fullscreenenter"",""0"",""1894""
","
","null","<p></p>","null","","","","","","","","","","","","","","","","","","","","","","","",""
"","do_trial","104","328647","0.0-61.0-0.0","""event"",""trial"",""time""
""blur"",""0"",""0""
""focus"",""0"",""0""
""fullscreenenter"",""0"",""1894""
","""event"",""trial"",""time""
""blur"",""0"",""0""
","""event"",""trial"",""time""
""focus"",""0"",""0""
","""event"",""trial"",""time""
""fullscreenenter"",""0"",""1894""
","
","0.09999999962747097","","","","","","","","50","0,0,0","6","blank","272","null","0.378246087988755","0.6472075569222543","0.1309282450672478","0","","","","","","","","",""
"","html-keyboard-response","105","329649","0.0-61.0-1.0","""event"",""trial"",""time""
""blur"",""0"",""0""
""focus"",""0"",""0""
""fullscreenenter"",""0"",""1894""
","""event"",""trial"",""time""
""blur"",""0"",""0""
","""event"",""trial"",""time""
""focus"",""0"",""0""
","""event"",""trial"",""time""
""fullscreenenter"",""0"",""1894""
","
","null","<p></p>","null","","","","","","","","","","","","","","","","","","","","","","","",""
"","do_trial","106","332312","0.0-62.0-0.0","""event"",""trial"",""time""
""blur"",""0"",""0""
""focus"",""0"",""0""
""fullscreenenter"",""0"",""1894""
","""event"",""trial"",""time""
""blur"",""0"",""0""
","""event"",""trial"",""time""
""focus"",""0"",""0""
","""event"",""trial"",""time""
""fullscreenenter"",""0"",""1894""
","
","129","","","","","","","","50","1,0,0","6","blank","273","null","0.4581224200799033","0.8545332294494467","0.12152222077581996","0","","","","","","","","",""
"","html-keyboard-response","107","333314","0.0-62.0-1.0","""event"",""trial"",""time""
""blur"",""0"",""0""
""focus"",""0"",""0""
""fullscreenenter"",""0"",""1894""
","""event"",""trial"",""time""
""blur"",""0"",""0""
","""event"",""trial"",""time""
""focus"",""0"",""0""
","""event"",""trial"",""time""
""fullscreenenter"",""0"",""1894""
","
","null","<p></p>","null","","","","","","","","","","","","","","","","","","","","","","","",""
"","do_trial","108","335853","0.0-63.0-0.0","""event"",""trial"",""time""
""blur"",""0"",""0""
""focus"",""0"",""0""
""fullscreenenter"",""0"",""1894""
","""event"",""trial"",""time""
""blur"",""0"",""0""
","""event"",""trial"",""time""
""focus"",""0"",""0""
","""event"",""trial"",""time""
""fullscreenenter"",""0"",""1894""
","
","0.09999999962747097","","","","","","","","51","1,0,0","6","blank","274","null","0.4721177006889001","0.7475774118348764","0.07326908307400012","0","","","","","","","","",""
"","html-keyboard-response","109","336855","0.0-63.0-1.0","""event"",""trial"",""time""
""blur"",""0"",""0""
""focus"",""0"",""0""
""fullscreenenter"",""0"",""1894""
","""event"",""trial"",""time""
""blur"",""0"",""0""
","""event"",""trial"",""time""
""focus"",""0"",""0""
","""event"",""trial"",""time""
""fullscreenenter"",""0"",""1894""
","
","null","<p></p>","null","","","","","","","","","","","","","","","","","","","","","","","",""
"","do_trial","110","339564","0.0-64.0-0.0","""event"",""trial"",""time""
""blur"",""0"",""0""
""focus"",""0"",""0""
""fullscreenenter"",""0"",""1894""
","""event"",""trial"",""time""
""blur"",""0"",""0""
","""event"",""trial"",""time""
""focus"",""0"",""0""
","""event"",""trial"",""time""
""fullscreenenter"",""0"",""1894""
","
","173.40000000037253","","","","","","","","49","0,0,1","6","blank","275","null","0.4332733153264874","0.6392999256697783","0.06041940924987522","0","","","","","","","","",""
"","html-keyboard-response","111","340566","0.0-64.0-1.0","""event"",""trial"",""time""
""blur"",""0"",""0""
""focus"",""0"",""0""
""fullscreenenter"",""0"",""1894""
","""event"",""trial"",""time""
""blur"",""0"",""0""
","""event"",""trial"",""time""
""focus"",""0"",""0""
","""event"",""trial"",""time""
""fullscreenenter"",""0"",""1894""
","
","null","<p></p>","null","","","","","","","","","","","","","","","","","","","","","","","",""
"","do_trial","112","343278","0.0-65.0-0.0","""event"",""trial"",""time""
""blur"",""0"",""0""
""focus"",""0"",""0""
""fullscreenenter"",""0"",""1894""
","""event"",""trial"",""time""
""blur"",""0"",""0""
","""event"",""trial"",""time""
""focus"",""0"",""0""
","""event"",""trial"",""time""
""fullscreenenter"",""0"",""1894""
","
","179.90000000037253","","","","","","","","49","1,1,0","6","blank","276","null","0.3426622973631234","0.49865746868250865","0.16318977175636068","1","","","","","","","","",""
"","html-keyboard-response","113","344281","0.0-65.0-1.0","""event"",""trial"",""time""
""blur"",""0"",""0""
""focus"",""0"",""0""
""fullscreenenter"",""0"",""1894""
","""event"",""trial"",""time""
""blur"",""0"",""0""
","""event"",""trial"",""time""
""focus"",""0"",""0""
","""event"",""trial"",""time""
""fullscreenenter"",""0"",""1894""
","
","null","<p></p>","null","","","","","","","","","","","","","","","","","","","","","","","",""
"","do_recog","114","347151","0.0-66.0-0.0","""event"",""trial"",""time""
""blur"",""0"",""0""
""focus"",""0"",""0""
""fullscreenenter"",""0"",""1894""
","""event"",""trial"",""time""
""blur"",""0"",""0""
","""event"",""trial"",""time""
""focus"",""0"",""0""
","""event"",""trial"",""time""
""fullscreenenter"",""0"",""1894""
","
","1364.6000000014901","","","","","","","","55","","","","277","probe-163","","","","","1","[object Object]","118","2","0","","","",""
"","html-keyboard-response","115","348154","0.0-66.0-1.0","""event"",""trial"",""time""
""blur"",""0"",""0""
""focus"",""0"",""0""
""fullscreenenter"",""0"",""1894""
","""event"",""trial"",""time""
""blur"",""0"",""0""
","""event"",""trial"",""time""
""focus"",""0"",""0""
","""event"",""trial"",""time""
""fullscreenenter"",""0"",""1894""
","
","null","<p></p>","null","","","","","","","","","","","","","","","","","","","","","","","",""
"","do_trial","116","351486","0.0-67.0-0.0","""event"",""trial"",""time""
""blur"",""0"",""0""
""focus"",""0"",""0""
""fullscreenenter"",""0"",""1894""
","""event"",""trial"",""time""
""blur"",""0"",""0""
","""event"",""trial"",""time""
""focus"",""0"",""0""
","""event"",""trial"",""time""
""fullscreenenter"",""0"",""1894""
","
","789.8000000007451","","","","","","","","49","1,1,0","6","blank","278","null","0.42786221250908285","0.5174481290695624","0.10435011937098246","1","","","","","","","","",""
"","html-keyboard-response","117","352487","0.0-67.0-1.0","""event"",""trial"",""time""
""blur"",""0"",""0""
""focus"",""0"",""0""
""fullscreenenter"",""0"",""1894""
","""event"",""trial"",""time""
""blur"",""0"",""0""
","""event"",""trial"",""time""
""focus"",""0"",""0""
","""event"",""trial"",""time""
""fullscreenenter"",""0"",""1894""
","
","null","<p></p>","null","","","","","","","","","","","","","","","","","","","","","","","",""
"","do_recog","118","354885","0.0-68.0-0.0","""event"",""trial"",""time""
""blur"",""0"",""0""
""focus"",""0"",""0""
""fullscreenenter"",""0"",""1894""
","""event"",""trial"",""time""
""blur"",""0"",""0""
","""event"",""trial"",""time""
""focus"",""0"",""0""
","""event"",""trial"",""time""
""fullscreenenter"",""0"",""1894""
","
","893.5","","","","","","","","53","","","","279","probe-67","","","","","1","[object Object]","156","3","1","","","",""
"","html-keyboard-response","119","355887","0.0-68.0-1.0","""event"",""trial"",""time""
""blur"",""0"",""0""
""focus"",""0"",""0""
""fullscreenenter"",""0"",""1894""
","""event"",""trial"",""time""
""blur"",""0"",""0""
","""event"",""trial"",""time""
""focus"",""0"",""0""
","""event"",""trial"",""time""
""fullscreenenter"",""0"",""1894""
","
","null","<p></p>","null","","","","","","","","","","","","","","","","","","","","","","","",""
"","do_trial","120","358420","0.0-69.0-0.0","""event"",""trial"",""time""
""blur"",""0"",""0""
""focus"",""0"",""0""
""fullscreenenter"",""0"",""1894""
","""event"",""trial"",""time""
""blur"",""0"",""0""
","""event"",""trial"",""time""
""focus"",""0"",""0""
","""event"",""trial"",""time""
""fullscreenenter"",""0"",""1894""
","
","0.09999999962747097","","","","","","","","49","1,1,0","6","blank","280","null","0.2267191523548715","0.5727463500211694","0.13710254056363722","1","","","","","","","","",""
"","html-keyboard-response","121","359423","0.0-69.0-1.0","""event"",""trial"",""time""
""blur"",""0"",""0""
""focus"",""0"",""0""
""fullscreenenter"",""0"",""1894""
","""event"",""trial"",""time""
""blur"",""0"",""0""
","""event"",""trial"",""time""
""focus"",""0"",""0""
","""event"",""trial"",""time""
""fullscreenenter"",""0"",""1894""
","
","null","<p></p>","null","","","","","","","","","","","","","","","","","","","","","","","",""
"","do_trial","122","362177","0.0-70.0-0.0","""event"",""trial"",""time""
""blur"",""0"",""0""
""focus"",""0"",""0""
""fullscreenenter"",""0"",""1894""
","""event"",""trial"",""time""
""blur"",""0"",""0""
","""event"",""trial"",""time""
""focus"",""0"",""0""
","""event"",""trial"",""time""
""fullscreenenter"",""0"",""1894""
","
","219.40000000037253","","","","","","","","49","1,1,0","6","blank","281","null","0.35516216390186517","0.6099701931077602","0.050513275662052506","1","","","","","","","","",""
"","html-keyboard-response","123","363180","0.0-70.0-1.0","""event"",""trial"",""time""
""blur"",""0"",""0""
""focus"",""0"",""0""
""fullscreenenter"",""0"",""1894""
","""event"",""trial"",""time""
""blur"",""0"",""0""
","""event"",""trial"",""time""
""focus"",""0"",""0""
","""event"",""trial"",""time""
""fullscreenenter"",""0"",""1894""
","
","null","<p></p>","null","","","","","","","","","","","","","","","","","","","","","","","",""
"","do_recog","124","365679","0.0-71.0-0.0","""event"",""trial"",""time""
""blur"",""0"",""0""
""focus"",""0"",""0""
""fullscreenenter"",""0"",""1894""
","""event"",""trial"",""time""
""blur"",""0"",""0""
","""event"",""trial"",""time""
""focus"",""0"",""0""
","""event"",""trial"",""time""
""fullscreenenter"",""0"",""1894""
","
","995.1999999992549","","","","","","","","53","","","","282","probe-239","","","","","0","[object Object]","null","null","0","","","",""
"","html-keyboard-response","125","366682","0.0-71.0-1.0","""event"",""trial"",""time""
""blur"",""0"",""0""
""focus"",""0"",""0""
""fullscreenenter"",""0"",""1894""
","""event"",""trial"",""time""
""blur"",""0"",""0""
","""event"",""trial"",""time""
""focus"",""0"",""0""
","""event"",""trial"",""time""
""fullscreenenter"",""0"",""1894""
","
","null","<p></p>","null","","","","","","","","","","","","","","","","","","","","","","","",""
"","do_trial","126","369414","0.0-72.0-0.0","""event"",""trial"",""time""
""blur"",""0"",""0""
""focus"",""0"",""0""
""fullscreenenter"",""0"",""1894""
","""event"",""trial"",""time""
""blur"",""0"",""0""
","""event"",""trial"",""time""
""focus"",""0"",""0""
","""event"",""trial"",""time""
""fullscreenenter"",""0"",""1894""
","
","185.2999999988824","","","","","","","","49","1,0,0","6","blank","283","null","0.4283427700225933","0.5816195083737759","0.07728514272100223","1","","","","","","","","",""
"","html-keyboard-response","127","370416","0.0-72.0-1.0","""event"",""trial"",""time""
""blur"",""0"",""0""
""focus"",""0"",""0""
""fullscreenenter"",""0"",""1894""
","""event"",""trial"",""time""
""blur"",""0"",""0""
","""event"",""trial"",""time""
""focus"",""0"",""0""
","""event"",""trial"",""time""
""fullscreenenter"",""0"",""1894""
","
","null","<p></p>","null","","","","","","","","","","","","","","","","","","","","","","","",""
"","do_trial","128","373123","0.0-73.0-0.0","""event"",""trial"",""time""
""blur"",""0"",""0""
""focus"",""0"",""0""
""fullscreenenter"",""0"",""1894""
","""event"",""trial"",""time""
""blur"",""0"",""0""
","""event"",""trial"",""time""
""focus"",""0"",""0""
","""event"",""trial"",""time""
""fullscreenenter"",""0"",""1894""
","
","174.59999999962747","","","","","","","","49","0,0,0","6","blank","284","null","0.41493450868114323","0.687149090856329","0.10492244064555852","0","","","","","","","","",""
"","html-keyboard-response","129","374125","0.0-73.0-1.0","""event"",""trial"",""time""
""blur"",""0"",""0""
""focus"",""0"",""0""
""fullscreenenter"",""0"",""1894""
","""event"",""trial"",""time""
""blur"",""0"",""0""
","""event"",""trial"",""time""
""focus"",""0"",""0""
","""event"",""trial"",""time""
""fullscreenenter"",""0"",""1894""
","
","null","<p></p>","null","","","","","","","","","","","","","","","","","","","","","","","",""
"","do_trial","130","376660","0.0-74.0-0.0","""event"",""trial"",""time""
""blur"",""0"",""0""
""focus"",""0"",""0""
""fullscreenenter"",""0"",""1894""
","""event"",""trial"",""time""
""blur"",""0"",""0""
","""event"",""trial"",""time""
""focus"",""0"",""0""
","""event"",""trial"",""time""
""fullscreenenter"",""0"",""1894""
","
","0.10000000149011612","","","","","","","","49","0,1,0","6","blank","285","null","0.3413223346689266","0.6876118996151054","0.11976952657902043","0","","","","","","","","",""
"","html-keyboard-response","131","377662","0.0-74.0-1.0","""event"",""trial"",""time""
""blur"",""0"",""0""
""focus"",""0"",""0""
""fullscreenenter"",""0"",""1894""
","""event"",""trial"",""time""
""blur"",""0"",""0""
","""event"",""trial"",""time""
""focus"",""0"",""0""
","""event"",""trial"",""time""
""fullscreenenter"",""0"",""1894""
","
","null","<p></p>","null","","","","","","","","","","","","","","","","","","","","","","","",""
"","do_recog","132","380138","0.0-75.0-0.0","""event"",""trial"",""time""
""blur"",""0"",""0""
""focus"",""0"",""0""
""fullscreenenter"",""0"",""1894""
","""event"",""trial"",""time""
""blur"",""0"",""0""
","""event"",""trial"",""time""
""focus"",""0"",""0""
","""event"",""trial"",""time""
""fullscreenenter"",""0"",""1894""
","
","970.9000000003725","","","","","","","","53","","","","286","probe-49","","","","","1","[object Object]","159","3","1","","","",""
"","html-keyboard-response","133","381140","0.0-75.0-1.0","""event"",""trial"",""time""
""blur"",""0"",""0""
""focus"",""0"",""0""
""fullscreenenter"",""0"",""1894""
","""event"",""trial"",""time""
""blur"",""0"",""0""
","""event"",""trial"",""time""
""focus"",""0"",""0""
","""event"",""trial"",""time""
""fullscreenenter"",""0"",""1894""
","
","null","<p></p>","null","","","","","","","","","","","","","","","","","","","","","","","",""
"","do_trial","134","383860","0.0-76.0-0.0","""event"",""trial"",""time""
""blur"",""0"",""0""
""focus"",""0"",""0""
""fullscreenenter"",""0"",""1894""
","""event"",""trial"",""time""
""blur"",""0"",""0""
","""event"",""trial"",""time""
""focus"",""0"",""0""
","""event"",""trial"",""time""
""fullscreenenter"",""0"",""1894""
","
","188.09999999962747","","","","","","","","49","0,1,1","6","blank","287","null","0.36941549036344384","0.6864782667162512","0.09061702703282958","0","","","","","","","","",""
"","html-keyboard-response","135","384862","0.0-76.0-1.0","""event"",""trial"",""time""
""blur"",""0"",""0""
""focus"",""0"",""0""
""fullscreenenter"",""0"",""1894""
","""event"",""trial"",""time""
""blur"",""0"",""0""
","""event"",""trial"",""time""
""focus"",""0"",""0""
","""event"",""trial"",""time""
""fullscreenenter"",""0"",""1894""
","
","null","<p></p>","null","","","","","","","","","","","","","","","","","","","","","","","",""
"","do_recog","136","387483","0.0-77.0-0.0","""event"",""trial"",""time""
""blur"",""0"",""0""
""focus"",""0"",""0""
""fullscreenenter"",""0"",""1894""
","""event"",""trial"",""time""
""blur"",""0"",""0""
","""event"",""trial"",""time""
""focus"",""0"",""0""
","""event"",""trial"",""time""
""fullscreenenter"",""0"",""1894""
","
","1116.300000000745","","","","","","","","53","","","","288","probe-28","","","","","1","[object Object]","35","0","1","","","",""
"","html-keyboard-response","137","388485","0.0-77.0-1.0","""event"",""trial"",""time""
""blur"",""0"",""0""
""focus"",""0"",""0""
""fullscreenenter"",""0"",""1894""
","""event"",""trial"",""time""
""blur"",""0"",""0""
","""event"",""trial"",""time""
""focus"",""0"",""0""
","""event"",""trial"",""time""
""fullscreenenter"",""0"",""1894""
","
","null","<p></p>","null","","","","","","","","","","","","","","","","","","","","","","","",""
"","do_trial","138","391346","0.0-78.0-0.0","""event"",""trial"",""time""
""blur"",""0"",""0""
""focus"",""0"",""0""
""fullscreenenter"",""0"",""1894""
","""event"",""trial"",""time""
""blur"",""0"",""0""
","""event"",""trial"",""time""
""focus"",""0"",""0""
","""event"",""trial"",""time""
""fullscreenenter"",""0"",""1894""
","
","315.69999999925494","","","","","","","","50","0,1,0","6","blank","289","null","0.34787700802459226","0.7267387528060975","0.2055045063890904","1","","","","","","","","",""
"","html-keyboard-response","139","392348","0.0-78.0-1.0","""event"",""trial"",""time""
""blur"",""0"",""0""
""focus"",""0"",""0""
""fullscreenenter"",""0"",""1894""
","""event"",""trial"",""time""
""blur"",""0"",""0""
","""event"",""trial"",""time""
""focus"",""0"",""0""
","""event"",""trial"",""time""
""fullscreenenter"",""0"",""1894""
","
","null","<p></p>","null","","","","","","","","","","","","","","","","","","","","","","","",""
"","do_trial","140","396005","0.0-79.0-0.0","""event"",""trial"",""time""
""blur"",""0"",""0""
""focus"",""0"",""0""
""fullscreenenter"",""0"",""1894""
","""event"",""trial"",""time""
""blur"",""0"",""0""
","""event"",""trial"",""time""
""focus"",""0"",""0""
","""event"",""trial"",""time""
""fullscreenenter"",""0"",""1894""
","
","1125","","","","","","","","51","0,0,0","6","blank","290","null","0.28273566901559277","0.6610899283495651","0.16679231139757308","0","","","","","","","","",""
"","html-keyboard-response","141","397007","0.0-79.0-1.0","""event"",""trial"",""time""
""blur"",""0"",""0""
""focus"",""0"",""0""
""fullscreenenter"",""0"",""1894""
","""event"",""trial"",""time""
""blur"",""0"",""0""
","""event"",""trial"",""time""
""focus"",""0"",""0""
","""event"",""trial"",""time""
""fullscreenenter"",""0"",""1894""
","
","null","<p></p>","null","","","","","","","","","","","","","","","","","","","","","","","",""
"","do_trial","142","399704","0.0-80.0-0.0","""event"",""trial"",""time""
""blur"",""0"",""0""
""focus"",""0"",""0""
""fullscreenenter"",""0"",""1894""
","""event"",""trial"",""time""
""blur"",""0"",""0""
","""event"",""trial"",""time""
""focus"",""0"",""0""
","""event"",""trial"",""time""
""fullscreenenter"",""0"",""1894""
","
","163","","","","","","","","50","1,1,1","6","blank","291","null","0.2714289213982852","0.6103656354267337","0.2633856236248975","1","","","","","","","","",""
"","html-keyboard-response","143","400706","0.0-80.0-1.0","""event"",""trial"",""time""
""blur"",""0"",""0""
""focus"",""0"",""0""
""fullscreenenter"",""0"",""1894""
","""event"",""trial"",""time""
""blur"",""0"",""0""
","""event"",""trial"",""time""
""focus"",""0"",""0""
","""event"",""trial"",""time""
""fullscreenenter"",""0"",""1894""
","
","null","<p></p>","null","","","","","","","","","","","","","","","","","","","","","","","",""
"","do_trial","144","403738","0.0-81.0-0.0","""event"",""trial"",""time""
""blur"",""0"",""0""
""focus"",""0"",""0""
""fullscreenenter"",""0"",""1894""
","""event"",""trial"",""time""
""blur"",""0"",""0""
","""event"",""trial"",""time""
""focus"",""0"",""0""
","""event"",""trial"",""time""
""fullscreenenter"",""0"",""1894""
","
","492.40000000037253","","","","","","","","50","0,0,0","6","blank","292","null","0.26404927226410424","0.6171297284638219","0.10629000672534543","0","","","","","","","","",""
"","html-keyboard-response","145","404740","0.0-81.0-1.0","""event"",""trial"",""time""
""blur"",""0"",""0""
""focus"",""0"",""0""
""fullscreenenter"",""0"",""1894""
","""event"",""trial"",""time""
""blur"",""0"",""0""
","""event"",""trial"",""time""
""focus"",""0"",""0""
","""event"",""trial"",""time""
""fullscreenenter"",""0"",""1894""
","
","null","<p></p>","null","","","","","","","","","","","","","","","","","","","","","","","",""
"","do_trial","146","407349","0.0-82.0-0.0","""event"",""trial"",""time""
""blur"",""0"",""0""
""focus"",""0"",""0""
""fullscreenenter"",""0"",""1894""
","""event"",""trial"",""time""
""blur"",""0"",""0""
","""event"",""trial"",""time""
""focus"",""0"",""0""
","""event"",""trial"",""time""
""fullscreenenter"",""0"",""1894""
","
","74.5","","","","","","","","49","0,0,1","6","blank","293","null","0.12751217016236283","0.5448786145120464","0.09867437587205975","0","","","","","","","","",""
"","html-keyboard-response","147","408351","0.0-82.0-1.0","""event"",""trial"",""time""
""blur"",""0"",""0""
""focus"",""0"",""0""
""fullscreenenter"",""0"",""1894""
","""event"",""trial"",""time""
""blur"",""0"",""0""
","""event"",""trial"",""time""
""focus"",""0"",""0""
","""event"",""trial"",""time""
""fullscreenenter"",""0"",""1894""
","
","null","<p></p>","null","","","","","","","","","","","","","","","","","","","","","","","",""
"","do_trial","148","411164","0.0-83.0-0.0","""event"",""trial"",""time""
""blur"",""0"",""0""
""focus"",""0"",""0""
""fullscreenenter"",""0"",""1894""
","""event"",""trial"",""time""
""blur"",""0"",""0""
","""event"",""trial"",""time""
""focus"",""0"",""0""
","""event"",""trial"",""time""
""fullscreenenter"",""0"",""1894""
","
","279.2000000011176","","","","","","","","50","1,1,0","6","blank","294","null","0.17275201453808633","0.6007396184613589","0.056363239336076454","1","","","","","","","","",""
"","html-keyboard-response","149","412167","0.0-83.0-1.0","""event"",""trial"",""time""
""blur"",""0"",""0""
""focus"",""0"",""0""
""fullscreenenter"",""0"",""1894""
","""event"",""trial"",""time""
""blur"",""0"",""0""
","""event"",""trial"",""time""
""focus"",""0"",""0""
","""event"",""trial"",""time""
""fullscreenenter"",""0"",""1894""
","
","null","<p></p>","null","","","","","","","","","","","","","","","","","","","","","","","",""
"","do_trial","150","414704","0.0-84.0-0.0","""event"",""trial"",""time""
""blur"",""0"",""0""
""focus"",""0"",""0""
""fullscreenenter"",""0"",""1894""
","""event"",""trial"",""time""
""blur"",""0"",""0""
","""event"",""trial"",""time""
""focus"",""0"",""0""
","""event"",""trial"",""time""
""fullscreenenter"",""0"",""1894""
","
","0.09999999962747097","","","","","","","","50","0,1,0","6","blank","295","null","0.25325978469227695","0.6583437351339664","0.09248464517067176","1","","","","","","","","",""
"","html-keyboard-response","151","415706","0.0-84.0-1.0","""event"",""trial"",""time""
""blur"",""0"",""0""
""focus"",""0"",""0""
""fullscreenenter"",""0"",""1894""
","""event"",""trial"",""time""
""blur"",""0"",""0""
","""event"",""trial"",""time""
""focus"",""0"",""0""
","""event"",""trial"",""time""
""fullscreenenter"",""0"",""1894""
","
","null","<p></p>","null","","","","","","","","","","","","","","","","","","","","","","","",""
"","do_recog","152","418052","0.0-85.0-0.0","""event"",""trial"",""time""
""blur"",""0"",""0""
""focus"",""0"",""0""
""fullscreenenter"",""0"",""1894""
","""event"",""trial"",""time""
""blur"",""0"",""0""
","""event"",""trial"",""time""
""focus"",""0"",""0""
","""event"",""trial"",""time""
""fullscreenenter"",""0"",""1894""
","
","841.5","","","","","","","","53","","","","296","probe-140","","","","","1","[object Object]","195","4","1","","","",""
"","html-keyboard-response","153","419053","0.0-85.0-1.0","""event"",""trial"",""time""
""blur"",""0"",""0""
""focus"",""0"",""0""
""fullscreenenter"",""0"",""1894""
","""event"",""trial"",""time""
""blur"",""0"",""0""
","""event"",""trial"",""time""
""focus"",""0"",""0""
","""event"",""trial"",""time""
""fullscreenenter"",""0"",""1894""
","
","null","<p></p>","null","","","","","","","","","","","","","","","","","","","","","","","",""
"","do_trial","154","422580","0.0-86.0-0.0","""event"",""trial"",""time""
""blur"",""0"",""0""
""focus"",""0"",""0""
""fullscreenenter"",""0"",""1894""
","""event"",""trial"",""time""
""blur"",""0"",""0""
","""event"",""trial"",""time""
""focus"",""0"",""0""
","""event"",""trial"",""time""
""fullscreenenter"",""0"",""1894""
","
","984.3000000007451","","","","","","","","50","1,0,0","6","blank","297","null","0.17930390355689002","0.5709586806044787","0.07260005553697674","0","","","","","","","","",""
"","html-keyboard-response","155","423583","0.0-86.0-1.0","""event"",""trial"",""time""
""blur"",""0"",""0""
""focus"",""0"",""0""
""fullscreenenter"",""0"",""1894""
","""event"",""trial"",""time""
""blur"",""0"",""0""
","""event"",""trial"",""time""
""focus"",""0"",""0""
","""event"",""trial"",""time""
""fullscreenenter"",""0"",""1894""
","
","null","<p></p>","null","","","","","","","","","","","","","","","","","","","","","","","",""
"","do_trial","156","426201","0.0-87.0-0.0","""event"",""trial"",""time""
""blur"",""0"",""0""
""focus"",""0"",""0""
""fullscreenenter"",""0"",""1894""
","""event"",""trial"",""time""
""blur"",""0"",""0""
","""event"",""trial"",""time""
""focus"",""0"",""0""
","""event"",""trial"",""time""
""fullscreenenter"",""0"",""1894""
","
","84","","","","","","","","50","0,0,0","6","blank","298","null","0.3021825216180419","0.6414839350291004","0.2160129558559547","0","","","","","","","","",""
"","html-keyboard-response","157","427204","0.0-87.0-1.0","""event"",""trial"",""time""
""blur"",""0"",""0""
""focus"",""0"",""0""
""fullscreenenter"",""0"",""1894""
","""event"",""trial"",""time""
""blur"",""0"",""0""
","""event"",""trial"",""time""
""focus"",""0"",""0""
","""event"",""trial"",""time""
""fullscreenenter"",""0"",""1894""
","
","null","<p></p>","null","","","","","","","","","","","","","","","","","","","","","","","",""
"","do_trial","158","429944","0.0-88.0-0.0","""event"",""trial"",""time""
""blur"",""0"",""0""
""focus"",""0"",""0""
""fullscreenenter"",""0"",""1894""
","""event"",""trial"",""time""
""blur"",""0"",""0""
","""event"",""trial"",""time""
""focus"",""0"",""0""
","""event"",""trial"",""time""
""fullscreenenter"",""0"",""1894""
","
","203.90000000037253","","","","","","","","50","0,1,1","6","blank","299","null","0.3262085092803925","0.5134410515804596","0.2762940462776744","1","","","","","","","","",""
"","html-keyboard-response","159","430946","0.0-88.0-1.0","""event"",""trial"",""time""
""blur"",""0"",""0""
""focus"",""0"",""0""
""fullscreenenter"",""0"",""1894""
","""event"",""trial"",""time""
""blur"",""0"",""0""
","""event"",""trial"",""time""
""focus"",""0"",""0""
","""event"",""trial"",""time""
""fullscreenenter"",""0"",""1894""
","
","null","<p></p>","null","","","","","","","","","","","","","","","","","","","","","","","",""
"","do_trial","160","433526","0.0-89.0-0.0","""event"",""trial"",""time""
""blur"",""0"",""0""
""focus"",""0"",""0""
""fullscreenenter"",""0"",""1894""
","""event"",""trial"",""time""
""blur"",""0"",""0""
","""event"",""trial"",""time""
""focus"",""0"",""0""
","""event"",""trial"",""time""
""fullscreenenter"",""0"",""1894""
","
","46.90000000037253","","","","","","","","50","0,1,1","6","blank","300","null","0.16558884084780734","0.4676263991260462","0.3007732081002078","1","","","","","","","","",""
"","html-keyboard-response","161","434528","0.0-89.0-1.0","""event"",""trial"",""time""
""blur"",""0"",""0""
""focus"",""0"",""0""
""fullscreenenter"",""0"",""1894""
","""event"",""trial"",""time""
""blur"",""0"",""0""
","""event"",""trial"",""time""
""focus"",""0"",""0""
","""event"",""trial"",""time""
""fullscreenenter"",""0"",""1894""
","
","null","<p></p>","null","","","","","","","","","","","","","","","","","","","","","","","",""
"","do_trial","162","437602","0.0-90.0-0.0","""event"",""trial"",""time""
""blur"",""0"",""0""
""focus"",""0"",""0""
""fullscreenenter"",""0"",""1894""
","""event"",""trial"",""time""
""blur"",""0"",""0""
","""event"",""trial"",""time""
""focus"",""0"",""0""
","""event"",""trial"",""time""
""fullscreenenter"",""0"",""1894""
","
","536.4000000003725","","","","","","","","50","0,0,0","6","blank","301","null","0.22018003489347543","0.5520046352199017","0.4428947318631989","0","","","","","","","","",""
"","html-keyboard-response","163","438604","0.0-90.0-1.0","""event"",""trial"",""time""
""blur"",""0"",""0""
""focus"",""0"",""0""
""fullscreenenter"",""0"",""1894""
","""event"",""trial"",""time""
""blur"",""0"",""0""
","""event"",""trial"",""time""
""focus"",""0"",""0""
","""event"",""trial"",""time""
""fullscreenenter"",""0"",""1894""
","
","null","<p></p>","null","","","","","","","","","","","","","","","","","","","","","","","",""
"","do_recog","164","441350","0.0-91.0-0.0","""event"",""trial"",""time""
""blur"",""0"",""0""
""focus"",""0"",""0""
""fullscreenenter"",""0"",""1894""
","""event"",""trial"",""time""
""blur"",""0"",""0""
","""event"",""trial"",""time""
""focus"",""0"",""0""
","""event"",""trial"",""time""
""fullscreenenter"",""0"",""1894""
","
","1241.199999999255","","","","","","","","55","","","","302","probe-114","","","","","1","[object Object]","75","1","0","","","",""
"","html-keyboard-response","165","442352","0.0-91.0-1.0","""event"",""trial"",""time""
""blur"",""0"",""0""
""focus"",""0"",""0""
""fullscreenenter"",""0"",""1894""
","""event"",""trial"",""time""
""blur"",""0"",""0""
","""event"",""trial"",""time""
""focus"",""0"",""0""
","""event"",""trial"",""time""
""fullscreenenter"",""0"",""1894""
","
","null","<p></p>","null","","","","","","","","","","","","","","","","","","","","","","","",""
"","do_trial","166","445978","0.0-92.0-0.0","""event"",""trial"",""time""
""blur"",""0"",""0""
""focus"",""0"",""0""
""fullscreenenter"",""0"",""1894""
","""event"",""trial"",""time""
""blur"",""0"",""0""
","""event"",""trial"",""time""
""focus"",""0"",""0""
","""event"",""trial"",""time""
""fullscreenenter"",""0"",""1894""
","
","1092.4000000003725","","","","","","","","49","1,0,0","6","blank","303","null","0.46240860033365794","0.4205406942714647","0.49371614414541015","1","","","","","","","","",""
"","html-keyboard-response","167","446980","0.0-92.0-1.0","""event"",""trial"",""time""
""blur"",""0"",""0""
""focus"",""0"",""0""
""fullscreenenter"",""0"",""1894""
","""event"",""trial"",""time""
""blur"",""0"",""0""
","""event"",""trial"",""time""
""focus"",""0"",""0""
","""event"",""trial"",""time""
""fullscreenenter"",""0"",""1894""
","
","null","<p></p>","null","","","","","","","","","","","","","","","","","","","","","","","",""
"","do_trial","168","449641","0.0-93.0-0.0","""event"",""trial"",""time""
""blur"",""0"",""0""
""focus"",""0"",""0""
""fullscreenenter"",""0"",""1894""
","""event"",""trial"",""time""
""blur"",""0"",""0""
","""event"",""trial"",""time""
""focus"",""0"",""0""
","""event"",""trial"",""time""
""fullscreenenter"",""0"",""1894""
","
","128.2000000011176","","","","","","","","49","0,1,1","6","blank","304","null","0.4293701206523633","0.4045069629058095","0.6565944196059422","0","","","","","","","","",""
"","html-keyboard-response","169","450643","0.0-93.0-1.0","""event"",""trial"",""time""
""blur"",""0"",""0""
""focus"",""0"",""0""
""fullscreenenter"",""0"",""1894""
","""event"",""trial"",""time""
""blur"",""0"",""0""
","""event"",""trial"",""time""
""focus"",""0"",""0""
","""event"",""trial"",""time""
""fullscreenenter"",""0"",""1894""
","
","null","<p></p>","null","","","","","","","","","","","","","","","","","","","","","","","",""
"","do_trial","170","453316","0.0-94.0-0.0","""event"",""trial"",""time""
""blur"",""0"",""0""
""focus"",""0"",""0""
""fullscreenenter"",""0"",""1894""
","""event"",""trial"",""time""
""blur"",""0"",""0""
","""event"",""trial"",""time""
""focus"",""0"",""0""
","""event"",""trial"",""time""
""fullscreenenter"",""0"",""1894""
","
","141.5","","","","","","","","51","1,0,1","6","blank","305","null","0.413245683167132","0.3254950433798006","0.5708302614342291","1","","","","","","","","",""
"","html-keyboard-response","171","454318","0.0-94.0-1.0","""event"",""trial"",""time""
""blur"",""0"",""0""
""focus"",""0"",""0""
""fullscreenenter"",""0"",""1894""
","""event"",""trial"",""time""
""blur"",""0"",""0""
","""event"",""trial"",""time""
""focus"",""0"",""0""
","""event"",""trial"",""time""
""fullscreenenter"",""0"",""1894""
","
","null","<p></p>","null","","","","","","","","","","","","","","","","","","","","","","","",""
"","do_trial","172","457095","0.0-95.0-0.0","""event"",""trial"",""time""
""blur"",""0"",""0""
""focus"",""0"",""0""
""fullscreenenter"",""0"",""1894""
","""event"",""trial"",""time""
""blur"",""0"",""0""
","""event"",""trial"",""time""
""focus"",""0"",""0""
","""event"",""trial"",""time""
""fullscreenenter"",""0"",""1894""
","
","244.2999999988824","","","","","","","","51","1,0,1","6","blank","306","null","0.4689051642184316","0.185328898140591","0.6397278699202275","1","","","","","","","","",""
"","html-keyboard-response","173","458098","0.0-95.0-1.0","""event"",""trial"",""time""
""blur"",""0"",""0""
""focus"",""0"",""0""
""fullscreenenter"",""0"",""1894""
","""event"",""trial"",""time""
""blur"",""0"",""0""
","""event"",""trial"",""time""
""focus"",""0"",""0""
","""event"",""trial"",""time""
""fullscreenenter"",""0"",""1894""
","
","null","<p></p>","null","","","","","","","","","","","","","","","","","","","","","","","",""
"","do_trial","174","460895","0.0-96.0-0.0","""event"",""trial"",""time""
""blur"",""0"",""0""
""focus"",""0"",""0""
""fullscreenenter"",""0"",""1894""
","""event"",""trial"",""time""
""blur"",""0"",""0""
","""event"",""trial"",""time""
""focus"",""0"",""0""
","""event"",""trial"",""time""
""fullscreenenter"",""0"",""1894""
","
","261.59999999962747","","","","","","","","51","0,0,1","6","blank","307","null","0.462902688993924","0.2390930677695715","0.5570745243103941","1","","","","","","","","",""
"","html-keyboard-response","175","461897","0.0-96.0-1.0","""event"",""trial"",""time""
""blur"",""0"",""0""
""focus"",""0"",""0""
""fullscreenenter"",""0"",""1894""
","""event"",""trial"",""time""
""blur"",""0"",""0""
","""event"",""trial"",""time""
""focus"",""0"",""0""
","""event"",""trial"",""time""
""fullscreenenter"",""0"",""1894""
","
","null","<p></p>","null","","","","","","","","","","","","","","","","","","","","","","","",""
"","do_trial","176","464541","0.0-97.0-0.0","""event"",""trial"",""time""
""blur"",""0"",""0""
""focus"",""0"",""0""
""fullscreenenter"",""0"",""1894""
","""event"",""trial"",""time""
""blur"",""0"",""0""
","""event"",""trial"",""time""
""focus"",""0"",""0""
","""event"",""trial"",""time""
""fullscreenenter"",""0"",""1894""
","
","107","","","","","","","","51","0,0,0","6","blank","308","null","0.5326259687331469","0.13435633092375307","0.553545146466143","0","","","","","","","","",""
"","html-keyboard-response","177","465543","0.0-97.0-1.0","""event"",""trial"",""time""
""blur"",""0"",""0""
""focus"",""0"",""0""
""fullscreenenter"",""0"",""1894""
","""event"",""trial"",""time""
""blur"",""0"",""0""
","""event"",""trial"",""time""
""focus"",""0"",""0""
","""event"",""trial"",""time""
""fullscreenenter"",""0"",""1894""
","
","null","<p></p>","null","","","","","","","","","","","","","","","","","","","","","","","",""
"","break","178","466979","0.0-98.0-0.0","""event"",""trial"",""time""
""blur"",""0"",""0""
""focus"",""0"",""0""
""fullscreenenter"",""0"",""1894""
","""event"",""trial"",""time""
""blur"",""0"",""0""
","""event"",""trial"",""time""
""focus"",""0"",""0""
","""event"",""trial"",""time""
""fullscreenenter"",""0"",""1894""
","
","1434.9000000003725","<div class='center'><p>Time to take a quick break! You have 2 minutes to rest, but you can move on sooner if you'd like.</p><p> Press the <b>space bar</b> to continue.</p></div>","32","","","","","","","","","","","","","","","","","","","","","","","",""
"","do_recog","179","469798","0.0-98.0-1.0","""event"",""trial"",""time""
""blur"",""0"",""0""
""focus"",""0"",""0""
""fullscreenenter"",""0"",""1894""
","""event"",""trial"",""time""
""blur"",""0"",""0""
","""event"",""trial"",""time""
""focus"",""0"",""0""
","""event"",""trial"",""time""
""fullscreenenter"",""0"",""1894""
","
","1314.699999999255","","","","","","","","53","","","","309","probe-204","","","","","1","[object Object]","36","0","1","","","",""
"","html-keyboard-response","180","470800","0.0-98.0-2.0","""event"",""trial"",""time""
""blur"",""0"",""0""
""focus"",""0"",""0""
""fullscreenenter"",""0"",""1894""
","""event"",""trial"",""time""
""blur"",""0"",""0""
","""event"",""trial"",""time""
""focus"",""0"",""0""
","""event"",""trial"",""time""
""fullscreenenter"",""0"",""1894""
","
","null","<p></p>","null","","","","","","","","","","","","","","","","","","","","","","","",""
"","do_trial","181","473824","0.0-99.0-0.0","""event"",""trial"",""time""
""blur"",""0"",""0""
""focus"",""0"",""0""
""fullscreenenter"",""0"",""1894""
","""event"",""trial"",""time""
""blur"",""0"",""0""
","""event"",""trial"",""time""
""focus"",""0"",""0""
","""event"",""trial"",""time""
""fullscreenenter"",""0"",""1894""
","
","491.2999999988824","","","","","","","","49","0,0,1","6","blank","310","null","0.30353276946637503","0.2807983253847933","0.532262576833226","0","","","","","","","","",""
"","html-keyboard-response","182","474826","0.0-99.0-1.0","""event"",""trial"",""time""
""blur"",""0"",""0""
""focus"",""0"",""0""
""fullscreenenter"",""0"",""1894""
","""event"",""trial"",""time""
""blur"",""0"",""0""
","""event"",""trial"",""time""
""focus"",""0"",""0""
","""event"",""trial"",""time""
""fullscreenenter"",""0"",""1894""
","
","null","<p></p>","null","","","","","","","","","","","","","","","","","","","","","","","",""
"","do_trial","183","477389","0.0-100.0-0.0","""event"",""trial"",""time""
""blur"",""0"",""0""
""focus"",""0"",""0""
""fullscreenenter"",""0"",""1894""
","""event"",""trial"",""time""
""blur"",""0"",""0""
","""event"",""trial"",""time""
""focus"",""0"",""0""
","""event"",""trial"",""time""
""fullscreenenter"",""0"",""1894""
","
","30.699999999254942","","","","","","","","51","0,0,1","6","blank","311","null","0.3949963137881672","0.1702057299136399","0.6364651883860798","1","","","","","","","","",""
"","html-keyboard-response","184","478391","0.0-100.0-1.0","""event"",""trial"",""time""
""blur"",""0"",""0""
""focus"",""0"",""0""
""fullscreenenter"",""0"",""1894""
","""event"",""trial"",""time""
""blur"",""0"",""0""
","""event"",""trial"",""time""
""focus"",""0"",""0""
","""event"",""trial"",""time""
""fullscreenenter"",""0"",""1894""
","
","null","<p></p>","null","","","","","","","","","","","","","","","","","","","","","","","",""
"","do_trial","185","481705","0.0-101.0-0.0","""event"",""trial"",""time""
""blur"",""0"",""0""
""focus"",""0"",""0""
""fullscreenenter"",""0"",""1894""
","""event"",""trial"",""time""
""blur"",""0"",""0""
","""event"",""trial"",""time""
""focus"",""0"",""0""
","""event"",""trial"",""time""
""fullscreenenter"",""0"",""1894""
","
","776.8000000007451","","","","","","","","51","0,1,0","6","blank","312","null","0.32924425919855793","0.38132300703700156","0.7098532464180534","0","","","","","","","","",""
"","html-keyboard-response","186","482708","0.0-101.0-1.0","""event"",""trial"",""time""
""blur"",""0"",""0""
""focus"",""0"",""0""
""fullscreenenter"",""0"",""1894""
","""event"",""trial"",""time""
""blur"",""0"",""0""
","""event"",""trial"",""time""
""focus"",""0"",""0""
","""event"",""trial"",""time""
""fullscreenenter"",""0"",""1894""
","
","null","<p></p>","null","","","","","","","","","","","","","","","","","","","","","","","",""
"","do_trial","187","485344","0.0-102.0-0.0","""event"",""trial"",""time""
""blur"",""0"",""0""
""focus"",""0"",""0""
""fullscreenenter"",""0"",""1894""
","""event"",""trial"",""time""
""blur"",""0"",""0""
","""event"",""trial"",""time""
""focus"",""0"",""0""
","""event"",""trial"",""time""
""fullscreenenter"",""0"",""1894""
","
","93.20000000111759","","","","","","","","51","0,0,0","6","blank","313","null","0.3124834512953233","0.3286337104454766","0.5872988620544893","0","","","","","","","","",""
"","html-keyboard-response","188","486346","0.0-102.0-1.0","""event"",""trial"",""time""
""blur"",""0"",""0""
""focus"",""0"",""0""
""fullscreenenter"",""0"",""1894""
","""event"",""trial"",""time""
""blur"",""0"",""0""
","""event"",""trial"",""time""
""focus"",""0"",""0""
","""event"",""trial"",""time""
""fullscreenenter"",""0"",""1894""
","
","null","<p></p>","null","","","","","","","","","","","","","","","","","","","","","","","",""
"","do_trial","189","489339","0.0-103.0-0.0","""event"",""trial"",""time""
""blur"",""0"",""0""
""focus"",""0"",""0""
""fullscreenenter"",""0"",""1894""
","""event"",""trial"",""time""
""blur"",""0"",""0""
","""event"",""trial"",""time""
""focus"",""0"",""0""
","""event"",""trial"",""time""
""fullscreenenter"",""0"",""1894""
","
","460.5","","","","","","","","50","0,0,1","6","blank","314","null","0.25566903881003744","0.26212592286573655","0.6459785234791167","0","","","","","","","","",""
"","html-keyboard-response","190","490341","0.0-103.0-1.0","""event"",""trial"",""time""
""blur"",""0"",""0""
""focus"",""0"",""0""
""fullscreenenter"",""0"",""1894""
","""event"",""trial"",""time""
""blur"",""0"",""0""
","""event"",""trial"",""time""
""focus"",""0"",""0""
","""event"",""trial"",""time""
""fullscreenenter"",""0"",""1894""
","
","null","<p></p>","null","","","","","","","","","","","","","","","","","","","","","","","",""
"","do_trial","191","493022","0.0-104.0-0.0","""event"",""trial"",""time""
""blur"",""0"",""0""
""focus"",""0"",""0""
""fullscreenenter"",""0"",""1894""
","""event"",""trial"",""time""
""blur"",""0"",""0""
","""event"",""trial"",""time""
""focus"",""0"",""0""
","""event"",""trial"",""time""
""fullscreenenter"",""0"",""1894""
","
","148","","","","","","","","49","0,0,0","6","blank","315","null","0.3119554996107122","0.2628643543492596","0.5969343389172691","0","","","","","","","","",""
"","html-keyboard-response","192","494025","0.0-104.0-1.0","""event"",""trial"",""time""
""blur"",""0"",""0""
""focus"",""0"",""0""
""fullscreenenter"",""0"",""1894""
","""event"",""trial"",""time""
""blur"",""0"",""0""
","""event"",""trial"",""time""
""focus"",""0"",""0""
","""event"",""trial"",""time""
""fullscreenenter"",""0"",""1894""
","
","null","<p></p>","null","","","","","","","","","","","","","","","","","","","","","","","",""
"","do_recog","193","496441","0.0-105.0-0.0","""event"",""trial"",""time""
""blur"",""0"",""0""
""focus"",""0"",""0""
""fullscreenenter"",""0"",""1894""
","""event"",""trial"",""time""
""blur"",""0"",""0""
","""event"",""trial"",""time""
""focus"",""0"",""0""
","""event"",""trial"",""time""
""fullscreenenter"",""0"",""1894""
","
