"success","trial_type","trial_index","time_elapsed","internal_node_id","rt","stimulus","key_press","subject_id","participant_id","age","gender","prompt","response","choice_outcomes","context_n","context_img_id","trial_n","probe_img_id","pR_red","pR_white","pR_black","outcome","is_valid","image_to_show","probed_trial","probed_context","correct","probe","probed_trial_n","probed_context_n"
"true","fullscreen","0","3951","0.0-0.0","","","","","","","","","","","","","","","","","","","","","","","","","",""
"","pavlovia","1","3955","0.0-1.0","","","","","","","","","","","","","","","","","","","","","","","","","",""
"","welc_back","2","16616","0.0-2.0","null","run_exp/static/audio/clip_29_welcome_back.m4a","null","161","384","10","Female","<div class='center'><p>Welcome to day 2!</p><p> Yesterday, you were the head captain of a pirate ship. You and your fellow pirates robbed ships for their gold and traveled to six different islands .</p></div>","","","","","","","","","","","","","","","","","",""
"","html-keyboard-response","3","17998","0.0-3.0","1378.3999999761581","<div class='center'><p>Welcome to day 2!</p><p> Yesterday, you were the head captain of a pirate ship. You and your fellow pirates robbed ships for their gold and traveled to six different islands .</p><p><b>[Press the space bar to continue]</b></p></div>","32","","","","","","","","","","","","","","","","","","","","","","",""
"","day_1_summary_goal","4","37976","0.0-4.0","null","run_exp/static/audio/clip_30_goal_of_game.m4a","null","","","","","<div class='center'><p>Today, like yesterday, you get to pick which pirate you want to rob the next ship.</p><p>If the pirate is successful in robbing a ship, you get gold coins that look like this: </p><p><img src='run_exp/static/images/tutorial/reward.png' height='150'></p><p> If they were not successful in robbing the ship, then you will get no gold coins and you'll see a big red x like this: </p><p><img src='run_exp/static/images/tutorial/reward_no.png' height='150'></p></div>","","","","","","","","","","","","","","","","","",""
"","html-keyboard-response","5","40292","0.0-5.0","2312.2000000476837","<div class='center'><p>Today, like yesterday, you get to pick which pirate you want to rob the next ship.</p><p>If the pirate is successful in robbing a ship, you get gold coins that look like this: </p><p><img src='run_exp/static/images/tutorial/reward.png' height='150'></p><p> If they were not successful in robbing the ship, then you will get no gold coins and you'll see a big red x like this: </p><p><img src='run_exp/static/images/tutorial/reward_no.png' height='150'></p><p><b>[Press the space bar to continue]</b></p></div>","32","","","","","","","","","","","","","","","","","","","","","","",""
"","day_1_summary_pick","6","58136","0.0-6.0","null","run_exp/static/audio/clip_31_how_to_pick_a_pirate.m4a","null","","","","","<div class='center'><p>Also, just like yesterday, you will use the 1,2,3 keys on your keyboard to pick a pirate. Press '1' to choose red beard, '2' to choose white beard, and '3' to choose black beard . You only have 3 seconds to pick a pirate, so please make a choice quickly!</p></div>","","","","","","","","","","","","","","","","","",""
"","html-keyboard-response","7","59333","0.0-7.0","1195.3000000715256","<div class='center'><p>Also, just like yesterday, you will use the 1,2,3 keys on your keyboard to pick a pirate. Press '1' to choose red beard, '2' to choose white beard, and '3' to choose black beard . You only have 3 seconds to pick a pirate, so please make a choice quickly!</p><p><b>[Press the space bar to continue]</b></p></div>","32","","","","","","","","","","","","","","","","","","","","","","",""
"","test_phase_begin","8","95216","0.0-8.0","null","run_exp/static/audio/clip_32_final_place.m4a","null","","","","","<div class='center'><p>You’ve arrived at the final island of your journey! Unfortunately, it’s very foggy out, so you won’t be able to see it in the distance like the other islands you've visited.</p><p>You’ll still be deciding which pirate you want to rob a ship like before. However, because of the fog, you also won’t be able to see the ship.</p><p>This means you do not have to remember the ships you rob on this island.</p><p>Unlike yesterday, you won't be visiting multiple islands today. You will stay on this island for the entire game. This game will last ~30 minutes.</p></div>","","","","","","","","","","","","","","","","","",""
"","html-keyboard-response","9","96685","0.0-9.0","1466.6000000238419","<div class='center'><p>You’ve arrived at the final island of your journey! Unfortunately, it’s very foggy out, so you won’t be able to see it in the distance like the other islands you've visited.</p><p>You’ll still be deciding which pirate you want to rob a ship like before. However, because of the fog, you also won’t be able to see the ship.</p><p>This means you do not have to remember the ships you rob on this island.</p><p>Unlike yesterday, you won't be visiting multiple islands today. You will stay on this island for the entire game. This game will last ~30 minutes.</p><p><b>[Press the space bar to continue]</b></p></div>","32","","","","","","","","","","","","","","","","","","","","","","",""
"","explain_probe_1","10","106136","0.0-10.0","null","run_exp/static/audio/clip_33_recognition_1.m4a","null","","","","","<div class='center'><p> Sometimes you’ll be shown a ship, and you will be asked if you saw this ship on a past island.</p><p> Here is an example of what you will see.</p><p><img src='run_exp/static/images/tutorial/example_recog_trial.png' height='500'></p></div>","","","","","","","","","","","","","","","","","",""
"","html-keyboard-response","11","109723","0.0-11.0","3584.600000023842","<div class='center'><p> Sometimes you’ll be shown a ship, and you will be asked if you saw this ship on a past island.</p><p> Here is an example of what you will see.</p><p><img src='run_exp/static/images/tutorial/example_recog_trial.png' height='500'></p><p><b>[Press the space bar to continue]</b></p></div>","32","","","","","","","","","","","","","","","","","","","","","","",""
"","explain_probe_2","12","136577","0.0-12.0","null","run_exp/static/audio/clip_34_recognition_2.m4a","null","","","","","<div class='center'><p> You will press the 5, 6, 7, 8 keys on your keyboard to respond.</p><p>If you are very sure saw the ship, press <b>5</b> on your keyboard.</p><p> If you think you  saw it before but are not sure, then press <b>6</b>.</p><p> If you think you have <b>not</b> seen it before but are not sure, then press <b>7</b>.</p><p> If you are sure you did <b>not</b> see the ship before, then press <b>8</b>.</p><p><img src='run_exp/static/images/tutorial/example_recog_trial.png' height='500'></p></div>","","","","","","","","","","","","","","","","","",""
"","html-keyboard-response","13","138796","0.0-13.0","2215.899999976158","<div class='center'><p> You will press the 5, 6, 7, 8 keys on your keyboard to respond.</p><p>If you are very sure saw the ship, press <b>5</b> on your keyboard.</p><p> If you think you  saw it before but are not sure, then press <b>6</b>.</p><p> If you think you have <b>not</b> seen it before but are not sure, then press <b>7</b>.</p><p> If you are sure you did <b>not</b> see the ship before, then press <b>8</b>.</p><p><img src='run_exp/static/images/tutorial/example_recog_trial.png' height='500'></p><p><b>[Press the space bar to continue]</b></p></div>","32","","","","","","","","","","","","","","","","","","","","","","",""
"","explain_outcome","14","160376","0.0-14.0","null","run_exp/static/audio/clip_35_recognition_3.m4a","null","","","","","<div class='center'><p> If you remember correctly, then you’ll get a gold coin like this: </p><p><img src='run_exp/static/images/tutorial/reward_small.png' height='200'></p><p>If you do not remember correctly, then you'll see a red x like this: </p><p><img src='run_exp/static/images/tutorial/reward_no.png' height='200'></p><p>Importantly, when you are shown a ship, take the time to remind yourself which island you saw it on. This will help you in the next part of the study.</p></div>","","","","","","","","","","","","","","","","","",""
"","html-keyboard-response","15","161018","0.0-15.0","638","<div class='center'><p> If you remember correctly, then you’ll get a gold coin like this: </p><p><img src='run_exp/static/images/tutorial/reward_small.png' height='200'></p><p>If you do not remember correctly, then you'll see a red x like this: </p><p><img src='run_exp/static/images/tutorial/reward_no.png' height='200'></p><p>Importantly, when you are shown a ship, take the time to remind yourself which island you saw it on. This will help you in the next part of the study.</p><p><b>[Press the space bar to continue]</b></p></div>","32","","","","","","","","","","","","","","","","","","","","","","",""
"","begin_test_phase","16","185556","0.0-16.0","null","run_exp/static/audio/clip_36_begin_final.m4a","null","","","","","<div class='center'><p>Let's go over the important points again. Your job is to: </p><p>1. Pick the pirate who is best at robbing ships and will bring you back gold coins. </p><p>2. Correctly remember whether or not you saw a ship before. If you did see the ship before, remind yourself on which island you saw the ship. </p></div>","","","","","","","","","","","","","","","","","",""
"","html-keyboard-response","17","185619","0.0-17.0","0.20000004768371582","<div class='center'><p>Let's go over the important points again. Your job is to: </p><p>1. Pick the pirate who is best at robbing ships and will bring you back gold coins. </p><p>2. Correctly remember whether or not you saw a ship before. If you did see the ship before, remind yourself on which island you saw the ship. </p><p><b>[Press the space bar to continue]</b></p></div>","32","","","","","","","","","","","","","","","","","","","","","","",""
"","do_welcome","18","189636","0.0-18.0","null","","","","","","","","null","","","","","","","","","","","","","","","","",""
"","do_trial","19","193635","0.0-19.0-0.0","1400","","","","","","","","49","0,0,1","6","blank","230","null","0.2417437324301335","0.15517783496240964","0.4803801192546622","0","","","","","","","",""
"","html-keyboard-response","20","194653","0.0-19.0-1.0","null","<p></p>","null","","","","","","","","","","","","","","","","","","","","","","",""
"","do_trial","21","197568","0.0-20.0-0.0","308.10000002384186","","","","","","","","50","0,0,1","6","blank","231","null","0.20272072616722614","0.09902114105163375","0.6415556296187669","0","","","","","","","",""
"","html-keyboard-response","22","198584","0.0-20.0-1.0","null","<p></p>","null","","","","","","","","","","","","","","","","","","","","","","",""
"","do_trial","23","201552","0.0-21.0-0.0","368.6999999284744","","","","","","","","51","0,0,0","6","blank","232","null","0.22997914949354495","0.15344267504521963","0.6050344370308962","0","","","","","","","",""
"","html-keyboard-response","24","202561","0.0-21.0-1.0","null","<p></p>","null","","","","","","","","","","","","","","","","","","","","","","",""
"","do_trial","25","205810","0.0-22.0-0.0","684","","","","","","","","49","1,0,0","6","blank","233","null","0.22874305532735378","0.09887699186098611","0.6607242231372996","1","","","","","","","",""
"","html-keyboard-response","26","206815","0.0-22.0-1.0","null","<p></p>","null","","","","","","","","","","","","","","","","","","","","","","",""
"","do_trial","27","209690","0.0-23.0-0.0","324.7999999523163","","","","","","","","49","0,0,0","6","blank","234","null","0.20979489213850655","0.13616837529964368","0.7276760862179651","0","","","","","","","",""
"","html-keyboard-response","28","210706","0.0-23.0-1.0","null","<p></p>","null","","","","","","","","","","","","","","","","","","","","","","",""
"","do_trial","29","213666","0.0-24.0-0.0","388.3000000715256","","","","","","","","50","0,1,0","6","blank","235","null","0.23055637027366324","0.1158101664923593","0.6951857722799071","1","","","","","","","",""
"","html-keyboard-response","30","214671","0.0-24.0-1.0","null","<p></p>","null","","","","","","","","","","","","","","","","","","","","","","",""
"","do_trial","31","217872","0.0-25.0-0.0","597.7999999523163","","","","","","","","50","0,0,0","6","blank","236","null","0.12691237381556242","0.23412721007694337","0.6408717853558453","0","","","","","","","",""
"","html-keyboard-response","32","218878","0.0-25.0-1.0","null","<p></p>","null","","","","","","","","","","","","","","","","","","","","","","",""
"","do_trial","33","222158","0.0-26.0-0.0","663","","","","","","","","51","1,0,1","6","blank","237","null","0.20440844303214384","0.2795695746834989","0.6949094484947452","1","","","","","","","",""
"","html-keyboard-response","34","223163","0.0-26.0-1.0","null","<p></p>","null","","","","","","","","","","","","","","","","","","","","","","",""
"","do_trial","35","226117","0.0-27.0-0.0","381","","","","","","","","51","0,0,0","6","blank","238","null","0.2792371117561909","0.24913796436927135","0.8637755034726979","0","","","","","","","",""
"","html-keyboard-response","36","227121","0.0-27.0-1.0","null","<p></p>","null","","","","","","","","","","","","","","","","","","","","","","",""
"","do_trial","37","230120","0.0-28.0-0.0","397.5","","","","","","","","49","0,0,0","6","blank","239","null","0.24133216108402175","0.21327351927308713","0.5808065245583488","0","","","","","","","",""
"","html-keyboard-response","38","231124","0.0-28.0-1.0","null","<p></p>","null","","","","","","","","","","","","","","","","","","","","","","",""
"","do_trial","39","234213","0.0-29.0-0.0","494.89999997615814","","","","","","","","50","0,0,1","6","blank","240","null","0.2196125406015539","0.234102424288326","0.5955498824001689","0","","","","","","","",""
"","html-keyboard-response","40","235231","0.0-29.0-1.0","null","<p></p>","null","","","","","","","","","","","","","","","","","","","","","","",""
"","do_recog","41","241266","0.0-30.0-0.0","null","","","","","","","","null","","","","241","probe-60","","","","","1","[object Object]","123","3","0","","",""
"","html-keyboard-response","42","242269","0.0-30.0-1.0","null","<p></p>","null","","","","","","","","","","","","","","","","","","","","","","",""
"","do_trial","43","246780","0.0-31.0-0.0","1937.8000000715256","","","","","","","","51","0,0,0","6","blank","242","null","0.16132621220755053","0.3192484273859244","0.6459303220474369","0","","","","","","","",""
"","html-keyboard-response","44","247798","0.0-31.0-1.0","null","<p></p>","null","","","","","","","","","","","","","","","","","","","","","","",""
"","do_trial","45","250813","0.0-32.0-0.0","429.7000000476837","","","","","","","","49","0,1,1","6","blank","243","null","0.07653487886015836","0.5228532310694466","0.4329939881006122","0","","","","","","","",""
"","html-keyboard-response","46","251819","0.0-32.0-1.0","null","<p></p>","null","","","","","","","","","","","","","","","","","","","","","","",""
"","do_trial","47","254682","0.0-33.0-0.0","268.89999997615814","","","","","","","","50","0,0,1","6","blank","244","null","0.13141862384470313","0.5021078787787375","0.5194582882146275","0","","","","","","","",""
"","html-keyboard-response","48","255689","0.0-33.0-1.0","null","<p></p>","null","","","","","","","","","","","","","","","","","","","","","","",""
"","do_trial","49","258958","0.0-34.0-0.0","670.8999999761581","","","","","","","","51","0,0,1","6","blank","245","null","0.11854461407268291","0.5751449589832938","0.37964962334507446","1","","","","","","","",""
"","html-keyboard-response","50","259961","0.0-34.0-1.0","null","<p></p>","null","","","","","","","","","","","","","","","","","","","","","","",""
"","do_trial","51","262868","0.0-35.0-0.0","343.5","","","","","","","","51","0,1,0","6","blank","246","null","0.12568085188263964","0.7662352278088479","0.4261131192880058","0","","","","","","","",""
"","html-keyboard-response","52","263873","0.0-35.0-1.0","null","<p></p>","null","","","","","","","","","","","","","","","","","","","","","","",""
"","do_recog","53","267935","0.0-36.0-0.0","2545.7000000476837","","","","","","","","55","","","","247","probe-72","","","","","1","[object Object]","202","5","0","","",""
"","html-keyboard-response","54","268952","0.0-36.0-1.0","null","<p></p>","null","","","","","","","","","","","","","","","","","","","","","","",""
"","do_trial","55","272688","0.0-37.0-0.0","1130.2000000476837","","","","","","","","49","0,1,0","6","blank","248","null","0.243972917519649","0.7743332445655066","0.2897900295741107","0","","","","","","","",""
"","html-keyboard-response","56","273695","0.0-37.0-1.0","null","<p></p>","null","","","","","","","","","","","","","","","","","","","","","","",""
"","do_trial","57","276713","0.0-38.0-0.0","409.60000002384186","","","","","","","","50","0,0,1","6","blank","249","null","0.27448385162341177","0.7549454404612348","0.2296454457546402","0","","","","","","","",""
"","html-keyboard-response","58","277730","0.0-38.0-1.0","null","<p></p>","null","","","","","","","","","","","","","","","","","","","","","","",""
"","do_recog","59","281812","0.0-39.0-0.0","2566.899999976158","","","","","","","","56","","","","250","probe-197","","","","","1","[object Object]","42","1","0","","",""
"","html-keyboard-response","60","282817","0.0-39.0-1.0","null","<p></p>","null","","","","","","","","","","","","","","","","","","","","","","",""
"","do_trial","61","287073","0.0-40.0-0.0","1658.3999999761581","","","","","","","","49","1,1,1","6","blank","251","null","0.12892439295841024","0.7809897436321049","0.2559126688236626","1","","","","","","","",""
"","html-keyboard-response","62","288077","0.0-40.0-1.0","null","<p></p>","null","","","","","","","","","","","","","","","","","","","","","","",""
"","do_trial","63","291562","0.0-41.0-0.0","894.8999999761581","","","","","","","","50","0,1,1","6","blank","252","null","0.12050048664205174","0.7640353571848106","0.2599561555897269","1","","","","","","","",""
"","html-keyboard-response","64","292568","0.0-41.0-1.0","null","<p></p>","null","","","","","","","","","","","","","","","","","","","","","","",""
"","do_trial","65","295668","0.0-42.0-0.0","484.09999990463257","","","","","","","","51","0,1,1","6","blank","253","null","0.08388088830485854","0.6744349377621456","0.26134140277102036","1","","","","","","","",""
"","html-keyboard-response","66","296671","0.0-42.0-1.0","null","<p></p>","null","","","","","","","","","","","","","","","","","","","","","","",""
"","do_trial","67","299949","0.0-43.0-0.0","674.6000000238419","","","","","","","","49","0,0,0","6","blank","254","null","0.09029734889770927","0.7434287827581219","0.389898840312754","0","","","","","","","",""
"","html-keyboard-response","68","300958","0.0-43.0-1.0","null","<p></p>","null","","","","","","","","","","","","","","","","","","","","","","",""
"","do_trial","69","304070","0.0-44.0-0.0","550.5","","","","","","","","50","0,0,0","6","blank","255","null","0.1707607763737046","0.7728543473518471","0.3401003578007002","0","","","","","","","",""
"","html-keyboard-response","70","305074","0.0-44.0-1.0","null","<p></p>","null","","","","","","","","","","","","","","","","","","","","","","",""
"","do_recog","71","308874","0.0-45.0-0.0","2272.600000023842","","","","","","","","56","","","","256","probe-186","","","","","1","[object Object]","43","1","0","","",""
"","html-keyboard-response","72","309878","0.0-45.0-1.0","null","<p></p>","null","","","","","","","","","","","","","","","","","","","","","","",""
"","do_trial","73","314520","0.0-46.0-0.0","2034.5","","","","","","","","51","0,1,1","6","blank","257","null","0.13520773185846785","0.6772945549016569","0.1660308655178198","1","","","","","","","",""
"","html-keyboard-response","74","315524","0.0-46.0-1.0","null","<p></p>","null","","","","","","","","","","","","","","","","","","","","","","",""
"","do_recog","75","321558","0.0-47.0-0.0","null","","","","","","","","null","","","","258","probe-81","","","","","1","[object Object]","167","4","0","","",""
"","html-keyboard-response","76","322561","0.0-47.0-1.0","null","<p></p>","null","","","","","","","","","","","","","","","","","","","","","","",""
"","do_trial","77","326236","0.0-48.0-0.0","1100.4000000953674","","","","","","","","50","0,1,0","6","blank","259","null","0.060595979733039734","0.5213711054296204","0.13561882869278113","1","","","","","","","",""
"","html-keyboard-response","78","327243","0.0-48.0-1.0","null","<p></p>","null","","","","","","","","","","","","","","","","","","","","","","",""
"","do_trial","79","330269","0.0-49.0-0.0","420.59999990463257","","","","","","","","51","0,0,1","6","blank","260","null","0.13803531615621636","0.5750984053719657","0.22437469839884866","1","","","","","","","",""
"","html-keyboard-response","80","331271","0.0-49.0-1.0","null","<p></p>","null","","","","","","","","","","","","","","","","","","","","","","",""
"","do_trial","81","334297","0.0-50.0-0.0","430","","","","","","","","51","0,0,1","6","blank","261","null","0.1315563380518611","0.4942228316556751","0.2555589270475135","1","","","","","","","",""
"","html-keyboard-response","82","335303","0.0-50.0-1.0","null","<p></p>","null","","","","","","","","","","","","","","","","","","","","","","",""
"","do_recog","83","339714","0.0-51.0-0.0","2895","","","","","","","","53","","","","262","probe-133","","","","","1","[object Object]","88","2","1","","",""
"","html-keyboard-response","84","340720","0.0-51.0-1.0","null","<p></p>","null","","","","","","","","","","","","","","","","","","","","","","",""
"","do_trial","85","344945","0.0-52.0-0.0","1645","","","","","","","","50","0,1,1","6","blank","263","null","0.16371654661019677","0.4723051130430669","0.33029092954598915","1","","","","","","","",""
"","html-keyboard-response","86","345952","0.0-52.0-1.0","null","<p></p>","null","","","","","","","","","","","","","","","","","","","","","","",""
"","do_trial","87","348970","0.0-53.0-0.0","416.2999999523163","","","","","","","","50","0,0,0","6","blank","264","null","0.1555002076126823","0.5891121285879971","0.3702548071097219","0","","","","","","","",""
"","html-keyboard-response","88","349975","0.0-53.0-1.0","null","<p></p>","null","","","","","","","","","","","","","","","","","","","","","","",""
"","do_recog","89","353397","0.0-54.0-0.0","1904.7999999523163","","","","","","","","54","","","","265","probe-234","","","","","0","[object Object]","null","null","0","","",""
"","html-keyboard-response","90","354405","0.0-54.0-1.0","null","<p></p>","null","","","","","","","","","","","","","","","","","","","","","","",""
"","do_trial","91","358746","0.0-55.0-0.0","1735.1999999284744","","","","","","","","50","0,1,0","6","blank","266","null","0.10343015397056408","0.7125652475547559","0.41184654837897333","1","","","","","","","",""
"","html-keyboard-response","92","359750","0.0-55.0-1.0","null","<p></p>","null","","","","","","","","","","","","","","","","","","","","","","",""
"","do_trial","93","362720","0.0-56.0-0.0","408.60000002384186","","","","","","","","51","0,1,1","6","blank","267","null","0.05330419032687017","0.5929255454545289","0.3502891672047955","1","","","","","","","",""
"","html-keyboard-response","94","363724","0.0-56.0-1.0","null","<p></p>","null","","","","","","","","","","","","","","","","","","","","","","",""
"","do_trial","95","366882","0.0-57.0-0.0","599.5","","","","","","","","51","0,0,0","6","blank","268","null","0.09997038627036321","0.6340307549295569","0.34406397823326496","0","","","","","","","",""
"","html-keyboard-response","96","367900","0.0-57.0-1.0","null","<p></p>","null","","","","","","","","","","","","","","","","","","","","","","",""
"","break","97","371009","0.0-57.0-2.0","3106.7999999523163","<div class='center'><p>Time to take a quick break! You have 2 minutes to rest, but you can move on sooner if you'd like.</p><p> Press the <b>space bar</b> to continue.</p></div>","32","","","","","","","","","","","","","","","","","","","","","","",""
"","do_trial","98","375323","0.0-57.0-3.0","1699.5","","","","","","","","50","0,1,0","6","blank","269","null","0.11772902087271017","0.736044912841148","0.3541762701659073","1","","","","","","","",""
"","html-keyboard-response","99","376329","0.0-57.0-4.0","null","<p></p>","null","","","","","","","","","","","","","","","","","","","","","","",""
"","do_trial","100","379351","0.0-58.0-0.0","464","","","","","","","","51","0,1,1","6","blank","270","null","0.2201289492492147","0.5217535687379318","0.48139906838814733","1","","","","","","","",""
"","html-keyboard-response","101","380367","0.0-58.0-1.0","null","<p></p>","null","","","","","","","","","","","","","","","","","","","","","","",""
"","do_trial","102","383588","0.0-59.0-0.0","668.2999999523163","","","","","","","","51","0,1,0","6","blank","271","null","0.3433140857001185","0.4044614554278989","0.4182411942652444","0","","","","","","","",""
"","html-keyboard-response","103","384593","0.0-59.0-1.0","null","<p></p>","null","","","","","","","","","","","","","","","","","","","","","","",""
"","do_recog","104","388033","0.0-60.0-0.0","1922.1999999284744","","","","","","","","55","","","","272","probe-56","","","","","1","[object Object]","126","3","0","","",""
"","html-keyboard-response","105","389051","0.0-60.0-1.0","null","<p></p>","null","","","","","","","","","","","","","","","","","","","","","","",""
"","do_trial","106","392819","0.0-61.0-0.0","1169.2000000476837","","","","","","","","50","0,0,1","6","blank","273","null","0.24945805897259327","0.4986210159974756","0.4820297931728024","0","","","","","","","",""
"","html-keyboard-response","107","393824","0.0-61.0-1.0","null","<p></p>","null","","","","","","","","","","","","","","","","","","","","","","",""
"","do_trial","108","397082","0.0-62.0-0.0","686.6000000238419","","","","","","","","51","0,0,1","6","blank","274","null","0.241790504618386","0.5892250766025324","0.29721258210502444","1","","","","","","","",""
"","html-keyboard-response","109","398100","0.0-62.0-1.0","null","<p></p>","null","","","","","","","","","","","","","","","","","","","","","","",""
"","do_trial","110","401502","0.0-63.0-0.0","795.1000000238419","","","","","","","","51","0,1,0","6","blank","275","null","0.21170183940158305","0.8224394856016918","0.28498112848875357","0","","","","","","","",""
"","html-keyboard-response","111","402506","0.0-63.0-1.0","null","<p></p>","null","","","","","","","","","","","","","","","","","","","","","","",""
"","do_trial","112","405899","0.0-64.0-0.0","798.1000000238419","","","","","","","","51","0,0,0","6","blank","276","null","0.19253893325020577","0.6869326822702674","0.33606166037159846","0","","","","","","","",""
"","html-keyboard-response","113","406904","0.0-64.0-1.0","null","<p></p>","null","","","","","","","","","","","","","","","","","","","","","","",""
"","do_trial","114","409781","0.0-65.0-0.0","315.90000009536743","","","","","","","","50","0,0,0","6","blank","277","null","0.0955561250237881","0.675450208596382","0.33012853153998484","0","","","","","","","",""
"","html-keyboard-response","115","410783","0.0-65.0-1.0","null","<p></p>","null","","","","","","","","","","","","","","","","","","","","","","",""
"","do_trial","116","414111","0.0-66.0-0.0","731","","","","","","","","50","0,1,0","6","blank","278","null","0.05859888171386965","0.6420278784392106","0.23222130232128876","1","","","","","","","",""
"","html-keyboard-response","117","415114","0.0-66.0-1.0","null","<p></p>","null","","","","","","","","","","","","","","","","","","","","","","",""
"","do_recog","118","419594","0.0-67.0-0.0","2958","","","","","","","","56","","","","279","probe-96","","","","","1","[object Object]","86","2","0","","",""
"","html-keyboard-response","119","420599","0.0-67.0-1.0","null","<p></p>","null","","","","","","","","","","","","","","","","","","","","","","",""
"","do_trial","120","424300","0.0-68.0-0.0","1127.1000000238419","","","","","","","","51","0,0,0","6","blank","280","null","0.05970269473082306","0.7143082880134352","0.1417426760980449","0","","","","","","","",""
"","html-keyboard-response","121","425304","0.0-68.0-1.0","null","<p></p>","null","","","","","","","","","","","","","","","","","","","","","","",""
"","do_trial","122","428858","0.0-69.0-0.0","974.6000000238419","","","","","","","","50","0,0,0","6","blank","281","null","0.11615833708209056","0.7382753907687194","0.1352766897460479","0","","","","","","","",""
"","html-keyboard-response","123","429865","0.0-69.0-1.0","null","<p></p>","null","","","","","","","","","","","","","","","","","","","","","","",""
"","do_trial","124","432678","0.0-70.0-0.0","242.39999997615814","","","","","","","","49","0,0,0","6","blank","282","null","0.07493033107979176","0.46995435149896053","0.30819087787044813","0","","","","","","","",""
"","html-keyboard-response","125","433688","0.0-70.0-1.0","null","<p></p>","null","","","","","","","","","","","","","","","","","","","","","","",""
"","do_trial","126","436692","0.0-71.0-0.0","398.90000009536743","","","","","","","","50","0,1,0","6","blank","283","null","0.11269445523694196","0.386557280419535","0.2185598990415749","1","","","","","","","",""
"","html-keyboard-response","127","437695","0.0-71.0-1.0","null","<p></p>","null","","","","","","","","","","","","","","","","","","","","","","",""
"","do_trial","128","440755","0.0-72.0-0.0","498.5","","","","","","","","50","0,0,0","6","blank","284","null","0.07642768208713477","0.3131773594285528","0.23436352909296593","0","","","","","","","",""
"","html-keyboard-response","129","441760","0.0-72.0-1.0","null","<p></p>","null","","","","","","","","","","","","","","","","","","","","","","",""
"","do_trial","130","444411","0.0-73.0-0.0","98.09999990463257","","","","","","","","51","0,0,0","6","blank","285","null","0.08614739216463108","0.46059592362952634","0.15278999263031415","0","","","","","","","",""
"","html-keyboard-response","131","445427","0.0-73.0-1.0","null","<p></p>","null","","","","","","","","","","","","","","","","","","","","","","",""
"","do_recog","132","449211","0.0-74.0-0.0","2256.899999976158","","","","","","","","54","","","","286","probe-128","","","","","1","[object Object]","208","5","1","","",""
"","html-keyboard-response","133","450219","0.0-74.0-1.0","null","<p></p>","null","","","","","","","","","","","","","","","","","","","","","","",""
"","do_trial","134","454137","0.0-75.0-0.0","1371.6999999284744","","","","","","","","51","0,0,0","6","blank","287","null","0.19122954937523579","0.5824260160578637","0.1730955363894753","0","","","","","","","",""
"","html-keyboard-response","135","455152","0.0-75.0-1.0","null","<p></p>","null","","","","","","","","","","","","","","","","","","","","","","",""
"","do_recog","136","459424","0.0-76.0-0.0","2757.5","","","","","","","","54","","","","288","probe-121","","","","","1","[object Object]","49","1","1","","",""
"","html-keyboard-response","137","460429","0.0-76.0-1.0","null","<p></p>","null","","","","","","","","","","","","","","","","","","","","","","",""
"","do_trial","138","464172","0.0-77.0-0.0","1179.6000000238419","","","","","","","","51","1,1,0","6","blank","289","null","0.1373863640085615","0.8241328615095358","0.2129247386231533","0","","","","","","","",""
"","html-keyboard-response","139","465190","0.0-77.0-1.0","null","<p></p>","null","","","","","","","","","","","","","","","","","","","","","","",""
"","do_trial","140","468391","0.0-78.0-0.0","622.4000000953674","","","","","","","","50","0,0,0","6","blank","290","null","0.13723400556208934","0.6276556002933881","0.22754160850692662","0","","","","","","","",""
"","html-keyboard-response","141","469408","0.0-78.0-1.0","null","<p></p>","null","","","","","","","","","","","","","","","","","","","","","","",""
"","do_trial","142","472481","0.0-79.0-0.0","489.6999999284744","","","","","","","","50","0,1,1","6","blank","291","null","0.3042743482680313","0.710981744473156","0.23758263397964588","1","","","","","","","",""
"","html-keyboard-response","143","473487","0.0-79.0-1.0","null","<p></p>","null","","","","","","","","","","","","","","","","","","","","","","",""
"","do_trial","144","476815","0.0-80.0-0.0","727.9000000953674","","","","","","","","49","1,1,0","6","blank","292","null","0.36021032157891036","0.6286412714611535","0.26700266719723764","1","","","","","","","",""
"","html-keyboard-response","145","477822","0.0-80.0-1.0","null","<p></p>","null","","","","","","","","","","","","","","","","","","","","","","",""
"","do_trial","146","480742","0.0-81.0-0.0","363.2000000476837","","","","","","","","50","0,0,1","6","blank","293","null","0.41234675567528173","0.4593007042710995","0.563815436091113","0","","","","","","","",""
"","html-keyboard-response","147","481759","0.0-81.0-1.0","null","<p></p>","null","","","","","","","","","","","","","","","","","","","","","","",""
"","do_recog","148","485685","0.0-82.0-0.0","2406","","","","","","","","56","","","","294","probe-210","","","","","1","[object Object]","203","5","0","","",""
"","html-keyboard-response","149","486691","0.0-82.0-1.0","null","<p></p>","null","","","","","","","","","","","","","","","","","","","","","","",""
"","do_trial","150","490310","0.0-83.0-0.0","1033.2999999523163","","","","","","","","51","1,1,1","6","blank","295","null","0.37618495459965706","0.2586857352571257","0.6440717139335048","1","","","","","","","",""
"","html-keyboard-response","151","491328","0.0-83.0-1.0","null","<p></p>","null","","","","","","","","","","","","","","","","","","","","","","",""
"","do_trial","152","494459","0.0-84.0-0.0","583.3000000715256","","","","","","","","51","1,0,0","6","blank","296","null","0.42895373236678125","0.14266916263532128","0.6446539702807729","0","","","","","","","",""
"","html-keyboard-response","153","495463","0.0-84.0-1.0","null","<p></p>","null","","","","","","","","","","","","","","","","","","","","","","",""
"","do_trial","154","498370","0.0-85.0-0.0","349.3000000715256","","","","","","","","51","1,0,0","6","blank","297","null","0.27017387289119577","0.14172363141726038","0.6143007112478964","0","","","","","","","",""
"","html-keyboard-response","155","499388","0.0-85.0-1.0","null","<p></p>","null","","","","","","","","","","","","","","","","","","","","","","",""
"","do_trial","156","502291","0.0-86.0-0.0","306.5","","","","","","","","51","0,0,1","6","blank","298","null","0.260135599595829","0.21449497566618506","0.514154414526042","1","","","","","","","",""
"","html-keyboard-response","157","503300","0.0-86.0-1.0","null","<p></p>","null","","","","","","","","","","","","","","","","","","","","","","",""
"","do_trial","158","506318","0.0-87.0-0.0","469.89999997615814","","","","","","","","51","1,0,0","6","blank","299","null","0.22728169494914402","0.21671452843900413","0.6381011489675598","0","","","","","","","",""
"","html-keyboard-response","159","507322","0.0-87.0-1.0","null","<p></p>","null","","","","","","","","","","","","","","","","","","","","","","",""
"","do_recog","160","513349","0.0-88.0-0.0","null","","","","","","","","null","","","","300","probe-157","","","","","1","[object Object]","85","2","0","","",""
"","html-keyboard-response","161","514353","0.0-88.0-1.0","null","<p></p>","null","","","","","","","","","","","","","","","","","","","","","","",""
"","do_trial","162","517804","0.0-89.0-0.0","865.7999999523163","","","","","","","","49","1,0,0","6","blank","301","null","0.2731680988860315","0.18563003104814976","0.5440357335181938","1","","","","","","","",""
"","html-keyboard-response","163","518822","0.0-89.0-1.0","null","<p></p>","null","","","","","","","","","","","","","","","","","","","","","","",""
"","do_recog","164","522003","0.0-90.0-0.0","1662.0999999046326","","","","","","","","54","","","","302","probe-92","","","","","1","[object Object]","122","3","1","","",""
"","html-keyboard-response","165","523008","0.0-90.0-1.0","null","<p></p>","null","","","","","","","","","","","","","","","","","","","","","","",""
"","do_trial","166","526697","0.0-91.0-0.0","1077.2000000476837","","","","","","","","50","1,0,1","6","blank","303","null","0.14785064286477753","0.1142600301475864","0.4846418654535667","0","","","","","","","",""
"","html-keyboard-response","167","527707","0.0-91.0-1.0","null","<p></p>","null","","","","","","","","","","","","","","","","","","","","","","",""
"","do_trial","168","531220","0.0-92.0-0.0","930.5","","","","","","","","50","1,0,1","6","blank","304","null","0.1957914022355436","0.18434902500994732","0.4657659872873324","0","","","","","","","",""
"","html-keyboard-response","169","532236","0.0-92.0-1.0","null","<p></p>","null","","","","","","","","","","","","","","","","","","","","","","",""
"","do_trial","170","535129","0.0-93.0-0.0","285.90000009536743","","","","","","","","49","0,1,0","6","blank","305","null","0.26228226300519064","0.16112965782465533","0.439402636015608","0","","","","","","","",""
"","html-keyboard-response","171","536134","0.0-93.0-1.0","null","<p></p>","null","","","","","","","","","","","","","","","","","","","","","","",""
"","do_recog","172","539201","0.0-94.0-0.0","1546.6000000238419","","","","","","","","54","","","","306","probe-31","","","","","1","[object Object]","207","5","1","","",""
"","html-keyboard-response","173","540210","0.0-94.0-1.0","null","<p></p>","null","","","","","","","","","","","","","","","","","","","","","","",""
"","do_trial","174","543410","0.0-95.0-0.0","611.7000000476837","","","","","","","","49","0,0,0","6","blank","307","null","0.3240475560728927","0.1317881756967631","0.4011987386944455","0","","","","","","","",""
"","html-keyboard-response","175","544428","0.0-95.0-1.0","null","<p></p>","null","","","","","","","","","","","","","","","","","","","","","","",""
"","do_trial","176","547706","0.0-96.0-0.0","649.7000000476837","","","","","","","","49","0,0,1","6","blank","308","null","0.31332317754166655","0.06197031554892084","0.5056558068218644","0","","","","","","","",""
"","html-keyboard-response","177","548709","0.0-96.0-1.0","null","<p></p>","null","","","","","","","","","","","","","","","","","","","","","","",""
"","break","178","550160","0.0-96.0-2.0","1448.5","<div class='center'><p>Time to take a quick break! You have 2 minutes to rest, but you can move on sooner if you'd like.</p><p> Press the <b>space bar</b> to continue.</p></div>","32","","","","","","","","","","","","","","","","","","","","","","",""
"","do_trial","179","554594","0.0-96.0-3.0","1822.9000000953674","","","","","","","","50","0,1,0","6","blank","309","null","0.1375738331780596","0.18390645392256516","0.47838271482386896","1","","","","","","","",""
"","html-keyboard-response","180","555600","0.0-96.0-4.0","null","<p></p>","null","","","","","","","","","","","","","","","","","","","","","","",""
"","do_trial","181","558602","0.0-97.0-0.0","406.1999999284744","","","","","","","","50","0,0,0","6","blank","310","null","0.2245861633882342","0.16103483889812517","0.5449779441877938","0","","","","","","","",""
"","html-keyboard-response","182","559607","0.0-97.0-1.0","null","<p></p>","null","","","","","","","","","","","","","","","","","","","","","","",""
"","do_trial","183","562818","0.0-98.0-0.0","635.5","","","","","","","","50","0,0,0","6","blank","311","null","0.3362899508690966","0.22677514627483608","0.43515211308538876","0","","","","","","","",""
"","html-keyboard-response","184","563823","0.0-98.0-1.0","null","<p></p>","null","","","","","","","","","","","","","","","","","","","","","","",""
"","do_trial","185","566955","0.0-99.0-0.0","546.8999999761581","","","","","","","","51","0,0,1","6","blank","312","null","0.4568697594730051","0.25154884846922165","0.5857862046883876","1","","","","","","","",""
"","html-keyboard-response","186","567958","0.0-99.0-1.0","null","<p></p>","null","","","","","","","","","","","","","","","","","","","","","","",""
"","do_trial","187","571755","0.0-100.0-0.0","1193.7999999523163","","","","","","","","51","0,0,0","6","blank","313","null","0.4690849440219404","0.12726103089084784","0.5675341584883165","0","","","","","","","",""
"","html-keyboard-response","188","572760","0.0-100.0-1.0","null","<p></p>","null","","","","","","","","","","","","","","","","","","","","","","",""
"","do_recog","189","576247","0.0-101.0-0.0","1967.7000000476837","","","","","","","","55","","","","314","probe-57","","","","","1","[object Object]","89","2","0","","",""
"","html-keyboard-response","190","577251","0.0-101.0-1.0","null","<p></p>","null","","","","","","","","","","","","","","","","","","","","","","",""
"","do_trial","191","580685","0.0-102.0-0.0","878.7000000476837","","","","","","","","50","0,0,1","6","blank","315","null","0.35689324963901725","0.06067728649571656","0.5911622851431197","0","","","","","","","",""
"","html-keyboard-response","192","581690","0.0-102.0-1.0","null","<p></p>","null","","","","","","","","","","","","","","","","","","","","","","",""
"","do_trial","193","585159","0.0-103.0-0.0","874.6000000238419","","","","","","","","49","0,1,0","6","blank","316","null","0.3785490313516877","0.13275472510441347","0.46725236493200956","0","","","","","","","",""
"","html-keyboard-response","194","586162","0.0-103.0-1.0","null","<p></p>","null","","","","","","","","","","","","","","","","","","","","","","",""
"","do_trial","195","590124","0.0-104.0-0.0","1346.6999999284744","","","","","","","","51","0,0,1","6","blank","317","null","0.21782063645327754","0.1125572533586865","0.5376059531092736","1","","","","","","","",""
"","html-keyboard-response","196","591141","0.0-104.0-1.0","null","<p></p>","null","","","","","","","","","","","","","","","","","","","","","","",""
"","do_recog","197","594854","0.0-105.0-0.0","2194","","","","","","","","54","","","","318","probe-85","","","","","1","[object Object]","41","1","1","","",""
"","html-keyboard-response","198","595859","0.0-105.0-1.0","null","<p></p>","null","","","","","","","","","","","","","","","","","","","","","","",""
"","do_trial","199","599954","0.0-106.0-0.0","1511","","","","","","","","51","0,0,1","6","blank","319","null","0.2926096440402573","0.07131714078201666","0.668913105926678","1","","","","","","","",""
"","html-keyboard-response","200","600958","0.0-106.0-1.0","null","<p></p>","null","","","","","","","","","","","","","","","","","","","","","","",""
"","do_trial","201","604444","0.0-107.0-0.0","881.5","","","","","","","","50","0,0,0","6","blank","320","null","0.17892469850258022","0.14393945152528406","0.63100699308558","0","","","","","","","",""
"","html-keyboard-response","202","605448","0.0-107.0-1.0","null","<p></p>","null","","","","","","","","","","","","","","","","","","","","","","",""
"","do_trial","203","608462","0.0-108.0-0.0","459.5","","","","","","","","51","0,0,1","6","blank","321","null","0.17202892062796238","0.27117680558711615","0.6160716384395437","1","","","","","","","",""
"","html-keyboard-response","204","609466","0.0-108.0-1.0","null","<p></p>","null","","","","","","","","","","","","","","","","","","","","","","",""
"","do_trial","205","612829","0.0-109.0-0.0","790.4000000953674","","","","","","","","50","0,0,1","6","blank","322","null","0.27613084856909376","0.1422447426790952","0.6783901173618122","0","","","","","","","",""
"","html-keyboard-response","206","613836","0.0-109.0-1.0","null","<p></p>","null","","","","","","","","","","","","","","","","","","","","","","",""
"","do_recog","207","617667","0.0-110.0-0.0","2305.2000000476837","","","","","","","","53","","","","323","probe-192","","","","","1","[object Object]","161","4","1","","",""
"","html-keyboard-response","208","618675","0.0-110.0-1.0","null","<p></p>","null","","","","","","","","","","","","","","","","","","","","","","",""
"","do_trial","209","622085","0.0-111.0-0.0","788.3999999761581","","","","","","","","49","0,0,1","6","blank","324","null","0.263815285378597","0.17126381398189464","0.6800142117647694","0","","","","","","","",""
"","html-keyboard-response","210","623090","0.0-111.0-1.0","null","<p></p>","null","","","","","","","","","","","","","","","","","","","","","","",""
"","do_recog","211","626337","0.0-112.0-0.0","1729.3000000715256","","","","","","","","54","","","","325","probe-227","","","","","1","[object Object]","128","3","1","","",""
"","html-keyboard-response","212","627340","0.0-112.0-1.0","null","<p></p>","null","","","","","","","","","","","","","","","","","","","","","","",""
"","do_trial","213","631141","0.0-113.0-0.0","1230.0999999046326","","","","","","","","50","0,0,1","6","blank","326","null","0.19593234541994065","0.20199765933217845","0.687651246714109","0","","","","","","","",""
"","html-keyboard-response","214","632148","0.0-113.0-1.0","null","<p></p>","null","","","","","","","","","","","","","","","","","","","","","","",""
"","do_trial","215","635131","0.0-114.0-0.0","396.7000000476837","","","","","","","","51","0,0,1","6","blank","327","null","0.29992036126350907","0.2366878088954268","0.6338219305468781","1","","","","","","","",""
"","html-keyboard-response","216","636135","0.0-114.0-1.0","null","<p></p>","null","","","","","","","","","","","","","","","","","","","","","","",""
"","do_trial","217","639589","0.0-115.0-0.0","861.6999999284744","","","","","","","","51","0,0,1","6","blank","328","null","0.3776989303432303","0.11226969565521742","0.6300230604094897","1","","","","","","","",""
"","html-keyboard-response","218","640600","0.0-115.0-1.0","null","<p></p>","null","","","","","","","","","","","","","","","","","","","","","","",""
"","do_trial","219","643567","0.0-116.0-0.0","409.89999997615814","","","","","","","","51","1,0,0","6","blank","329","null","0.41806627975348976","0.054899362865926234","0.6235263816953576","0","","","","","","","",""
"","html-keyboard-response","220","644586","0.0-116.0-1.0","null","<p></p>","null","","","","","","","","","","","","","","","","","","","","","","",""
"","do_recog","221","647787","0.0-117.0-0.0","1682.7999999523163","","","","","","","","54","","","","330","probe-118","","","","","1","[object Object]","81","2","1","","",""
"","html-keyboard-response","222","648790","0.0-117.0-1.0","null","<p></p>","null","","","","","","","","","","","","","","","","","","","","","","",""
"","do_trial","223","652074","0.0-118.0-0.0","695.1000000238419","","","","","","","","51","0,0,1","6","blank","331","null","0.29953378941295866","0.12802605106366077","0.7545759957480802","1","","","","","","","",""
"","html-keyboard-response","224","653078","0.0-118.0-1.0","null","<p></p>","null","","","","","","","","","","","","","","","","","","","","","","",""
"","do_trial","225","656440","0.0-119.0-0.0","765.3999999761581","","","","","","","","51","1,1,1","6","blank","332","null","0.21121365059238986","0.24058710516167886","0.7841280211751712","1","","","","","","","",""
"","html-keyboard-response","226","657443","0.0-119.0-1.0","null","<p></p>","null","","","","","","","","","","","","","","","","","","","","","","",""
"","do_recog","227","660139","0.0-120.0-0.0","1177.6000000238419","","","","","","","","54","","","","333","probe-101","","","","","1","[object Object]","48","1","1","","",""
"","html-keyboard-response","228","661143","0.0-120.0-1.0","null","<p></p>","null","","","","","","","","","","","","","","","","","","","","","","",""
"","do_trial","229","664472","0.0-121.0-0.0","772.8000000715256","","","","","","","","50","1,0,1","6","blank","334","null","0.38716515247655514","0.10710943873989043","0.6176018121283144","0","","","","","","","",""
"","html-keyboard-response","230","665478","0.0-121.0-1.0","null","<p></p>","null","","","","","","","","","","","","","","","","","","","","","","",""
"","do_trial","231","669281","0.0-122.0-0.0","1245","","","","","","","","51","0,0,1","6","blank","335","null","0.31243271581649695","0.3058607624079872","0.5801207134876883","1","","","","","","","",""
"","html-keyboard-response","232","670285","0.0-122.0-1.0","null","<p></p>","null","","","","","","","","","","","","","","","","","","","","","","",""
"","do_trial","233","673676","0.0-123.0-0.0","796.2999999523163","","","","","","","","51","0,0,1","6","blank","336","null","0.27138586252536484","0.3431662188617078","0.5768975864135181","1","","","","","","","",""
"","html-keyboard-response","234","674682","0.0-123.0-1.0","null","<p></p>","null","","","","","","","","","","","","","","","","","","","","","","",""
"","do_trial","235","677736","0.0-124.0-0.0","497.89999997615814","","","","","","","","51","0,0,1","6","blank","337","null","0.30633998098674997","0.18065744445836038","0.7010213416394189","1","","","","","","","",""
"","html-keyboard-response","236","678740","0.0-124.0-1.0","null","<p></p>","null","","","","","","","","","","","","","","","","","","","","","","",""
"","do_recog","237","682164","0.0-125.0-0.0","1901.4000000953674","","","","","","","","54","","","","338","probe-163","","","","","1","[object Object]","166","4","1","","",""
"","html-keyboard-response","238","683169","0.0-125.0-1.0","null","<p></p>","null","","","","","","","","","","","","","","","","","","","","","","",""
"","do_trial","239","686932","0.0-126.0-0.0","1200.2999999523163","","","","","","","","51","0,1,0","6","blank","339","null","0.33111119028794334","0.24304587490416305","0.6633620864966356","0","","","","","","","",""
"","html-keyboard-response","240","687934","0.0-126.0-1.0","null","<p></p>","null","","","","","","","","","","","","","","","","","","","","","","",""
"","do_recog","241","690983","0.0-127.0-0.0","1530.5","","","","","","","","53","","","","340","probe-63","","","","","1","[object Object]","204","5","1","","",""
"","html-keyboard-response","242","691997","0.0-127.0-1.0","null","<p></p>","null","","","","","","","","","","","","","","","","","","","","","","",""
"","do_trial","243","695358","0.0-128.0-0.0","811.7000000476837","","","","","","","","49","0,0,1","6","blank","341","null","0.2613634656156495","0.12291233200033247","0.5658047016233847","0","","","","","","","",""
"","html-keyboard-response","244","696371","0.0-128.0-1.0","null","<p></p>","null","","","","","","","","","","","","","","","","","","","","","","",""
"","do_recog","245","700676","0.0-129.0-0.0","2782.399999976158","","","","","","","","53","","","","342","probe-76","","","","","1","[object Object]","200","5","1","","",""
"","html-keyboard-response","246","701690","0.0-129.0-1.0","null","<p></p>","null","","","","","","","","","","","","","","","","","","","","","","",""
"","do_trial","247","705085","0.0-130.0-0.0","840.2999999523163","","","","","","","","50","1,0,0","6","blank","343","null","0.346283246729721","0.18187868706460322","0.7363835024774542","0","","","","","","","",""
"","html-keyboard-response","248","706099","0.0-130.0-1.0","null","<p></p>","null","","","","","","","","","","","","","","","","","","","","","","",""
"","do_recog","249","708907","0.0-131.0-0.0","1288.3999999761581","","","","","","","","54","","","","344","probe-222","","","","","1","[object Object]","125","3","1","","",""
"","html-keyboard-response","250","709921","0.0-131.0-1.0","null","<p></p>","null","","","","","","","","","","","","","","","","","","","","","","",""
"","do_trial","251","713641","0.0-132.0-0.0","1166.9000000953674","","","","","","","","49","0,1,1","6","blank","345","null","0.2685179108382415","0.2708362887920072","0.7894780169868726","0","","","","","","","",""
"","html-keyboard-response","252","714653","0.0-132.0-1.0","null","<p></p>","null","","","","","","","","","","","","","","","","","","","","","","",""
"","do_trial","253","717676","0.0-133.0-0.0","461.8000000715256","","","","","","","","51","0,0,1","6","blank","346","null","0.43754610890964374","0.19464709366782823","0.8526238640111246","1","","","","","","","",""
"","html-keyboard-response","254","718689","0.0-133.0-1.0","null","<p></p>","null","","","","","","","","","","","","","","","","","","","","","","",""
"","do_recog","255","722718","0.0-134.0-0.0","2518.7999999523163","","","","","","","","54","","","","347","probe-27","","","","","1","[object Object]","46","1","1","","",""
"","html-keyboard-response","256","723730","0.0-134.0-1.0","null","<p></p>","null","","","","","","","","","","","","","","","","","","","","","","",""
"","do_trial","257","728676","0.0-135.0-0.0","2393.3000000715256","","","","","","","","50","0,1,0","6","blank","348","null","0.4377315143914865","0.2394846168037327","0.5319079206729327","1","","","","","","","",""
"","html-keyboard-response","258","729684","0.0-135.0-1.0","null","<p></p>","null","","","","","","","","","","","","","","","","","","","","","","",""
"","break","259","730763","0.0-135.0-2.0","1077.8999999761581","<div class='center'><p>Time to take a quick break! You have 2 minutes to rest, but you can move on sooner if you'd like.</p><p> Press the <b>space bar</b> to continue.</p></div>","32","","","","","","","","","","","","","","","","","","","","","","",""
"","do_trial","260","734893","0.0-135.0-3.0","1573.9000000953674","","","","","","","","50","1,1,1","6","blank","349","null","0.3709849780897259","0.2765810394543879","0.3432651521514925","1","","","","","","","",""
"","html-keyboard-response","261","735906","0.0-135.0-4.0","null","<p></p>","null","","","","","","","","","","","","","","","","","","","","","","",""
"","do_trial","262","740202","0.0-136.0-0.0","1752.1000000238419","","","","","","","","51","1,0,0","6","blank","350","null","0.31459991933778503","0.4198777724951425","0.3212692017453196","0","","","","","","","",""
"","html-keyboard-response","263","741219","0.0-136.0-1.0","null","<p></p>","null","","","","","","","","","","","","","","","","","","","","","","",""
"","do_trial","264","744180","0.0-137.0-0.0","403.8000000715256","","","","","","","","50","0,0,0","6","blank","351","null","0.43183307747879085","0.38045887606945245","0.15458344447756558","0","","","","","","","",""
"","html-keyboard-response","265","745195","0.0-137.0-1.0","null","<p></p>","null","","","","","","","","","","","","","","","","","","","","","","",""
"","do_trial","266","748237","0.0-138.0-0.0","483.60000002384186","","","","","","","","49","0,1,0","6","blank","352","null","0.3984001865864831","0.4812250447593728","0.09807425583954733","0","","","","","","","",""
"","html-keyboard-response","267","749239","0.0-138.0-1.0","null","<p></p>","null","","","","","","","","","","","","","","","","","","","","","","",""
"","do_trial","268","752149","0.0-139.0-0.0","346.6999999284744","","","","","","","","50","0,0,0","6","blank","353","null","0.4082757522088098","0.5148123712172127","0.07071560201211909","0","","","","","","","",""
"","html-keyboard-response","269","753153","0.0-139.0-1.0","null","<p></p>","null","","","","","","","","","","","","","","","","","","","","","","",""
"","do_trial","270","756057","0.0-140.0-0.0","340.39999997615814","","","","","","","","51","0,0,0","6","blank","354","null","0.30825162812248746","0.5606333154639961","0.13003303038389777","0","","","","","","","",""
"","html-keyboard-response","271","757060","0.0-140.0-1.0","null","<p></p>","null","","","","","","","","","","","","","","","","","","","","","","",""
"","do_recog","272","760152","0.0-141.0-0.0","1581.7999999523163","","","","","","","","53","","","","355","probe-206","","","","","1","[object Object]","201","5","1","","",""
"","html-keyboard-response","273","761168","0.0-141.0-1.0","null","<p></p>","null","","","","","","","","","","","","","","","","","","","","","","",""
"","do_trial","274","764387","0.0-142.0-0.0","668.5","","","","","","","","50","0,0,0","6","blank","356","null","0.36073320553227706","0.5693321882397719","0.09086249540077102","0","","","","","","","",""
"","html-keyboard-response","275","765389","0.0-142.0-1.0","null","<p></p>","null","","","","","","","","","","","","","","","","","","","","","","",""
"","do_recog","276","768451","0.0-143.0-0.0","1551.5","","","","","","","","54","","","","357","probe-16","","","","","1","[object Object]","87","2","1","","",""
"","html-keyboard-response","277","769467","0.0-143.0-1.0","null","<p></p>","null","","","","","","","","","","","","","","","","","","","","","","",""
"","do_trial","278","772547","0.0-144.0-0.0","523.5","","","","","","","","51","0,1,0","6","blank","358","null","0.44826220613749457","0.6104946316785055","0.19609988520069316","0","","","","","","","",""
"","html-keyboard-response","279","773562","0.0-144.0-1.0","null","<p></p>","null","","","","","","","","","","","","","","","","","","","","","","",""
"","do_trial","280","776653","0.0-145.0-0.0","532.2999999523163","","","","","","","","51","1,1,0","6","blank","359","null","0.40022864114170864","0.6018615467661409","0.09821848831552085","0","","","","","","","",""
"","html-keyboard-response","281","777670","0.0-145.0-1.0","null","<p></p>","null","","","","","","","","","","","","","","","","","","","","","","",""
"","do_trial","282","780801","0.0-146.0-0.0","576.9000000953674","","","","","","","","51","0,1,0","6","blank","360","null","0.26417501913149233","0.5980944707877505","0.08544452852384683","0","","","","","","","",""
"","html-keyboard-response","283","781815","0.0-146.0-1.0","null","<p></p>","null","","","","","","","","","","","","","","","","","","","","","","",""
"","do_trial","284","785148","0.0-147.0-0.0","773.5","","","","","","","","50","0,1,0","6","blank","361","null","0.22076387536698788","0.6051298170439325","0.07682100944214963","1","","","","","","","",""
"","html-keyboard-response","285","786163","0.0-147.0-1.0","null","<p></p>","null","","","","","","","","","","","","","","","","","","","","","","",""
"","do_recog","286","789130","0.0-148.0-0.0","1456.8999999761581","","","","","","","","53","","","","362","probe-235","","","","","0","[object Object]","null","null","0","","",""
"","html-keyboard-response","287","790145","0.0-148.0-1.0","null","<p></p>","null","","","","","","","","","","","","","","","","","","","","","","",""
"","do_trial","288","793808","0.0-149.0-0.0","1109.2000000476837","","","","","","","","51","0,0,0","6","blank","363","null","0.26145690481631556","0.4400701959771128","0.06563644611692691","0","","","","","","","",""
"","html-keyboard-response","289","794810","0.0-149.0-1.0","null","<p></p>","null","","","","","","","","","","","","","","","","","","","","","","",""
"","do_trial","290","798190","0.0-150.0-0.0","818.1999999284744","","","","","","","","50","1,1,0","6","blank","364","null","0.3804921059552676","0.49045535484274766","0.15318424833899874","1","","","","","","","",""
"","html-keyboard-response","291","799205","0.0-150.0-1.0","null","<p></p>","null","","","","","","","","","","","","","","","","","","","","","","",""
"","do_recog","292","802300","0.0-151.0-0.0","1587.3999999761581","","","","","","","","53","","","","365","probe-194","","","","","1","[object Object]","124","3","1","","",""
"","html-keyboard-response","293","803319","0.0-151.0-1.0","null","<p></p>","null","","","","","","","","","","","","","","","","","","","","","","",""
"","do_trial","294","806725","0.0-152.0-0.0","846.8999999761581","","","","","","","","49","1,1,1","6","blank","366","null","0.32928227267163607","0.515970141606047","0.24741644661225273","1","","","","","","","",""
"","html-keyboard-response","295","807740","0.0-152.0-1.0","null","<p></p>","null","","","","","","","","","","","","","","","","","","","","","","",""
"","do_trial","296","811006","0.0-153.0-0.0","706.8999999761581","","","","","","","","49","1,1,0","6","blank","367","null","0.3057605422951857","0.6754937456549455","0.08503182525718249","1","","","","","","","",""
"","html-keyboard-response","297","812020","0.0-153.0-1.0","null","<p></p>","null","","","","","","","","","","","","","","","","","","","","","","",""
"","do_trial","298","815506","0.0-154.0-0.0","922","","","","","","","","49","0,0,0","6","blank","368","null","0.3379275906688131","0.5719957506052322","0.10378101118436078","0","","","","","","","",""
"","html-keyboard-response","299","816522","0.0-154.0-1.0","null","<p></p>","null","","","","","","","","","","","","","","","","","","","","","","",""
"","do_trial","300","819631","0.0-155.0-0.0","545.3999999761581","","","","","","","","49","0,0,0","6","blank","369","null","0.258405701915906","0.5594589553389928","0.14626461402743027","0","","","","","","","",""
"","html-keyboard-response","301","820647","0.0-155.0-1.0","null","<p></p>","null","","","","","","","","","","","","","","","","","","","","","","",""
"","do_trial","302","823955","0.0-156.0-0.0","750.2000000476837","","","","","","","","49","1,0,0","6","blank","370","null","0.26962840032868723","0.6763704235296503","0.17124633028751252","1","","","","","","","",""
"","html-keyboard-response","303","824957","0.0-156.0-1.0","null","<p></p>","null","","","","","","","","","","","","","","","","","","","","","","",""
"","do_trial","304","828722","0.0-157.0-0.0","1207.0999999046326","","","","","","","","49","0,1,1","6","blank","371","null","0.1596811655038514","0.6728027956348609","0.05928755805287647","0","","","","","","","",""
"","html-keyboard-response","305","829724","0.0-157.0-1.0","null","<p></p>","null","","","","","","","","","","","","","","","","","","","","","","",""
"","do_recog","306","832828","0.0-158.0-0.0","1593.5","","","","","","","","53","","","","372","probe-155","","","","","1","[object Object]","129","3","1","","",""
"","html-keyboard-response","307","833844","0.0-158.0-1.0","null","<p></p>","null","","","","","","","","","","","","","","","","","","","","","","",""
"","do_trial","308","837159","0.0-159.0-0.0","756.7999999523163","","","","","","","","49","0,1,0","6","blank","373","null","0.3542102733641936","0.7273237774581025","0.07420469651650165","0","","","","","","","",""
"","html-keyboard-response","309","838175","0.0-159.0-1.0","null","<p></p>","null","","","","","","","","","","","","","","","","","","","","","","",""
"","do_trial","310","841097","0.0-160.0-0.0","365","","","","","","","","50","0,1,0","6","blank","374","null","0.26656342317551107","0.7148730131144962","0.1529035279098165","1","","","","","","","",""
"","html-keyboard-response","311","842114","0.0-160.0-1.0","null","<p></p>","null","","","","","","","","","","","","","","","","","","","","","","",""
"","do_trial","312","845199","0.0-161.0-0.0","526.5999999046326","","","","","","","","51","0,1,0","6","blank","375","null","0.15557837936891245","0.7331898743907308","0.191145409119938","0","","","","","","","",""
"","html-keyboard-response","313","846201","0.0-161.0-1.0","null","<p></p>","null","","","","","","","","","","","","","","","","","","","","","","",""
"","do_recog","314","850108","0.0-162.0-0.0","2396.0999999046326","","","","","","","","53","","","","376","probe-209","","","","","1","[object Object]","40","1","1","","",""
"","html-keyboard-response","315","851122","0.0-162.0-1.0","null","<p></p>","null","","","","","","","","","","","","","","","","","","","","","","",""
"","do_trial","316","854391","0.0-163.0-0.0","713.8000000715256","","","","","","","","49","0,1,0","6","blank","377","null","0.18174327282171962","0.6441157057429193","0.10875299224495474","0","","","","","","","",""
"","html-keyboard-response","317","855407","0.0-163.0-1.0","null","<p></p>","null","","","","","","","","","","","","","","","","","","","","","","",""
"","do_trial","318","858690","0.0-164.0-0.0","731.2999999523163","","","","","","","","51","0,0,0","6","blank","378","null","0.21720144992026355","0.5027660973154542","0.17475758098833302","0","","","","","","","",""
"","html-keyboard-response","319","859705","0.0-164.0-1.0","null","<p></p>","null","","","","","","","","","","","","","","","","","","","","","","",""
"","do_trial","320","863069","0.0-165.0-0.0","804.7999999523163","","","","","","","","50","1,1,0","6","blank","379","null","0.2411621370991613","0.5078266758814926","0.11845926753753122","1","","","","","","","",""
"","html-keyboard-response","321","864086","0.0-165.0-1.0","null","<p></p>","null","","","","","","","","","","","","","","","","","","","","","","",""
"","do_trial","322","867018","0.0-166.0-0.0","377.60000002384186","","","","","","","","50","0,0,0","6","blank","380","null","0.18736968228504775","0.580782809858077","0.0673285225498451","0","","","","","","","",""
"","html-keyboard-response","323","868035","0.0-166.0-1.0","null","<p></p>","null","","","","","","","","","","","","","","","","","","","","","","",""
"","do_recog","324","871079","0.0-167.0-0.0","1531","","","","","","","","54","","","","381","probe-154","","","","","1","[object Object]","83","2","1","","",""
"","html-keyboard-response","325","872094","0.0-167.0-1.0","null","<p></p>","null","","","","","","","","","","","","","","","","","","","","","","",""
"","do_trial","326","875137","0.0-168.0-0.0","478.2000000476837","","","","","","","","50","0,1,0","6","blank","382","null","0.2116574637749362","0.6388372070737853","0.06356435251845274","1","","","","","","","",""
"","html-keyboard-response","327","876152","0.0-168.0-1.0","null","<p></p>","null","","","","","","","","","","","","","","","","","","","","","","",""
"","do_trial","328","879449","0.0-169.0-0.0","747.6999999284744","","","","","","","","50","1,0,0","6","blank","383","null","0.2573783471460854","0.44033306073764555","0.15916121833571972","0","","","","","","","",""
"","html-keyboard-response","329","880452","0.0-169.0-1.0","null","<p></p>","null","","","","","","","","","","","","","","","","","","","","","","",""
"","do_recog","330","883275","0.0-170.0-0.0","1305.1999999284744","","","","","","","","54","","","","384","probe-174","","","","","1","[object Object]","165","4","1","","",""
"","html-keyboard-response","331","884291","0.0-170.0-1.0","null","<p></p>","null","","","","","","","","","","","","","","","","","","","","","","",""
"","do_trial","332","887434","0.0-171.0-0.0","586.8999999761581","","","","","","","","51","0,1,0","6","blank","385","null","0.32187508751877175","0.5212954850558783","0.17953501269145533","0","","","","","","","",""
"","html-keyboard-response","333","888439","0.0-171.0-1.0","null","<p></p>","null","","","","","","","","","","","","","","","","","","","","","","",""
"","do_trial","334","891531","0.0-172.0-0.0","544.8999999761581","","","","","","","","51","1,1,0","6","blank","386","null","0.3330809275144771","0.538928104608355","0.19683868907734156","0","","","","","","","",""
"","html-keyboard-response","335","892533","0.0-172.0-1.0","null","<p></p>","null","","","","","","","","","","","","","","","","","","","","","","",""
"","do_trial","336","895564","0.0-173.0-0.0","486.5","","","","","","","","51","0,0,1","6","blank","387","null","0.2720375201183503","0.5364736800110987","0.21790254810896365","1","","","","","","","",""
"","html-keyboard-response","337","896565","0.0-173.0-1.0","null","<p></p>","null","","","","","","","","","","","","","","","","","","","","","","",""
"","do_trial","338","899582","0.0-174.0-0.0","465.39999997615814","","","","","","","","51","0,0,0","6","blank","388","null","0.21434762336736257","0.5554952048203672","0.18474394219111556","0","","","","","","","",""
"","html-keyboard-response","339","900585","0.0-174.0-1.0","null","<p></p>","null","","","","","","","","","","","","","","","","","","","","","","",""
"","break","340","901667","0.0-174.0-2.0","1080.3999999761581","<div class='center'><p>Time to take a quick break! You have 2 minutes to rest, but you can move on sooner if you'd like.</p><p> Press the <b>space bar</b> to continue.</p></div>","32","","","","","","","","","","","","","","","","","","","","","","",""
"","do_trial","341","905498","0.0-174.0-3.0","1269.6000000238419","","","","","","","","51","0,0,0","6","blank","389","null","0.2392926372544578","0.5573982309735913","0.17864269521474302","0","","","","","","","",""
"","html-keyboard-response","342","906500","0.0-174.0-4.0","null","<p></p>","null","","","","","","","","","","","","","","","","","","","","","","",""
"","do_recog","343","909468","0.0-175.0-0.0","1448.3999999761581","","","","","","","","54","","","","390","probe-84","","","","","1","[object Object]","47","1","1","","",""
"","html-keyboard-response","344","910481","0.0-175.0-1.0","null","<p></p>","null","","","","","","","","","","","","","","","","","","","","","","",""
"","do_trial","345","913805","0.0-176.0-0.0","773.5","","","","","","","","49","0,0,0","6","blank","391","null","0.3057836264107001","0.5735646802140987","0.06384966956651343","0","","","","","","","",""
"","html-keyboard-response","346","914820","0.0-176.0-1.0","null","<p></p>","null","","","","","","","","","","","","","","","","","","","","","","",""
"","do_trial","347","917914","0.0-177.0-0.0","535.7999999523163","","","","","","","","51","0,0,0","6","blank","392","null","0.46022510082271856","0.6768392348635653","0.11282153375380408","0","","","","","","","",""
"","html-keyboard-response","348","918922","0.0-177.0-1.0","null","<p></p>","null","","","","","","","","","","","","","","","","","","","","","","",""
"","do_trial","349","922021","0.0-178.0-0.0","537.3999999761581","","","","","","","","50","0,1,0","6","blank","393","null","0.5637197003815022","0.6285207338333424","0.10828681648718512","1","","","","","","","",""
"","html-keyboard-response","350","923024","0.0-178.0-1.0","null","<p></p>","null","","","","","","","","","","","","","","","","","","","","","","",""
"","do_trial","351","926149","0.0-179.0-0.0","568.7000000476837","","","","","","","","50","0,1,0","6","blank","394","null","0.5223349573238536","0.6184120429229133","0.24831196439007122","1","","","","","","","",""
"","html-keyboard-response","352","927163","0.0-179.0-1.0","null","<p></p>","null","","","","","","","","","","","","","","","","","","","","","","",""
"","do_recog","353","930785","0.0-180.0-0.0","2108.600000023842","","","","","","","","54","","","","395","probe-82","","","","","1","[object Object]","163","4","1","","",""
"","html-keyboard-response","354","931803","0.0-180.0-1.0","null","<p></p>","null","","","","","","","","","","","","","","","","","","","","","","",""
"","do_trial","355","935466","0.0-181.0-0.0","1108.8999999761581","","","","","","","","49","1,0,0","6","blank","396","null","0.4575015178760719","0.5620978878615543","0.2626656706251065","1","","","","","","","",""
"","html-keyboard-response","356","936481","0.0-181.0-1.0","null","<p></p>","null","","","","","","","","","","","","","","","","","","","","","","",""
"","do_recog","357","939828","0.0-182.0-0.0","1824","","","","","","","","54","","","","397","probe-107","","","","","1","[object Object]","45","1","1","","",""
"","html-keyboard-response","358","940840","0.0-182.0-1.0","null","<p></p>","null","","","","","","","","","","","","","","","","","","","","","","",""
"","do_trial","359","944219","0.0-183.0-0.0","812.9000000953674","","","","","","","","50","0,1,0","6","blank","398","null","0.6088737983552229","0.578002447274455","0.26811217895484163","1","","","","","","","",""
"","html-keyboard-response","360","945229","0.0-183.0-1.0","null","<p></p>","null","","","","","","","","","","","","","","","","","","","","","","",""
"","do_trial","361","948868","0.0-184.0-0.0","1078.5","","","","","","","","51","0,1,0","6","blank","399","null","0.4792508580318024","0.6580733400831938","0.4584851352526441","0","","","","","","","",""
"","html-keyboard-response","362","949884","0.0-184.0-1.0","null","<p></p>","null","","","","","","","","","","","","","","","","","","","","","","",""
"","do_trial","363","952941","0.0-185.0-0.0","504.3000000715256","","","","","","","","49","0,1,0","6","blank","400","null","0.3735834825932065","0.4978510672528777","0.490848660555125","0","","","","","","","",""
"","html-keyboard-response","364","953954","0.0-185.0-1.0","null","<p></p>","null","","","","","","","","","","","","","","","","","","","","","","",""
"","do_trial","365","957100","0.0-186.0-0.0","589","","","","","","","","50","1,1,1","6","blank","401","null","0.30636515606779907","0.2559779163115025","0.39803996555376453","1","","","","","","","",""
"","html-keyboard-response","366","958117","0.0-186.0-1.0","null","<p></p>","null","","","","","","","","","","","","","","","","","","","","","","",""
"","do_recog","367","960997","0.0-187.0-0.0","1362.1000000238419","","","","","","","","54","","","","402","probe-226","","","","","1","[object Object]","84","2","1","","",""
"","html-keyboard-response","368","962007","0.0-187.0-1.0","null","<p></p>","null","","","","","","","","","","","","","","","","","","","","","","",""
"","do_trial","369","965516","0.0-188.0-0.0","947.7999999523163","","","","","","","","51","0,0,0","6","blank","403","null","0.21574135289225013","0.30568931661249965","0.43210666165100653","0","","","","","","","",""
"","html-keyboard-response","370","966531","0.0-188.0-1.0","null","<p></p>","null","","","","","","","","","","","","","","","","","","","","","","",""
"","do_recog","371","970249","0.0-189.0-0.0","2199.899999976158","","","","","","","","54","","","","404","probe-248","","","","","0","[object Object]","null","null","0","","",""
"","html-keyboard-response","372","971265","0.0-189.0-1.0","null","<p></p>","null","","","","","","","","","","","","","","","","","","","","","","",""
"","do_trial","373","974561","0.0-190.0-0.0","730.1000000238419","","","","","","","","50","0,1,0","6","blank","405","null","0.1951754629490456","0.4865974728903401","0.4636540362131452","1","","","","","","","",""
"","html-keyboard-response","374","975562","0.0-190.0-1.0","null","<p></p>","null","","","","","","","","","","","","","","","","","","","","","","",""
"","do_recog","375","978920","0.0-191.0-0.0","1851.8999999761581","","","","","","","","54","","","","406","probe-113","","","","","1","[object Object]","206","5","1","","",""
"","html-keyboard-response","376","979933","0.0-191.0-1.0","null","<p></p>","null","","","","","","","","","","","","","","","","","","","","","","",""
"","do_trial","377","983769","0.0-192.0-0.0","1281.4000000953674","","","","","","","","50","0,1,1","6","blank","407","null","0.1529619098723497","0.5008776422570577","0.4607700463929501","1","","","","","","","",""
"","html-keyboard-response","378","984774","0.0-192.0-1.0","null","<p></p>","null","","","","","","","","","","","","","","","","","","","","","","",""
"","do_recog","379","988083","0.0-193.0-0.0","1796.7000000476837","","","","","","","","54","","","","408","probe-164","","","","","1","[object Object]","164","4","1","","",""
"","html-keyboard-response","380","989085","0.0-193.0-1.0","null","<p></p>","null","","","","","","","","","","","","","","","","","","","","","","",""
"","do_trial","381","992132","0.0-194.0-0.0","476.5","","","","","","","","50","0,1,0","6","blank","409","null","0.16248583707074932","0.3716743481249607","0.4949605788865642","1","","","","","","","",""
"","html-keyboard-response","382","993136","0.0-194.0-1.0","null","<p></p>","null","","","","","","","","","","","","","","","","","","","","","","",""
"","do_recog","383","999170","0.0-195.0-0.0","null","","","","","","","","null","","","","410","probe-221","","","","","1","[object Object]","205","5","0","","",""
"","html-keyboard-response","384","1000187","0.0-195.0-1.0","null","<p></p>","null","","","","","","","","","","","","","","","","","","","","","","",""
"","do_trial","385","1003430","0.0-196.0-0.0","678.2999999523163","","","","","","","","50","0,0,1","6","blank","411","null","0.06423573476172305","0.39223391762110477","0.39827377276884357","0","","","","","","","",""
"","html-keyboard-response","386","1004433","0.0-196.0-1.0","null","<p></p>","null","","","","","","","","","","","","","","","","","","","","","","",""
"","do_recog","387","1007330","0.0-197.0-0.0","1382.1999999284744","","","","","","","","54","","","","412","probe-97","","","","","1","[object Object]","168","4","1","","",""
"","html-keyboard-response","388","1008343","0.0-197.0-1.0","null","<p></p>","null","","","","","","","","","","","","","","","","","","","","","","",""
"","do_trial","389","1011847","0.0-198.0-0.0","948.1000000238419","","","","","","","","50","0,0,0","6","blank","413","null","0.18548639654366433","0.34499781359535353","0.48624041183804184","0","","","","","","","",""
"","html-keyboard-response","390","1012850","0.0-198.0-1.0","null","<p></p>","null","","","","","","","","","","","","","","","","","","","","","","",""
"","do_recog","391","1015999","0.0-199.0-0.0","1638.9000000953674","","","","","","","","54","","","","414","probe-80","","","","","1","[object Object]","80","2","1","","",""
"","html-keyboard-response","392","1017015","0.0-199.0-1.0","null","<p></p>","null","","","","","","","","","","","","","","","","","","","","","","",""
"","do_trial","393","1020552","0.0-200.0-0.0","967.1999999284744","","","","","","","","49","0,1,1","6","blank","415","null","0.22564788103717776","0.375576173656081","0.4738749979155531","0","","","","","","","",""
"","html-keyboard-response","394","1021568","0.0-200.0-1.0","null","<p></p>","null","","","","","","","","","","","","","","","","","","","","","","",""
"","do_trial","395","1024733","0.0-201.0-0.0","611.7999999523163","","","","","","","","50","0,0,0","6","blank","416","null","0.279461610627416","0.25468429491376127","0.543170874430436","0","","","","","","","",""
"","html-keyboard-response","396","1025738","0.0-201.0-1.0","null","<p></p>","null","","","","","","","","","","","","","","","","","","","","","","",""
"","do_trial","397","1028879","0.0-202.0-0.0","589.5","","","","","","","","51","0,0,1","6","blank","417","null","0.2689827733980616","0.3006942834929508","0.5335798989217164","1","","","","","","","",""
"","html-keyboard-response","398","1029882","0.0-202.0-1.0","null","<p></p>","null","","","","","","","","","","","","","","","","","","","","","","",""
"","do_trial","399","1033315","0.0-203.0-0.0","865.8999999761581","","","","","","","","50","0,0,1","6","blank","418","null","0.2950782342004149","0.38222964668755877","0.6618099275019378","0","","","","","","","",""
"","html-keyboard-response","400","1034329","0.0-203.0-1.0","null","<p></p>","null","","","","","","","","","","","","","","","","","","","","","","",""
"","do_recog","401","1037925","0.0-204.0-0.0","2082.8000000715256","","","","","","","","55","","","","419","probe-104","","","","","1","[object Object]","120","3","0","","",""
"","html-keyboard-response","402","1038936","0.0-204.0-1.0","null","<p></p>","null","","","","","","","","","","","","","","","","","","","","","","",""
"","do_trial","403","1042139","0.0-205.0-0.0","650.3000000715256","","","","","","","","51","0,1,0","6","blank","420","null","0.24270197281836864","0.23632108209175837","0.5793119847703687","0","","","","","","","",""
"","html-keyboard-response","404","1043154","0.0-205.0-1.0","null","<p></p>","null","","","","","","","","","","","","","","","","","","","","","","",""
"","do_recog","405","1046073","0.0-206.0-0.0","1410.2999999523163","","","","","","","","54","","","","421","probe-237","","","","","0","[object Object]","null","null","0","","",""
"","html-keyboard-response","406","1047088","0.0-206.0-1.0","null","<p></p>","null","","","","","","","","","","","","","","","","","","","","","","",""
"","do_trial","407","1050658","0.0-207.0-0.0","1017.7999999523163","","","","","","","","51","0,0,0","6","blank","422","null","0.32283659915870133","0.15774833065450314","0.6117576316359521","0","","","","","","","",""
"","html-keyboard-response","408","1051660","0.0-207.0-1.0","null","<p></p>","null","","","","","","","","","","","","","","","","","","","","","","",""
"","do_recog","409","1054737","0.0-208.0-0.0","1567","","","","","","","","54","","","","423","probe-229","","","","","1","[object Object]","127","3","1","","",""
"","html-keyboard-response","410","1055754","0.0-208.0-1.0","null","<p></p>","null","","","","","","","","","","","","","","","","","","","","","","",""
"","do_trial","411","1059079","0.0-209.0-0.0","767.6000000238419","","","","","","","","50","0,0,0","6","blank","424","null","0.22388518475785785","0.1406557717047505","0.7146641085345877","0","","","","","","","",""
"","html-keyboard-response","412","1060092","0.0-209.0-1.0","null","<p></p>","null","","","","","","","","","","","","","","","","","","","","","","",""
"","do_recog","413","1063546","0.0-210.0-0.0","1932","","","","","","","","54","","","","425","probe-204","","","","","1","[object Object]","160","4","1","","",""
"","html-keyboard-response","414","1064549","0.0-210.0-1.0","null","<p></p>","null","","","","","","","","","","","","","","","","","","","","","","",""
"","do_trial","415","1068004","0.0-211.0-0.0","887.8999999761581","","","","","","","","49","1,0,0","6","blank","426","null","0.25365897063529097","0.22823862383694632","0.6854571090768318","1","","","","","","","",""
"","html-keyboard-response","416","1069020","0.0-211.0-1.0","null","<p></p>","null","","","","","","","","","","","","","","","","","","","","","","",""
"","do_recog","417","1072033","0.0-212.0-0.0","1490.5","","","","","","","","54","","","","427","probe-25","","","","","1","[object Object]","169","4","1","","",""
"","html-keyboard-response","418","1073047","0.0-212.0-1.0","null","<p></p>","null","","","","","","","","","","","","","","","","","","","","","","",""
"","do_trial","419","1076462","0.0-213.0-0.0","860.3999999761581","","","","","","","","49","0,0,1","6","blank","428","null","0.18611294952996751","0.33100532196533144","0.4936257319044598","0","","","","","","","",""
"","html-keyboard-response","420","1077478","0.0-213.0-1.0","null","<p></p>","null","","","","","","","","","","","","","","","","","","","","","","",""
"","break","421","1087420","0.0-213.0-2.0","9941.5","<div class='center'><p>Time to take a quick break! You have 2 minutes to rest, but you can move on sooner if you'd like.</p><p> Press the <b>space bar</b> to continue.</p></div>","32","","","","","","","","","","","","","","","","","","","","","","",""
"","do_trial","422","1091639","0.0-213.0-3.0","1654.9000000953674","","","","","","","","49","0,1,0","6","blank","429","null","0.19371019891843966","0.39371167841691274","0.6486176192391621","0","","","","","","","",""
"","html-keyboard-response","423","1092656","0.0-213.0-4.0","null","<p></p>","null","","","","","","","","","","","","","","","","","","","","","","",""
"","do_recog","424","1096271","0.0-214.0-0.0","2102.0999999046326","","","","","","","","55","","","","430","probe-74","","","","","1","[object Object]","82","2","0","","",""
"","html-keyboard-response","425","1097273","0.0-214.0-1.0","null","<p></p>","null","","","","","","","","","","","","","","","","","","","","","","",""
"","do_trial","426","1101105","0.0-215.0-0.0","1273.1999999284744","","","","","","","","49","0,0,1","6","blank","431","null","0.07740975336086382","0.4925491035896725","0.5358052761565771","0","","","","","","","",""
"","html-keyboard-response","427","1102122","0.0-215.0-1.0","null","<p></p>","null","","","","","","","","","","","","","","","","","","","","","","",""
"","do_trial","428","1105340","0.0-216.0-0.0","653.5","","","","","","","","50","0,0,1","6","blank","432","null","0.08475715749029299","0.4031972447381151","0.6083845715185003","0","","","","","","","",""
"","html-keyboard-response","429","1106343","0.0-216.0-1.0","null","<p></p>","null","","","","","","","","","","","","","","","","","","","","","","",""
"","do_trial","430","1109922","0.0-217.0-0.0","1017.7000000476837","","","","","","","","51","0,0,1","6","blank","433","null","0.15831837920398814","0.23065540912867932","0.6104887481687399","1","","","","","","","",""
"","html-keyboard-response","431","1110926","0.0-217.0-1.0","null","<p></p>","null","","","","","","","","","","","","","","","","","","","","","","",""
"","do_trial","432","1114326","0.0-218.0-0.0","850.3999999761581","","","","","","","","51","0,0,0","6","blank","434","null","0.19684656160382388","0.3144288693295589","0.4547657105475437","0","","","","","","","",""
"","html-keyboard-response","433","1115329","0.0-218.0-1.0","null","<p></p>","null","","","","","","","","","","","","","","","","","","","","","","",""
"","do_trial","434","1119130","0.0-219.0-0.0","1247.5","","","","","","","","50","0,1,1","6","blank","435","null","0.2190338113519505","0.38992453448463094","0.46003648403646635","1","","","","","","","",""
"","html-keyboard-response","435","1120135","0.0-219.0-1.0","null","<p></p>","null","","","","","","","","","","","","","","","","","","","","","","",""
"","do_recog","436","1123429","0.0-220.0-0.0","1771.8999999761581","","","","","","","","54","","","","436","probe-12","","","","","1","[object Object]","121","3","1","","",""
"","html-keyboard-response","437","1124442","0.0-220.0-1.0","null","<p></p>","null","","","","","","","","","","","","","","","","","","","","","","",""
"","do_trial","438","1127823","0.0-221.0-0.0","805.6999999284744","","","","","","","","50","0,0,0","6","blank","437","null","0.2039017492336933","0.39640510566147447","0.6657117008439581","0","","","","","","","",""
"","html-keyboard-response","439","1128837","0.0-221.0-1.0","null","<p></p>","null","","","","","","","","","","","","","","","","","","","","","","",""
"","do_trial","440","1131787","0.0-222.0-0.0","391.2999999523163","","","","","","","","49","0,0,1","6","blank","438","null","0.21228162213891627","0.2586281201942376","0.5739138557648866","0","","","","","","","",""
"","html-keyboard-response","441","1132804","0.0-222.0-1.0","null","<p></p>","null","","","","","","","","","","","","","","","","","","","","","","",""
"","do_trial","442","1135893","0.0-223.0-0.0","530.5","","","","","","","","49","0,0,0","6","blank","439","null","0.21011434047460142","0.23163437331821748","0.47523805825237053","0","","","","","","","",""
"","html-keyboard-response","443","1136909","0.0-223.0-1.0","null","<p></p>","null","","","","","","","","","","","","","","","","","","","","","","",""
"","do_trial","444","1140047","0.0-224.0-0.0","578","","","","","","","","49","0,0,0","6","blank","440","null","0.16484391683357408","0.32704249208968117","0.4992871729365871","0","","","","","","","",""
"","html-keyboard-response","445","1141049","0.0-224.0-1.0","null","<p></p>","null","","","","","","","","","","","","","","","","","","","","","","",""
"","do_trial","446","1144114","0.0-225.0-0.0","506.1999999284744","","","","","","","","49","0,0,0","6","blank","441","null","0.0796783991670064","0.24272040828789493","0.4531833787389634","0","","","","","","","",""
"","html-keyboard-response","447","1145129","0.0-225.0-1.0","null","<p></p>","null","","","","","","","","","","","","","","","","","","","","","","",""
"","do_trial","448","1148557","0.0-226.0-0.0","871.6000000238419","","","","","","","","49","0,0,1","6","blank","442","null","0.30834655501025837","0.1908544920873716","0.4773903908195639","0","","","","","","","",""
"","html-keyboard-response","449","1149571","0.0-226.0-1.0","null","<p></p>","null","","","","","","","","","","","","","","","","","","","","","","",""
"","do_trial","450","1152953","0.0-227.0-0.0","833.7999999523163","","","","","","","","49","1,1,1","6","blank","443","null","0.17668038851121468","0.19844290574055456","0.7269398825834066","1","","","","","","","",""
"","html-keyboard-response","451","1153955","0.0-227.0-1.0","null","<p></p>","null","","","","","","","","","","","","","","","","","","","","","","",""
"","do_recog","452","1157158","0.0-228.0-0.0","1690.7999999523163","","","","","","","","54","","","","444","probe-91","","","","","1","[object Object]","209","5","1","","",""
"","html-keyboard-response","453","1158172","0.0-228.0-1.0","null","<p></p>","null","","","","","","","","","","","","","","","","","","","","","","",""
"","do_trial","454","1161774","0.0-229.0-0.0","1040.3999999761581","","","","","","","","50","0,0,0","6","blank","445","null","0.05263253997768084","0.32480869377966193","0.701952378424802","0","","","","","","","",""
"","html-keyboard-response","455","1162791","0.0-229.0-1.0","null","<p></p>","null","","","","","","","","","","","","","","","","","","","","","","",""
"","do_trial","456","1165595","0.0-230.0-0.0","250.69999992847443","","","","","","","","50","0,0,0","6","blank","446","null","0.11988423574382133","0.3222154314271647","0.6549707621158319","0","","","","","","","",""
"","html-keyboard-response","457","1166608","0.0-230.0-1.0","null","<p></p>","null","","","","","","","","","","","","","","","","","","","","","","",""
"","do_recog","458","1169514","0.0-231.0-0.0","1395.1000000238419","","","","","","","","54","","","","447","probe-231","","","","","0","[object Object]","null","null","0","","",""
"","html-keyboard-response","459","1170527","0.0-231.0-1.0","null","<p></p>","null","","","","","","","","","","","","","","","","","","","","","","",""
"","do_trial","460","1173735","0.0-232.0-0.0","647.7999999523163","","","","","","","","50","0,0,1","6","blank","448","null","0.12341071315751052","0.2930800816698064","0.6810334805625676","0","","","","","","","",""
"","html-keyboard-response","461","1174748","0.0-232.0-1.0","null","<p></p>","null","","","","","","","","","","","","","","","","","","","","","","",""
"","do_recog","462","1177766","0.0-233.0-0.0","1496.5999999046326","","","","","","","","55","","","","449","probe-249","","","","","0","[object Object]","null","null","1","","",""
"","html-keyboard-response","463","1178768","0.0-233.0-1.0","null","<p></p>","null","","","","","","","","","","","","","","","","","","","","","","",""
"","do_trial","464","1181933","0.0-234.0-0.0","616","","","","","","","","51","0,1,1","6","blank","450","null","0.06704527951279189","0.20268966345708486","0.6397040042960552","1","","","","","","","",""
"","html-keyboard-response","465","1182937","0.0-234.0-1.0","null","<p></p>","null","","","","","","","","","","","","","","","","","","","","","","",""
"","do_trial","466","1186519","0.0-235.0-0.0","1032.7000000476837","","","","","","","","51","1,0,0","6","blank","451","null","0.1372541170942105","0.14285893059132185","0.601762039898126","0","","","","","","","",""
"","html-keyboard-response","467","1187521","0.0-235.0-1.0","null","<p></p>","null","","","","","","","","","","","","","","","","","","","","","","",""
"","do_trial","468","1190510","0.0-236.0-0.0","432.10000002384186","","","","","","","","50","0,0,0","6","blank","452","null","0.16401246069653258","0.18610923808566252","0.5232226738262017","0","","","","","","","",""
"","html-keyboard-response","469","1191514","0.0-236.0-1.0","null","<p></p>","null","","","","","","","","","","","","","","","","","","","","","","",""
"","do_recog","470","1195236","0.0-237.0-0.0","2207.3000000715256","","","","","","","","55","","","","453","probe-243","","","","","0","[object Object]","null","null","1","","",""
"","html-keyboard-response","471","1196240","0.0-237.0-1.0","null","<p></p>","null","","","","","","","","","","","","","","","","","","","","","","",""
"","do_trial","472","1199615","0.0-238.0-0.0","810.1000000238419","","","","","","","","50","0,0,0","6","blank","454","null","0.1224635802451635","0.3572780100658541","0.5847071439322469","0","","","","","","","",""
"","html-keyboard-response","473","1200632","0.0-238.0-1.0","null","<p></p>","null","","","","","","","","","","","","","","","","","","","","","","",""
"","do_trial","474","1203908","0.0-239.0-0.0","728.7999999523163","","","","","","","","51","0,0,1","6","blank","455","null","0.21346802489830388","0.26339660334815984","0.5947386697078145","1","","","","","","","",""
"","html-keyboard-response","475","1204923","0.0-239.0-1.0","null","<p></p>","null","","","","","","","","","","","","","","","","","","","","","","",""
"","do_recog","476","1208085","0.0-240.0-0.0","1649","","","","","","","","55","","","","456","probe-255","","","","","0","[object Object]","null","null","1","","",""
"","html-keyboard-response","477","1209088","0.0-240.0-1.0","null","<p></p>","null","","","","","","","","","","","","","","","","","","","","","","",""
"","do_trial","478","1212586","0.0-241.0-0.0","939.5","","","","","","","","50","0,0,1","6","blank","457","null","0.2582580187286778","0.27622031606873565","0.6350457987478885","0","","","","","","","",""
"","html-keyboard-response","479","1213598","0.0-241.0-1.0","null","<p></p>","null","","","","","","","","","","","","","","","","","","","","","","",""
"","do_trial","480","1217123","0.0-242.0-0.0","971","","","","","","","","50","1,0,1","6","blank","458","null","0.2676911304803726","0.4434674844143176","0.6325202677684761","0","","","","","","","",""
"","html-keyboard-response","481","1218140","0.0-242.0-1.0","null","<p></p>","null","","","","","","","","","","","","","","","","","","","","","","",""
"","do_trial","482","1221700","0.0-243.0-0.0","989.1999999284744","","","","","","","","51","0,1,1","6","blank","459","null","0.0686336854130652","0.5239260494476843","0.47882070506520186","1","","","","","","","",""
"","html-keyboard-response","483","1222712","0.0-243.0-1.0","null","<p></p>","null","","","","","","","","","","","","","","","","","","","","","","",""
"","do_trial","484","1225809","0.0-244.0-0.0","544.3999999761581","","","","","","","","50","0,0,1","6","blank","460","null","0.14650015584306375","0.6050117752678665","0.41289503595100163","0","","","","","","","",""
"","html-keyboard-response","485","1226821","0.0-244.0-1.0","null","<p></p>","null","","","","","","","","","","","","","","","","","","","","","","",""
"","do_trial","486","1229803","0.0-245.0-0.0","437.2999999523163","","","","","","","","51","0,0,0","6","blank","461","null","0.15535941033166079","0.4154633313092994","0.5039851195659053","0","","","","","","","",""
"","html-keyboard-response","487","1230808","0.0-245.0-1.0","null","<p></p>","null","","","","","","","","","","","","","","","","","","","","","","",""
"","do_recog","488","1233841","0.0-246.0-0.0","1516.1999999284744","","","","","","","","55","","","","462","probe-239","","","","","0","[object Object]","null","null","1","","",""
"","html-keyboard-response","489","1234845","0.0-246.0-1.0","null","<p></p>","null","","","","","","","","","","","","","","","","","","","","","","",""
"","do_trial","490","1237940","0.0-247.0-0.0","538.2000000476837","","","","","","","","50","0,0,0","6","blank","463","null","0.12637002465788272","0.48973863902711723","0.4391915048690168","0","","","","","","","",""
"","html-keyboard-response","491","1238954","0.0-247.0-1.0","null","<p></p>","null","","","","","","","","","","","","","","","","","","","","","","",""
"","do_trial","492","1242110","0.0-248.0-0.0","601.1000000238419","","","","","","","","51","0,1,1","6","blank","464","null","0.07625475955414064","0.5158829442437868","0.5830499623934888","1","","","","","","","",""
"","html-keyboard-response","493","1243126","0.0-248.0-1.0","null","<p></p>","null","","","","","","","","","","","","","","","","","","","","","","",""
"","do_trial","494","1246284","0.0-249.0-0.0","593.7999999523163","","","","","","","","51","0,0,0","6","blank","465","null","0.2504585305839304","0.47206728418346544","0.5348173774059172","0","","","","","","","",""
"","html-keyboard-response","495","1247294","0.0-249.0-1.0","null","<p></p>","null","","","","","","","","","","","","","","","","","","","","","","",""
"","do_trial","496","1250675","0.0-250.0-0.0","829","","","","","","","","51","0,1,0","6","blank","466","null","0.16501892554804642","0.5183257764600844","0.4578112008155984","0","","","","","","","",""
"","html-keyboard-response","497","1251690","0.0-250.0-1.0","null","<p></p>","null","","","","","","","","","","","","","","","","","","","","","","",""
"","do_trial","498","1254573","0.0-251.0-0.0","329.10000002384186","","","","","","","","49","1,1,1","6","blank","467","null","0.2177429536692719","0.5660863522874563","0.3325290825890844","1","","","","","","","",""
"","html-keyboard-response","499","1255586","0.0-251.0-1.0","null","<p></p>","null","","","","","","","","","","","","","","","","","","","","","","",""
"","do_trial","500","1259360","0.0-252.0-0.0","1216.8999999761581","","","","","","","","49","1,0,1","6","blank","468","null","0.23786462487757865","0.6457388831515737","0.32069737900556067","1","","","","","","","",""
"","html-keyboard-response","501","1260364","0.0-252.0-1.0","null","<p></p>","null","","","","","","","","","","","","","","","","","","","","","","",""
"","break","502","1261559","0.0-252.0-2.0","1193.3999999761581","<div class='center'><p>Time to take a quick break! You have 2 minutes to rest, but you can move on sooner if you'd like.</p><p> Press the <b>space bar</b> to continue.</p></div>","32","","","","","","","","","","","","","","","","","","","","","","",""
"","do_trial","503","1266333","0.0-252.0-3.0","2215.399999976158","","","","","","","","50","0,0,0","6","blank","469","null","0.16225877558619328","0.45791549329833425","0.1660846973764335","0","","","","","","","",""
"","html-keyboard-response","504","1267348","0.0-252.0-4.0","null","<p></p>","null","","","","","","","","","","","","","","","","","","","","","","",""
"","do_trial","505","1270909","0.0-253.0-0.0","995.2000000476837","","","","","","","","50","1,0,1","6","blank","470","null","0.11892671939799376","0.5637250614433019","0.31163590055875595","0","","","","","","","",""
"","html-keyboard-response","506","1271911","0.0-253.0-1.0","null","<p></p>","null","","","","","","","","","","","","","","","","","","","","","","",""
"","do_recog","507","1274924","0.0-254.0-0.0","1493.1000000238419","","","","","","","","54","","","","471","probe-240","","","","","0","[object Object]","null","null","0","","",""
"","html-keyboard-response","508","1275939","0.0-254.0-1.0","null","<p></p>","null","","","","","","","","","","","","","","","","","","","","","","",""
"","do_trial","509","1279215","0.0-255.0-0.0","714.6999999284744","","","","","","","","50","0,1,1","6","blank","472","null","0.08146381371533166","0.6735986191576712","0.3820358853240897","1","","","","","","","",""
"","html-keyboard-response","510","1280230","0.0-255.0-1.0","null","<p></p>","null","","","","","","","","","","","","","","","","","","","","","","",""
"","do_trial","511","1283272","0.0-256.0-0.0","477.8000000715256","","","","","","","","50","0,0,0","6","blank","473","null","0.2054361344926538","0.5622906911750878","0.2688685359986648","0","","","","","","","",""
"","html-keyboard-response","512","1284284","0.0-256.0-1.0","null","<p></p>","null","","","","","","","","","","","","","","","","","","","","","","",""
"","do_trial","513","1287370","0.0-257.0-0.0","535.3999999761581","","","","","","","","51","0,1,0","6","blank","474","null","0.212030909730294","0.5486600032961239","0.17852637354657297","0","","","","","","","",""
"","html-keyboard-response","514","1288385","0.0-257.0-1.0","null","<p></p>","null","","","","","","","","","","","","","","","","","","","","","","",""
"","do_trial","515","1291261","0.0-258.0-0.0","326","","","","","","","","49","0,1,0","6","blank","475","null","0.29659847958368213","0.5905355784444136","0.257057107552856","0","","","","","","","",""
"","html-keyboard-response","516","1292269","0.0-258.0-1.0","null","<p></p>","null","","","","","","","","","","","","","","","","","","","","","","",""
