"success","trial_type","trial_index","time_elapsed","internal_node_id","interactions","blur_events","focus_events","fullscreenenter_events","fullscreenexit_events","rt","stimulus","key_press","subject_id","participant_id","age","gender","prompt","response","choice_outcomes","context_n","context_img_id","trial_n","probe_img_id","pR_red","pR_white","pR_black","outcome","is_valid","image_to_show","probed_trial","probed_context","correct","probe","probed_trial_n","probed_context_n","context_im"
"true","fullscreen","0","2648","0.0-0.0","""event"",""trial"",""time""
""fullscreenenter"",""0"",""1664""
","
","
","""event"",""trial"",""time""
""fullscreenenter"",""0"",""1664""
","
","","","","","","","","","","","","","","","","","","","","","","","","","","",""
"","pavlovia","1","2653","0.0-1.0","""event"",""trial"",""time""
""fullscreenenter"",""0"",""1664""
","
","
","""event"",""trial"",""time""
""fullscreenenter"",""0"",""1664""
","
","","","","","","","","","","","","","","","","","","","","","","","","","","",""
"","welc_back","2","12523","0.0-2.0","""event"",""trial"",""time""
""fullscreenenter"",""0"",""1664""
","
","
","""event"",""trial"",""time""
""fullscreenenter"",""0"",""1664""
","
","null","run_exp/static/audio/clip_29_welcome_back.m4a","null","395","518","8","Male","<div class='center'><p>Welcome to day 2!</p><p> Yesterday, you were the head captain of a pirate ship. You asked your fellow pirates to rob other ships of their gold across six different islands.</p></div>","","","","","","","","","","","","","","","","","","",""
"","html-keyboard-response","3","14030","0.0-3.0","""event"",""trial"",""time""
""fullscreenenter"",""0"",""1664""
","
","
","""event"",""trial"",""time""
""fullscreenenter"",""0"",""1664""
","
","1504.6999999999534","<div class='center'><p>Welcome to day 2!</p><p> Yesterday, you were the head captain of a pirate ship. You asked your fellow pirates to rob other ships of their gold across six different islands.</p><p><b>[Press the space bar to continue]</b></p></div>","32","","","","","","","","","","","","","","","","","","","","","","","",""
"","day_1_summary_goal","4","31480","0.0-4.0","""event"",""trial"",""time""
""fullscreenenter"",""0"",""1664""
","
","
","""event"",""trial"",""time""
""fullscreenenter"",""0"",""1664""
","
","null","run_exp/static/audio/clip_30_goal_of_game.m4a","null","","","","","<div class='center'><p>Today, like yesterday, you get to pick which pirate you want to rob the next ship.</p><p>If the pirate is successful in robbing a ship, you get gold coins that look like this: </p><p><img src='run_exp/static/images/tutorial/reward.png' height='150'></p><p> If they were not successful in robbing the ship, then you will get no gold coins and you'll see a big red x like this: </p><p><img src='run_exp/static/images/tutorial/reward_no.png' height='150'></p></div>","","","","","","","","","","","","","","","","","","",""
"","html-keyboard-response","5","51843","0.0-5.0","""event"",""trial"",""time""
""fullscreenenter"",""0"",""1664""
","
","
","""event"",""trial"",""time""
""fullscreenenter"",""0"",""1664""
","
","20361.800000000047","<div class='center'><p>Today, like yesterday, you get to pick which pirate you want to rob the next ship.</p><p>If the pirate is successful in robbing a ship, you get gold coins that look like this: </p><p><img src='run_exp/static/images/tutorial/reward.png' height='150'></p><p> If they were not successful in robbing the ship, then you will get no gold coins and you'll see a big red x like this: </p><p><img src='run_exp/static/images/tutorial/reward_no.png' height='150'></p><p><b>[Press the space bar to continue]</b></p></div>","32","","","","","","","","","","","","","","","","","","","","","","","",""
"","day_1_summary_pick","6","66636","0.0-6.0","""event"",""trial"",""time""
""fullscreenenter"",""0"",""1664""
","
","
","""event"",""trial"",""time""
""fullscreenenter"",""0"",""1664""
","
","null","run_exp/static/audio/clip_31_how_to_pick_a_pirate.m4a","null","","","","","<div class='center'><p>Also, just like yesterday, you will use the 1,2,3 keys on your keyboard to pick a pirate. Press '1' to choose red beard, '2' to choose white beard, and '3' to choose black beard . You only have 3 seconds to pick a pirate, so please make a choice quickly!</p></div>","","","","","","","","","","","","","","","","","","",""
"","html-keyboard-response","7","66711","0.0-7.0","""event"",""trial"",""time""
""fullscreenenter"",""0"",""1664""
","
","
","""event"",""trial"",""time""
""fullscreenenter"",""0"",""1664""
","
","73.19999999995343","<div class='center'><p>Also, just like yesterday, you will use the 1,2,3 keys on your keyboard to pick a pirate. Press '1' to choose red beard, '2' to choose white beard, and '3' to choose black beard . You only have 3 seconds to pick a pirate, so please make a choice quickly!</p><p><b>[Press the space bar to continue]</b></p></div>","32","","","","","","","","","","","","","","","","","","","","","","","",""
"","test_phase_begin","8","97302","0.0-8.0","""event"",""trial"",""time""
""fullscreenenter"",""0"",""1664""
","
","
","""event"",""trial"",""time""
""fullscreenenter"",""0"",""1664""
","
","null","run_exp/static/audio/clip_32_final_place.m4a","null","","","","","<div class='center'><p>You’ve arrived at the final island of your journey! Unfortunately, it’s very foggy out, so you won’t be able to see it in the distance like the other islands you've visited.</p><p>You’ll still be deciding which pirate you want to rob a ship like before. However, because of the fog, you also won’t be able to see the ship.</p><p>This means you do not have to remember the ships you rob on this island.</p><p>Unlike yesterday, you won't be visiting multiple islands today. You will stay on this island for the entire game. This game will last ~30 minutes.</p></div>","","","","","","","","","","","","","","","","","","",""
"","html-keyboard-response","9","99420","0.0-9.0","""event"",""trial"",""time""
""fullscreenenter"",""0"",""1664""
","
","
","""event"",""trial"",""time""
""fullscreenenter"",""0"",""1664""
","
","2116.2999999998137","<div class='center'><p>You’ve arrived at the final island of your journey! Unfortunately, it’s very foggy out, so you won’t be able to see it in the distance like the other islands you've visited.</p><p>You’ll still be deciding which pirate you want to rob a ship like before. However, because of the fog, you also won’t be able to see the ship.</p><p>This means you do not have to remember the ships you rob on this island.</p><p>Unlike yesterday, you won't be visiting multiple islands today. You will stay on this island for the entire game. This game will last ~30 minutes.</p><p><b>[Press the space bar to continue]</b></p></div>","32","","","","","","","","","","","","","","","","","","","","","","","",""
"","explain_probe_1","10","107339","0.0-10.0","""event"",""trial"",""time""
""fullscreenenter"",""0"",""1664""
","
","
","""event"",""trial"",""time""
""fullscreenenter"",""0"",""1664""
","
","null","run_exp/static/audio/clip_33_recognition_1.m4a","null","","","","","<div class='center'><p> Sometimes you’ll be shown a ship, and you will be asked if you saw this ship on a past island.</p><p> Here is an example of what you will see.</p><p><img src='run_exp/static/images/tutorial/example_recog_trial.png' height='500'></p></div>","","","","","","","","","","","","","","","","","","",""
"","html-keyboard-response","11","108578","0.0-11.0","""event"",""trial"",""time""
""fullscreenenter"",""0"",""1664""
","
","
","""event"",""trial"",""time""
""fullscreenenter"",""0"",""1664""
","
","1238.1999999999534","<div class='center'><p> Sometimes you’ll be shown a ship, and you will be asked if you saw this ship on a past island.</p><p> Here is an example of what you will see.</p><p><img src='run_exp/static/images/tutorial/example_recog_trial.png' height='500'></p><p><b>[Press the space bar to continue]</b></p></div>","32","","","","","","","","","","","","","","","","","","","","","","","",""
"","explain_probe_2","12","130476","0.0-12.0","""event"",""trial"",""time""
""fullscreenenter"",""0"",""1664""
","
","
","""event"",""trial"",""time""
""fullscreenenter"",""0"",""1664""
","
","null","run_exp/static/audio/clip_34_recognition_2.m4a","null","","","","","<div class='center'><p> You will press the 5, 6, 7, 8 keys on your keyboard to respond.</p><p>If you are sure you saw the ship, press <b>5</b> on your keyboard.</p><p> If you think you saw it before but aren't sure, then press <b>6</b>.</p><p> If you think you have <b>not</b> seen it before but aren't sure, then press <b>7</b>.</p><p> If you are sure you did <b>not</b> see the ship before, then press <b>8</b>.</p><p><img src='run_exp/static/images/tutorial/example_recog_trial.png' height='500'></p></div>","","","","","","","","","","","","","","","","","","",""
"","html-keyboard-response","13","133876","0.0-13.0","""event"",""trial"",""time""
""fullscreenenter"",""0"",""1664""
","
","
","""event"",""trial"",""time""
""fullscreenenter"",""0"",""1664""
","
","3398.1999999999534","<div class='center'><p> You will press the 5, 6, 7, 8 keys on your keyboard to respond.</p><p>If you are sure you saw the ship, press <b>5</b> on your keyboard.</p><p> If you think you saw it before but aren't sure, then press <b>6</b>.</p><p> If you think you have <b>not</b> seen it before but aren't sure, then press <b>7</b>.</p><p> If you are sure you did <b>not</b> see the ship before, then press <b>8</b>.</p><p><img src='run_exp/static/images/tutorial/example_recog_trial.png' height='500'></p><p><b>[Press the space bar to continue]</b></p></div>","32","","","","","","","","","","","","","","","","","","","","","","","",""
"","explain_outcome","14","151291","0.0-14.0","""event"",""trial"",""time""
""fullscreenenter"",""0"",""1664""
","
","
","""event"",""trial"",""time""
""fullscreenenter"",""0"",""1664""
","
","null","run_exp/static/audio/clip_35_recognition_3.m4a","null","","","","","<div class='center'><p> If you remember correctly, then you’ll get a gold coin like this: </p><p><img src='run_exp/static/images/tutorial/reward_small.png' height='200'></p><p>If you do not remember correctly, then you'll see a red x like this: </p><p><img src='run_exp/static/images/tutorial/reward_no.png' height='200'></p><p>Importantly, when you are shown a ship, take the time to remind yourself which island you saw it on. This will help you in the next part of the study.</p></div>","","","","","","","","","","","","","","","","","","",""
"","html-keyboard-response","15","153719","0.0-15.0","""event"",""trial"",""time""
""fullscreenenter"",""0"",""1664""
","
","
","""event"",""trial"",""time""
""fullscreenenter"",""0"",""1664""
","
","2426.1999999999534","<div class='center'><p> If you remember correctly, then you’ll get a gold coin like this: </p><p><img src='run_exp/static/images/tutorial/reward_small.png' height='200'></p><p>If you do not remember correctly, then you'll see a red x like this: </p><p><img src='run_exp/static/images/tutorial/reward_no.png' height='200'></p><p>Importantly, when you are shown a ship, take the time to remind yourself which island you saw it on. This will help you in the next part of the study.</p><p><b>[Press the space bar to continue]</b></p></div>","32","","","","","","","","","","","","","","","","","","","","","","","",""
"","begin_test_phase","16","169784","0.0-16.0","""event"",""trial"",""time""
""fullscreenenter"",""0"",""1664""
","
","
","""event"",""trial"",""time""
""fullscreenenter"",""0"",""1664""
","
","null","run_exp/static/audio/clip_36_begin_final.m4a","null","","","","","<div class='center'><p>Let's go over the important points again. Your job is to: </p><p>1. Pick the pirate who is best at robbing ships and will bring you back gold coins. </p><p>2. Correctly remember whether or not you saw a ship before. If you did see the ship before, remind yourself on which island you saw it. </p></div>","","","","","","","","","","","","","","","","","","",""
"","html-keyboard-response","17","172048","0.0-17.0","""event"",""trial"",""time""
""fullscreenenter"",""0"",""1664""
","
","
","""event"",""trial"",""time""
""fullscreenenter"",""0"",""1664""
","
","2209.3000000000466","<div class='center'><p>Let's go over the important points again. Your job is to: </p><p>1. Pick the pirate who is best at robbing ships and will bring you back gold coins. </p><p>2. Correctly remember whether or not you saw a ship before. If you did see the ship before, remind yourself on which island you saw it. </p><p><b>[Press the space bar to continue]</b></p></div>","32","","","","","","","","","","","","","","","","","","","","","","","",""
"","do_welcome","18","176056","0.0-18.0","""event"",""trial"",""time""
""fullscreenenter"",""0"",""1664""
","
","
","""event"",""trial"",""time""
""fullscreenenter"",""0"",""1664""
","
","null","","","","","","","","null","","","","","","","","","","","","","","","","","",""
"","do_trial","19","182117","0.0-19.0-0.0","""event"",""trial"",""time""
""fullscreenenter"",""0"",""1664""
","
","
","""event"",""trial"",""time""
""fullscreenenter"",""0"",""1664""
","
","null","","","","","","","","null","1,1,0","6","blank","230","null","0.14856240064377452","0.7388855626159109","0.29305284827911543","","","","","","","","","",""
"","html-keyboard-response","20","183123","0.0-19.0-1.0","""event"",""trial"",""time""
""fullscreenenter"",""0"",""1664""
","
","
","""event"",""trial"",""time""
""fullscreenenter"",""0"",""1664""
","
","null","<p></p>","null","","","","","","","","","","","","","","","","","","","","","","","",""
"","do_trial","21","186021","0.0-20.0-0.0","""event"",""trial"",""time""
""fullscreenenter"",""0"",""1664""
","
","
","""event"",""trial"",""time""
""fullscreenenter"",""0"",""1664""
","
","337.5999999998603","","","","","","","","49","0,1,0","6","blank","231","null","0.07452415548789715","0.7566772031128295","0.15386553391521346","0","","","","","","","","",""
"","html-keyboard-response","22","187023","0.0-20.0-1.0","""event"",""trial"",""time""
""fullscreenenter"",""0"",""1664""
","
","
","""event"",""trial"",""time""
""fullscreenenter"",""0"",""1664""
","
","null","<p></p>","null","","","","","","","","","","","","","","","","","","","","","","","",""
"","do_trial","23","189980","0.0-21.0-0.0","""event"",""trial"",""time""
""fullscreenenter"",""0"",""1664""
","
","
","""event"",""trial"",""time""
""fullscreenenter"",""0"",""1664""
","
","401","","","","","","","","50","0,1,0","6","blank","232","null","0.1507678381096914","0.8812707876301752","0.2864691519912279","1","","","","","","","","",""
"","html-keyboard-response","24","190982","0.0-21.0-1.0","""event"",""trial"",""time""
""fullscreenenter"",""0"",""1664""
","
","
","""event"",""trial"",""time""
""fullscreenenter"",""0"",""1664""
","
","null","<p></p>","null","","","","","","","","","","","","","","","","","","","","","","","",""
"","do_trial","25","193962","0.0-22.0-0.0","""event"",""trial"",""time""
""fullscreenenter"",""0"",""1664""
","
","
","""event"",""trial"",""time""
""fullscreenenter"",""0"",""1664""
","
","424.5999999998603","","","","","","","","51","0,1,0","6","blank","233","null","0.2974150951862708","0.9198768827490252","0.3069914442294846","0","","","","","","","","",""
"","html-keyboard-response","26","194964","0.0-22.0-1.0","""event"",""trial"",""time""
""fullscreenenter"",""0"",""1664""
","
","
","""event"",""trial"",""time""
""fullscreenenter"",""0"",""1664""
","
","null","<p></p>","null","","","","","","","","","","","","","","","","","","","","","","","",""
"","do_trial","27","197944","0.0-23.0-0.0","""event"",""trial"",""time""
""fullscreenenter"",""0"",""1664""
","
","
","""event"",""trial"",""time""
""fullscreenenter"",""0"",""1664""
","
","419.80000000004657","","","","","","","","50","0,1,0","6","blank","234","null","0.2573794464524358","0.9352339977431694","0.3497530735874512","1","","","","","","","","",""
"","html-keyboard-response","28","198946","0.0-23.0-1.0","""event"",""trial"",""time""
""fullscreenenter"",""0"",""1664""
","
","
","""event"",""trial"",""time""
""fullscreenenter"",""0"",""1664""
","
","null","<p></p>","null","","","","","","","","","","","","","","","","","","","","","","","",""
"","do_trial","29","201936","0.0-24.0-0.0","""event"",""trial"",""time""
""fullscreenenter"",""0"",""1664""
","
","
","""event"",""trial"",""time""
""fullscreenenter"",""0"",""1664""
","
","432.89999999990687","","","","","","","","51","1,1,1","6","blank","235","null","0.3450875448478115","0.7528152461614075","0.20564728872189497","1","","","","","","","","",""
"","html-keyboard-response","30","202937","0.0-24.0-1.0","""event"",""trial"",""time""
""fullscreenenter"",""0"",""1664""
","
","
","""event"",""trial"",""time""
""fullscreenenter"",""0"",""1664""
","
","null","<p></p>","null","","","","","","","","","","","","","","","","","","","","","","","",""
"","do_trial","31","208228","0.0-25.0-0.0","""event"",""trial"",""time""
""fullscreenenter"",""0"",""1664""
","
","
","""event"",""trial"",""time""
""fullscreenenter"",""0"",""1664""
","
","2732.4000000001397","","","","","","","","50","0,1,0","6","blank","236","null","0.25606752898506036","0.6667401171681878","0.24661796188532767","1","","","","","","","","",""
"","html-keyboard-response","32","209230","0.0-25.0-1.0","""event"",""trial"",""time""
""fullscreenenter"",""0"",""1664""
","
","
","""event"",""trial"",""time""
""fullscreenenter"",""0"",""1664""
","
","null","<p></p>","null","","","","","","","","","","","","","","","","","","","","","","","",""
"","do_trial","33","212229","0.0-26.0-0.0","""event"",""trial"",""time""
""fullscreenenter"",""0"",""1664""
","
","
","""event"",""trial"",""time""
""fullscreenenter"",""0"",""1664""
","
","443.80000000004657","","","","","","","","49","0,1,1","6","blank","237","null","0.11912961469340182","0.646051034880132","0.30340191244604725","0","","","","","","","","",""
"","html-keyboard-response","34","213231","0.0-26.0-1.0","""event"",""trial"",""time""
""fullscreenenter"",""0"",""1664""
","
","
","""event"",""trial"",""time""
""fullscreenenter"",""0"",""1664""
","
","null","<p></p>","null","","","","","","","","","","","","","","","","","","","","","","","",""
"","do_trial","35","216052","0.0-27.0-0.0","""event"",""trial"",""time""
""fullscreenenter"",""0"",""1664""
","
","
","""event"",""trial"",""time""
""fullscreenenter"",""0"",""1664""
","
","261.89999999990687","","","","","","","","49","0,1,0","6","blank","238","null","0.07442892304399512","0.5904776417769027","0.17001229349231026","0","","","","","","","","",""
"","html-keyboard-response","36","217054","0.0-27.0-1.0","""event"",""trial"",""time""
""fullscreenenter"",""0"",""1664""
","
","
","""event"",""trial"",""time""
""fullscreenenter"",""0"",""1664""
","
","null","<p></p>","null","","","","","","","","","","","","","","","","","","","","","","","",""
"","do_trial","37","219612","0.0-28.0-0.0","""event"",""trial"",""time""
""fullscreenenter"",""0"",""1664""
","
","
","""event"",""trial"",""time""
""fullscreenenter"",""0"",""1664""
","
","0.30000000004656613","","","","","","","","50","0,1,0","6","blank","239","null","0.061648871939202286","0.531680346579422","0.21080520843336775","1","","","","","","","","",""
"","html-keyboard-response","38","220614","0.0-28.0-1.0","""event"",""trial"",""time""
""fullscreenenter"",""0"",""1664""
","
","
","""event"",""trial"",""time""
""fullscreenenter"",""0"",""1664""
","
","null","<p></p>","null","","","","","","","","","","","","","","","","","","","","","","","",""
"","do_trial","39","223287","0.0-29.0-0.0","""event"",""trial"",""time""
""fullscreenenter"",""0"",""1664""
","
","
","""event"",""trial"",""time""
""fullscreenenter"",""0"",""1664""
","
","114.69999999995343","","","","","","","","51","0,0,0","6","blank","240","null","0.0700573824683156","0.513186719677081","0.15662295861638562","0","","","","","","","","",""
"","html-keyboard-response","40","224289","0.0-29.0-1.0","""event"",""trial"",""time""
""fullscreenenter"",""0"",""1664""
","
","
","""event"",""trial"",""time""
""fullscreenenter"",""0"",""1664""
","
","null","<p></p>","null","","","","","","","","","","","","","","","","","","","","","","","",""
"","do_trial","41","226977","0.0-30.0-0.0","""event"",""trial"",""time""
""fullscreenenter"",""0"",""1664""
","
","
","""event"",""trial"",""time""
""fullscreenenter"",""0"",""1664""
","
","128.10000000009313","","","","","","","","50","0,0,0","6","blank","241","null","0.0545440118166212","0.5934905930292674","0.09705228176315973","0","","","","","","","","",""
"","html-keyboard-response","42","227979","0.0-30.0-1.0","""event"",""trial"",""time""
""fullscreenenter"",""0"",""1664""
","
","
","""event"",""trial"",""time""
""fullscreenenter"",""0"",""1664""
","
","null","<p></p>","null","","","","","","","","","","","","","","","","","","","","","","","",""
"","do_trial","43","231269","0.0-31.0-0.0","""event"",""trial"",""time""
""fullscreenenter"",""0"",""1664""
","
","
","""event"",""trial"",""time""
""fullscreenenter"",""0"",""1664""
","
","729.7999999998137","","","","","","","","51","0,1,1","6","blank","242","null","0.3406262336330745","0.5902816402042685","0.1186820782413148","1","","","","","","","","",""
"","html-keyboard-response","44","232271","0.0-31.0-1.0","""event"",""trial"",""time""
""fullscreenenter"",""0"",""1664""
","
","
","""event"",""trial"",""time""
""fullscreenenter"",""0"",""1664""
","
","null","<p></p>","null","","","","","","","","","","","","","","","","","","","","","","","",""
"","do_trial","45","235993","0.0-32.0-0.0","""event"",""trial"",""time""
""fullscreenenter"",""0"",""1664""
","
","
","""event"",""trial"",""time""
""fullscreenenter"",""0"",""1664""
","
","1166.5999999998603","","","","","","","","51","0,0,1","6","blank","243","null","0.26795182574721027","0.4193980622889349","0.143426185883684","1","","","","","","","","",""
"","html-keyboard-response","46","236995","0.0-32.0-1.0","""event"",""trial"",""time""
""fullscreenenter"",""0"",""1664""
","
","
","""event"",""trial"",""time""
""fullscreenenter"",""0"",""1664""
","
","null","<p></p>","null","","","","","","","","","","","","","","","","","","","","","","","",""
"","do_trial","47","240995","0.0-33.0-0.0","""event"",""trial"",""time""
""fullscreenenter"",""0"",""1664""
","
","
","""event"",""trial"",""time""
""fullscreenenter"",""0"",""1664""
","
","1445.5","","","","","","","","51","1,1,0","6","blank","244","null","0.4264018128699272","0.4210260395698643","0.255970702756416","0","","","","","","","","",""
"","html-keyboard-response","48","241997","0.0-33.0-1.0","""event"",""trial"",""time""
""fullscreenenter"",""0"",""1664""
","
","
","""event"",""trial"",""time""
""fullscreenenter"",""0"",""1664""
","
","null","<p></p>","null","","","","","","","","","","","","","","","","","","","","","","","",""
"","do_trial","49","244554","0.0-34.0-0.0","""event"",""trial"",""time""
""fullscreenenter"",""0"",""1664""
","
","
","""event"",""trial"",""time""
""fullscreenenter"",""0"",""1664""
","
","2.300000000046566","","","","","","","","50","1,0,0","6","blank","245","null","0.3887459722753816","0.3628215549542156","0.1650094114465392","0","","","","","","","","",""
"","html-keyboard-response","50","245556","0.0-34.0-1.0","""event"",""trial"",""time""
""fullscreenenter"",""0"",""1664""
","
","
","""event"",""trial"",""time""
""fullscreenenter"",""0"",""1664""
","
","null","<p></p>","null","","","","","","","","","","","","","","","","","","","","","","","",""
"","do_recog","51","251563","0.0-35.0-0.0","""event"",""trial"",""time""
""fullscreenenter"",""0"",""1664""
","
","
","""event"",""trial"",""time""
""fullscreenenter"",""0"",""1664""
","
","null","","","","","","","","null","","","","246","probe-25","","","","","1","[object Object]","74","1","0","","","",""
"","html-keyboard-response","52","252565","0.0-35.0-1.0","""event"",""trial"",""time""
""fullscreenenter"",""0"",""1664""
","
","
","""event"",""trial"",""time""
""fullscreenenter"",""0"",""1664""
","
","null","<p></p>","null","","","","","","","","","","","","","","","","","","","","","","","",""
"","do_trial","53","257104","0.0-36.0-0.0","""event"",""trial"",""time""
""fullscreenenter"",""0"",""1664""
","
","
","""event"",""trial"",""time""
""fullscreenenter"",""0"",""1664""
","
","1980.3000000000466","","","","","","","","49","1,0,0","6","blank","247","null","0.3921821340184534","0.2116540461884554","0.09312228164223516","1","","","","","","","","",""
"","html-keyboard-response","54","258106","0.0-36.0-1.0","""event"",""trial"",""time""
""fullscreenenter"",""0"",""1664""
","
","
","""event"",""trial"",""time""
""fullscreenenter"",""0"",""1664""
","
","null","<p></p>","null","","","","","","","","","","","","","","","","","","","","","","","",""
"","do_trial","55","261385","0.0-37.0-0.0","""event"",""trial"",""time""
""fullscreenenter"",""0"",""1664""
","
","
","""event"",""trial"",""time""
""fullscreenenter"",""0"",""1664""
","
","724.6000000000931","","","","","","","","50","0,1,0","6","blank","248","null","0.41279711125455204","0.3579393941717668","0.17403245546829424","1","","","","","","","","",""
"","html-keyboard-response","56","262387","0.0-37.0-1.0","""event"",""trial"",""time""
""fullscreenenter"",""0"",""1664""
","
","
","""event"",""trial"",""time""
""fullscreenenter"",""0"",""1664""
","
","null","<p></p>","null","","","","","","","","","","","","","","","","","","","","","","","",""
"","do_trial","57","265195","0.0-38.0-0.0","""event"",""trial"",""time""
""fullscreenenter"",""0"",""1664""
","
","
","""event"",""trial"",""time""
""fullscreenenter"",""0"",""1664""
","
","253.20000000018626","","","","","","","","51","1,1,0","6","blank","249","null","0.5175100202993478","0.3985530761129784","0.1857630250569322","0","","","","","","","","",""
"","html-keyboard-response","58","266197","0.0-38.0-1.0","""event"",""trial"",""time""
""fullscreenenter"",""0"",""1664""
","
","
","""event"",""trial"",""time""
""fullscreenenter"",""0"",""1664""
","
","null","<p></p>","null","","","","","","","","","","","","","","","","","","","","","","","",""
"","do_trial","59","269087","0.0-39.0-0.0","""event"",""trial"",""time""
""fullscreenenter"",""0"",""1664""
","
","
","""event"",""trial"",""time""
""fullscreenenter"",""0"",""1664""
","
","334.10000000009313","","","","","","","","49","1,0,1","6","blank","250","null","0.5707197534884298","0.378701093207272","0.2927154844327859","1","","","","","","","","",""
"","html-keyboard-response","60","270089","0.0-39.0-1.0","""event"",""trial"",""time""
""fullscreenenter"",""0"",""1664""
","
","
","""event"",""trial"",""time""
""fullscreenenter"",""0"",""1664""
","
","null","<p></p>","null","","","","","","","","","","","","","","","","","","","","","","","",""
"","do_recog","61","274475","0.0-40.0-0.0","""event"",""trial"",""time""
""fullscreenenter"",""0"",""1664""
","
","
","""event"",""trial"",""time""
""fullscreenenter"",""0"",""1664""
","
","2877.899999999907","","","","","","","","56","","","","251","probe-96","","","","","1","[object Object]","77","1","0","","","",""
"","html-keyboard-response","62","275477","0.0-40.0-1.0","""event"",""trial"",""time""
""fullscreenenter"",""0"",""1664""
","
","
","""event"",""trial"",""time""
""fullscreenenter"",""0"",""1664""
","
","null","<p></p>","null","","","","","","","","","","","","","","","","","","","","","","","",""
"","do_trial","63","279896","0.0-41.0-0.0","""event"",""trial"",""time""
""fullscreenenter"",""0"",""1664""
""blur"",""64"",""284377""
""focus"",""64"",""284384""
""fullscreenexit"",""64"",""284385""
","""event"",""trial"",""time""
""blur"",""64"",""284377""
","""event"",""trial"",""time""
""focus"",""64"",""284384""
","""event"",""trial"",""time""
""fullscreenenter"",""0"",""1664""
","""event"",""trial"",""time""
""fullscreenexit"",""64"",""284385""
","1862.5","","","","","","","","50","0,0,0","6","blank","252","null","0.5501960659379684","0.41491379070687245","0.1356333447244286","0","","","","","","","","",""
"","html-keyboard-response","64","284389","0.0-41.0-1.0","""event"",""trial"",""time""
""fullscreenenter"",""0"",""1664""
""blur"",""64"",""284377""
""focus"",""64"",""284384""
""fullscreenexit"",""64"",""284385""
","""event"",""trial"",""time""
""blur"",""64"",""284377""
","""event"",""trial"",""time""
""focus"",""64"",""284384""
","""event"",""trial"",""time""
""fullscreenenter"",""0"",""1664""
","""event"",""trial"",""time""
""fullscreenexit"",""64"",""284385""
","null","<p></p>","null","","","","","","","","","","","","","","","","","","","","","","","",""
"","do_trial","65","287644","0.0-42.0-0.0","""event"",""trial"",""time""
""fullscreenenter"",""0"",""1664""
""blur"",""64"",""284377""
""focus"",""64"",""284384""
""fullscreenexit"",""64"",""284385""
","""event"",""trial"",""time""
""blur"",""64"",""284377""
","""event"",""trial"",""time""
""focus"",""64"",""284384""
","""event"",""trial"",""time""
""fullscreenenter"",""0"",""1664""
","""event"",""trial"",""time""
""fullscreenexit"",""64"",""284385""
","695.3000000000466","","","","","","","","49","0,0,0","6","blank","253","null","0.46394636253695154","0.3856811704220894","0.10776556185438979","0","","","","","","","","",""
"","html-keyboard-response","66","288646","0.0-42.0-1.0","""event"",""trial"",""time""
""fullscreenenter"",""0"",""1664""
""blur"",""64"",""284377""
""focus"",""64"",""284384""
""fullscreenexit"",""64"",""284385""
","""event"",""trial"",""time""
""blur"",""64"",""284377""
","""event"",""trial"",""time""
""focus"",""64"",""284384""
","""event"",""trial"",""time""
""fullscreenenter"",""0"",""1664""
","""event"",""trial"",""time""
""fullscreenexit"",""64"",""284385""
","null","<p></p>","null","","","","","","","","","","","","","","","","","","","","","","","",""
"","do_trial","67","292322","0.0-43.0-0.0","""event"",""trial"",""time""
""fullscreenenter"",""0"",""1664""
""blur"",""64"",""284377""
""focus"",""64"",""284384""
""fullscreenexit"",""64"",""284385""
","""event"",""trial"",""time""
""blur"",""64"",""284377""
","""event"",""trial"",""time""
""focus"",""64"",""284384""
","""event"",""trial"",""time""
""fullscreenenter"",""0"",""1664""
","""event"",""trial"",""time""
""fullscreenexit"",""64"",""284385""
","1119.6999999999534","","","","","","","","49","0,0,0","6","blank","254","null","0.43744513265726853","0.18919600807180514","0.08657971220913133","0","","","","","","","","",""
"","html-keyboard-response","68","293324","0.0-43.0-1.0","""event"",""trial"",""time""
""fullscreenenter"",""0"",""1664""
""blur"",""64"",""284377""
""focus"",""64"",""284384""
""fullscreenexit"",""64"",""284385""
","""event"",""trial"",""time""
""blur"",""64"",""284377""
","""event"",""trial"",""time""
""focus"",""64"",""284384""
","""event"",""trial"",""time""
""fullscreenenter"",""0"",""1664""
","""event"",""trial"",""time""
""fullscreenexit"",""64"",""284385""
","null","<p></p>","null","","","","","","","","","","","","","","","","","","","","","","","",""
"","do_trial","69","296634","0.0-44.0-0.0","""event"",""trial"",""time""
""fullscreenenter"",""0"",""1664""
""blur"",""64"",""284377""
""focus"",""64"",""284384""
""fullscreenexit"",""64"",""284385""
","""event"",""trial"",""time""
""blur"",""64"",""284377""
","""event"",""trial"",""time""
""focus"",""64"",""284384""
","""event"",""trial"",""time""
""fullscreenenter"",""0"",""1664""
","""event"",""trial"",""time""
""fullscreenexit"",""64"",""284385""
","754.8000000000466","","","","","","","","50","1,0,0","6","blank","255","null","0.48472715275597356","0.2046189030741353","0.10043323529070448","0","","","","","","","","",""
"","html-keyboard-response","70","297636","0.0-44.0-1.0","""event"",""trial"",""time""
""fullscreenenter"",""0"",""1664""
""blur"",""64"",""284377""
""focus"",""64"",""284384""
""fullscreenexit"",""64"",""284385""
","""event"",""trial"",""time""
""blur"",""64"",""284377""
","""event"",""trial"",""time""
""focus"",""64"",""284384""
","""event"",""trial"",""time""
""fullscreenenter"",""0"",""1664""
","""event"",""trial"",""time""
""fullscreenexit"",""64"",""284385""
","null","<p></p>","null","","","","","","","","","","","","","","","","","","","","","","","",""
"","do_recog","71","301425","0.0-45.0-0.0","""event"",""trial"",""time""
""fullscreenenter"",""0"",""1664""
""blur"",""64"",""284377""
""focus"",""64"",""284384""
""fullscreenexit"",""64"",""284385""
","""event"",""trial"",""time""
""blur"",""64"",""284377""
","""event"",""trial"",""time""
""focus"",""64"",""284384""
","""event"",""trial"",""time""
""fullscreenenter"",""0"",""1664""
","""event"",""trial"",""time""
""fullscreenexit"",""64"",""284385""
","2283","","","","","","","","55","","","","256","probe-249","","","","","0","[object Object]","null","null","1","","","",""
"","html-keyboard-response","72","302427","0.0-45.0-1.0","""event"",""trial"",""time""
""fullscreenenter"",""0"",""1664""
""blur"",""64"",""284377""
""focus"",""64"",""284384""
""fullscreenexit"",""64"",""284385""
","""event"",""trial"",""time""
""blur"",""64"",""284377""
","""event"",""trial"",""time""
""focus"",""64"",""284384""
","""event"",""trial"",""time""
""fullscreenenter"",""0"",""1664""
","""event"",""trial"",""time""
""fullscreenexit"",""64"",""284385""
","null","<p></p>","null","","","","","","","","","","","","","","","","","","","","","","","",""
"","do_trial","73","306856","0.0-46.0-0.0","""event"",""trial"",""time""
""fullscreenenter"",""0"",""1664""
""blur"",""64"",""284377""
""focus"",""64"",""284384""
""fullscreenexit"",""64"",""284385""
","""event"",""trial"",""time""
""blur"",""64"",""284377""
","""event"",""trial"",""time""
""focus"",""64"",""284384""
","""event"",""trial"",""time""
""fullscreenenter"",""0"",""1664""
","""event"",""trial"",""time""
""fullscreenexit"",""64"",""284385""
","1874.6999999999534","","","","","","","","50","0,0,0","6","blank","257","null","0.46676385215142424","0.2937802727914023","0.09047301206351156","0","","","","","","","","",""
"","html-keyboard-response","74","307858","0.0-46.0-1.0","""event"",""trial"",""time""
""fullscreenenter"",""0"",""1664""
""blur"",""64"",""284377""
""focus"",""64"",""284384""
""fullscreenexit"",""64"",""284385""
","""event"",""trial"",""time""
""blur"",""64"",""284377""
","""event"",""trial"",""time""
""focus"",""64"",""284384""
","""event"",""trial"",""time""
""fullscreenenter"",""0"",""1664""
","""event"",""trial"",""time""
""fullscreenexit"",""64"",""284385""
","null","<p></p>","null","","","","","","","","","","","","","","","","","","","","","","","",""
"","do_recog","75","311676","0.0-47.0-0.0","""event"",""trial"",""time""
""fullscreenenter"",""0"",""1664""
""blur"",""64"",""284377""
""focus"",""64"",""284384""
""fullscreenexit"",""64"",""284385""
","""event"",""trial"",""time""
""blur"",""64"",""284377""
","""event"",""trial"",""time""
""focus"",""64"",""284384""
","""event"",""trial"",""time""
""fullscreenenter"",""0"",""1664""
","""event"",""trial"",""time""
""fullscreenexit"",""64"",""284385""
","2311.2999999998137","","","","","","","","55","","","","258","probe-95","","","","","1","[object Object]","193","4","0","","","",""
"","html-keyboard-response","76","312679","0.0-47.0-1.0","""event"",""trial"",""time""
""fullscreenenter"",""0"",""1664""
""blur"",""64"",""284377""
""focus"",""64"",""284384""
""fullscreenexit"",""64"",""284385""
","""event"",""trial"",""time""
""blur"",""64"",""284377""
","""event"",""trial"",""time""
""focus"",""64"",""284384""
","""event"",""trial"",""time""
""fullscreenenter"",""0"",""1664""
","""event"",""trial"",""time""
""fullscreenexit"",""64"",""284385""
","null","<p></p>","null","","","","","","","","","","","","","","","","","","","","","","","",""
"","do_trial","77","316251","0.0-48.0-0.0","""event"",""trial"",""time""
""fullscreenenter"",""0"",""1664""
""blur"",""64"",""284377""
""focus"",""64"",""284384""
""fullscreenexit"",""64"",""284385""
","""event"",""trial"",""time""
""blur"",""64"",""284377""
","""event"",""trial"",""time""
""focus"",""64"",""284384""
","""event"",""trial"",""time""
""fullscreenenter"",""0"",""1664""
","""event"",""trial"",""time""
""fullscreenexit"",""64"",""284385""
","1017.5999999998603","","","","","","","","51","1,0,0","6","blank","259","null","0.570441865585386","0.41611378789254533","0.19069173162589587","0","","","","","","","","",""
"","html-keyboard-response","78","317254","0.0-48.0-1.0","""event"",""trial"",""time""
""fullscreenenter"",""0"",""1664""
""blur"",""64"",""284377""
""focus"",""64"",""284384""
""fullscreenexit"",""64"",""284385""
","""event"",""trial"",""time""
""blur"",""64"",""284377""
","""event"",""trial"",""time""
""focus"",""64"",""284384""
","""event"",""trial"",""time""
""fullscreenenter"",""0"",""1664""
","""event"",""trial"",""time""
""fullscreenexit"",""64"",""284385""
","null","<p></p>","null","","","","","","","","","","","","","","","","","","","","","","","",""
"","do_recog","79","320993","0.0-49.0-0.0","""event"",""trial"",""time""
""fullscreenenter"",""0"",""1664""
""blur"",""64"",""284377""
""focus"",""64"",""284384""
""fullscreenexit"",""64"",""284385""
","""event"",""trial"",""time""
""blur"",""64"",""284377""
","""event"",""trial"",""time""
""focus"",""64"",""284384""
","""event"",""trial"",""time""
""fullscreenenter"",""0"",""1664""
","""event"",""trial"",""time""
""fullscreenexit"",""64"",""284385""
","2233.899999999907","","","","","","","","53","","","","260","probe-69","","","","","1","[object Object]","156","3","1","","","",""
"","html-keyboard-response","80","321995","0.0-49.0-1.0","""event"",""trial"",""time""
""fullscreenenter"",""0"",""1664""
""blur"",""64"",""284377""
""focus"",""64"",""284384""
""fullscreenexit"",""64"",""284385""
","""event"",""trial"",""time""
""blur"",""64"",""284377""
","""event"",""trial"",""time""
""focus"",""64"",""284384""
","""event"",""trial"",""time""
""fullscreenenter"",""0"",""1664""
","""event"",""trial"",""time""
""fullscreenexit"",""64"",""284385""
","null","<p></p>","null","","","","","","","","","","","","","","","","","","","","","","","",""
"","do_trial","81","325779","0.0-50.0-0.0","""event"",""trial"",""time""
""fullscreenenter"",""0"",""1664""
""blur"",""64"",""284377""
""focus"",""64"",""284384""
""fullscreenexit"",""64"",""284385""
","""event"",""trial"",""time""
""blur"",""64"",""284377""
","""event"",""trial"",""time""
""focus"",""64"",""284384""
","""event"",""trial"",""time""
""fullscreenenter"",""0"",""1664""
","""event"",""trial"",""time""
""fullscreenexit"",""64"",""284385""
","1228.2000000001863","","","","","","","","50","0,0,0","6","blank","261","null","0.5670932982619694","0.4931789278273658","0.09643333737513507","0","","","","","","","","",""
"","html-keyboard-response","82","326780","0.0-50.0-1.0","""event"",""trial"",""time""
""fullscreenenter"",""0"",""1664""
""blur"",""64"",""284377""
""focus"",""64"",""284384""
""fullscreenexit"",""64"",""284385""
","""event"",""trial"",""time""
""blur"",""64"",""284377""
","""event"",""trial"",""time""
""focus"",""64"",""284384""
","""event"",""trial"",""time""
""fullscreenenter"",""0"",""1664""
","""event"",""trial"",""time""
""fullscreenexit"",""64"",""284385""
","null","<p></p>","null","","","","","","","","","","","","","","","","","","","","","","","",""
"","do_trial","83","330979","0.0-51.0-0.0","""event"",""trial"",""time""
""fullscreenenter"",""0"",""1664""
""blur"",""64"",""284377""
""focus"",""64"",""284384""
""fullscreenexit"",""64"",""284385""
","""event"",""trial"",""time""
""blur"",""64"",""284377""
","""event"",""trial"",""time""
""focus"",""64"",""284384""
","""event"",""trial"",""time""
""fullscreenenter"",""0"",""1664""
","""event"",""trial"",""time""
""fullscreenexit"",""64"",""284385""
","1638","","","","","","","","50","0,1,0","6","blank","262","null","0.6731313075638452","0.3796860029486857","0.06370137664481744","1","","","","","","","","",""
"","html-keyboard-response","84","331981","0.0-51.0-1.0","""event"",""trial"",""time""
""fullscreenenter"",""0"",""1664""
""blur"",""64"",""284377""
""focus"",""64"",""284384""
""fullscreenexit"",""64"",""284385""
","""event"",""trial"",""time""
""blur"",""64"",""284377""
","""event"",""trial"",""time""
""focus"",""64"",""284384""
","""event"",""trial"",""time""
""fullscreenenter"",""0"",""1664""
","""event"",""trial"",""time""
""fullscreenexit"",""64"",""284385""
","null","<p></p>","null","","","","","","","","","","","","","","","","","","","","","","","",""
"","do_trial","85","336204","0.0-52.0-0.0","""event"",""trial"",""time""
""fullscreenenter"",""0"",""1664""
""blur"",""64"",""284377""
""focus"",""64"",""284384""
""fullscreenexit"",""64"",""284385""
","""event"",""trial"",""time""
""blur"",""64"",""284377""
","""event"",""trial"",""time""
""focus"",""64"",""284384""
","""event"",""trial"",""time""
""fullscreenenter"",""0"",""1664""
","""event"",""trial"",""time""
""fullscreenexit"",""64"",""284385""
","1663.6999999999534","","","","","","","","51","0,0,0","6","blank","263","null","0.55989290410974","0.3861333675459251","0.22788892108461822","0","","","","","","","","",""
"","html-keyboard-response","86","337206","0.0-52.0-1.0","""event"",""trial"",""time""
""fullscreenenter"",""0"",""1664""
""blur"",""64"",""284377""
""focus"",""64"",""284384""
""fullscreenexit"",""64"",""284385""
","""event"",""trial"",""time""
""blur"",""64"",""284377""
","""event"",""trial"",""time""
""focus"",""64"",""284384""
","""event"",""trial"",""time""
""fullscreenenter"",""0"",""1664""
","""event"",""trial"",""time""
""fullscreenexit"",""64"",""284385""
","null","<p></p>","null","","","","","","","","","","","","","","","","","","","","","","","",""
"","do_trial","87","339912","0.0-53.0-0.0","""event"",""trial"",""time""
""fullscreenenter"",""0"",""1664""
""blur"",""64"",""284377""
""focus"",""64"",""284384""
""fullscreenexit"",""64"",""284385""
","""event"",""trial"",""time""
""blur"",""64"",""284377""
","""event"",""trial"",""time""
""focus"",""64"",""284384""
","""event"",""trial"",""time""
""fullscreenenter"",""0"",""1664""
","""event"",""trial"",""time""
""fullscreenexit"",""64"",""284385""
","151.30000000004657","","","","","","","","50","1,0,0","6","blank","264","null","0.5068265793421524","0.3870681646847227","0.16199415526911426","0","","","","","","","","",""
"","html-keyboard-response","88","340914","0.0-53.0-1.0","""event"",""trial"",""time""
""fullscreenenter"",""0"",""1664""
""blur"",""64"",""284377""
""focus"",""64"",""284384""
""fullscreenexit"",""64"",""284385""
","""event"",""trial"",""time""
""blur"",""64"",""284377""
","""event"",""trial"",""time""
""focus"",""64"",""284384""
","""event"",""trial"",""time""
""fullscreenenter"",""0"",""1664""
","""event"",""trial"",""time""
""fullscreenexit"",""64"",""284385""
","null","<p></p>","null","","","","","","","","","","","","","","","","","","","","","","","",""
"","do_trial","89","343731","0.0-54.0-0.0","""event"",""trial"",""time""
""fullscreenenter"",""0"",""1664""
""blur"",""64"",""284377""
""focus"",""64"",""284384""
""fullscreenexit"",""64"",""284385""
","""event"",""trial"",""time""
""blur"",""64"",""284377""
","""event"",""trial"",""time""
""focus"",""64"",""284384""
","""event"",""trial"",""time""
""fullscreenenter"",""0"",""1664""
","""event"",""trial"",""time""
""fullscreenexit"",""64"",""284385""
","261.70000000018626","","","","","","","","49","0,0,0","6","blank","265","null","0.536579003266114","0.3668658959220376","0.2344786125448246","0","","","","","","","","",""
"","html-keyboard-response","90","344733","0.0-54.0-1.0","""event"",""trial"",""time""
""fullscreenenter"",""0"",""1664""
""blur"",""64"",""284377""
""focus"",""64"",""284384""
""fullscreenexit"",""64"",""284385""
","""event"",""trial"",""time""
""blur"",""64"",""284377""
","""event"",""trial"",""time""
""focus"",""64"",""284384""
","""event"",""trial"",""time""
""fullscreenenter"",""0"",""1664""
","""event"",""trial"",""time""
""fullscreenexit"",""64"",""284385""
","null","<p></p>","null","","","","","","","","","","","","","","","","","","","","","","","",""
"","do_trial","91","347889","0.0-55.0-0.0","""event"",""trial"",""time""
""fullscreenenter"",""0"",""1664""
""blur"",""64"",""284377""
""focus"",""64"",""284384""
""fullscreenexit"",""64"",""284385""
","""event"",""trial"",""time""
""blur"",""64"",""284377""
","""event"",""trial"",""time""
""focus"",""64"",""284384""
","""event"",""trial"",""time""
""fullscreenenter"",""0"",""1664""
","""event"",""trial"",""time""
""fullscreenexit"",""64"",""284385""
","601.2000000001863","","","","","","","","50","1,0,0","6","blank","266","null","0.6210314978638756","0.31731866886452786","0.22879177587476004","0","","","","","","","","",""
"","html-keyboard-response","92","348891","0.0-55.0-1.0","""event"",""trial"",""time""
""fullscreenenter"",""0"",""1664""
""blur"",""64"",""284377""
""focus"",""64"",""284384""
""fullscreenexit"",""64"",""284385""
","""event"",""trial"",""time""
""blur"",""64"",""284377""
","""event"",""trial"",""time""
""focus"",""64"",""284384""
","""event"",""trial"",""time""
""fullscreenenter"",""0"",""1664""
","""event"",""trial"",""time""
""fullscreenexit"",""64"",""284385""
","null","<p></p>","null","","","","","","","","","","","","","","","","","","","","","","","",""
"","do_recog","93","352565","0.0-56.0-0.0","""event"",""trial"",""time""
""fullscreenenter"",""0"",""1664""
""blur"",""64"",""284377""
""focus"",""64"",""284384""
""fullscreenexit"",""64"",""284385""
","""event"",""trial"",""time""
""blur"",""64"",""284377""
","""event"",""trial"",""time""
""focus"",""64"",""284384""
","""event"",""trial"",""time""
""fullscreenenter"",""0"",""1664""
","""event"",""trial"",""time""
""fullscreenexit"",""64"",""284385""
","2166.8000000000466","","","","","","","","53","","","","267","probe-34","","","","","1","[object Object]","191","4","1","","","",""
"","html-keyboard-response","94","353567","0.0-56.0-1.0","""event"",""trial"",""time""
""fullscreenenter"",""0"",""1664""
""blur"",""64"",""284377""
""focus"",""64"",""284384""
""fullscreenexit"",""64"",""284385""
","""event"",""trial"",""time""
""blur"",""64"",""284377""
","""event"",""trial"",""time""
""focus"",""64"",""284384""
","""event"",""trial"",""time""
""fullscreenenter"",""0"",""1664""
","""event"",""trial"",""time""
""fullscreenexit"",""64"",""284385""
","null","<p></p>","null","","","","","","","","","","","","","","","","","","","","","","","",""
"","do_trial","95","358290","0.0-57.0-0.0","""event"",""trial"",""time""
""fullscreenenter"",""0"",""1664""
""blur"",""64"",""284377""
""focus"",""64"",""284384""
""fullscreenexit"",""64"",""284385""
","""event"",""trial"",""time""
""blur"",""64"",""284377""
","""event"",""trial"",""time""
""focus"",""64"",""284384""
","""event"",""trial"",""time""
""fullscreenenter"",""0"",""1664""
","""event"",""trial"",""time""
""fullscreenexit"",""64"",""284385""
","2167.600000000093","","","","","","","","51","1,1,1","6","blank","268","null","0.6367595023461011","0.3433601444776042","0.2249260512091268","1","","","","","","","","",""
"","html-keyboard-response","96","359292","0.0-57.0-1.0","""event"",""trial"",""time""
""fullscreenenter"",""0"",""1664""
""blur"",""64"",""284377""
""focus"",""64"",""284384""
""fullscreenexit"",""64"",""284385""
","""event"",""trial"",""time""
""blur"",""64"",""284377""
","""event"",""trial"",""time""
""focus"",""64"",""284384""
","""event"",""trial"",""time""
""fullscreenenter"",""0"",""1664""
","""event"",""trial"",""time""
""fullscreenexit"",""64"",""284385""
","null","<p></p>","null","","","","","","","","","","","","","","","","","","","","","","","",""
"","break","97","407553","0.0-58.0-0.0","""event"",""trial"",""time""
""fullscreenenter"",""0"",""1664""
""blur"",""64"",""284377""
""focus"",""64"",""284384""
""fullscreenexit"",""64"",""284385""
","""event"",""trial"",""time""
""blur"",""64"",""284377""
","""event"",""trial"",""time""
""focus"",""64"",""284384""
","""event"",""trial"",""time""
""fullscreenenter"",""0"",""1664""
","""event"",""trial"",""time""
""fullscreenexit"",""64"",""284385""
","48259.10000000009","<div class='center'><p>Time to take a quick break! You have 2 minutes to rest, but you can move on sooner if you'd like.</p><p> Press the <b>space bar</b> to continue.</p></div>","32","","","","","","","","","","","","","","","","","","","","","","","",""
"","do_trial","98","411569","0.0-58.0-1.0","""event"",""trial"",""time""
""fullscreenenter"",""0"",""1664""
""blur"",""64"",""284377""
""focus"",""64"",""284384""
""fullscreenexit"",""64"",""284385""
","""event"",""trial"",""time""
""blur"",""64"",""284377""
","""event"",""trial"",""time""
""focus"",""64"",""284384""
","""event"",""trial"",""time""
""fullscreenenter"",""0"",""1664""
","""event"",""trial"",""time""
""fullscreenexit"",""64"",""284385""
","1459.6999999999534","","","","","","","","50","1,0,0","6","blank","269","null","0.7060897124366651","0.3959062008129934","0.15202251642370881","0","","","","","","","","",""
"","html-keyboard-response","99","412571","0.0-58.0-2.0","""event"",""trial"",""time""
""fullscreenenter"",""0"",""1664""
""blur"",""64"",""284377""
""focus"",""64"",""284384""
""fullscreenexit"",""64"",""284385""
","""event"",""trial"",""time""
""blur"",""64"",""284377""
","""event"",""trial"",""time""
""focus"",""64"",""284384""
","""event"",""trial"",""time""
""fullscreenenter"",""0"",""1664""
","""event"",""trial"",""time""
""fullscreenexit"",""64"",""284385""
","null","<p></p>","null","","","","","","","","","","","","","","","","","","","","","","","",""
"","do_trial","100","415648","0.0-59.0-0.0","""event"",""trial"",""time""
""fullscreenenter"",""0"",""1664""
""blur"",""64"",""284377""
""focus"",""64"",""284384""
""fullscreenexit"",""64"",""284385""
","""event"",""trial"",""time""
""blur"",""64"",""284377""
","""event"",""trial"",""time""
""focus"",""64"",""284384""
","""event"",""trial"",""time""
""fullscreenenter"",""0"",""1664""
","""event"",""trial"",""time""
""fullscreenexit"",""64"",""284385""
","522.2999999998137","","","","","","","","49","1,0,0","6","blank","270","null","0.676250295691097","0.26049628525320334","0.09430964119343198","1","","","","","","","","",""
"","html-keyboard-response","101","416650","0.0-59.0-1.0","""event"",""trial"",""time""
""fullscreenenter"",""0"",""1664""
""blur"",""64"",""284377""
""focus"",""64"",""284384""
""fullscreenexit"",""64"",""284385""
","""event"",""trial"",""time""
""blur"",""64"",""284377""
","""event"",""trial"",""time""
""focus"",""64"",""284384""
","""event"",""trial"",""time""
""fullscreenenter"",""0"",""1664""
","""event"",""trial"",""time""
""fullscreenexit"",""64"",""284385""
","null","<p></p>","null","","","","","","","","","","","","","","","","","","","","","","","",""
"","do_recog","102","420374","0.0-60.0-0.0","""event"",""trial"",""time""
""fullscreenenter"",""0"",""1664""
""blur"",""64"",""284377""
""focus"",""64"",""284384""
""fullscreenexit"",""64"",""284385""
","""event"",""trial"",""time""
""blur"",""64"",""284377""
","""event"",""trial"",""time""
""focus"",""64"",""284384""
","""event"",""trial"",""time""
""fullscreenenter"",""0"",""1664""
","""event"",""trial"",""time""
""fullscreenexit"",""64"",""284385""
","2217.600000000093","","","","","","","","53","","","","271","probe-47","","","","","1","[object Object]","33","0","1","","","",""
"","html-keyboard-response","103","421376","0.0-60.0-1.0","""event"",""trial"",""time""
""fullscreenenter"",""0"",""1664""
""blur"",""64"",""284377""
""focus"",""64"",""284384""
""fullscreenexit"",""64"",""284385""
","""event"",""trial"",""time""
""blur"",""64"",""284377""
","""event"",""trial"",""time""
""focus"",""64"",""284384""
","""event"",""trial"",""time""
""fullscreenenter"",""0"",""1664""
","""event"",""trial"",""time""
""fullscreenexit"",""64"",""284385""
","null","<p></p>","null","","","","","","","","","","","","","","","","","","","","","","","",""
"","do_trial","104","427431","0.0-61.0-0.0","""event"",""trial"",""time""
""fullscreenenter"",""0"",""1664""
""blur"",""64"",""284377""
""focus"",""64"",""284384""
""fullscreenexit"",""64"",""284385""
","""event"",""trial"",""time""
""blur"",""64"",""284377""
","""event"",""trial"",""time""
""focus"",""64"",""284384""
","""event"",""trial"",""time""
""fullscreenenter"",""0"",""1664""
","""event"",""trial"",""time""
""fullscreenexit"",""64"",""284385""
","null","","","","","","","","null","1,0,1","6","blank","272","null","0.560884392119109","0.25432700818121934","0.10018643210978352","","","","","","","","","",""
"","html-keyboard-response","105","428432","0.0-61.0-1.0","""event"",""trial"",""time""
""fullscreenenter"",""0"",""1664""
""blur"",""64"",""284377""
""focus"",""64"",""284384""
""fullscreenexit"",""64"",""284385""
","""event"",""trial"",""time""
""blur"",""64"",""284377""
","""event"",""trial"",""time""
""focus"",""64"",""284384""
","""event"",""trial"",""time""
""fullscreenenter"",""0"",""1664""
","""event"",""trial"",""time""
""fullscreenexit"",""64"",""284385""
","null","<p></p>","null","","","","","","","","","","","","","","","","","","","","","","","",""
"","do_trial","106","431070","0.0-62.0-0.0","""event"",""trial"",""time""
""fullscreenenter"",""0"",""1664""
""blur"",""64"",""284377""
""focus"",""64"",""284384""
""fullscreenexit"",""64"",""284385""
","""event"",""trial"",""time""
""blur"",""64"",""284377""
","""event"",""trial"",""time""
""focus"",""64"",""284384""
","""event"",""trial"",""time""
""fullscreenenter"",""0"",""1664""
","""event"",""trial"",""time""
""fullscreenexit"",""64"",""284385""
","81","","","","","","","","50","1,0,0","6","blank","273","null","0.5515404010456606","0.2243169747047119","0.08633357646692291","0","","","","","","","","",""
"","html-keyboard-response","107","432073","0.0-62.0-1.0","""event"",""trial"",""time""
""fullscreenenter"",""0"",""1664""
""blur"",""64"",""284377""
""focus"",""64"",""284384""
""fullscreenexit"",""64"",""284385""
","""event"",""trial"",""time""
""blur"",""64"",""284377""
","""event"",""trial"",""time""
""focus"",""64"",""284384""
","""event"",""trial"",""time""
""fullscreenenter"",""0"",""1664""
","""event"",""trial"",""time""
""fullscreenexit"",""64"",""284385""
","null","<p></p>","null","","","","","","","","","","","","","","","","","","","","","","","",""
"","do_trial","108","434703","0.0-63.0-0.0","""event"",""trial"",""time""
""fullscreenenter"",""0"",""1664""
""blur"",""64"",""284377""
""focus"",""64"",""284384""
""fullscreenexit"",""64"",""284385""
","""event"",""trial"",""time""
""blur"",""64"",""284377""
","""event"",""trial"",""time""
""focus"",""64"",""284384""
","""event"",""trial"",""time""
""fullscreenenter"",""0"",""1664""
","""event"",""trial"",""time""
""fullscreenexit"",""64"",""284385""
","74.39999999990687","","","","","","","","50","0,1,0","6","blank","274","null","0.4919289318340704","0.339805510906222","0.2369137359973027","1","","","","","","","","",""
"","html-keyboard-response","109","435705","0.0-63.0-1.0","""event"",""trial"",""time""
""fullscreenenter"",""0"",""1664""
""blur"",""64"",""284377""
""focus"",""64"",""284384""
""fullscreenexit"",""64"",""284385""
","""event"",""trial"",""time""
""blur"",""64"",""284377""
","""event"",""trial"",""time""
""focus"",""64"",""284384""
","""event"",""trial"",""time""
""fullscreenenter"",""0"",""1664""
","""event"",""trial"",""time""
""fullscreenexit"",""64"",""284385""
","null","<p></p>","null","","","","","","","","","","","","","","","","","","","","","","","",""
"","do_recog","110","439149","0.0-64.0-0.0","""event"",""trial"",""time""
""fullscreenenter"",""0"",""1664""
""blur"",""64"",""284377""
""focus"",""64"",""284384""
""fullscreenexit"",""64"",""284385""
","""event"",""trial"",""time""
""blur"",""64"",""284377""
","""event"",""trial"",""time""
""focus"",""64"",""284384""
","""event"",""trial"",""time""
""fullscreenenter"",""0"",""1664""
","""event"",""trial"",""time""
""fullscreenexit"",""64"",""284385""
","1938.3999999999069","","","","","","","","53","","","","275","probe-71","","","","","1","[object Object]","115","2","1","","","",""
"","html-keyboard-response","111","440151","0.0-64.0-1.0","""event"",""trial"",""time""
""fullscreenenter"",""0"",""1664""
""blur"",""64"",""284377""
""focus"",""64"",""284384""
""fullscreenexit"",""64"",""284385""
","""event"",""trial"",""time""
""blur"",""64"",""284377""
","""event"",""trial"",""time""
""focus"",""64"",""284384""
","""event"",""trial"",""time""
""fullscreenenter"",""0"",""1664""
","""event"",""trial"",""time""
""fullscreenexit"",""64"",""284385""
","null","<p></p>","null","","","","","","","","","","","","","","","","","","","","","","","",""
"","do_trial","112","442709","0.0-65.0-0.0","""event"",""trial"",""time""
""fullscreenenter"",""0"",""1664""
""blur"",""64"",""284377""
""focus"",""64"",""284384""
""fullscreenexit"",""64"",""284385""
","""event"",""trial"",""time""
""blur"",""64"",""284377""
","""event"",""trial"",""time""
""focus"",""64"",""284384""
","""event"",""trial"",""time""
""fullscreenenter"",""0"",""1664""
","""event"",""trial"",""time""
""fullscreenexit"",""64"",""284385""
","0.39999999990686774","","","","","","","","49","1,0,0","6","blank","276","null","0.5460538748291275","0.2815606509607044","0.25175180638394706","1","","","","","","","","",""
"","html-keyboard-response","113","443711","0.0-65.0-1.0","""event"",""trial"",""time""
""fullscreenenter"",""0"",""1664""
""blur"",""64"",""284377""
""focus"",""64"",""284384""
""fullscreenexit"",""64"",""284385""
","""event"",""trial"",""time""
""blur"",""64"",""284377""
","""event"",""trial"",""time""
""focus"",""64"",""284384""
","""event"",""trial"",""time""
""fullscreenenter"",""0"",""1664""
","""event"",""trial"",""time""
""fullscreenexit"",""64"",""284385""
","null","<p></p>","null","","","","","","","","","","","","","","","","","","","","","","","",""
"","do_trial","114","446687","0.0-66.0-0.0","""event"",""trial"",""time""
""fullscreenenter"",""0"",""1664""
""blur"",""64"",""284377""
""focus"",""64"",""284384""
""fullscreenexit"",""64"",""284385""
","""event"",""trial"",""time""
""blur"",""64"",""284377""
","""event"",""trial"",""time""
""focus"",""64"",""284384""
","""event"",""trial"",""time""
""fullscreenenter"",""0"",""1664""
","""event"",""trial"",""time""
""fullscreenexit"",""64"",""284385""
","420.89999999990687","","","","","","","","51","0,1,0","6","blank","277","null","0.412428329371719","0.4348187460792268","0.22520160369346837","0","","","","","","","","",""
"","html-keyboard-response","115","447695","0.0-66.0-1.0","""event"",""trial"",""time""
""fullscreenenter"",""0"",""1664""
""blur"",""64"",""284377""
""focus"",""64"",""284384""
""fullscreenexit"",""64"",""284385""
","""event"",""trial"",""time""
""blur"",""64"",""284377""
","""event"",""trial"",""time""
""focus"",""64"",""284384""
","""event"",""trial"",""time""
""fullscreenenter"",""0"",""1664""
","""event"",""trial"",""time""
""fullscreenexit"",""64"",""284385""
","null","<p></p>","null","","","","","","","","","","","","","","","","","","","","","","","",""
"","do_trial","116","450544","0.0-67.0-0.0","""event"",""trial"",""time""
""fullscreenenter"",""0"",""1664""
""blur"",""64"",""284377""
""focus"",""64"",""284384""
""fullscreenexit"",""64"",""284385""
","""event"",""trial"",""time""
""blur"",""64"",""284377""
","""event"",""trial"",""time""
""focus"",""64"",""284384""
","""event"",""trial"",""time""
""fullscreenenter"",""0"",""1664""
","""event"",""trial"",""time""
""fullscreenexit"",""64"",""284385""
","293.5999999998603","","","","","","","","51","0,0,0","6","blank","278","null","0.39255001229421616","0.43493436318074474","0.08074070136877637","0","","","","","","","","",""
"","html-keyboard-response","117","451546","0.0-67.0-1.0","""event"",""trial"",""time""
""fullscreenenter"",""0"",""1664""
""blur"",""64"",""284377""
""focus"",""64"",""284384""
""fullscreenexit"",""64"",""284385""
","""event"",""trial"",""time""
""blur"",""64"",""284377""
","""event"",""trial"",""time""
""focus"",""64"",""284384""
","""event"",""trial"",""time""
""fullscreenenter"",""0"",""1664""
","""event"",""trial"",""time""
""fullscreenexit"",""64"",""284385""
","null","<p></p>","null","","","","","","","","","","","","","","","","","","","","","","","",""
"","do_recog","118","454644","0.0-68.0-0.0","""event"",""trial"",""time""
""fullscreenenter"",""0"",""1664""
""blur"",""64"",""284377""
""focus"",""64"",""284384""
""fullscreenexit"",""64"",""284385""
","""event"",""trial"",""time""
""blur"",""64"",""284377""
","""event"",""trial"",""time""
""focus"",""64"",""284384""
","""event"",""trial"",""time""
""fullscreenenter"",""0"",""1664""
","""event"",""trial"",""time""
""fullscreenexit"",""64"",""284385""
","1592.2000000001863","","","","","","","","53","","","","279","probe-139","","","","","1","[object Object]","36","0","1","","","",""
"","html-keyboard-response","119","455646","0.0-68.0-1.0","""event"",""trial"",""time""
""fullscreenenter"",""0"",""1664""
""blur"",""64"",""284377""
""focus"",""64"",""284384""
""fullscreenexit"",""64"",""284385""
","""event"",""trial"",""time""
""blur"",""64"",""284377""
","""event"",""trial"",""time""
""focus"",""64"",""284384""
","""event"",""trial"",""time""
""fullscreenenter"",""0"",""1664""
","""event"",""trial"",""time""
""fullscreenexit"",""64"",""284385""
","null","<p></p>","null","","","","","","","","","","","","","","","","","","","","","","","",""
"","do_trial","120","458682","0.0-69.0-0.0","""event"",""trial"",""time""
""fullscreenenter"",""0"",""1664""
""blur"",""64"",""284377""
""focus"",""64"",""284384""
""fullscreenexit"",""64"",""284385""
","""event"",""trial"",""time""
""blur"",""64"",""284377""
","""event"",""trial"",""time""
""focus"",""64"",""284384""
","""event"",""trial"",""time""
""fullscreenenter"",""0"",""1664""
","""event"",""trial"",""time""
""fullscreenexit"",""64"",""284385""
","479.80000000004657","","","","","","","","50","1,1,0","6","blank","280","null","0.4256479769531795","0.3416192766802408","0.06366892602541047","1","","","","","","","","",""
"","html-keyboard-response","121","459684","0.0-69.0-1.0","""event"",""trial"",""time""
""fullscreenenter"",""0"",""1664""
""blur"",""64"",""284377""
""focus"",""64"",""284384""
""fullscreenexit"",""64"",""284385""
","""event"",""trial"",""time""
""blur"",""64"",""284377""
","""event"",""trial"",""time""
""focus"",""64"",""284384""
","""event"",""trial"",""time""
""fullscreenenter"",""0"",""1664""
","""event"",""trial"",""time""
""fullscreenexit"",""64"",""284385""
","null","<p></p>","null","","","","","","","","","","","","","","","","","","","","","","","",""
"","do_trial","122","462390","0.0-70.0-0.0","""event"",""trial"",""time""
""fullscreenenter"",""0"",""1664""
""blur"",""64"",""284377""
""focus"",""64"",""284384""
""fullscreenexit"",""64"",""284385""
","""event"",""trial"",""time""
""blur"",""64"",""284377""
","""event"",""trial"",""time""
""focus"",""64"",""284384""
","""event"",""trial"",""time""
""fullscreenenter"",""0"",""1664""
","""event"",""trial"",""time""
""fullscreenexit"",""64"",""284385""
","151.39999999990687","","","","","","","","50","1,0,0","6","blank","281","null","0.7011969322803951","0.44665822109880976","0.06543670883763761","0","","","","","","","","",""
"","html-keyboard-response","123","463392","0.0-70.0-1.0","""event"",""trial"",""time""
""fullscreenenter"",""0"",""1664""
""blur"",""64"",""284377""
""focus"",""64"",""284384""
""fullscreenexit"",""64"",""284385""
","""event"",""trial"",""time""
""blur"",""64"",""284377""
","""event"",""trial"",""time""
""focus"",""64"",""284384""
","""event"",""trial"",""time""
""fullscreenenter"",""0"",""1664""
","""event"",""trial"",""time""
""fullscreenexit"",""64"",""284385""
","null","<p></p>","null","","","","","","","","","","","","","","","","","","","","","","","",""
"","do_trial","124","465947","0.0-71.0-0.0","""event"",""trial"",""time""
""fullscreenenter"",""0"",""1664""
""blur"",""64"",""284377""
""focus"",""64"",""284384""
""fullscreenexit"",""64"",""284385""
","""event"",""trial"",""time""
""blur"",""64"",""284377""
","""event"",""trial"",""time""
""focus"",""64"",""284384""
","""event"",""trial"",""time""
""fullscreenenter"",""0"",""1664""
","""event"",""trial"",""time""
""fullscreenexit"",""64"",""284385""
","0.2999999998137355","","","","","","","","49","1,0,0","6","blank","282","null","0.7818437305717453","0.4602742759078152","0.08598447166143382","1","","","","","","","","",""
"","html-keyboard-response","125","466948","0.0-71.0-1.0","""event"",""trial"",""time""
""fullscreenenter"",""0"",""1664""
""blur"",""64"",""284377""
""focus"",""64"",""284384""
""fullscreenexit"",""64"",""284385""
","""event"",""trial"",""time""
""blur"",""64"",""284377""
","""event"",""trial"",""time""
""focus"",""64"",""284384""
","""event"",""trial"",""time""
""fullscreenenter"",""0"",""1664""
","""event"",""trial"",""time""
""fullscreenexit"",""64"",""284385""
","null","<p></p>","null","","","","","","","","","","","","","","","","","","","","","","","",""
"","do_trial","126","469558","0.0-72.0-0.0","""event"",""trial"",""time""
""fullscreenenter"",""0"",""1664""
""blur"",""64"",""284377""
""focus"",""64"",""284384""
""fullscreenexit"",""64"",""284385""
","""event"",""trial"",""time""
""blur"",""64"",""284377""
","""event"",""trial"",""time""
""focus"",""64"",""284384""
","""event"",""trial"",""time""
""fullscreenenter"",""0"",""1664""
","""event"",""trial"",""time""
""fullscreenexit"",""64"",""284385""
","54","","","","","","","","49","1,0,0","6","blank","283","null","0.7496505825994076","0.3764318907930525","0.11521914247257313","1","","","","","","","","",""
"","html-keyboard-response","127","470560","0.0-72.0-1.0","""event"",""trial"",""time""
""fullscreenenter"",""0"",""1664""
""blur"",""64"",""284377""
""focus"",""64"",""284384""
""fullscreenexit"",""64"",""284385""
","""event"",""trial"",""time""
""blur"",""64"",""284377""
","""event"",""trial"",""time""
""focus"",""64"",""284384""
","""event"",""trial"",""time""
""fullscreenenter"",""0"",""1664""
","""event"",""trial"",""time""
""fullscreenexit"",""64"",""284385""
","null","<p></p>","null","","","","","","","","","","","","","","","","","","","","","","","",""
"","do_recog","128","474335","0.0-73.0-0.0","""event"",""trial"",""time""
""fullscreenenter"",""0"",""1664""
""blur"",""64"",""284377""
""focus"",""64"",""284384""
""fullscreenexit"",""64"",""284385""
","""event"",""trial"",""time""
""blur"",""64"",""284377""
","""event"",""trial"",""time""
""focus"",""64"",""284384""
","""event"",""trial"",""time""
""fullscreenenter"",""0"",""1664""
","""event"",""trial"",""time""
""fullscreenexit"",""64"",""284385""
","2268.5","","","","","","","","53","","","","284","probe-147","","","","","1","[object Object]","190","4","1","","","",""
"","html-keyboard-response","129","475337","0.0-73.0-1.0","""event"",""trial"",""time""
""fullscreenenter"",""0"",""1664""
""blur"",""64"",""284377""
""focus"",""64"",""284384""
""fullscreenexit"",""64"",""284385""
","""event"",""trial"",""time""
""blur"",""64"",""284377""
","""event"",""trial"",""time""
""focus"",""64"",""284384""
","""event"",""trial"",""time""
""fullscreenenter"",""0"",""1664""
","""event"",""trial"",""time""
""fullscreenexit"",""64"",""284385""
","null","<p></p>","null","","","","","","","","","","","","","","","","","","","","","","","",""
"","do_trial","130","479366","0.0-74.0-0.0","""event"",""trial"",""time""
""fullscreenenter"",""0"",""1664""
""blur"",""64"",""284377""
""focus"",""64"",""284384""
""fullscreenexit"",""64"",""284385""
","""event"",""trial"",""time""
""blur"",""64"",""284377""
","""event"",""trial"",""time""
""focus"",""64"",""284384""
","""event"",""trial"",""time""
""fullscreenenter"",""0"",""1664""
","""event"",""trial"",""time""
""fullscreenexit"",""64"",""284385""
","1475.1000000000931","","","","","","","","50","0,0,0","6","blank","285","null","0.6056445727539114","0.3954959751491917","0.16381869244256594","0","","","","","","","","",""
"","html-keyboard-response","131","480368","0.0-74.0-1.0","""event"",""trial"",""time""
""fullscreenenter"",""0"",""1664""
""blur"",""64"",""284377""
""focus"",""64"",""284384""
""fullscreenexit"",""64"",""284385""
","""event"",""trial"",""time""
""blur"",""64"",""284377""
","""event"",""trial"",""time""
""focus"",""64"",""284384""
","""event"",""trial"",""time""
""fullscreenenter"",""0"",""1664""
","""event"",""trial"",""time""
""fullscreenexit"",""64"",""284385""
","null","<p></p>","null","","","","","","","","","","","","","","","","","","","","","","","",""
"","do_trial","132","483087","0.0-75.0-0.0","""event"",""trial"",""time""
""fullscreenenter"",""0"",""1664""
""blur"",""64"",""284377""
""focus"",""64"",""284384""
""fullscreenexit"",""64"",""284385""
","""event"",""trial"",""time""
""blur"",""64"",""284377""
","""event"",""trial"",""time""
""focus"",""64"",""284384""
","""event"",""trial"",""time""
""fullscreenenter"",""0"",""1664""
","""event"",""trial"",""time""
""fullscreenexit"",""64"",""284385""
","163.30000000004657","","","","","","","","49","1,0,0","6","blank","286","null","0.6396890458316393","0.42245614713609997","0.1713625904992057","1","","","","","","","","",""
"","html-keyboard-response","133","484089","0.0-75.0-1.0","""event"",""trial"",""time""
""fullscreenenter"",""0"",""1664""
""blur"",""64"",""284377""
""focus"",""64"",""284384""
""fullscreenexit"",""64"",""284385""
""blur"",""134"",""489557""
""focus"",""134"",""489558""
","""event"",""trial"",""time""
""blur"",""64"",""284377""
""blur"",""134"",""489557""
","""event"",""trial"",""time""
""focus"",""64"",""284384""
""focus"",""134"",""489558""
","""event"",""trial"",""time""
""fullscreenenter"",""0"",""1664""
","""event"",""trial"",""time""
""fullscreenexit"",""64"",""284385""
","null","<p></p>","null","","","","","","","","","","","","","","","","","","","","","","","",""
"","do_trial","134","489560","0.0-76.0-0.0","""event"",""trial"",""time""
""fullscreenenter"",""0"",""1664""
""blur"",""64"",""284377""
""focus"",""64"",""284384""
""fullscreenexit"",""64"",""284385""
""blur"",""134"",""489557""
""focus"",""134"",""489558""
","""event"",""trial"",""time""
""blur"",""64"",""284377""
""blur"",""134"",""489557""
","""event"",""trial"",""time""
""focus"",""64"",""284384""
""focus"",""134"",""489558""
","""event"",""trial"",""time""
""fullscreenenter"",""0"",""1664""
","""event"",""trial"",""time""
""fullscreenexit"",""64"",""284385""
","0.2999999998137355","","","","","","","","49","1,1,0","6","blank","287","null","0.6280917256422256","0.3743758450046223","0.06814083253517131","1","","","","","","","","",""
"","html-keyboard-response","135","490562","0.0-76.0-1.0","""event"",""trial"",""time""
""fullscreenenter"",""0"",""1664""
""blur"",""64"",""284377""
""focus"",""64"",""284384""
""fullscreenexit"",""64"",""284385""
""blur"",""134"",""489557""
""focus"",""134"",""489558""
","""event"",""trial"",""time""
""blur"",""64"",""284377""
""blur"",""134"",""489557""
","""event"",""trial"",""time""
""focus"",""64"",""284384""
""focus"",""134"",""489558""
","""event"",""trial"",""time""
""fullscreenenter"",""0"",""1664""
","""event"",""trial"",""time""
""fullscreenexit"",""64"",""284385""
","null","<p></p>","null","","","","","","","","","","","","","","","","","","","","","","","",""
"","do_trial","136","494132","0.0-77.0-0.0","""event"",""trial"",""time""
""fullscreenenter"",""0"",""1664""
""blur"",""64"",""284377""
""focus"",""64"",""284384""
""fullscreenexit"",""64"",""284385""
""blur"",""134"",""489557""
""focus"",""134"",""489558""
","""event"",""trial"",""time""
""blur"",""64"",""284377""
""blur"",""134"",""489557""
","""event"",""trial"",""time""
""focus"",""64"",""284384""
""focus"",""134"",""489558""
","""event"",""trial"",""time""
""fullscreenenter"",""0"",""1664""
","""event"",""trial"",""time""
""fullscreenexit"",""64"",""284385""
","1013.8000000000466","","","","","","","","49","1,0,0","6","blank","288","null","0.64269161394835","0.3006740941917688","0.09956592149696242","1","","","","","","","","",""
"","html-keyboard-response","137","495135","0.0-77.0-1.0","""event"",""trial"",""time""
""fullscreenenter"",""0"",""1664""
""blur"",""64"",""284377""
""focus"",""64"",""284384""
""fullscreenexit"",""64"",""284385""
""blur"",""134"",""489557""
""focus"",""134"",""489558""
","""event"",""trial"",""time""
""blur"",""64"",""284377""
""blur"",""134"",""489557""
","""event"",""trial"",""time""
""focus"",""64"",""284384""
""focus"",""134"",""489558""
","""event"",""trial"",""time""
""fullscreenenter"",""0"",""1664""
","""event"",""trial"",""time""
""fullscreenexit"",""64"",""284385""
","null","<p></p>","null","","","","","","","","","","","","","","","","","","","","","","","",""
"","do_trial","138","499111","0.0-78.0-0.0","""event"",""trial"",""time""
""fullscreenenter"",""0"",""1664""
""blur"",""64"",""284377""
""focus"",""64"",""284384""
""fullscreenexit"",""64"",""284385""
""blur"",""134"",""489557""
""focus"",""134"",""489558""
","""event"",""trial"",""time""
""blur"",""64"",""284377""
""blur"",""134"",""489557""
","""event"",""trial"",""time""
""focus"",""64"",""284384""
""focus"",""134"",""489558""
","""event"",""trial"",""time""
""fullscreenenter"",""0"",""1664""
","""event"",""trial"",""time""
""fullscreenexit"",""64"",""284385""
","1421.1000000000931","","","","","","","","49","1,0,0","6","blank","289","null","0.6132465355499648","0.37384337704729836","0.10032738295964948","1","","","","","","","","",""
"","html-keyboard-response","139","500113","0.0-78.0-1.0","""event"",""trial"",""time""
""fullscreenenter"",""0"",""1664""
""blur"",""64"",""284377""
""focus"",""64"",""284384""
""fullscreenexit"",""64"",""284385""
""blur"",""134"",""489557""
""focus"",""134"",""489558""
","""event"",""trial"",""time""
""blur"",""64"",""284377""
""blur"",""134"",""489557""
","""event"",""trial"",""time""
""focus"",""64"",""284384""
""focus"",""134"",""489558""
","""event"",""trial"",""time""
""fullscreenenter"",""0"",""1664""
","""event"",""trial"",""time""
""fullscreenexit"",""64"",""284385""
","null","<p></p>","null","","","","","","","","","","","","","","","","","","","","","","","",""
"","do_recog","140","504376","0.0-79.0-0.0","""event"",""trial"",""time""
""fullscreenenter"",""0"",""1664""
""blur"",""64"",""284377""
""focus"",""64"",""284384""
""fullscreenexit"",""64"",""284385""
""blur"",""134"",""489557""
""focus"",""134"",""489558""
","""event"",""trial"",""time""
""blur"",""64"",""284377""
""blur"",""134"",""489557""
","""event"",""trial"",""time""
""focus"",""64"",""284384""
""focus"",""134"",""489558""
","""event"",""trial"",""time""
""fullscreenenter"",""0"",""1664""
","""event"",""trial"",""time""
""fullscreenexit"",""64"",""284385""
","2756.8000000000466","","","","","","","","53","","","","290","probe-45","","","","","1","[object Object]","35","0","1","","","",""
"","html-keyboard-response","141","505378","0.0-79.0-1.0","""event"",""trial"",""time""
""fullscreenenter"",""0"",""1664""
""blur"",""64"",""284377""
""focus"",""64"",""284384""
""fullscreenexit"",""64"",""284385""
""blur"",""134"",""489557""
""focus"",""134"",""489558""
","""event"",""trial"",""time""
""blur"",""64"",""284377""
""blur"",""134"",""489557""
","""event"",""trial"",""time""
""focus"",""64"",""284384""
""focus"",""134"",""489558""
","""event"",""trial"",""time""
""fullscreenenter"",""0"",""1664""
","""event"",""trial"",""time""
""fullscreenexit"",""64"",""284385""
","null","<p></p>","null","","","","","","","","","","","","","","","","","","","","","","","",""
"","do_trial","142","509719","0.0-80.0-0.0","""event"",""trial"",""time""
""fullscreenenter"",""0"",""1664""
""blur"",""64"",""284377""
""focus"",""64"",""284384""
""fullscreenexit"",""64"",""284385""
""blur"",""134"",""489557""
""focus"",""134"",""489558""
","""event"",""trial"",""time""
""blur"",""64"",""284377""
""blur"",""134"",""489557""
","""event"",""trial"",""time""
""focus"",""64"",""284384""
""focus"",""134"",""489558""
","""event"",""trial"",""time""
""fullscreenenter"",""0"",""1664""
","""event"",""trial"",""time""
""fullscreenexit"",""64"",""284385""
","1784.1000000000931","","","","","","","","49","0,1,0","6","blank","291","null","0.5858415223506389","0.4673167171733206","0.11891360740592477","0","","","","","","","","",""
"","html-keyboard-response","143","510720","0.0-80.0-1.0","""event"",""trial"",""time""
""fullscreenenter"",""0"",""1664""
""blur"",""64"",""284377""
""focus"",""64"",""284384""
""fullscreenexit"",""64"",""284385""
""blur"",""134"",""489557""
""focus"",""134"",""489558""
","""event"",""trial"",""time""
""blur"",""64"",""284377""
""blur"",""134"",""489557""
","""event"",""trial"",""time""
""focus"",""64"",""284384""
""focus"",""134"",""489558""
","""event"",""trial"",""time""
""fullscreenenter"",""0"",""1664""
","""event"",""trial"",""time""
""fullscreenexit"",""64"",""284385""
","null","<p></p>","null","","","","","","","","","","","","","","","","","","","","","","","",""
"","do_trial","144","513745","0.0-81.0-0.0","""event"",""trial"",""time""
""fullscreenenter"",""0"",""1664""
""blur"",""64"",""284377""
""focus"",""64"",""284384""
""fullscreenexit"",""64"",""284385""
""blur"",""134"",""489557""
""focus"",""134"",""489558""
","""event"",""trial"",""time""
""blur"",""64"",""284377""
""blur"",""134"",""489557""
","""event"",""trial"",""time""
""focus"",""64"",""284384""
""focus"",""134"",""489558""
","""event"",""trial"",""time""
""fullscreenenter"",""0"",""1664""
","""event"",""trial"",""time""
""fullscreenexit"",""64"",""284385""
","469.29999999981374","","","","","","","","50","1,1,0","6","blank","292","null","0.5176621526011279","0.4079729070545232","0.20784710825797015","1","","","","","","","","",""
"","html-keyboard-response","145","514748","0.0-81.0-1.0","""event"",""trial"",""time""
""fullscreenenter"",""0"",""1664""
""blur"",""64"",""284377""
""focus"",""64"",""284384""
""fullscreenexit"",""64"",""284385""
""blur"",""134"",""489557""
""focus"",""134"",""489558""
","""event"",""trial"",""time""
""blur"",""64"",""284377""
""blur"",""134"",""489557""
","""event"",""trial"",""time""
""focus"",""64"",""284384""
""focus"",""134"",""489558""
","""event"",""trial"",""time""
""fullscreenenter"",""0"",""1664""
","""event"",""trial"",""time""
""fullscreenexit"",""64"",""284385""
","null","<p></p>","null","","","","","","","","","","","","","","","","","","","","","","","",""
"","do_recog","146","517894","0.0-82.0-0.0","""event"",""trial"",""time""
""fullscreenenter"",""0"",""1664""
""blur"",""64"",""284377""
""focus"",""64"",""284384""
""fullscreenexit"",""64"",""284385""
""blur"",""134"",""489557""
""focus"",""134"",""489558""
","""event"",""trial"",""time""
""blur"",""64"",""284377""
""blur"",""134"",""489557""
","""event"",""trial"",""time""
""focus"",""64"",""284384""
""focus"",""134"",""489558""
","""event"",""trial"",""time""
""fullscreenenter"",""0"",""1664""
","""event"",""trial"",""time""
""fullscreenexit"",""64"",""284385""
","1639.1999999999534","","","","","","","","53","","","","293","probe-207","","","","","1","[object Object]","198","4","1","","","",""
"","html-keyboard-response","147","518896","0.0-82.0-1.0","""event"",""trial"",""time""
""fullscreenenter"",""0"",""1664""
""blur"",""64"",""284377""
""focus"",""64"",""284384""
""fullscreenexit"",""64"",""284385""
""blur"",""134"",""489557""
""focus"",""134"",""489558""
","""event"",""trial"",""time""
""blur"",""64"",""284377""
""blur"",""134"",""489557""
","""event"",""trial"",""time""
""focus"",""64"",""284384""
""focus"",""134"",""489558""
","""event"",""trial"",""time""
""fullscreenenter"",""0"",""1664""
","""event"",""trial"",""time""
""fullscreenexit"",""64"",""284385""
","null","<p></p>","null","","","","","","","","","","","","","","","","","","","","","","","",""
"","do_trial","148","521693","0.0-83.0-0.0","""event"",""trial"",""time""
""fullscreenenter"",""0"",""1664""
""blur"",""64"",""284377""
""focus"",""64"",""284384""
""fullscreenexit"",""64"",""284385""
""blur"",""134"",""489557""
""focus"",""134"",""489558""
","""event"",""trial"",""time""
""blur"",""64"",""284377""
""blur"",""134"",""489557""
","""event"",""trial"",""time""
""focus"",""64"",""284384""
""focus"",""134"",""489558""
","""event"",""trial"",""time""
""fullscreenenter"",""0"",""1664""
","""event"",""trial"",""time""
""fullscreenexit"",""64"",""284385""
","242","","","","","","","","50","1,1,1","6","blank","294","null","0.3806049791476741","0.5171766460763952","0.27902354845686866","1","","","","","","","","",""
"","html-keyboard-response","149","522694","0.0-83.0-1.0","""event"",""trial"",""time""
""fullscreenenter"",""0"",""1664""
""blur"",""64"",""284377""
""focus"",""64"",""284384""
""fullscreenexit"",""64"",""284385""
""blur"",""134"",""489557""
""focus"",""134"",""489558""
","""event"",""trial"",""time""
""blur"",""64"",""284377""
""blur"",""134"",""489557""
","""event"",""trial"",""time""
""focus"",""64"",""284384""
""focus"",""134"",""489558""
","""event"",""trial"",""time""
""fullscreenenter"",""0"",""1664""
","""event"",""trial"",""time""
""fullscreenexit"",""64"",""284385""
","null","<p></p>","null","","","","","","","","","","","","","","","","","","","","","","","",""
"","do_trial","150","525377","0.0-84.0-0.0","""event"",""trial"",""time""
""fullscreenenter"",""0"",""1664""
""blur"",""64"",""284377""
""focus"",""64"",""284384""
""fullscreenexit"",""64"",""284385""
""blur"",""134"",""489557""
""focus"",""134"",""489558""
","""event"",""trial"",""time""
""blur"",""64"",""284377""
""blur"",""134"",""489557""
","""event"",""trial"",""time""
""focus"",""64"",""284384""
""focus"",""134"",""489558""
","""event"",""trial"",""time""
""fullscreenenter"",""0"",""1664""
","""event"",""trial"",""time""
""fullscreenexit"",""64"",""284385""
","125.89999999990687","","","","","","","","50","0,1,1","6","blank","295","null","0.29902186116224244","0.6358718843582524","0.276912385797089","1","","","","","","","","",""
"","html-keyboard-response","151","526378","0.0-84.0-1.0","""event"",""trial"",""time""
""fullscreenenter"",""0"",""1664""
""blur"",""64"",""284377""
""focus"",""64"",""284384""
""fullscreenexit"",""64"",""284385""
""blur"",""134"",""489557""
""focus"",""134"",""489558""
","""event"",""trial"",""time""
""blur"",""64"",""284377""
""blur"",""134"",""489557""
","""event"",""trial"",""time""
""focus"",""64"",""284384""
""focus"",""134"",""489558""
","""event"",""trial"",""time""
""fullscreenenter"",""0"",""1664""
","""event"",""trial"",""time""
""fullscreenexit"",""64"",""284385""
","null","<p></p>","null","","","","","","","","","","","","","","","","","","","","","","","",""
"","do_trial","152","528942","0.0-85.0-0.0","""event"",""trial"",""time""
""fullscreenenter"",""0"",""1664""
""blur"",""64"",""284377""
""focus"",""64"",""284384""
""fullscreenexit"",""64"",""284385""
""blur"",""134"",""489557""
""focus"",""134"",""489558""
","""event"",""trial"",""time""
""blur"",""64"",""284377""
""blur"",""134"",""489557""
","""event"",""trial"",""time""
""focus"",""64"",""284384""
""focus"",""134"",""489558""
","""event"",""trial"",""time""
""fullscreenenter"",""0"",""1664""
","""event"",""trial"",""time""
""fullscreenexit"",""64"",""284385""
","8.299999999813735","","","","","","","","50","1,1,0","6","blank","296","null","0.31689185068372544","0.5570819537039272","0.22354952825041796","1","","","","","","","","",""
"","html-keyboard-response","153","529943","0.0-85.0-1.0","""event"",""trial"",""time""
""fullscreenenter"",""0"",""1664""
""blur"",""64"",""284377""
""focus"",""64"",""284384""
""fullscreenexit"",""64"",""284385""
""blur"",""134"",""489557""
""focus"",""134"",""489558""
","""event"",""trial"",""time""
""blur"",""64"",""284377""
""blur"",""134"",""489557""
","""event"",""trial"",""time""
""focus"",""64"",""284384""
""focus"",""134"",""489558""
","""event"",""trial"",""time""
""fullscreenenter"",""0"",""1664""
","""event"",""trial"",""time""
""fullscreenexit"",""64"",""284385""
","null","<p></p>","null","","","","","","","","","","","","","","","","","","","","","","","",""
"","do_trial","154","533512","0.0-86.0-0.0","""event"",""trial"",""time""
""fullscreenenter"",""0"",""1664""
""blur"",""64"",""284377""
""focus"",""64"",""284384""
""fullscreenexit"",""64"",""284385""
""blur"",""134"",""489557""
""focus"",""134"",""489558""
","""event"",""trial"",""time""
""blur"",""64"",""284377""
""blur"",""134"",""489557""
","""event"",""trial"",""time""
""focus"",""64"",""284384""
""focus"",""134"",""489558""
","""event"",""trial"",""time""
""fullscreenenter"",""0"",""1664""
","""event"",""trial"",""time""
""fullscreenexit"",""64"",""284385""
","1013","","","","","","","","50","0,1,0","6","blank","297","null","0.2712886880966698","0.6160462831494985","0.18625140266989346","1","","","","","","","","",""
"","html-keyboard-response","155","534513","0.0-86.0-1.0","""event"",""trial"",""time""
""fullscreenenter"",""0"",""1664""
""blur"",""64"",""284377""
""focus"",""64"",""284384""
""fullscreenexit"",""64"",""284385""
""blur"",""134"",""489557""
""focus"",""134"",""489558""
","""event"",""trial"",""time""
""blur"",""64"",""284377""
""blur"",""134"",""489557""
","""event"",""trial"",""time""
""focus"",""64"",""284384""
""focus"",""134"",""489558""
","""event"",""trial"",""time""
""fullscreenenter"",""0"",""1664""
","""event"",""trial"",""time""
""fullscreenexit"",""64"",""284385""
","null","<p></p>","null","","","","","","","","","","","","","","","","","","","","","","","",""
"","do_recog","156","537967","0.0-87.0-0.0","""event"",""trial"",""time""
""fullscreenenter"",""0"",""1664""
""blur"",""64"",""284377""
""focus"",""64"",""284384""
""fullscreenexit"",""64"",""284385""
""blur"",""134"",""489557""
""focus"",""134"",""489558""
","""event"",""trial"",""time""
""blur"",""64"",""284377""
""blur"",""134"",""489557""
","""event"",""trial"",""time""
""focus"",""64"",""284384""
""focus"",""134"",""489558""
","""event"",""trial"",""time""
""fullscreenenter"",""0"",""1664""
","""event"",""trial"",""time""
""fullscreenexit"",""64"",""284385""
","1947.1000000000931","","","","","","","","53","","","","298","probe-248","","","","","0","[object Object]","null","null","0","","","",""
"","html-keyboard-response","157","538969","0.0-87.0-1.0","""event"",""trial"",""time""
""fullscreenenter"",""0"",""1664""
""blur"",""64"",""284377""
""focus"",""64"",""284384""
""fullscreenexit"",""64"",""284385""
""blur"",""134"",""489557""
""focus"",""134"",""489558""
","""event"",""trial"",""time""
""blur"",""64"",""284377""
""blur"",""134"",""489557""
","""event"",""trial"",""time""
""focus"",""64"",""284384""
""focus"",""134"",""489558""
","""event"",""trial"",""time""
""fullscreenenter"",""0"",""1664""
","""event"",""trial"",""time""
""fullscreenexit"",""64"",""284385""
","null","<p></p>","null","","","","","","","","","","","","","","","","","","","","","","","",""
"","do_trial","158","541704","0.0-88.0-0.0","""event"",""trial"",""time""
""fullscreenenter"",""0"",""1664""
""blur"",""64"",""284377""
""focus"",""64"",""284384""
""fullscreenexit"",""64"",""284385""
""blur"",""134"",""489557""
""focus"",""134"",""489558""
","""event"",""trial"",""time""
""blur"",""64"",""284377""
""blur"",""134"",""489557""
","""event"",""trial"",""time""
""focus"",""64"",""284384""
""focus"",""134"",""489558""
","""event"",""trial"",""time""
""fullscreenenter"",""0"",""1664""
","""event"",""trial"",""time""
""fullscreenexit"",""64"",""284385""
","179.5999999998603","","","","","","","","50","1,0,0","6","blank","299","null","0.25238190341618333","0.5123185650950076","0.2600479616195533","0","","","","","","","","",""
"","html-keyboard-response","159","542706","0.0-88.0-1.0","""event"",""trial"",""time""
""fullscreenenter"",""0"",""1664""
""blur"",""64"",""284377""
""focus"",""64"",""284384""
""fullscreenexit"",""64"",""284385""
""blur"",""134"",""489557""
""focus"",""134"",""489558""
","""event"",""trial"",""time""
""blur"",""64"",""284377""
""blur"",""134"",""489557""
","""event"",""trial"",""time""
""focus"",""64"",""284384""
""focus"",""134"",""489558""
","""event"",""trial"",""time""
""fullscreenenter"",""0"",""1664""
","""event"",""trial"",""time""
""fullscreenexit"",""64"",""284385""
","null","<p></p>","null","","","","","","","","","","","","","","","","","","","","","","","",""
"","do_trial","160","548762","0.0-89.0-0.0","""event"",""trial"",""time""
""fullscreenenter"",""0"",""1664""
""blur"",""64"",""284377""
""focus"",""64"",""284384""
""fullscreenexit"",""64"",""284385""
""blur"",""134"",""489557""
""focus"",""134"",""489558""
","""event"",""trial"",""time""
""blur"",""64"",""284377""
""blur"",""134"",""489557""
","""event"",""trial"",""time""
""focus"",""64"",""284384""
""focus"",""134"",""489558""
","""event"",""trial"",""time""
""fullscreenenter"",""0"",""1664""
","""event"",""trial"",""time""
""fullscreenexit"",""64"",""284385""
","null","","","","","","","","null","0,1,0","6","blank","300","null","0.12563602577666091","0.6213644866711102","0.3115759040052938","","","","","","","","","",""
"","html-keyboard-response","161","549764","0.0-89.0-1.0","""event"",""trial"",""time""
""fullscreenenter"",""0"",""1664""
""blur"",""64"",""284377""
""focus"",""64"",""284384""
""fullscreenexit"",""64"",""284385""
""blur"",""134"",""489557""
""focus"",""134"",""489558""
","""event"",""trial"",""time""
""blur"",""64"",""284377""
""blur"",""134"",""489557""
","""event"",""trial"",""time""
""focus"",""64"",""284384""
""focus"",""134"",""489558""
","""event"",""trial"",""time""
""fullscreenenter"",""0"",""1664""
","""event"",""trial"",""time""
""fullscreenexit"",""64"",""284385""
","null","<p></p>","null","","","","","","","","","","","","","","","","","","","","","","","",""
"","do_trial","162","552370","0.0-90.0-0.0","""event"",""trial"",""time""
""fullscreenenter"",""0"",""1664""
""blur"",""64"",""284377""
""focus"",""64"",""284384""
""fullscreenexit"",""64"",""284385""
""blur"",""134"",""489557""
""focus"",""134"",""489558""
","""event"",""trial"",""time""
""blur"",""64"",""284377""
""blur"",""134"",""489557""
","""event"",""trial"",""time""
""focus"",""64"",""284384""
""focus"",""134"",""489558""
","""event"",""trial"",""time""
""fullscreenenter"",""0"",""1664""
","""event"",""trial"",""time""
""fullscreenexit"",""64"",""284385""
","48.199999999953434","","","","","","","","51","0,0,0","6","blank","301","null","0.06345677734603045","0.6743800398373787","0.2497081247907057","0","","","","","","","","",""
"","html-keyboard-response","163","553372","0.0-90.0-1.0","""event"",""trial"",""time""
""fullscreenenter"",""0"",""1664""
""blur"",""64"",""284377""
""focus"",""64"",""284384""
""fullscreenexit"",""64"",""284385""
""blur"",""134"",""489557""
""focus"",""134"",""489558""
","""event"",""trial"",""time""
""blur"",""64"",""284377""
""blur"",""134"",""489557""
","""event"",""trial"",""time""
""focus"",""64"",""284384""
""focus"",""134"",""489558""
","""event"",""trial"",""time""
""fullscreenenter"",""0"",""1664""
","""event"",""trial"",""time""
""fullscreenexit"",""64"",""284385""
","null","<p></p>","null","","","","","","","","","","","","","","","","","","","","","","","",""
"","do_trial","164","555950","0.0-91.0-0.0","""event"",""trial"",""time""
""fullscreenenter"",""0"",""1664""
""blur"",""64"",""284377""
""focus"",""64"",""284384""
""fullscreenexit"",""64"",""284385""
""blur"",""134"",""489557""
""focus"",""134"",""489558""
","""event"",""trial"",""time""
""blur"",""64"",""284377""
""blur"",""134"",""489557""
","""event"",""trial"",""time""
""focus"",""64"",""284384""
""focus"",""134"",""489558""
","""event"",""trial"",""time""
""fullscreenenter"",""0"",""1664""
","""event"",""trial"",""time""
""fullscreenexit"",""64"",""284385""
","21.899999999906868","","","","","","","","50","1,0,0","6","blank","302","null","0.258215212914483","0.6867882293050144","0.2266373283785098","0","","","","","","","","",""
"","html-keyboard-response","165","556951","0.0-91.0-1.0","""event"",""trial"",""time""
""fullscreenenter"",""0"",""1664""
""blur"",""64"",""284377""
""focus"",""64"",""284384""
""fullscreenexit"",""64"",""284385""
""blur"",""134"",""489557""
""focus"",""134"",""489558""
","""event"",""trial"",""time""
""blur"",""64"",""284377""
""blur"",""134"",""489557""
","""event"",""trial"",""time""
""focus"",""64"",""284384""
""focus"",""134"",""489558""
","""event"",""trial"",""time""
""fullscreenenter"",""0"",""1664""
","""event"",""trial"",""time""
""fullscreenexit"",""64"",""284385""
","null","<p></p>","null","","","","","","","","","","","","","","","","","","","","","","","",""
"","do_recog","166","560246","0.0-92.0-0.0","""event"",""trial"",""time""
""fullscreenenter"",""0"",""1664""
""blur"",""64"",""284377""
""focus"",""64"",""284384""
""fullscreenexit"",""64"",""284385""
""blur"",""134"",""489557""
""focus"",""134"",""489558""
","""event"",""trial"",""time""
""blur"",""64"",""284377""
""blur"",""134"",""489557""
","""event"",""trial"",""time""
""focus"",""64"",""284384""
""focus"",""134"",""489558""
","""event"",""trial"",""time""
""fullscreenenter"",""0"",""1664""
","""event"",""trial"",""time""
""fullscreenexit"",""64"",""284385""
","1789.1000000000931","","","","","","","","53","","","","303","probe-78","","","","","1","[object Object]","155","3","1","","","",""
"","html-keyboard-response","167","561248","0.0-92.0-1.0","""event"",""trial"",""time""
""fullscreenenter"",""0"",""1664""
""blur"",""64"",""284377""
""focus"",""64"",""284384""
""fullscreenexit"",""64"",""284385""
""blur"",""134"",""489557""
""focus"",""134"",""489558""
","""event"",""trial"",""time""
""blur"",""64"",""284377""
""blur"",""134"",""489557""
","""event"",""trial"",""time""
""focus"",""64"",""284384""
""focus"",""134"",""489558""
","""event"",""trial"",""time""
""fullscreenenter"",""0"",""1664""
","""event"",""trial"",""time""
""fullscreenexit"",""64"",""284385""
","null","<p></p>","null","","","","","","","","","","","","","","","","","","","","","","","",""
"","do_trial","168","563894","0.0-93.0-0.0","""event"",""trial"",""time""
""fullscreenenter"",""0"",""1664""
""blur"",""64"",""284377""
""focus"",""64"",""284384""
""fullscreenexit"",""64"",""284385""
""blur"",""134"",""489557""
""focus"",""134"",""489558""
","""event"",""trial"",""time""
""blur"",""64"",""284377""
""blur"",""134"",""489557""
","""event"",""trial"",""time""
""focus"",""64"",""284384""
""focus"",""134"",""489558""
","""event"",""trial"",""time""
""fullscreenenter"",""0"",""1664""
","""event"",""trial"",""time""
""fullscreenexit"",""64"",""284385""
","89.29999999981374","","","","","","","","49","0,0,0","6","blank","304","null","0.2672204983574372","0.5474702552863789","0.36286856151066366","0","","","","","","","","",""
"","html-keyboard-response","169","564896","0.0-93.0-1.0","""event"",""trial"",""time""
""fullscreenenter"",""0"",""1664""
""blur"",""64"",""284377""
""focus"",""64"",""284384""
""fullscreenexit"",""64"",""284385""
""blur"",""134"",""489557""
""focus"",""134"",""489558""
","""event"",""trial"",""time""
""blur"",""64"",""284377""
""blur"",""134"",""489557""
","""event"",""trial"",""time""
""focus"",""64"",""284384""
""focus"",""134"",""489558""
","""event"",""trial"",""time""
""fullscreenenter"",""0"",""1664""
","""event"",""trial"",""time""
""fullscreenexit"",""64"",""284385""
","null","<p></p>","null","","","","","","","","","","","","","","","","","","","","","","","",""
"","do_trial","170","567867","0.0-94.0-0.0","""event"",""trial"",""time""
""fullscreenenter"",""0"",""1664""
""blur"",""64"",""284377""
""focus"",""64"",""284384""
""fullscreenexit"",""64"",""284385""
""blur"",""134"",""489557""
""focus"",""134"",""489558""
","""event"",""trial"",""time""
""blur"",""64"",""284377""
""blur"",""134"",""489557""
","""event"",""trial"",""time""
""focus"",""64"",""284384""
""focus"",""134"",""489558""
","""event"",""trial"",""time""
""fullscreenenter"",""0"",""1664""
","""event"",""trial"",""time""
""fullscreenexit"",""64"",""284385""
","415.59999999962747","","","","","","","","50","0,1,0","6","blank","305","null","0.24866045358453984","0.37168202482515555","0.38135099390093824","1","","","","","","","","",""
"","html-keyboard-response","171","568869","0.0-94.0-1.0","""event"",""trial"",""time""
""fullscreenenter"",""0"",""1664""
""blur"",""64"",""284377""
""focus"",""64"",""284384""
""fullscreenexit"",""64"",""284385""
""blur"",""134"",""489557""
""focus"",""134"",""489558""
","""event"",""trial"",""time""
""blur"",""64"",""284377""
""blur"",""134"",""489557""
","""event"",""trial"",""time""
""focus"",""64"",""284384""
""focus"",""134"",""489558""
","""event"",""trial"",""time""
""fullscreenenter"",""0"",""1664""
","""event"",""trial"",""time""
""fullscreenexit"",""64"",""284385""
","null","<p></p>","null","","","","","","","","","","","","","","","","","","","","","","","",""
"","do_trial","172","571496","0.0-95.0-0.0","""event"",""trial"",""time""
""fullscreenenter"",""0"",""1664""
""blur"",""64"",""284377""
""focus"",""64"",""284384""
""fullscreenexit"",""64"",""284385""
""blur"",""134"",""489557""
""focus"",""134"",""489558""
","""event"",""trial"",""time""
""blur"",""64"",""284377""
""blur"",""134"",""489557""
","""event"",""trial"",""time""
""focus"",""64"",""284384""
""focus"",""134"",""489558""
","""event"",""trial"",""time""
""fullscreenenter"",""0"",""1664""
","""event"",""trial"",""time""
""fullscreenexit"",""64"",""284385""
","71.3000000002794","","","","","","","","50","0,0,0","6","blank","306","null","0.13800867072210085","0.344702677493982","0.4002836390214884","0","","","","","","","","",""
"","html-keyboard-response","173","572498","0.0-95.0-1.0","""event"",""trial"",""time""
""fullscreenenter"",""0"",""1664""
""blur"",""64"",""284377""
""focus"",""64"",""284384""
""fullscreenexit"",""64"",""284385""
""blur"",""134"",""489557""
""focus"",""134"",""489558""
