"success","trial_type","trial_index","time_elapsed","internal_node_id","interactions","blur_events","focus_events","fullscreenenter_events","fullscreenexit_events","rt","stimulus","key_press","subject_id","participant_id","age","gender","prompt","response","choice_outcomes","context_n","context_img_id","trial_n","probe_img_id","pR_red","pR_white","pR_black","outcome","is_valid","image_to_show","probed_trial","probed_context","correct","probe","probed_trial_n","probed_context_n","context_im"
"true","fullscreen","0","7545","0.0-0.0","""event"",""trial"",""time""
""fullscreenenter"",""0"",""6613""
","
","
","""event"",""trial"",""time""
""fullscreenenter"",""0"",""6613""
","
","","","","","","","","","","","","","","","","","","","","","","","","","","",""
"","pavlovia","1","7550","0.0-1.0","""event"",""trial"",""time""
""fullscreenenter"",""0"",""6613""
","
","
","""event"",""trial"",""time""
""fullscreenenter"",""0"",""6613""
","
","","","","","","","","","","","","","","","","","","","","","","","","","","",""
"","welc_back","2","17468","0.0-2.0","""event"",""trial"",""time""
""fullscreenenter"",""0"",""6613""
","
","
","""event"",""trial"",""time""
""fullscreenenter"",""0"",""6613""
","
","null","run_exp/static/audio/clip_29_welcome_back.m4a","null","1279","958","8","Female","<div class='center'><p>Welcome to day 2!</p><p> Yesterday, you were the head captain of a pirate ship. You asked your fellow pirates to rob other ships of their gold across six different islands.</p></div>","","","","","","","","","","","","","","","","","","",""
"","html-keyboard-response","3","20642","0.0-3.0","""event"",""trial"",""time""
""fullscreenenter"",""0"",""6613""
","
","
","""event"",""trial"",""time""
""fullscreenenter"",""0"",""6613""
","
","3171.0999999940395","<div class='center'><p>Welcome to day 2!</p><p> Yesterday, you were the head captain of a pirate ship. You asked your fellow pirates to rob other ships of their gold across six different islands.</p><p><b>[Press the space bar to continue]</b></p></div>","32","","","","","","","","","","","","","","","","","","","","","","","",""
"","day_1_summary_goal","4","37851","0.0-4.0","""event"",""trial"",""time""
""fullscreenenter"",""0"",""6613""
","
","
","""event"",""trial"",""time""
""fullscreenenter"",""0"",""6613""
","
","null","run_exp/static/audio/clip_30_goal_of_game.m4a","null","","","","","<div class='center'><p>Today, like yesterday, you get to pick which pirate you want to rob the next ship.</p><p>If the pirate is successful in robbing a ship, you get gold coins that look like this: </p><p><img src='run_exp/static/images/tutorial/reward.png' height='150'></p><p> If they were not successful in robbing the ship, then you will get no gold coins and you'll see a big red x like this: </p><p><img src='run_exp/static/images/tutorial/reward_no.png' height='150'></p></div>","","","","","","","","","","","","","","","","","","",""
"","html-keyboard-response","5","40252","0.0-5.0","""event"",""trial"",""time""
""fullscreenenter"",""0"",""6613""
","
","
","""event"",""trial"",""time""
""fullscreenenter"",""0"",""6613""
","
","2399.399999976158","<div class='center'><p>Today, like yesterday, you get to pick which pirate you want to rob the next ship.</p><p>If the pirate is successful in robbing a ship, you get gold coins that look like this: </p><p><img src='run_exp/static/images/tutorial/reward.png' height='150'></p><p> If they were not successful in robbing the ship, then you will get no gold coins and you'll see a big red x like this: </p><p><img src='run_exp/static/images/tutorial/reward_no.png' height='150'></p><p><b>[Press the space bar to continue]</b></p></div>","32","","","","","","","","","","","","","","","","","","","","","","","",""
"","day_1_summary_pick","6","54963","0.0-6.0","""event"",""trial"",""time""
""fullscreenenter"",""0"",""6613""
","
","
","""event"",""trial"",""time""
""fullscreenenter"",""0"",""6613""
","
","null","run_exp/static/audio/clip_31_how_to_pick_a_pirate.m4a","null","","","","","<div class='center'><p>Also, just like yesterday, you will use the 1,2,3 keys on your keyboard to pick a pirate. Press '1' to choose red beard, '2' to choose white beard, and '3' to choose black beard . You only have 3 seconds to pick a pirate, so please make a choice quickly!</p></div>","","","","","","","","","","","","","","","","","","",""
"","html-keyboard-response","7","55429","0.0-7.0","""event"",""trial"",""time""
""fullscreenenter"",""0"",""6613""
","
","
","""event"",""trial"",""time""
""fullscreenenter"",""0"",""6613""
","
","464.7999999821186","<div class='center'><p>Also, just like yesterday, you will use the 1,2,3 keys on your keyboard to pick a pirate. Press '1' to choose red beard, '2' to choose white beard, and '3' to choose black beard . You only have 3 seconds to pick a pirate, so please make a choice quickly!</p><p><b>[Press the space bar to continue]</b></p></div>","32","","","","","","","","","","","","","","","","","","","","","","","",""
"","test_phase_begin","8","85844","0.0-8.0","""event"",""trial"",""time""
""fullscreenenter"",""0"",""6613""
","
","
","""event"",""trial"",""time""
""fullscreenenter"",""0"",""6613""
","
","null","run_exp/static/audio/clip_32_final_place.m4a","null","","","","","<div class='center'><p>You’ve arrived at the final island of your journey! Unfortunately, it’s very foggy out, so you won’t be able to see it in the distance like the other islands you've visited.</p><p>You’ll still be deciding which pirate you want to rob a ship like before. However, because of the fog, you also won’t be able to see the ship.</p><p>This means you do not have to remember the ships you rob on this island.</p><p>Unlike yesterday, you won't be visiting multiple islands today. You will stay on this island for the entire game. This game will last ~30 minutes.</p></div>","","","","","","","","","","","","","","","","","","",""
"","html-keyboard-response","9","86874","0.0-9.0","""event"",""trial"",""time""
""fullscreenenter"",""0"",""6613""
","
","
","""event"",""trial"",""time""
""fullscreenenter"",""0"",""6613""
","
","1028.9000000059605","<div class='center'><p>You’ve arrived at the final island of your journey! Unfortunately, it’s very foggy out, so you won’t be able to see it in the distance like the other islands you've visited.</p><p>You’ll still be deciding which pirate you want to rob a ship like before. However, because of the fog, you also won’t be able to see the ship.</p><p>This means you do not have to remember the ships you rob on this island.</p><p>Unlike yesterday, you won't be visiting multiple islands today. You will stay on this island for the entire game. This game will last ~30 minutes.</p><p><b>[Press the space bar to continue]</b></p></div>","32","","","","","","","","","","","","","","","","","","","","","","","",""
"","explain_probe_1","10","94597","0.0-10.0","""event"",""trial"",""time""
""fullscreenenter"",""0"",""6613""
","
","
","""event"",""trial"",""time""
""fullscreenenter"",""0"",""6613""
","
","null","run_exp/static/audio/clip_33_recognition_1.m4a","null","","","","","<div class='center'><p> Sometimes you’ll be shown a ship, and you will be asked if you saw this ship on a past island.</p><p> Here is an example of what you will see.</p><p><img src='run_exp/static/images/tutorial/example_recog_trial.png' height='500'></p></div>","","","","","","","","","","","","","","","","","","",""
"","html-keyboard-response","11","103842","0.0-11.0","""event"",""trial"",""time""
""fullscreenenter"",""0"",""6613""
","
","
","""event"",""trial"",""time""
""fullscreenenter"",""0"",""6613""
","
","9244.09999999404","<div class='center'><p> Sometimes you’ll be shown a ship, and you will be asked if you saw this ship on a past island.</p><p> Here is an example of what you will see.</p><p><img src='run_exp/static/images/tutorial/example_recog_trial.png' height='500'></p><p><b>[Press the space bar to continue]</b></p></div>","32","","","","","","","","","","","","","","","","","","","","","","","",""
"","explain_probe_2","12","125571","0.0-12.0","""event"",""trial"",""time""
""fullscreenenter"",""0"",""6613""
","
","
","""event"",""trial"",""time""
""fullscreenenter"",""0"",""6613""
","
","null","run_exp/static/audio/clip_34_recognition_2.m4a","null","","","","","<div class='center'><p> You will press the 5, 6, 7, 8 keys on your keyboard to respond.</p><p>If you are sure you saw the ship, press <b>5</b> on your keyboard.</p><p> If you think you saw it before but aren't sure, then press <b>6</b>.</p><p> If you think you have <b>not</b> seen it before but aren't sure, then press <b>7</b>.</p><p> If you are sure you did <b>not</b> see the ship before, then press <b>8</b>.</p><p><img src='run_exp/static/images/tutorial/example_recog_trial.png' height='500'></p></div>","","","","","","","","","","","","","","","","","","",""
"","html-keyboard-response","13","126530","0.0-13.0","""event"",""trial"",""time""
""fullscreenenter"",""0"",""6613""
","
","
","""event"",""trial"",""time""
""fullscreenenter"",""0"",""6613""
","
","958.0999999940395","<div class='center'><p> You will press the 5, 6, 7, 8 keys on your keyboard to respond.</p><p>If you are sure you saw the ship, press <b>5</b> on your keyboard.</p><p> If you think you saw it before but aren't sure, then press <b>6</b>.</p><p> If you think you have <b>not</b> seen it before but aren't sure, then press <b>7</b>.</p><p> If you are sure you did <b>not</b> see the ship before, then press <b>8</b>.</p><p><img src='run_exp/static/images/tutorial/example_recog_trial.png' height='500'></p><p><b>[Press the space bar to continue]</b></p></div>","32","","","","","","","","","","","","","","","","","","","","","","","",""
"","explain_outcome","14","143751","0.0-14.0","""event"",""trial"",""time""
""fullscreenenter"",""0"",""6613""
","
","
","""event"",""trial"",""time""
""fullscreenenter"",""0"",""6613""
","
","null","run_exp/static/audio/clip_35_recognition_3.m4a","null","","","","","<div class='center'><p> If you remember correctly, then you’ll get a gold coin like this: </p><p><img src='run_exp/static/images/tutorial/reward_small.png' height='200'></p><p>If you do not remember correctly, then you'll see a red x like this: </p><p><img src='run_exp/static/images/tutorial/reward_no.png' height='200'></p><p>Importantly, when you are shown a ship, take the time to remind yourself which island you saw it on. This will help you in the next part of the study.</p></div>","","","","","","","","","","","","","","","","","","",""
"","html-keyboard-response","15","144793","0.0-15.0","""event"",""trial"",""time""
""fullscreenenter"",""0"",""6613""
","
","
","""event"",""trial"",""time""
""fullscreenenter"",""0"",""6613""
","
","1039.7999999821186","<div class='center'><p> If you remember correctly, then you’ll get a gold coin like this: </p><p><img src='run_exp/static/images/tutorial/reward_small.png' height='200'></p><p>If you do not remember correctly, then you'll see a red x like this: </p><p><img src='run_exp/static/images/tutorial/reward_no.png' height='200'></p><p>Importantly, when you are shown a ship, take the time to remind yourself which island you saw it on. This will help you in the next part of the study.</p><p><b>[Press the space bar to continue]</b></p></div>","32","","","","","","","","","","","","","","","","","","","","","","","",""
"","begin_test_phase","16","160607","0.0-16.0","""event"",""trial"",""time""
""fullscreenenter"",""0"",""6613""
","
","
","""event"",""trial"",""time""
""fullscreenenter"",""0"",""6613""
","
","null","run_exp/static/audio/clip_36_begin_final.m4a","null","","","","","<div class='center'><p>Let's go over the important points again. Your job is to: </p><p>1. Pick the pirate who is best at robbing ships and will bring you back gold coins. </p><p>2. Correctly remember whether or not you saw a ship before. If you did see the ship before, remind yourself on which island you saw it. </p></div>","","","","","","","","","","","","","","","","","","",""
"","html-keyboard-response","17","162268","0.0-17.0","""event"",""trial"",""time""
""fullscreenenter"",""0"",""6613""
","
","
","""event"",""trial"",""time""
""fullscreenenter"",""0"",""6613""
","
","1610.7999999821186","<div class='center'><p>Let's go over the important points again. Your job is to: </p><p>1. Pick the pirate who is best at robbing ships and will bring you back gold coins. </p><p>2. Correctly remember whether or not you saw a ship before. If you did see the ship before, remind yourself on which island you saw it. </p><p><b>[Press the space bar to continue]</b></p></div>","32","","","","","","","","","","","","","","","","","","","","","","","",""
"","do_welcome","18","166291","0.0-18.0","""event"",""trial"",""time""
""fullscreenenter"",""0"",""6613""
","
","
","""event"",""trial"",""time""
""fullscreenenter"",""0"",""6613""
","
","null","","","","","","","","null","","","","","","","","","","","","","","","","","",""
"","do_trial","19","170127","0.0-19.0-0.0","""event"",""trial"",""time""
""fullscreenenter"",""0"",""6613""
","
","
","""event"",""trial"",""time""
""fullscreenenter"",""0"",""6613""
","
","1289.300000011921","","","","","","","","49","1,0,0","6","blank","230","null","0.3045825452980861","0.7050078049824141","0.09142187892077354","1","","","","","","","","",""
"","html-keyboard-response","20","171136","0.0-19.0-1.0","""event"",""trial"",""time""
""fullscreenenter"",""0"",""6613""
","
","
","""event"",""trial"",""time""
""fullscreenenter"",""0"",""6613""
","
","null","<p></p>","null","","","","","","","","","","","","","","","","","","","","","","","",""
"","do_trial","21","174812","0.0-20.0-0.0","""event"",""trial"",""time""
""fullscreenenter"",""0"",""6613""
","
","
","""event"",""trial"",""time""
""fullscreenenter"",""0"",""6613""
","
","1129","","","","","","","","50","0,1,0","6","blank","231","null","0.4281773538597402","0.6787415734370591","0.11995906471308772","1","","","","","","","","",""
"","html-keyboard-response","22","175815","0.0-20.0-1.0","""event"",""trial"",""time""
""fullscreenenter"",""0"",""6613""
","
","
","""event"",""trial"",""time""
""fullscreenenter"",""0"",""6613""
","
","null","<p></p>","null","","","","","","","","","","","","","","","","","","","","","","","",""
"","do_trial","23","178841","0.0-21.0-0.0","""event"",""trial"",""time""
""fullscreenenter"",""0"",""6613""
","
","
","""event"",""trial"",""time""
""fullscreenenter"",""0"",""6613""
","
","485.10000002384186","","","","","","","","49","0,1,0","6","blank","232","null","0.476478505880456","0.5977000341860454","0.09956342876309127","0","","","","","","","","",""
"","html-keyboard-response","24","179848","0.0-21.0-1.0","""event"",""trial"",""time""
""fullscreenenter"",""0"",""6613""
","
","
","""event"",""trial"",""time""
""fullscreenenter"",""0"",""6613""
","
","null","<p></p>","null","","","","","","","","","","","","","","","","","","","","","","","",""
"","do_trial","25","183608","0.0-22.0-0.0","""event"",""trial"",""time""
""fullscreenenter"",""0"",""6613""
","
","
","""event"",""trial"",""time""
""fullscreenenter"",""0"",""6613""
","
","1213.2000000178814","","","","","","","","49","1,0,0","6","blank","233","null","0.349209401535359","0.6510314356386315","0.17808904700183845","1","","","","","","","","",""
"","html-keyboard-response","26","184610","0.0-22.0-1.0","""event"",""trial"",""time""
""fullscreenenter"",""0"",""6613""
","
","
","""event"",""trial"",""time""
""fullscreenenter"",""0"",""6613""
","
","null","<p></p>","null","","","","","","","","","","","","","","","","","","","","","","","",""
"","do_trial","27","187913","0.0-23.0-0.0","""event"",""trial"",""time""
""fullscreenenter"",""0"",""6613""
","
","
","""event"",""trial"",""time""
""fullscreenenter"",""0"",""6613""
","
","762","","","","","","","","49","1,1,0","6","blank","234","null","0.21710306515807024","0.6037393590402066","0.1318804503446089","1","","","","","","","","",""
"","html-keyboard-response","28","188916","0.0-23.0-1.0","""event"",""trial"",""time""
""fullscreenenter"",""0"",""6613""
","
","
","""event"",""trial"",""time""
""fullscreenenter"",""0"",""6613""
","
","null","<p></p>","null","","","","","","","","","","","","","","","","","","","","","","","",""
"","do_trial","29","192045","0.0-24.0-0.0","""event"",""trial"",""time""
""fullscreenenter"",""0"",""6613""
","
","
","""event"",""trial"",""time""
""fullscreenenter"",""0"",""6613""
","
","583.1999999880791","","","","","","","","49","0,1,1","6","blank","235","null","0.23991597968387549","0.5361733186084079","0.22278188261174073","0","","","","","","","","",""
"","html-keyboard-response","30","193052","0.0-24.0-1.0","""event"",""trial"",""time""
""fullscreenenter"",""0"",""6613""
","
","
","""event"",""trial"",""time""
""fullscreenenter"",""0"",""6613""
","
","null","<p></p>","null","","","","","","","","","","","","","","","","","","","","","","","",""
"","do_trial","31","196529","0.0-25.0-0.0","""event"",""trial"",""time""
""fullscreenenter"",""0"",""6613""
","
","
","""event"",""trial"",""time""
""fullscreenenter"",""0"",""6613""
","
","930.3999999761581","","","","","","","","51","0,1,0","6","blank","236","null","0.3114741360315387","0.5305125493171109","0.09040619993453415","0","","","","","","","","",""
"","html-keyboard-response","32","197536","0.0-25.0-1.0","""event"",""trial"",""time""
""fullscreenenter"",""0"",""6613""
","
","
","""event"",""trial"",""time""
""fullscreenenter"",""0"",""6613""
","
","null","<p></p>","null","","","","","","","","","","","","","","","","","","","","","","","",""
"","do_trial","33","200516","0.0-26.0-0.0","""event"",""trial"",""time""
""fullscreenenter"",""0"",""6613""
","
","
","""event"",""trial"",""time""
""fullscreenenter"",""0"",""6613""
","
","433.60000002384186","","","","","","","","50","0,0,0","6","blank","237","null","0.2334851921703675","0.5790518273180913","0.14035548913850293","0","","","","","","","","",""
"","html-keyboard-response","34","201523","0.0-26.0-1.0","""event"",""trial"",""time""
""fullscreenenter"",""0"",""6613""
","
","
","""event"",""trial"",""time""
""fullscreenenter"",""0"",""6613""
","
","null","<p></p>","null","","","","","","","","","","","","","","","","","","","","","","","",""
"","do_trial","35","204565","0.0-27.0-0.0","""event"",""trial"",""time""
""fullscreenenter"",""0"",""6613""
","
","
","""event"",""trial"",""time""
""fullscreenenter"",""0"",""6613""
","
","494.90000000596046","","","","","","","","50","0,1,0","6","blank","238","null","0.08522642605313414","0.4975177617186532","0.12065192968552378","1","","","","","","","","",""
"","html-keyboard-response","36","205572","0.0-27.0-1.0","""event"",""trial"",""time""
""fullscreenenter"",""0"",""6613""
","
","
","""event"",""trial"",""time""
""fullscreenenter"",""0"",""6613""
","
","null","<p></p>","null","","","","","","","","","","","","","","","","","","","","","","","",""
"","do_trial","37","208592","0.0-28.0-0.0","""event"",""trial"",""time""
""fullscreenenter"",""0"",""6613""
","
","
","""event"",""trial"",""time""
""fullscreenenter"",""0"",""6613""
","
","473","","","","","","","","50","0,1,0","6","blank","239","null","0.21435179816931232","0.4573042247132929","0.2926443426643898","1","","","","","","","","",""
"","html-keyboard-response","38","209599","0.0-28.0-1.0","""event"",""trial"",""time""
""fullscreenenter"",""0"",""6613""
","
","
","""event"",""trial"",""time""
""fullscreenenter"",""0"",""6613""
","
","null","<p></p>","null","","","","","","","","","","","","","","","","","","","","","","","",""
"","do_trial","39","212493","0.0-29.0-0.0","""event"",""trial"",""time""
""fullscreenenter"",""0"",""6613""
","
","
","""event"",""trial"",""time""
""fullscreenenter"",""0"",""6613""
","
","348.69999998807907","","","","","","","","50","0,0,0","6","blank","240","null","0.2461471609074219","0.3665317290470639","0.06534265320463935","0","","","","","","","","",""
"","html-keyboard-response","40","213500","0.0-29.0-1.0","""event"",""trial"",""time""
""fullscreenenter"",""0"",""6613""
","
","
","""event"",""trial"",""time""
""fullscreenenter"",""0"",""6613""
","
","null","<p></p>","null","","","","","","","","","","","","","","","","","","","","","","","",""
"","do_recog","41","219513","0.0-30.0-0.0","""event"",""trial"",""time""
""fullscreenenter"",""0"",""6613""
","
","
","""event"",""trial"",""time""
""fullscreenenter"",""0"",""6613""
","
","null","","","","","","","","null","","","","241","probe-113","","","","","1","[object Object]","198","4","0","","","",""
"","html-keyboard-response","42","220515","0.0-30.0-1.0","""event"",""trial"",""time""
""fullscreenenter"",""0"",""6613""
","
","
","""event"",""trial"",""time""
""fullscreenenter"",""0"",""6613""
","
","null","<p></p>","null","","","","","","","","","","","","","","","","","","","","","","","",""
"","do_trial","43","224453","0.0-31.0-0.0","""event"",""trial"",""time""
""fullscreenenter"",""0"",""6613""
","
","
","""event"",""trial"",""time""
""fullscreenenter"",""0"",""6613""
","
","1387.4000000059605","","","","","","","","49","1,1,0","6","blank","242","null","0.3546528301966601","0.4238075729241212","0.2081311274960208","1","","","","","","","","",""
"","html-keyboard-response","44","225460","0.0-31.0-1.0","""event"",""trial"",""time""
""fullscreenenter"",""0"",""6613""
","
","
","""event"",""trial"",""time""
""fullscreenenter"",""0"",""6613""
","
","null","<p></p>","null","","","","","","","","","","","","","","","","","","","","","","","",""
"","do_trial","45","228430","0.0-32.0-0.0","""event"",""trial"",""time""
""fullscreenenter"",""0"",""6613""
","
","
","""event"",""trial"",""time""
""fullscreenenter"",""0"",""6613""
","
","424.59999999403954","","","","","","","","49","1,1,0","6","blank","243","null","0.49912714340527753","0.2891892726105244","0.12670064506225162","1","","","","","","","","",""
"","html-keyboard-response","46","229437","0.0-32.0-1.0","""event"",""trial"",""time""
""fullscreenenter"",""0"",""6613""
","
","
","""event"",""trial"",""time""
""fullscreenenter"",""0"",""6613""
","
","null","<p></p>","null","","","","","","","","","","","","","","","","","","","","","","","",""
"","do_trial","47","232400","0.0-33.0-0.0","""event"",""trial"",""time""
""fullscreenenter"",""0"",""6613""
","
","
","""event"",""trial"",""time""
""fullscreenenter"",""0"",""6613""
","
","418.40000000596046","","","","","","","","49","1,0,0","6","blank","244","null","0.569725428672015","0.31513075935187296","0.07178869809747469","1","","","","","","","","",""
"","html-keyboard-response","48","233407","0.0-33.0-1.0","""event"",""trial"",""time""
""fullscreenenter"",""0"",""6613""
","
","
","""event"",""trial"",""time""
""fullscreenenter"",""0"",""6613""
","
","null","<p></p>","null","","","","","","","","","","","","","","","","","","","","","","","",""
"","do_trial","49","236361","0.0-34.0-0.0","""event"",""trial"",""time""
""fullscreenenter"",""0"",""6613""
","
","
","""event"",""trial"",""time""
""fullscreenenter"",""0"",""6613""
","
","406.30000001192093","","","","","","","","49","1,0,0","6","blank","245","null","0.622148782784958","0.3055248313968306","0.1632110484702837","1","","","","","","","","",""
"","html-keyboard-response","50","237364","0.0-34.0-1.0","""event"",""trial"",""time""
""fullscreenenter"",""0"",""6613""
","
","
","""event"",""trial"",""time""
""fullscreenenter"",""0"",""6613""
","
","null","<p></p>","null","","","","","","","","","","","","","","","","","","","","","","","",""
"","do_trial","51","240599","0.0-35.0-0.0","""event"",""trial"",""time""
""fullscreenenter"",""0"",""6613""
","
","
","""event"",""trial"",""time""
""fullscreenenter"",""0"",""6613""
","
","689.5","","","","","","","","49","0,1,0","6","blank","246","null","0.5541553584590144","0.3918044234845581","0.13398915246601875","0","","","","","","","","",""
"","html-keyboard-response","52","241604","0.0-35.0-1.0","""event"",""trial"",""time""
""fullscreenenter"",""0"",""6613""
","
","
","""event"",""trial"",""time""
""fullscreenenter"",""0"",""6613""
","
","null","<p></p>","null","","","","","","","","","","","","","","","","","","","","","","","",""
"","do_trial","53","244758","0.0-36.0-0.0","""event"",""trial"",""time""
""fullscreenenter"",""0"",""6613""
","
","
","""event"",""trial"",""time""
""fullscreenenter"",""0"",""6613""
","
","608.7000000178814","","","","","","","","51","0,0,0","6","blank","247","null","0.5473784470733252","0.34980675239021414","0.1379180193153974","0","","","","","","","","",""
"","html-keyboard-response","54","245766","0.0-36.0-1.0","""event"",""trial"",""time""
""fullscreenenter"",""0"",""6613""
","
","
","""event"",""trial"",""time""
""fullscreenenter"",""0"",""6613""
","
","null","<p></p>","null","","","","","","","","","","","","","","","","","","","","","","","",""
"","do_trial","55","248723","0.0-37.0-0.0","""event"",""trial"",""time""
""fullscreenenter"",""0"",""6613""
","
","
","""event"",""trial"",""time""
""fullscreenenter"",""0"",""6613""
","
","412.09999999403954","","","","","","","","49","0,1,0","6","blank","248","null","0.44372660981597023","0.42683237699576027","0.1052414531723955","0","","","","","","","","",""
"","html-keyboard-response","56","249730","0.0-37.0-1.0","""event"",""trial"",""time""
""fullscreenenter"",""0"",""6613""
","
","
","""event"",""trial"",""time""
""fullscreenenter"",""0"",""6613""
","
","null","<p></p>","null","","","","","","","","","","","","","","","","","","","","","","","",""
"","do_recog","57","253110","0.0-38.0-0.0","""event"",""trial"",""time""
""fullscreenenter"",""0"",""6613""
","
","
","""event"",""trial"",""time""
""fullscreenenter"",""0"",""6613""
","
","1867.800000011921","","","","","","","","55","","","","249","probe-198","","","","","1","[object Object]","35","0","0","","","",""
"","html-keyboard-response","58","254115","0.0-38.0-1.0","""event"",""trial"",""time""
""fullscreenenter"",""0"",""6613""
","
","
","""event"",""trial"",""time""
""fullscreenenter"",""0"",""6613""
","
","null","<p></p>","null","","","","","","","","","","","","","","","","","","","","","","","",""
"","do_trial","59","257962","0.0-39.0-0.0","""event"",""trial"",""time""
""fullscreenenter"",""0"",""6613""
","
","
","""event"",""trial"",""time""
""fullscreenenter"",""0"",""6613""
","
","1306.5","","","","","","","","49","1,0,0","6","blank","250","null","0.47332230077831183","0.372655108721385","0.22319597851336162","1","","","","","","","","",""
"","html-keyboard-response","60","258969","0.0-39.0-1.0","""event"",""trial"",""time""
""fullscreenenter"",""0"",""6613""
","
","
","""event"",""trial"",""time""
""fullscreenenter"",""0"",""6613""
","
","null","<p></p>","null","","","","","","","","","","","","","","","","","","","","","","","",""
"","do_recog","61","264985","0.0-40.0-0.0","""event"",""trial"",""time""
""fullscreenenter"",""0"",""6613""
","
","
","""event"",""trial"",""time""
""fullscreenenter"",""0"",""6613""
","
","null","","","","","","","","null","","","","251","probe-157","","","","","1","[object Object]","158","3","0","","","",""
"","html-keyboard-response","62","265989","0.0-40.0-1.0","""event"",""trial"",""time""
""fullscreenenter"",""0"",""6613""
","
","
","""event"",""trial"",""time""
""fullscreenenter"",""0"",""6613""
","
","null","<p></p>","null","","","","","","","","","","","","","","","","","","","","","","","",""
"","do_trial","63","269538","0.0-41.0-0.0","""event"",""trial"",""time""
""fullscreenenter"",""0"",""6613""
","
","
","""event"",""trial"",""time""
""fullscreenenter"",""0"",""6613""
","
","1002.0999999940395","","","","","","","","49","1,1,1","6","blank","252","null","0.5394038636822969","0.2875573021250949","0.24746504212508036","1","","","","","","","","",""
"","html-keyboard-response","64","270544","0.0-41.0-1.0","""event"",""trial"",""time""
""fullscreenenter"",""0"",""6613""
","
","
","""event"",""trial"",""time""
""fullscreenenter"",""0"",""6613""
","
","null","<p></p>","null","","","","","","","","","","","","","","","","","","","","","","","",""
"","do_trial","65","273591","0.0-42.0-0.0","""event"",""trial"",""time""
""fullscreenenter"",""0"",""6613""
","
","
","""event"",""trial"",""time""
""fullscreenenter"",""0"",""6613""
","
","505.59999999403954","","","","","","","","49","1,0,0","6","blank","253","null","0.5089642478861128","0.2912154655077212","0.19439947257004267","1","","","","","","","","",""
"","html-keyboard-response","66","274598","0.0-42.0-1.0","""event"",""trial"",""time""
""fullscreenenter"",""0"",""6613""
","
","
","""event"",""trial"",""time""
""fullscreenenter"",""0"",""6613""
","
","null","<p></p>","null","","","","","","","","","","","","","","","","","","","","","","","",""
"","do_recog","67","278173","0.0-43.0-0.0","""event"",""trial"",""time""
""fullscreenenter"",""0"",""6613""
","
","
","""event"",""trial"",""time""
""fullscreenenter"",""0"",""6613""
","
","2061.7000000178814","","","","","","","","53","","","","254","probe-92","","","","","1","[object Object]","36","0","1","","","",""
"","html-keyboard-response","68","279178","0.0-43.0-1.0","""event"",""trial"",""time""
""fullscreenenter"",""0"",""6613""
","
","
","""event"",""trial"",""time""
""fullscreenenter"",""0"",""6613""
","
","null","<p></p>","null","","","","","","","","","","","","","","","","","","","","","","","",""
"","do_trial","69","282682","0.0-44.0-0.0","""event"",""trial"",""time""
""fullscreenenter"",""0"",""6613""
","
","
","""event"",""trial"",""time""
""fullscreenenter"",""0"",""6613""
","
","957.5999999940395","","","","","","","","49","0,1,0","6","blank","255","null","0.4083832049577001","0.36858360417764646","0.14441058995118408","0","","","","","","","","",""
"","html-keyboard-response","70","283686","0.0-44.0-1.0","""event"",""trial"",""time""
""fullscreenenter"",""0"",""6613""
","
","
","""event"",""trial"",""time""
""fullscreenenter"",""0"",""6613""
","
","null","<p></p>","null","","","","","","","","","","","","","","","","","","","","","","","",""
"","do_recog","71","287695","0.0-45.0-0.0","""event"",""trial"",""time""
""fullscreenenter"",""0"",""6613""
","
","
","""event"",""trial"",""time""
""fullscreenenter"",""0"",""6613""
","
","2496.7000000178814","","","","","","","","54","","","","256","probe-231","","","","","0","[object Object]","null","null","0","","","",""
"","html-keyboard-response","72","288701","0.0-45.0-1.0","""event"",""trial"",""time""
""fullscreenenter"",""0"",""6613""
","
","
","""event"",""trial"",""time""
""fullscreenenter"",""0"",""6613""
","
","null","<p></p>","null","","","","","","","","","","","","","","","","","","","","","","","",""
"","do_trial","73","292534","0.0-46.0-0.0","""event"",""trial"",""time""
""fullscreenenter"",""0"",""6613""
","
","
","""event"",""trial"",""time""
""fullscreenenter"",""0"",""6613""
","
","1290.5","","","","","","","","49","0,0,0","6","blank","257","null","0.505239924441578","0.3839335729740422","0.1840207680668241","0","","","","","","","","",""
"","html-keyboard-response","74","293536","0.0-46.0-1.0","""event"",""trial"",""time""
""fullscreenenter"",""0"",""6613""
","
","
","""event"",""trial"",""time""
""fullscreenenter"",""0"",""6613""
","
","null","<p></p>","null","","","","","","","","","","","","","","","","","","","","","","","",""
"","do_trial","75","296555","0.0-47.0-0.0","""event"",""trial"",""time""
""fullscreenenter"",""0"",""6613""
","
","
","""event"",""trial"",""time""
""fullscreenenter"",""0"",""6613""
","
","473.2000000178814","","","","","","","","50","0,0,0","6","blank","258","null","0.5416044238989666","0.4239889483414083","0.2277966401092496","0","","","","","","","","",""
"","html-keyboard-response","76","297562","0.0-47.0-1.0","""event"",""trial"",""time""
""fullscreenenter"",""0"",""6613""
","
","
","""event"",""trial"",""time""
""fullscreenenter"",""0"",""6613""
","
","null","<p></p>","null","","","","","","","","","","","","","","","","","","","","","","","",""
"","do_trial","77","301349","0.0-48.0-0.0","""event"",""trial"",""time""
""fullscreenenter"",""0"",""6613""
","
","
","""event"",""trial"",""time""
""fullscreenenter"",""0"",""6613""
","
","1245.5999999940395","","","","","","","","49","0,0,0","6","blank","259","null","0.5202422726654722","0.5442770237294862","0.22455682412963654","0","","","","","","","","",""
"","html-keyboard-response","78","302355","0.0-48.0-1.0","""event"",""trial"",""time""
""fullscreenenter"",""0"",""6613""
","
","
","""event"",""trial"",""time""
""fullscreenenter"",""0"",""6613""
","
","null","<p></p>","null","","","","","","","","","","","","","","","","","","","","","","","",""
"","do_trial","79","305294","0.0-49.0-0.0","""event"",""trial"",""time""
""fullscreenenter"",""0"",""6613""
","
","
","""event"",""trial"",""time""
""fullscreenenter"",""0"",""6613""
","
","393.7999999821186","","","","","","","","51","1,1,0","6","blank","260","null","0.5022027809920435","0.4487146579560999","0.170760554945051","0","","","","","","","","",""
"","html-keyboard-response","80","306296","0.0-49.0-1.0","""event"",""trial"",""time""
""fullscreenenter"",""0"",""6613""
","
","
","""event"",""trial"",""time""
""fullscreenenter"",""0"",""6613""
","
","null","<p></p>","null","","","","","","","","","","","","","","","","","","","","","","","",""
"","do_recog","81","312315","0.0-50.0-0.0","""event"",""trial"",""time""
""fullscreenenter"",""0"",""6613""
","
","
","""event"",""trial"",""time""
""fullscreenenter"",""0"",""6613""
","
","null","","","","","","","","null","","","","261","probe-136","","","","","1","[object Object]","152","3","0","","","",""
"","html-keyboard-response","82","313321","0.0-50.0-1.0","""event"",""trial"",""time""
""fullscreenenter"",""0"",""6613""
","
","
","""event"",""trial"",""time""
""fullscreenenter"",""0"",""6613""
","
","null","<p></p>","null","","","","","","","","","","","","","","","","","","","","","","","",""
"","do_trial","83","317195","0.0-51.0-0.0","""event"",""trial"",""time""
""fullscreenenter"",""0"",""6613""
","
","
","""event"",""trial"",""time""
""fullscreenenter"",""0"",""6613""
","
","1326.300000011921","","","","","","","","50","1,0,0","6","blank","262","null","0.5030324903254886","0.2811445308139648","0.14871201762124447","0","","","","","","","","",""
"","html-keyboard-response","84","318201","0.0-51.0-1.0","""event"",""trial"",""time""
""fullscreenenter"",""0"",""6613""
","
","
","""event"",""trial"",""time""
""fullscreenenter"",""0"",""6613""
","
","null","<p></p>","null","","","","","","","","","","","","","","","","","","","","","","","",""
"","do_recog","85","321782","0.0-52.0-0.0","""event"",""trial"",""time""
""fullscreenenter"",""0"",""6613""
","
","
","""event"",""trial"",""time""
""fullscreenenter"",""0"",""6613""
","
","2068.5","","","","","","","","55","","","","263","probe-235","","","","","0","[object Object]","null","null","1","","","",""
"","html-keyboard-response","86","322788","0.0-52.0-1.0","""event"",""trial"",""time""
""fullscreenenter"",""0"",""6613""
","
","
","""event"",""trial"",""time""
""fullscreenenter"",""0"",""6613""
","
","null","<p></p>","null","","","","","","","","","","","","","","","","","","","","","","","",""
"","do_trial","87","326455","0.0-53.0-0.0","""event"",""trial"",""time""
""fullscreenenter"",""0"",""6613""
","
","
","""event"",""trial"",""time""
""fullscreenenter"",""0"",""6613""
","
","1120.4000000059605","","","","","","","","49","0,0,0","6","blank","264","null","0.5620825311646265","0.22248983338722586","0.21912400848228697","0","","","","","","","","",""
"","html-keyboard-response","88","327460","0.0-53.0-1.0","""event"",""trial"",""time""
""fullscreenenter"",""0"",""6613""
","
","
","""event"",""trial"",""time""
""fullscreenenter"",""0"",""6613""
","
","null","<p></p>","null","","","","","","","","","","","","","","","","","","","","","","","",""
"","do_trial","89","330483","0.0-54.0-0.0","""event"",""trial"",""time""
""fullscreenenter"",""0"",""6613""
","
","
","""event"",""trial"",""time""
""fullscreenenter"",""0"",""6613""
","
","479","","","","","","","","51","0,1,0","6","blank","265","null","0.6764580638893686","0.29347411397617","0.21697151512007332","0","","","","","","","","",""
"","html-keyboard-response","90","331487","0.0-54.0-1.0","""event"",""trial"",""time""
""fullscreenenter"",""0"",""6613""
","
","
","""event"",""trial"",""time""
""fullscreenenter"",""0"",""6613""
","
","null","<p></p>","null","","","","","","","","","","","","","","","","","","","","","","","",""
"","do_trial","91","334433","0.0-55.0-0.0","""event"",""trial"",""time""
""fullscreenenter"",""0"",""6613""
","
","
","""event"",""trial"",""time""
""fullscreenenter"",""0"",""6613""
","
","401.5","","","","","","","","50","1,0,0","6","blank","266","null","0.5445247951657088","0.20884643290126248","0.1483906771749558","0","","","","","","","","",""
"","html-keyboard-response","92","335438","0.0-55.0-1.0","""event"",""trial"",""time""
""fullscreenenter"",""0"",""6613""
","
","
","""event"",""trial"",""time""
""fullscreenenter"",""0"",""6613""
","
","null","<p></p>","null","","","","","","","","","","","","","","","","","","","","","","","",""
"","do_trial","93","338769","0.0-56.0-0.0","""event"",""trial"",""time""
""fullscreenenter"",""0"",""6613""
","
","
","""event"",""trial"",""time""
""fullscreenenter"",""0"",""6613""
","
","787.0999999940395","","","","","","","","50","0,0,0","6","blank","267","null","0.5233973987058872","0.25261197975235905","0.16846917063279493","0","","","","","","","","",""
"","html-keyboard-response","94","339775","0.0-56.0-1.0","""event"",""trial"",""time""
""fullscreenenter"",""0"",""6613""
","
","
","""event"",""trial"",""time""
""fullscreenenter"",""0"",""6613""
","
","null","<p></p>","null","","","","","","","","","","","","","","","","","","","","","","","",""
"","do_recog","95","343769","0.0-57.0-0.0","""event"",""trial"",""time""
""fullscreenenter"",""0"",""6613""
","
","
","""event"",""trial"",""time""
""fullscreenenter"",""0"",""6613""
","
","2479.5999999940395","","","","","","","","55","","","","268","probe-133","","","","","1","[object Object]","153","3","0","","","",""
"","html-keyboard-response","96","344775","0.0-57.0-1.0","""event"",""trial"",""time""
""fullscreenenter"",""0"",""6613""
","
","
","""event"",""trial"",""time""
""fullscreenenter"",""0"",""6613""
","
","null","<p></p>","null","","","","","","","","","","","","","","","","","","","","","","","",""
"","break","97","347105","0.0-58.0-0.0","""event"",""trial"",""time""
""fullscreenenter"",""0"",""6613""
","
","
","""event"",""trial"",""time""
""fullscreenenter"",""0"",""6613""
","
","2329.300000011921","<div class='center'><p>Time to take a quick break! You have 2 minutes to rest, but you can move on sooner if you'd like.</p><p> Press the <b>space bar</b> to continue.</p></div>","32","","","","","","","","","","","","","","","","","","","","","","","",""
"","do_trial","98","350885","0.0-58.0-1.0","""event"",""trial"",""time""
""fullscreenenter"",""0"",""6613""
","
","
","""event"",""trial"",""time""
""fullscreenenter"",""0"",""6613""
","
","1228.9000000059605","","","","","","","","49","0,1,0","6","blank","269","null","0.5548722944343987","0.35528412653555724","0.2544217776915753","0","","","","","","","","",""
"","html-keyboard-response","99","351890","0.0-58.0-2.0","""event"",""trial"",""time""
""fullscreenenter"",""0"",""6613""
","
","
","""event"",""trial"",""time""
""fullscreenenter"",""0"",""6613""
","
","null","<p></p>","null","","","","","","","","","","","","","","","","","","","","","","","",""
"","do_trial","100","354974","0.0-59.0-0.0","""event"",""trial"",""time""
""fullscreenenter"",""0"",""6613""
","
","
","""event"",""trial"",""time""
""fullscreenenter"",""0"",""6613""
","
","538.8000000119209","","","","","","","","51","0,0,0","6","blank","270","null","0.7142346403791708","0.3637511295196501","0.1873448817017011","0","","","","","","","","",""
"","html-keyboard-response","101","355976","0.0-59.0-1.0","""event"",""trial"",""time""
""fullscreenenter"",""0"",""6613""
","
","
","""event"",""trial"",""time""
""fullscreenenter"",""0"",""6613""
","
","null","<p></p>","null","","","","","","","","","","","","","","","","","","","","","","","",""
"","do_trial","102","358915","0.0-60.0-0.0","""event"",""trial"",""time""
""fullscreenenter"",""0"",""6613""
","
","
","""event"",""trial"",""time""
""fullscreenenter"",""0"",""6613""
","
","393.89999997615814","","","","","","","","49","1,1,0","6","blank","271","null","0.5469726189357741","0.43422830738066465","0.21987092028611396","1","","","","","","","","",""
"","html-keyboard-response","103","359925","0.0-60.0-1.0","""event"",""trial"",""time""
""fullscreenenter"",""0"",""6613""
","
","
","""event"",""trial"",""time""
""fullscreenenter"",""0"",""6613""
","
","null","<p></p>","null","","","","","","","","","","","","","","","","","","","","","","","",""
"","do_trial","104","363730","0.0-61.0-0.0","""event"",""trial"",""time""
""fullscreenenter"",""0"",""6613""
","
","
","""event"",""trial"",""time""
""fullscreenenter"",""0"",""6613""
","
","1262.2999999821186","","","","","","","","49","0,0,0","6","blank","272","null","0.40939808197863","0.5082992675975642","0.2648193011427694","0","","","","","","","","",""
"","html-keyboard-response","105","364736","0.0-61.0-1.0","""event"",""trial"",""time""
""fullscreenenter"",""0"",""6613""
","
","
","""event"",""trial"",""time""
""fullscreenenter"",""0"",""6613""
","
","null","<p></p>","null","","","","","","","","","","","","","","","","","","","","","","","",""
"","do_trial","106","367940","0.0-62.0-0.0","""event"",""trial"",""time""
""fullscreenenter"",""0"",""6613""
","
","
","""event"",""trial"",""time""
""fullscreenenter"",""0"",""6613""
","
","654.6000000238419","","","","","","","","50","1,1,0","6","blank","273","null","0.4848856325883695","0.4191386506889254","0.23079034333010667","1","","","","","","","","",""
"","html-keyboard-response","107","368946","0.0-62.0-1.0","""event"",""trial"",""time""
""fullscreenenter"",""0"",""6613""
","
","
","""event"",""trial"",""time""
""fullscreenenter"",""0"",""6613""
","
","null","<p></p>","null","","","","","","","","","","","","","","","","","","","","","","","",""
"","do_recog","108","374964","0.0-63.0-0.0","""event"",""trial"",""time""
""fullscreenenter"",""0"",""6613""
","
","
","""event"",""trial"",""time""
""fullscreenenter"",""0"",""6613""
","
","null","","","","","","","","null","","","","274","probe-247","","","","","0","[object Object]","null","null","0","","","",""
"","html-keyboard-response","109","375966","0.0-63.0-1.0","""event"",""trial"",""time""
""fullscreenenter"",""0"",""6613""
","
","
","""event"",""trial"",""time""
""fullscreenenter"",""0"",""6613""
","
","null","<p></p>","null","","","","","","","","","","","","","","","","","","","","","","","",""
"","do_trial","110","379488","0.0-64.0-0.0","""event"",""trial"",""time""
""fullscreenenter"",""0"",""6613""
","
","
","""event"",""trial"",""time""
""fullscreenenter"",""0"",""6613""
","
","964.7999999821186","","","","","","","","49","0,0,0","6","blank","275","null","0.4300462373935581","0.3257948305360174","0.1943728077666173","0","","","","","","","","",""
"","html-keyboard-response","111","380492","0.0-64.0-1.0","""event"",""trial"",""time""
""fullscreenenter"",""0"",""6613""
","
","
","""event"",""trial"",""time""
""fullscreenenter"",""0"",""6613""
","
","null","<p></p>","null","","","","","","","","","","","","","","","","","","","","","","","",""
"","do_trial","112","383632","0.0-65.0-0.0","""event"",""trial"",""time""
""fullscreenenter"",""0"",""6613""
","
","
","""event"",""trial"",""time""
""fullscreenenter"",""0"",""6613""
","
","595.5","","","","","","","","51","0,0,0","6","blank","276","null","0.6045796025287539","0.48653909567180664","0.14645105952248916","0","","","","","","","","",""
"","html-keyboard-response","113","384638","0.0-65.0-1.0","""event"",""trial"",""time""
""fullscreenenter"",""0"",""6613""
","
","
","""event"",""trial"",""time""
""fullscreenenter"",""0"",""6613""
","
","null","<p></p>","null","","","","","","","","","","","","","","","","","","","","","","","",""
"","do_trial","114","387607","0.0-66.0-0.0","""event"",""trial"",""time""
""fullscreenenter"",""0"",""6613""
","
","
","""event"",""trial"",""time""
""fullscreenenter"",""0"",""6613""
","
","423.2999999821186","","","","","","","","50","0,0,0","6","blank","277","null","0.6055177152003924","0.38655306477392287","0.07387575716052967","0","","","","","","","","",""
"","html-keyboard-response","115","388614","0.0-66.0-1.0","""event"",""trial"",""time""
""fullscreenenter"",""0"",""6613""
","
","
","""event"",""trial"",""time""
""fullscreenenter"",""0"",""6613""
","
","null","<p></p>","null","","","","","","","","","","","","","","","","","","","","","","","",""
"","do_trial","116","391519","0.0-67.0-0.0","""event"",""trial"",""time""
""fullscreenenter"",""0"",""6613""
","
","
","""event"",""trial"",""time""
""fullscreenenter"",""0"",""6613""
","
","365.30000001192093","","","","","","","","50","0,1,0","6","blank","278","null","0.603804514588318","0.3843455792649985","0.10121505967351123","1","","","","","","","","",""
"","html-keyboard-response","117","392526","0.0-67.0-1.0","""event"",""trial"",""time""
""fullscreenenter"",""0"",""6613""
","
","
","""event"",""trial"",""time""
""fullscreenenter"",""0"",""6613""
","
","null","<p></p>","null","","","","","","","","","","","","","","","","","","","","","","","",""
"","do_trial","118","395566","0.0-68.0-0.0","""event"",""trial"",""time""
""fullscreenenter"",""0"",""6613""
","
","
","""event"",""trial"",""time""
""fullscreenenter"",""0"",""6613""
","
","500","","","","","","","","50","1,0,0","6","blank","279","null","0.6038167179684685","0.38705438741186415","0.13576932501817027","0","","","","","","","","",""
"","html-keyboard-response","119","396568","0.0-68.0-1.0","""event"",""trial"",""time""
""fullscreenenter"",""0"",""6613""
","
","
","""event"",""trial"",""time""
""fullscreenenter"",""0"",""6613""
","
","null","<p></p>","null","","","","","","","","","","","","","","","","","","","","","","","",""
"","do_recog","120","402586","0.0-69.0-0.0","""event"",""trial"",""time""
""fullscreenenter"",""0"",""6613""
","
","
","""event"",""trial"",""time""
""fullscreenenter"",""0"",""6613""
","
","null","","","","","","","","null","","","","280","probe-156","","","","","1","[object Object]","37","0","0","","","",""
"","html-keyboard-response","121","403587","0.0-69.0-1.0","""event"",""trial"",""time""
""fullscreenenter"",""0"",""6613""
","
","
","""event"",""trial"",""time""
""fullscreenenter"",""0"",""6613""
","
","null","<p></p>","null","","","","","","","","","","","","","","","","","","","","","","","",""
"","do_trial","122","407038","0.0-70.0-0.0","""event"",""trial"",""time""
""fullscreenenter"",""0"",""6613""
","
","
","""event"",""trial"",""time""
""fullscreenenter"",""0"",""6613""
","
","907.6999999880791","","","","","","","","49","0,0,0","6","blank","281","null","0.574622567567341","0.3332551718160914","0.21181666034048577","0","","","","","","","","",""
"","html-keyboard-response","123","408044","0.0-70.0-1.0","""event"",""trial"",""time""
""fullscreenenter"",""0"",""6613""
","
","
","""event"",""trial"",""time""
""fullscreenenter"",""0"",""6613""
","
","null","<p></p>","null","","","","","","","","","","","","","","","","","","","","","","","",""
"","do_trial","124","411395","0.0-71.0-0.0","""event"",""trial"",""time""
""fullscreenenter"",""0"",""6613""
","
","
","""event"",""trial"",""time""
""fullscreenenter"",""0"",""6613""
","
","805.2999999821186","","","","","","","","49","1,1,0","6","blank","282","null","0.6701883583466188","0.46021024670978555","0.18751703587912819","1","","","","","","","","",""
"","html-keyboard-response","125","412402","0.0-71.0-1.0","""event"",""trial"",""time""
""fullscreenenter"",""0"",""6613""
","
","
","""event"",""trial"",""time""
""fullscreenenter"",""0"",""6613""
","
","null","<p></p>","null","","","","","","","","","","","","","","","","","","","","","","","",""
"","do_trial","126","415431","0.0-72.0-0.0","""event"",""trial"",""time""
""fullscreenenter"",""0"",""6613""
","
","
","""event"",""trial"",""time""
""fullscreenenter"",""0"",""6613""
","
","483.80000001192093","","","","","","","","49","1,0,1","6","blank","283","null","0.7172420399739042","0.43138543347920855","0.22840562988172067","1","","","","","","","","",""
"","html-keyboard-response","127","416436","0.0-72.0-1.0","""event"",""trial"",""time""
""fullscreenenter"",""0"",""6613""
","
","
","""event"",""trial"",""time""
""fullscreenenter"",""0"",""6613""
","
","null","<p></p>","null","","","","","","","","","","","","","","","","","","","","","","","",""
"","do_trial","128","419412","0.0-73.0-0.0","""event"",""trial"",""time""
""fullscreenenter"",""0"",""6613""
","
","
","""event"",""trial"",""time""
""fullscreenenter"",""0"",""6613""
","
","423.09999999403954","","","","","","","","49","1,0,0","6","blank","284","null","0.6384720351565918","0.3995667835776133","0.21361045430566358","1","","","","","","","","",""
"","html-keyboard-response","129","420419","0.0-73.0-1.0","""event"",""trial"",""time""
""fullscreenenter"",""0"",""6613""
","
","
","""event"",""trial"",""time""
""fullscreenenter"",""0"",""6613""
","
","null","<p></p>","null","","","","","","","","","","","","","","","","","","","","","","","",""
"","do_trial","130","423683","0.0-74.0-0.0","""event"",""trial"",""time""
""fullscreenenter"",""0"",""6613""
","
","
","""event"",""trial"",""time""
""fullscreenenter"",""0"",""6613""
","
","722.7999999821186","","","","","","","","49","1,0,0","6","blank","285","null","0.6549776386197571","0.41711435489922977","0.11349000111392062","1","","","","","","","","",""
"","html-keyboard-response","131","424690","0.0-74.0-1.0","""event"",""trial"",""time""
""fullscreenenter"",""0"",""6613""
","
","
","""event"",""trial"",""time""
""fullscreenenter"",""0"",""6613""
","
","null","<p></p>","null","","","","","","","","","","","","","","","","","","","","","","","",""
"","do_recog","132","428675","0.0-75.0-0.0","""event"",""trial"",""time""
""fullscreenenter"",""0"",""6613""
","
","
","""event"",""trial"",""time""
""fullscreenenter"",""0"",""6613""
","
","2478.600000023842","","","","","","","","56","","","","286","probe-246","","","","","0","[object Object]","null","null","1","","","",""
"","html-keyboard-response","133","429682","0.0-75.0-1.0","""event"",""trial"",""time""
""fullscreenenter"",""0"",""6613""
","
","
","""event"",""trial"",""time""
""fullscreenenter"",""0"",""6613""
","
","null","<p></p>","null","","","","","","","","","","","","","","","","","","","","","","","",""
"","do_trial","134","433270","0.0-76.0-0.0","""event"",""trial"",""time""
""fullscreenenter"",""0"",""6613""
","
","
","""event"",""trial"",""time""
""fullscreenenter"",""0"",""6613""
","
","1038.199999988079","","","","","","","","49","0,1,0","6","blank","287","null","0.4802945000171805","0.3901139822933066","0.07219986189004811","0","","","","","","","","",""
"","html-keyboard-response","135","434276","0.0-76.0-1.0","""event"",""trial"",""time""
""fullscreenenter"",""0"",""6613""
","
","
","""event"",""trial"",""time""
""fullscreenenter"",""0"",""6613""
","
","null","<p></p>","null","","","","","","","","","","","","","","","","","","","","","","","",""
"","do_trial","136","437275","0.0-77.0-0.0","""event"",""trial"",""time""
""fullscreenenter"",""0"",""6613""
","
","
","""event"",""trial"",""time""
""fullscreenenter"",""0"",""6613""
","
","450.19999998807907","","","","","","","","51","1,0,0","6","blank","288","null","0.6213073266073728","0.3131285506875866","0.10314267780038704","0","","","","","","","","",""
"","html-keyboard-response","137","438280","0.0-77.0-1.0","""event"",""trial"",""time""
""fullscreenenter"",""0"",""6613""
","
","
","""event"",""trial"",""time""
""fullscreenenter"",""0"",""6613""
","
","null","<p></p>","null","","","","","","","","","","","","","","","","","","","","","","","",""
"","do_trial","138","442215","0.0-78.0-0.0","""event"",""trial"",""time""
""fullscreenenter"",""0"",""6613""
","
","
","""event"",""trial"",""time""
""fullscreenenter"",""0"",""6613""
","
","1389.300000011921","","","","","","","","49","1,0,1","6","blank","289","null","0.6073898600114859","0.23289959604741114","0.07553225900107319","1","","","","","","","","",""
"","html-keyboard-response","139","443218","0.0-78.0-1.0","""event"",""trial"",""time""
""fullscreenenter"",""0"",""6613""
","
","
","""event"",""trial"",""time""
""fullscreenenter"",""0"",""6613""
","
","null","<p></p>","null","","","","","","","","","","","","","","","","","","","","","","","",""
"","do_trial","140","446360","0.0-79.0-0.0","""event"",""trial"",""time""
""fullscreenenter"",""0"",""6613""
","
","
","""event"",""trial"",""time""
""fullscreenenter"",""0"",""6613""
","
","597.6999999880791","","","","","","","","49","1,0,0","6","blank","290","null","0.5397643622571551","0.3367315657799202","0.11845755365938328","1","","","","","","","","",""
"","html-keyboard-response","141","447363","0.0-79.0-1.0","""event"",""trial"",""time""
""fullscreenenter"",""0"",""6613""
","
","
","""event"",""trial"",""time""
""fullscreenenter"",""0"",""6613""
","
","null","<p></p>","null","","","","","","","","","","","","","","","","","","","","","","","",""
"","do_recog","142","451239","0.0-80.0-0.0","""event"",""trial"",""time""
""fullscreenenter"",""0"",""6613""
","
","
","""event"",""trial"",""time""
""fullscreenenter"",""0"",""6613""
","
","2363.9000000059605","","","","","","","","56","","","","291","probe-55","","","","","1","[object Object]","119","2","0","","","",""
"","html-keyboard-response","143","452242","0.0-80.0-1.0","""event"",""trial"",""time""
""fullscreenenter"",""0"",""6613""
","
","
","""event"",""trial"",""time""
""fullscreenenter"",""0"",""6613""
","
","null","<p></p>","null","","","","","","","","","","","","","","","","","","","","","","","",""
"","do_trial","144","455669","0.0-81.0-0.0","""event"",""trial"",""time""
""fullscreenenter"",""0"",""6613""
","
","
","""event"",""trial"",""time""
""fullscreenenter"",""0"",""6613""
","
","886.6999999880791","","","","","","","","49","1,0,0","6","blank","292","null","0.6146147845713531","0.3312802429665965","0.09963327346592608","1","","","","","","","","",""
"","html-keyboard-response","145","456673","0.0-81.0-1.0","""event"",""trial"",""time""
""fullscreenenter"",""0"",""6613""
","
","
","""event"",""trial"",""time""
""fullscreenenter"",""0"",""6613""
","
","null","<p></p>","null","","","","","","","","","","","","","","","","","","","","","","","",""
"","do_trial","146","459670","0.0-82.0-0.0","""event"",""trial"",""time""
""fullscreenenter"",""0"",""6613""
","
","
","""event"",""trial"",""time""
""fullscreenenter"",""0"",""6613""
","
","454.7999999821186","","","","","","","","49","0,0,0","6","blank","293","null","0.5106652833686066","0.4976283190009193","0.13725023995518468","0","","","","","","","","",""
"","html-keyboard-response","147","460677","0.0-82.0-1.0","""event"",""trial"",""time""
""fullscreenenter"",""0"",""6613""
","
","
","""event"",""trial"",""time""
""fullscreenenter"",""0"",""6613""
","
","null","<p></p>","null","","","","","","","","","","","","","","","","","","","","","","","",""
"","do_recog","148","464238","0.0-83.0-0.0","""event"",""trial"",""time""
""fullscreenenter"",""0"",""6613""
","
","
","""event"",""trial"",""time""
""fullscreenenter"",""0"",""6613""
","
","2049","","","","","","","","56","","","","294","probe-14","","","","","1","[object Object]","157","3","0","","","",""
"","html-keyboard-response","149","465240","0.0-83.0-1.0","""event"",""trial"",""time""
""fullscreenenter"",""0"",""6613""
","
","
","""event"",""trial"",""time""
""fullscreenenter"",""0"",""6613""
","
","null","<p></p>","null","","","","","","","","","","","","","","","","","","","","","","","",""
"","do_trial","150","468933","0.0-84.0-0.0","""event"",""trial"",""time""
""fullscreenenter"",""0"",""6613""
","
","
","""event"",""trial"",""time""
""fullscreenenter"",""0"",""6613""
","
","1148.0999999940395","","","","","","","","49","0,1,0","6","blank","295","null","0.3027514022611469","0.5579407347167606","0.24448171824652762","0","","","","","","","","",""
"","html-keyboard-response","151","469938","0.0-84.0-1.0","""event"",""trial"",""time""
""fullscreenenter"",""0"",""6613""
","
","
","""event"",""trial"",""time""
""fullscreenenter"",""0"",""6613""
","
","null","<p></p>","null","","","","","","","","","","","","","","","","","","","","","","","",""
"","do_recog","152","473956","0.0-85.0-0.0","""event"",""trial"",""time""
""fullscreenenter"",""0"",""6613""
","
","
","""event"",""trial"",""time""
""fullscreenenter"",""0"",""6613""
","
","2506.199999988079","","","","","","","","56","","","","296","probe-54","","","","","1","[object Object]","117","2","0","","","",""
"","html-keyboard-response","153","474961","0.0-85.0-1.0","""event"",""trial"",""time""
""fullscreenenter"",""0"",""6613""
","
","
","""event"",""trial"",""time""
""fullscreenenter"",""0"",""6613""
","
","null","<p></p>","null","","","","","","","","","","","","","","","","","","","","","","","",""
"","do_trial","154","478668","0.0-86.0-0.0","""event"",""trial"",""time""
""fullscreenenter"",""0"",""6613""
","
","
","""event"",""trial"",""time""
""fullscreenenter"",""0"",""6613""
","
","1163.0999999940395","","","","","","","","49","0,0,0","6","blank","297","null","0.17976542129248815","0.5141392879519264","0.34550703450054693","0","","","","","","","","",""
"","html-keyboard-response","155","479673","0.0-86.0-1.0","""event"",""trial"",""time""
""fullscreenenter"",""0"",""6613""
","
","
","""event"",""trial"",""time""
""fullscreenenter"",""0"",""6613""
","
","null","<p></p>","null","","","","","","","","","","","","","","","","","","","","","","","",""
"","do_recog","156","482816","0.0-87.0-0.0","""event"",""trial"",""time""
""fullscreenenter"",""0"",""6613""
","
","
","""event"",""trial"",""time""
""fullscreenenter"",""0"",""6613""
","
","1632.3999999761581","","","","","","","","56","","","","298","probe-143","","","","","1","[object Object]","111","2","0","","","",""
"","html-keyboard-response","157","483822","0.0-87.0-1.0","""event"",""trial"",""time""
""fullscreenenter"",""0"",""6613""
","
","
","""event"",""trial"",""time""
""fullscreenenter"",""0"",""6613""
","
","null","<p></p>","null","","","","","","","","","","","","","","","","","","","","","","","",""
"","do_trial","158","487804","0.0-88.0-0.0","""event"",""trial"",""time""
""fullscreenenter"",""0"",""6613""
","
","
","""event"",""trial"",""time""
""fullscreenenter"",""0"",""6613""
","
","1436.9000000059605","","","","","","","","49","0,1,0","6","blank","299","null","0.16146928302749186","0.6688914069184236","0.3303033092826133","0","","","","","","","","",""
"","html-keyboard-response","159","488809","0.0-88.0-1.0","""event"",""trial"",""time""
""fullscreenenter"",""0"",""6613""
","
","
","""event"",""trial"",""time""
""fullscreenenter"",""0"",""6613""
","
","null","<p></p>","null","","","","","","","","","","","","","","","","","","","","","","","",""
"","do_recog","160","491325","0.0-89.0-0.0","""event"",""trial"",""time""
""fullscreenenter"",""0"",""6613""
","
","
","""event"",""trial"",""time""
""fullscreenenter"",""0"",""6613""
","
","1003.3000000119209","","","","","","","","54","","","","300","probe-76","","","","","1","[object Object]","197","4","1","","","",""
"","html-keyboard-response","161","492328","0.0-89.0-1.0","""event"",""trial"",""time""
""fullscreenenter"",""0"",""6613""
","
","
","""event"",""trial"",""time""
""fullscreenenter"",""0"",""6613""
","
","null","<p></p>","null","","","","","","","","","","","","","","","","","","","","","","","",""
"","do_trial","162","496055","0.0-90.0-0.0","""event"",""trial"",""time""
""fullscreenenter"",""0"",""6613""
","
","
","""event"",""trial"",""time""
""fullscreenenter"",""0"",""6613""
","
","1181.699999988079","","","","","","","","49","0,0,1","6","blank","301","null","0.07624351990355034","0.47870358622483333","0.3426393103364842","0","","","","","","","","",""
"","html-keyboard-response","163","497060","0.0-90.0-1.0","""event"",""trial"",""time""
""fullscreenenter"",""0"",""6613""
","
","
","""event"",""trial"",""time""
""fullscreenenter"",""0"",""6613""
","
","null","<p></p>","null","","","","","","","","","","","","","","","","","","","","","","","",""
"","do_trial","164","500560","0.0-91.0-0.0","""event"",""trial"",""time""
""fullscreenenter"",""0"",""6613""
","
","
","""event"",""trial"",""time""
""fullscreenenter"",""0"",""6613""
","
","957.3000000119209","","","","","","","","50","1,0,0","6","blank","302","null","0.19007757604063374","0.4730000269244555","0.4685629090475328","0","","","","","","","","",""
"","html-keyboard-response","165","501567","0.0-91.0-1.0","""event"",""trial"",""time""
""fullscreenenter"",""0"",""6613""
","
","
","""event"",""trial"",""time""
""fullscreenenter"",""0"",""6613""
","
","null","<p></p>","null","","","","","","","","","","","","","","","","","","","","","","","",""
"","do_trial","166","505259","0.0-92.0-0.0","""event"",""trial"",""time""
""fullscreenenter"",""0"",""6613""
","
","
","""event"",""trial"",""time""
""fullscreenenter"",""0"",""6613""
","
","1146.300000011921","","","","","","","","50","0,1,1","6","blank","303","null","0.1153948385804259","0.46771894119131874","0.4243551320400009","1","","","","","","","","",""
"","html-keyboard-response","167","506265","0.0-92.0-1.0","""event"",""trial"",""time""
""fullscreenenter"",""0"",""6613""
","
","
","""event"",""trial"",""time""
""fullscreenenter"",""0"",""6613""
","
","null","<p></p>","null","","","","","","","","","","","","","","","","","","","","","","","",""
"","do_trial","168","509312","0.0-93.0-0.0","""event"",""trial"",""time""
""fullscreenenter"",""0"",""6613""
","
","
","""event"",""trial"",""time""
""fullscreenenter"",""0"",""6613""
","
","505.5","","","","","","","","50","0,1,1","6","blank","304","null","0.116276250946474","0.45038106934556504","0.4247063838996077","1","","","","","","","","",""
"","html-keyboard-response","169","510319","0.0-93.0-1.0","""event"",""trial"",""time""
""fullscreenenter"",""0"",""6613""
","
","
","""event"",""trial"",""time""
""fullscreenenter"",""0"",""6613""
","
","null","<p></p>","null","","","","","","","","","","","","","","","","","","","","","","","",""
"","do_trial","170","513481","0.0-94.0-0.0","""event"",""trial"",""time""
""fullscreenenter"",""0"",""6613""
","
","
","""event"",""trial"",""time""
""fullscreenenter"",""0"",""6613""
","
","622.4000000059605","","","","","","","","50","0,0,1","6","blank","305","null","0.10259987757485936","0.35964987407503324","0.4432046235324939","0","","","","","","","","",""
"","html-keyboard-response","171","514488","0.0-94.0-1.0","""event"",""trial"",""time""
""fullscreenenter"",""0"",""6613""
","
","
","""event"",""trial"",""time""
""fullscreenenter"",""0"",""6613""
","
","null","<p></p>","null","","","","","","","","","","","","","","","","","","","","","","","",""
"","do_trial","172","517451","0.0-95.0-0.0","""event"",""trial"",""time""
""fullscreenenter"",""0"",""6613""
","
","
","""event"",""trial"",""time""
""fullscreenenter"",""0"",""6613""
","
","413","","","","","","","","50","0,1,0","6","blank","306","null","0.19299532366125227","0.5496023287379658","0.3899615273567185","1","","","","","","","","",""
"","html-keyboard-response","173","518457","0.0-95.0-1.0","""event"",""trial"",""time""
""fullscreenenter"",""0"",""6613""
","
","
","""event"",""trial"",""time""
""fullscreenenter"",""0"",""6613""
","
","null","<p></p>","null","","","","","","","","","","","","","","","","","","","","","","","",""
"","do_recog","174","521317","0.0-96.0-0.0","""event"",""trial"",""time""
""fullscreenenter"",""0"",""6613""
","
","
","""event"",""trial"",""time""
""fullscreenenter"",""0"",""6613""
","
","1346.800000011921","","","","","","","","54","","","","307","probe-234","","","","","0","[object Object]","null","null","0","","","",""
"","html-keyboard-response","175","522322","0.0-96.0-1.0","""event"",""trial"",""time""
""fullscreenenter"",""0"",""6613""
","
","
","""event"",""trial"",""time""
""fullscreenenter"",""0"",""6613""
","
","null","<p></p>","null","","","","","","","","","","","","","","","","","","","","","","","",""
"","do_trial","176","525925","0.0-97.0-0.0","""event"",""trial"",""time""
""fullscreenenter"",""0"",""6613""
","
","
","""event"",""trial"",""time""
""fullscreenenter"",""0"",""6613""
","
","1057.300000011921","","","","","","","","50","0,1,0","6","blank","308","null","0.1280850449033366","0.572455615903082","0.3998903939659318","1","","","","","","","","",""
"","html-keyboard-response","177","526932","0.0-97.0-1.0","""event"",""trial"",""time""
""fullscreenenter"",""0"",""6613""
","
","
","""event"",""trial"",""time""
""fullscreenenter"",""0"",""6613""
","
","null","<p></p>","null","","","","","","","","","","","","","","","","","","","","","","","",""
"","break","178","536823","0.0-98.0-0.0","""event"",""trial"",""time""
""fullscreenenter"",""0"",""6613""
","
","
","""event"",""trial"",""time""
""fullscreenenter"",""0"",""6613""
","
","9891.200000017881","<div class='center'><p>Time to take a quick break! You have 2 minutes to rest, but you can move on sooner if you'd like.</p><p> Press the <b>space bar</b> to continue.</p></div>","32","","","","","","","","","","","","","","","","","","","","","","","",""
"","do_trial","179","540153","0.0-98.0-1.0","""event"",""trial"",""time""
""fullscreenenter"",""0"",""6613""
","
","
","""event"",""trial"",""time""
""fullscreenenter"",""0"",""6613""
","
","786.0999999940395","","","","","","","","50","0,1,0","6","blank","309","null","0.06225650597485055","0.6295174782163901","0.326797219686586","1","","","","","","","","",""
"","html-keyboard-response","180","541160","0.0-98.0-2.0","""event"",""trial"",""time""
""fullscreenenter"",""0"",""6613""
","
","
","""event"",""trial"",""time""
""fullscreenenter"",""0"",""6613""
","
","null","<p></p>","null","","","","","","","","","","","","","","","","","","","","","","","",""
"","do_trial","181","544324","0.0-99.0-0.0","""event"",""trial"",""time""
""fullscreenenter"",""0"",""6613""
","
","
","""event"",""trial"",""time""
""fullscreenenter"",""0"",""6613""
","
","622.5","","","","","","","","50","0,0,0","6","blank","310","null","0.08370510801569477","0.5819533123131586","0.2164050613706529","0","","","","","","","","",""
"","html-keyboard-response","182","545329","0.0-99.0-1.0","""event"",""trial"",""time""
""fullscreenenter"",""0"",""6613""
","
","
","""event"",""trial"",""time""
""fullscreenenter"",""0"",""6613""
","
","null","<p></p>","null","","","","","","","","","","","","","","","","","","","","","","","",""
"","do_trial","183","548254","0.0-100.0-0.0","""event"",""trial"",""time""
""fullscreenenter"",""0"",""6613""
","
","
","""event"",""trial"",""time""
""fullscreenenter"",""0"",""6613""
","
","379.90000000596046","","","","","","","","50","0,1,0","6","blank","311","null","0.16503719964355032","0.4909273836051818","0.1701055970323804","1","","","","","","","","",""
"","html-keyboard-response","184","549258","0.0-100.0-1.0","""event"",""trial"",""time""
""fullscreenenter"",""0"",""6613""
","
","
","""event"",""trial"",""time""
""fullscreenenter"",""0"",""6613""
","
","null","<p></p>","null","","","","","","","","","","","","","","","","","","","","","","","",""
"","do_recog","185","553100","0.0-101.0-0.0","""event"",""trial"",""time""
""fullscreenenter"",""0"",""6613""
","
","
","""event"",""trial"",""time""
""fullscreenenter"",""0"",""6613""
","
","2330.2999999821186","","","","","","","","56","","","","312","probe-116","","","","","1","[object Object]","115","2","0","","","",""
"","html-keyboard-response","186","554107","0.0-101.0-1.0","""event"",""trial"",""time""
""fullscreenenter"",""0"",""6613""
","
","
","""event"",""trial"",""time""
""fullscreenenter"",""0"",""6613""
","
","null","<p></p>","null","","","","","","","","","","","","","","","","","","","","","","","",""
"","do_trial","187","557732","0.0-102.0-0.0","""event"",""trial"",""time""
""fullscreenenter"",""0"",""6613""
","
","
","""event"",""trial"",""time""
""fullscreenenter"",""0"",""6613""
","
","1078.0999999940395","","","","","","","","49","0,0,0","6","blank","313","null","0.15288215400835517","0.5600641426425097","0.14540093272475055","0","","","","","","","","",""
"","html-keyboard-response","188","558738","0.0-102.0-1.0","""event"",""trial"",""time""
""fullscreenenter"",""0"",""6613""
","
","
","""event"",""trial"",""time""
""fullscreenenter"",""0"",""6613""
","
","null","<p></p>","null","","","","","","","","","","","","","","","","","","","","","","","",""
"","do_trial","189","561884","0.0-103.0-0.0","""event"",""trial"",""time""
""fullscreenenter"",""0"",""6613""
","
","
","""event"",""trial"",""time""
""fullscreenenter"",""0"",""6613""
","
","597.6999999880791","","","","","","","","49","0,1,0","6","blank","314","null","0.08800662310241451","0.6076348451097879","0.16784647409657985","0","","","","","","","","",""
"","html-keyboard-response","190","562891","0.0-103.0-1.0","""event"",""trial"",""time""
""fullscreenenter"",""0"",""6613""
","
","
","""event"",""trial"",""time""
""fullscreenenter"",""0"",""6613""
","
","null","<p></p>","null","","","","","","","","","","","","","","","","","","","","","","","",""
"","do_trial","191","565965","0.0-104.0-0.0","""event"",""trial"",""time""
""fullscreenenter"",""0"",""6613""
","
","
","""event"",""trial"",""time""
""fullscreenenter"",""0"",""6613""
","
","528.4000000059605","","","","","","","","51","0,1,0","6","blank","315","null","0.12649375604664945","0.5738351708621382","0.1485444866365509","0","","","","","","","","",""
"","html-keyboard-response","192","566971","0.0-104.0-1.0","""event"",""trial"",""time""
""fullscreenenter"",""0"",""6613""
","
","
","""event"",""trial"",""time""
""fullscreenenter"",""0"",""6613""
","
","null","<p></p>","null","","","","","","","","","","","","","","","","","","","","","","","",""
"","do_trial","193","570371","0.0-105.0-0.0","""event"",""trial"",""time""
""fullscreenenter"",""0"",""6613""
","
","
","""event"",""trial"",""time""
""fullscreenenter"",""0"",""6613""
","
","859.5","","","","","","","","49","0,0,0","6","blank","316","null","0.21082460318093538","0.5842982381612964","0.2753433666708372","0","","","","","","","","",""
"","html-keyboard-response","194","571378","0.0-105.0-1.0","""event"",""trial"",""time""
""fullscreenenter"",""0"",""6613""
","
","
","""event"",""trial"",""time""
""fullscreenenter"",""0"",""6613""
","
","null","<p></p>","null","","","","","","","","","","","","","","","","","","","","","","","",""
"","do_trial","195","574939","0.0-106.0-0.0","""event"",""trial"",""time""
""fullscreenenter"",""0"",""6613""
","
","
","""event"",""trial"",""time""
""fullscreenenter"",""0"",""6613""
","
","1016.4000000059605","","","","","","","","50","0,1,0","6","blank","317","null","0.12638606312596118","0.6044075950093027","0.23923096281001927","1","","","","","","","","",""
"","html-keyboard-response","196","575946","0.0-106.0-1.0","""event"",""trial"",""time""
""fullscreenenter"",""0"",""6613""
","
","
","""event"",""trial"",""time""
""fullscreenenter"",""0"",""6613""
","
","null","<p></p>","null","","","","","","","","","","","","","","","","","","","","","","","",""
"","do_trial","197","578901","0.0-107.0-0.0","""event"",""trial"",""time""
""fullscreenenter"",""0"",""6613""
","
","
","""event"",""trial"",""time""
""fullscreenenter"",""0"",""6613""
","
","410","","","","","","","","50","0,0,0","6","blank","318","null","0.16770275377041927","0.5260894546810274","0.27090231190899994","0","","","","","","","","",""
"","html-keyboard-response","198","579907","0.0-107.0-1.0","""event"",""trial"",""time""
""fullscreenenter"",""0"",""6613""
","
","
","""event"",""trial"",""time""
""fullscreenenter"",""0"",""6613""
","
","null","<p></p>","null","","","","","","","","","","","","","","","","","","","","","","","",""
"","do_trial","199","582958","0.0-108.0-0.0","""event"",""trial"",""time""
""fullscreenenter"",""0"",""6613""
","
","
","""event"",""trial"",""time""
""fullscreenenter"",""0"",""6613""
","
","511.09999999403954","","","","","","","","51","0,0,0","6","blank","319","null","0.21337181557669682","0.6120641055164147","0.35998460118007636","0","","","","","","","","",""
"","html-keyboard-response","200","583963","0.0-108.0-1.0","""event"",""trial"",""time""
""fullscreenenter"",""0"",""6613""
","
","
","""event"",""trial"",""time""
""fullscreenenter"",""0"",""6613""
","
","null","<p></p>","null","","","","","","","","","","","","","","","","","","","","","","","",""
"","do_recog","201","586661","0.0-109.0-0.0","""event"",""trial"",""time""
""fullscreenenter"",""0"",""6613""
","
","
","""event"",""trial"",""time""
""fullscreenenter"",""0"",""6613""
","
","1188.0999999940395","","","","","","","","53","","","","320","probe-155","","","","","1","[object Object]","78","1","1","","","",""
"","html-keyboard-response","202","587667","0.0-109.0-1.0","""event"",""trial"",""time""
""fullscreenenter"",""0"",""6613""
","
","
","""event"",""trial"",""time""
""fullscreenenter"",""0"",""6613""
","
","null","<p></p>","null","","","","","","","","","","","","","","","","","","","","","","","",""
"","do_trial","203","591186","0.0-110.0-0.0","""event"",""trial"",""time""
""fullscreenenter"",""0"",""6613""
","
","
","""event"",""trial"",""time""
""fullscreenenter"",""0"",""6613""
","
","973.5","","","","","","","","49","1,1,0","6","blank","321","null","0.24787250215182458","0.7033493317236946","0.3626141883378528","1","","","","","","","","",""
"","html-keyboard-response","204","592191","0.0-110.0-1.0","""event"",""trial"",""time""
""fullscreenenter"",""0"",""6613""
","
","
","""event"",""trial"",""time""
""fullscreenenter"",""0"",""6613""
","
","null","<p></p>","null","","","","","","","","","","","","","","","","","","","","","","","",""
"","do_trial","205","595242","0.0-111.0-0.0","""event"",""trial"",""time""
""fullscreenenter"",""0"",""6613""
","
","
","""event"",""trial"",""time""
""fullscreenenter"",""0"",""6613""
","
","510","","","","","","","","49","0,1,0","6","blank","322","null","0.18555517354230067","0.6771150084684773","0.3844826840941369","0","","","","","","","","",""
"","html-keyboard-response","206","596249","0.0-111.0-1.0","""event"",""trial"",""time""
""fullscreenenter"",""0"",""6613""
","
","
","""event"",""trial"",""time""
""fullscreenenter"",""0"",""6613""
","
","null","<p></p>","null","","","","","","","","","","","","","","","","","","","","","","","",""
"","do_trial","207","599349","0.0-112.0-0.0","""event"",""trial"",""time""
""fullscreenenter"",""0"",""6613""
","
","
","""event"",""trial"",""time""
""fullscreenenter"",""0"",""6613""
","
","555","","","","","","","","50","0,0,0","6","blank","323","null","0.09669995561796448","0.7702700035186806","0.2832240868472609","0","","","","","","","","",""
"","html-keyboard-response","208","600356","0.0-112.0-1.0","""event"",""trial"",""time""
""fullscreenenter"",""0"",""6613""
","
","
","""event"",""trial"",""time""
""fullscreenenter"",""0"",""6613""
","
","null","<p></p>","null","","","","","","","","","","","","","","","","","","","","","","","",""
"","do_trial","209","603288","0.0-113.0-0.0","""event"",""trial"",""time""
""fullscreenenter"",""0"",""6613""
","
","
","""event"",""trial"",""time""
""fullscreenenter"",""0"",""6613""
","
","386.59999999403954","","","","","","","","50","0,1,0","6","blank","324","null","0.13271819859721043","0.740016543237143","0.21191024337244713","1","","","","","","","","",""
"","html-keyboard-response","210","604289","0.0-113.0-1.0","""event"",""trial"",""time""
""fullscreenenter"",""0"",""6613""
","
","
","""event"",""trial"",""time""
""fullscreenenter"",""0"",""6613""
","
","null","<p></p>","null","","","","","","","","","","","","","","","","","","","","","","","",""
"","do_trial","211","607257","0.0-114.0-0.0","""event"",""trial"",""time""
""fullscreenenter"",""0"",""6613""
","
","
","""event"",""trial"",""time""
""fullscreenenter"",""0"",""6613""
","
","424.69999998807907","","","","","","","","50","0,1,0","6","blank","325","null","0.05920059912380464","0.5763120008291174","0.23959811315732737","1","","","","","","","","",""
"","html-keyboard-response","212","608264","0.0-114.0-1.0","""event"",""trial"",""time""
""fullscreenenter"",""0"",""6613""
","
","
","""event"",""trial"",""time""
""fullscreenenter"",""0"",""6613""
","
","null","<p></p>","null","","","","","","","","","","","","","","","","","","","","","","","",""
"","do_recog","213","612396","0.0-115.0-0.0","""event"",""trial"",""time""
""fullscreenenter"",""0"",""6613""
","
","
","""event"",""trial"",""time""
""fullscreenenter"",""0"",""6613""
","
","2623.899999976158","","","","","","","","54","","","","326","probe-169","","","","","1","[object Object]","116","2","1","","","",""
"","html-keyboard-response","214","613402","0.0-115.0-1.0","""event"",""trial"",""time""
""fullscreenenter"",""0"",""6613""
","
","
","""event"",""trial"",""time""
""fullscreenenter"",""0"",""6613""
","
","null","<p></p>","null","","","","","","","","","","","","","","","","","","","","","","","",""
"","do_trial","215","616863","0.0-116.0-0.0","""event"",""trial"",""time""
""fullscreenenter"",""0"",""6613""
","
","
","""event"",""trial"",""time""
""fullscreenenter"",""0"",""6613""
","
","915","","","","","","","","49","0,1,0","6","blank","327","null","0.0628807544961165","0.5468797711088851","0.30497891852692044","0","","","","","","","","",""
"","html-keyboard-response","216","617865","0.0-116.0-1.0","""event"",""trial"",""time""
""fullscreenenter"",""0"",""6613""
","
","
","""event"",""trial"",""time""
""fullscreenenter"",""0"",""6613""
","
","null","<p></p>","null","","","","","","","","","","","","","","","","","","","","","","","",""
"","do_recog","217","621254","0.0-117.0-0.0","""event"",""trial"",""time""
""fullscreenenter"",""0"",""6613""
","
","
","""event"",""trial"",""time""
""fullscreenenter"",""0"",""6613""
","
","1877.199999988079","","","","","","","","56","","","","328","probe-224","","","","","1","[object Object]","79","1","0","","","",""
"","html-keyboard-response","218","622261","0.0-117.0-1.0","""event"",""trial"",""time""
""fullscreenenter"",""0"",""6613""
","
","
","""event"",""trial"",""time""
""fullscreenenter"",""0"",""6613""
","
","null","<p></p>","null","","","","","","","","","","","","","","","","","","","","","","","",""
"","do_trial","219","625600","0.0-118.0-0.0","""event"",""trial"",""time""
""fullscreenenter"",""0"",""6613""
","
","
","""event"",""trial"",""time""
""fullscreenenter"",""0"",""6613""
","
","795.9000000059605","","","","","","","","49","1,1,0","6","blank","329","null","0.06171724145886686","0.5251882367800359","0.32942816725453067","1","","","","","","","","",""
"","html-keyboard-response","220","626607","0.0-118.0-1.0","""event"",""trial"",""time""
""fullscreenenter"",""0"",""6613""
","
","
","""event"",""trial"",""time""
""fullscreenenter"",""0"",""6613""
","
","null","<p></p>","null","","","","","","","","","","","","","","","","","","","","","","","",""
"","do_trial","221","629766","0.0-119.0-0.0","""event"",""trial"",""time""
""fullscreenenter"",""0"",""6613""
","
","
","""event"",""trial"",""time""
""fullscreenenter"",""0"",""6613""
","
","611","","","","","","","","49","0,0,0","6","blank","330","null","0.08176045895086034","0.5481870123669506","0.27678201694370025","0","","","","","","","","",""
"","html-keyboard-response","222","630773","0.0-119.0-1.0","""event"",""trial"",""time""
""fullscreenenter"",""0"",""6613""
","
","
","""event"",""trial"",""time""
""fullscreenenter"",""0"",""6613""
","
","null","<p></p>","null","","","","","","","","","","","","","","","","","","","","","","","",""
"","do_recog","223","634353","0.0-120.0-0.0","""event"",""trial"",""time""
""fullscreenenter"",""0"",""6613""
","
","
","""event"",""trial"",""time""
""fullscreenenter"",""0"",""6613""
","
","2067.600000023842","","","","","","","","55","","","","331","probe-58","","","","","1","[object Object]","38","0","0","","","",""
"","html-keyboard-response","224","635359","0.0-120.0-1.0","""event"",""trial"",""time""
""fullscreenenter"",""0"",""6613""
","
","
","""event"",""trial"",""time""
""fullscreenenter"",""0"",""6613""
","
","null","<p></p>","null","","","","","","","","","","","","","","","","","","","","","","","",""
"","do_trial","225","639141","0.0-121.0-0.0","""event"",""trial"",""time""
""fullscreenenter"",""0"",""6613""
","
","
","""event"",""trial"",""time""
""fullscreenenter"",""0"",""6613""
","
","1235.5","","","","","","","","51","0,1,0","6","blank","332","null","0.0828457406136349","0.6181113803979563","0.4025911616412573","0","","","","","","","","",""
"","html-keyboard-response","226","640148","0.0-121.0-1.0","""event"",""trial"",""time""
""fullscreenenter"",""0"",""6613""
","
","
","""event"",""trial"",""time""
""fullscreenenter"",""0"",""6613""
","
","null","<p></p>","null","","","","","","","","","","","","","","","","","","","","","","","",""
"","do_trial","227","643167","0.0-122.0-0.0","""event"",""trial"",""time""
""fullscreenenter"",""0"",""6613""
","
","
","""event"",""trial"",""time""
""fullscreenenter"",""0"",""6613""
","
","471.80000001192093","","","","","","","","49","1,1,0","6","blank","333","null","0.11775902347550365","0.6439410527078708","0.3832579882136408","1","","","","","","","","",""
"","html-keyboard-response","228","644173","0.0-122.0-1.0","""event"",""trial"",""time""
""fullscreenenter"",""0"",""6613""
","
","
","""event"",""trial"",""time""
""fullscreenenter"",""0"",""6613""
","
","null","<p></p>","null","","","","","","","","","","","","","","","","","","","","","","","",""
"","do_trial","229","647380","0.0-123.0-0.0","""event"",""trial"",""time""
""fullscreenenter"",""0"",""6613""
","
","
","""event"",""trial"",""time""
""fullscreenenter"",""0"",""6613""
","
","661.4000000059605","","","","","","","","49","0,1,0","6","blank","334","null","0.1234924736371542","0.7805281804047755","0.2607954034604992","0","","","","","","","","",""
"","html-keyboard-response","230","648387","0.0-123.0-1.0","""event"",""trial"",""time""
""fullscreenenter"",""0"",""6613""
","
","
","""event"",""trial"",""time""
""fullscreenenter"",""0"",""6613""
","
","null","<p></p>","null","","","","","","","","","","","","","","","","","","","","","","","",""
"","do_trial","231","651591","0.0-124.0-0.0","""event"",""trial"",""time""
""fullscreenenter"",""0"",""6613""
","
","
","""event"",""trial"",""time""
""fullscreenenter"",""0"",""6613""
","
","663.3000000119209","","","","","","","","50","1,1,0","6","blank","335","null","0.11823024277587575","0.7188979976322952","0.2792003514044862","1","","","","","","","","",""
"","html-keyboard-response","232","652596","0.0-124.0-1.0","""event"",""trial"",""time""
""fullscreenenter"",""0"",""6613""
","
","
","""event"",""trial"",""time""
""fullscreenenter"",""0"",""6613""
","
","null","<p></p>","null","","","","","","","","","","","","","","","","","","","","","","","",""
"","do_trial","233","655686","0.0-125.0-0.0","""event"",""trial"",""time""
""fullscreenenter"",""0"",""6613""
","
","
","""event"",""trial"",""time""
""fullscreenenter"",""0"",""6613""
","
","542.9000000059605","","","","","","","","50","0,1,0","6","blank","336","null","0.10435087342788102","0.6290715944228414","0.23421067340325746","1","","","","","","","","",""
"","html-keyboard-response","234","656693","0.0-125.0-1.0","""event"",""trial"",""time""
""fullscreenenter"",""0"",""6613""
","
","
","""event"",""trial"",""time""
""fullscreenenter"",""0"",""6613""
","
","null","<p></p>","null","","","","","","","","","","","","","","","","","","","","","","","",""
"","do_recog","235","662705","0.0-126.0-0.0","""event"",""trial"",""time""
""fullscreenenter"",""0"",""6613""
","
","
","""event"",""trial"",""time""
""fullscreenenter"",""0"",""6613""
","
","null","","","","","","","","null","","","","337","probe-105","","","","","1","[object Object]","199","4","0","","","",""
"","html-keyboard-response","236","663711","0.0-126.0-1.0","""event"",""trial"",""time""
""fullscreenenter"",""0"",""6613""
","
","
","""event"",""trial"",""time""
""fullscreenenter"",""0"",""6613""
","
","null","<p></p>","null","","","","","","","","","","","","","","","","","","","","","","","",""
"","do_trial","237","667414","0.0-127.0-0.0","""event"",""trial"",""time""
""fullscreenenter"",""0"",""6613""
","
","
","""event"",""trial"",""time""
""fullscreenenter"",""0"",""6613""
","
","1157.7999999821186","","","","","","","","49","0,0,0","6","blank","338","null","0.06216907158195508","0.629908309324605","0.26288990345754604","0","","","","","","","","",""
"","html-keyboard-response","238","668417","0.0-127.0-1.0","""event"",""trial"",""time""
""fullscreenenter"",""0"",""6613""
","
","
","""event"",""trial"",""time""
""fullscreenenter"",""0"",""6613""
","
","null","<p></p>","null","","","","","","","","","","","","","","","","","","","","","","","",""
"","do_recog","239","672375","0.0-128.0-0.0","""event"",""trial"",""time""
""fullscreenenter"",""0"",""6613""
","
","
","""event"",""trial"",""time""
""fullscreenenter"",""0"",""6613""
","
","2446.199999988079","","","","","","","","54","","","","339","probe-26","","","","","1","[object Object]","112","2","1","","","",""
"","html-keyboard-response","240","673381","0.0-128.0-1.0","""event"",""trial"",""time""
""fullscreenenter"",""0"",""6613""
","
","
","""event"",""trial"",""time""
""fullscreenenter"",""0"",""6613""
","
","null","<p></p>","null","","","","","","","","","","","","","","","","","","","","","","","",""
"","do_trial","241","677725","0.0-129.0-0.0","""event"",""trial"",""time""
""fullscreenenter"",""0"",""6613""
","
","
","""event"",""trial"",""time""
""fullscreenenter"",""0"",""6613""
","
","1798.4000000059605","","","","","","","","49","0,0,0","6","blank","340","null","0.22179866986270508","0.645815425324903","0.20122421866414733","0","","","","","","","","",""
"","html-keyboard-response","242","678731","0.0-129.0-1.0","""event"",""trial"",""time""
""fullscreenenter"",""0"",""6613""
","
","
","""event"",""trial"",""time""
""fullscreenenter"",""0"",""6613""
","
","null","<p></p>","null","","","","","","","","","","","","","","","","","","","","","","","",""
"","do_trial","243","682464","0.0-130.0-0.0","""event"",""trial"",""time""
""fullscreenenter"",""0"",""6613""
","
","
","""event"",""trial"",""time""
""fullscreenenter"",""0"",""6613""
","
","1185.7000000178814","","","","","","","","50","1,1,0","6","blank","341","null","0.16798957463312122","0.6686722435982594","0.3442432944856194","1","","","","","","","","",""
"","html-keyboard-response","244","683466","0.0-130.0-1.0","""event"",""trial"",""time""
""fullscreenenter"",""0"",""6613""
","
","
","""event"",""trial"",""time""
""fullscreenenter"",""0"",""6613""
","
","null","<p></p>","null","","","","","","","","","","","","","","","","","","","","","","","",""
"","do_trial","245","687528","0.0-131.0-0.0","""event"",""trial"",""time""
""fullscreenenter"",""0"",""6613""
","
","
","""event"",""trial"",""time""
""fullscreenenter"",""0"",""6613""
","
","1515.800000011921","","","","","","","","49","0,1,1","6","blank","342","null","0.07156871638881779","0.6912524932109243","0.31598329190036517","0","","","","","","","","",""
"","html-keyboard-response","246","688534","0.0-131.0-1.0","""event"",""trial"",""time""
""fullscreenenter"",""0"",""6613""
","
","
","""event"",""trial"",""time""
""fullscreenenter"",""0"",""6613""
","
","null","<p></p>","null","","","","","","","","","","","","","","","","","","","","","","","",""
"","do_trial","247","691741","0.0-132.0-0.0","""event"",""trial"",""time""
""fullscreenenter"",""0"",""6613""
","
","
","""event"",""trial"",""time""
""fullscreenenter"",""0"",""6613""
","
","664.2000000178814","","","","","","","","51","0,0,1","6","blank","343","null","0.13449012029967952","0.4961084436387621","0.25955496829577684","1","","","","","","","","",""
"","html-keyboard-response","248","692748","0.0-132.0-1.0","""event"",""trial"",""time""
""fullscreenenter"",""0"",""6613""
","
","
","""event"",""trial"",""time""
""fullscreenenter"",""0"",""6613""
","
","null","<p></p>","null","","","","","","","","","","","","","","","","","","","","","","","",""
"","do_trial","249","696069","0.0-133.0-0.0","""event"",""trial"",""time""
""fullscreenenter"",""0"",""6613""
","
","
","""event"",""trial"",""time""
""fullscreenenter"",""0"",""6613""
","
","780.3999999761581","","","","","","","","51","1,1,0","6","blank","344","null","0.3080236835327526","0.3074159872822529","0.3960704026128535","0","","","","","","","","",""
"","html-keyboard-response","250","697072","0.0-133.0-1.0","""event"",""trial"",""time""
""fullscreenenter"",""0"",""6613""
","
","
","""event"",""trial"",""time""
""fullscreenenter"",""0"",""6613""
","
","null","<p></p>","null","","","","","","","","","","","","","","","","","","","","","","","",""
"","do_trial","251","700066","0.0-134.0-0.0","""event"",""trial"",""time""
""fullscreenenter"",""0"",""6613""
","
","
","""event"",""trial"",""time""
""fullscreenenter"",""0"",""6613""
","
","452.59999999403954","","","","","","","","50","1,0,1","6","blank","345","null","0.25085633865634355","0.1094804085915543","0.2739875023180409","0","","","","","","","","",""
"","html-keyboard-response","252","701070","0.0-134.0-1.0","""event"",""trial"",""time""
""fullscreenenter"",""0"",""6613""
","
","
","""event"",""trial"",""time""
""fullscreenenter"",""0"",""6613""
","
","null","<p></p>","null","","","","","","","","","","","","","","","","","","","","","","","",""
"","do_recog","253","704634","0.0-135.0-0.0","""event"",""trial"",""time""
""fullscreenenter"",""0"",""6613""
","
","
","""event"",""trial"",""time""
""fullscreenenter"",""0"",""6613""
","
","2053.7999999821186","","","","","","","","54","","","","346","probe-98","","","","","1","[object Object]","194","4","1","","","",""
"","html-keyboard-response","254","705640","0.0-135.0-1.0","""event"",""trial"",""time""
""fullscreenenter"",""0"",""6613""
","
","
","""event"",""trial"",""time""
""fullscreenenter"",""0"",""6613""
","
","null","<p></p>","null","","","","","","","","","","","","","","","","","","","","","","","",""
"","do_trial","255","709619","0.0-136.0-0.0","""event"",""trial"",""time""
""fullscreenenter"",""0"",""6613""
","
","
","""event"",""trial"",""time""
""fullscreenenter"",""0"",""6613""
","
","1433.9000000059605","","","","","","","","49","0,0,0","6","blank","347","null","0.23339308258837835","0.11571247346435336","0.3095945317072149","0","","","","","","","","",""
"","html-keyboard-response","256","710621","0.0-136.0-1.0","""event"",""trial"",""time""
""fullscreenenter"",""0"",""6613""
","
","
","""event"",""trial"",""time""
""fullscreenenter"",""0"",""6613""
","
","null","<p></p>","null","","","","","","","","","","","","","","","","","","","","","","","",""
"","do_trial","257","713933","0.0-137.0-0.0","""event"",""trial"",""time""
""fullscreenenter"",""0"",""6613""
","
","
","""event"",""trial"",""time""
""fullscreenenter"",""0"",""6613""
","
","761.6999999880791","","","","","","","","49","1,0,1","6","blank","348","null","0.26206448490244016","0.20470363025230934","0.32696920399371315","1","","","","","","","","",""
"","html-keyboard-response","258","714938","0.0-137.0-1.0","""event"",""trial"",""time""
""fullscreenenter"",""0"",""6613""
","
","
","""event"",""trial"",""time""
""fullscreenenter"",""0"",""6613""
","
","null","<p></p>","null","","","","","","","","","","","","","","","","","","","","","","","",""
"","break","259","722823","0.0-138.0-0.0","""event"",""trial"",""time""
""fullscreenenter"",""0"",""6613""
","
","
","""event"",""trial"",""time""
""fullscreenenter"",""0"",""6613""
","
","7884.5999999940395","<div class='center'><p>Time to take a quick break! You have 2 minutes to rest, but you can move on sooner if you'd like.</p><p> Press the <b>space bar</b> to continue.</p></div>","32","","","","","","","","","","","","","","","","","","","","","","","",""
"","do_trial","260","725878","0.0-138.0-1.0","""event"",""trial"",""time""
""fullscreenenter"",""0"",""6613""
","
","
","""event"",""trial"",""time""
""fullscreenenter"",""0"",""6613""
","
","507.5","","","","","","","","49","0,0,1","6","blank","349","null","0.3103988501368098","0.22742562963485655","0.3164050248708698","0","","","","","","","","",""
"","html-keyboard-response","261","726880","0.0-138.0-2.0","""event"",""trial"",""time""
""fullscreenenter"",""0"",""6613""
","
","
","""event"",""trial"",""time""
""fullscreenenter"",""0"",""6613""
","
","null","<p></p>","null","","","","","","","","","","","","","","","","","","","","","","","",""
"","do_trial","262","730098","0.0-139.0-0.0","""event"",""trial"",""time""
""fullscreenenter"",""0"",""6613""
","
","
","""event"",""trial"",""time""
""fullscreenenter"",""0"",""6613""
","
","663.3999999761581","","","","","","","","51","0,0,1","6","blank","350","null","0.29403274252273465","0.06376705529067017","0.4335601454688498","1","","","","","","","","",""
"","html-keyboard-response","263","731104","0.0-139.0-1.0","""event"",""trial"",""time""
""fullscreenenter"",""0"",""6613""
","
","
","""event"",""trial"",""time""
""fullscreenenter"",""0"",""6613""
","
","null","<p></p>","null","","","","","","","","","","","","","","","","","","","","","","","",""
"","do_recog","264","734847","0.0-140.0-0.0","""event"",""trial"",""time""
""fullscreenenter"",""0"",""6613""
","
","
","""event"",""trial"",""time""
""fullscreenenter"",""0"",""6613""
","
","2228.9000000059605","","","","","","","","54","","","","351","probe-111","","","","","1","[object Object]","195","4","1","","","",""
"","html-keyboard-response","265","735853","0.0-140.0-1.0","""event"",""trial"",""time""
""fullscreenenter"",""0"",""6613""
","
","
","""event"",""trial"",""time""
""fullscreenenter"",""0"",""6613""
","
","null","<p></p>","null","","","","","","","","","","","","","","","","","","","","","","","",""
"","do_trial","266","739235","0.0-141.0-0.0","""event"",""trial"",""time""
""fullscreenenter"",""0"",""6613""
","
","
","""event"",""trial"",""time""
""fullscreenenter"",""0"",""6613""
","
","836.3999999761581","","","","","","","","51","0,0,0","6","blank","352","null","0.45706992385088396","0.07787178833713111","0.462644755794641","0","","","","","","","","",""
"","html-keyboard-response","267","740242","0.0-141.0-1.0","""event"",""trial"",""time""
""fullscreenenter"",""0"",""6613""
","
","
","""event"",""trial"",""time""
""fullscreenenter"",""0"",""6613""
","
","null","<p></p>","null","","","","","","","","","","","","","","","","","","","","","","","",""
"","do_trial","268","743415","0.0-142.0-0.0","""event"",""trial"",""time""
""fullscreenenter"",""0"",""6613""
","
","
","""event"",""trial"",""time""
""fullscreenenter"",""0"",""6613""
","
","629.7000000178814","","","","","","","","49","1,0,0","6","blank","353","null","0.4206075905256574","0.10714256008243492","0.5151547772530987","1","","","","","","","","",""
"","html-keyboard-response","269","744422","0.0-142.0-1.0","""event"",""trial"",""time""
""fullscreenenter"",""0"",""6613""
","
","
","""event"",""trial"",""time""
""fullscreenenter"",""0"",""6613""
","
","null","<p></p>","null","","","","","","","","","","","","","","","","","","","","","","","",""
"","do_trial","270","747811","0.0-143.0-0.0","""event"",""trial"",""time""
""fullscreenenter"",""0"",""6613""
","
","
","""event"",""trial"",""time""
""fullscreenenter"",""0"",""6613""
","
","845","","","","","","","","49","1,0,0","6","blank","354","null","0.42576364659135635","0.10822253473782822","0.6628562514634402","1","","","","","","","","",""
"","html-keyboard-response","271","748815","0.0-143.0-1.0","""event"",""trial"",""time""
""fullscreenenter"",""0"",""6613""
","
","
","""event"",""trial"",""time""
""fullscreenenter"",""0"",""6613""
","
","null","<p></p>","null","","","","","","","","","","","","","","","","","","","","","","","",""
"","do_trial","272","752108","0.0-144.0-0.0","""event"",""trial"",""time""
""fullscreenenter"",""0"",""6613""
","
","
","""event"",""trial"",""time""
""fullscreenenter"",""0"",""6613""
","
","744","","","","","","","","49","1,0,1","6","blank","355","null","0.46073353676118617","0.08492389920254538","0.709927774774206","1","","","","","","","","",""
"","html-keyboard-response","273","753115","0.0-144.0-1.0","""event"",""trial"",""time""
""fullscreenenter"",""0"",""6613""
","
","
","""event"",""trial"",""time""
""fullscreenenter"",""0"",""6613""
","
","null","<p></p>","null","","","","","","","","","","","","","","","","","","","","","","","",""
"","do_trial","274","756248","0.0-145.0-0.0","""event"",""trial"",""time""
""fullscreenenter"",""0"",""6613""
","
","
","""event"",""trial"",""time""
""fullscreenenter"",""0"",""6613""
","
","593.3999999761581","","","","","","","","49","0,0,1","6","blank","356","null","0.47201121423489606","0.17136043880347315","0.5939699283703642","0","","","","","","","","",""
"","html-keyboard-response","275","757255","0.0-145.0-1.0","""event"",""trial"",""time""
""fullscreenenter"",""0"",""6613""
","
","
","""event"",""trial"",""time""
""fullscreenenter"",""0"",""6613""
","
","null","<p></p>","null","","","","","","","","","","","","","","","","","","","","","","","",""
"","do_recog","276","760884","0.0-146.0-0.0","""event"",""trial"",""time""
""fullscreenenter"",""0"",""6613""
","
","
","""event"",""trial"",""time""
""fullscreenenter"",""0"",""6613""
","
","2116.300000011921","","","","","","","","54","","","","357","probe-135","","","","","1","[object Object]","73","1","1","","","",""
"","html-keyboard-response","277","761890","0.0-146.0-1.0","""event"",""trial"",""time""
""fullscreenenter"",""0"",""6613""
","
","
