"success","trial_type","trial_index","time_elapsed","internal_node_id","rt","stimulus","key_press","subject_id","participant_id","age","gender","prompt","response","choice_outcomes","context_n","context_img_id","trial_n","probe_img_id","pR_red","pR_white","pR_black","outcome","is_valid","image_to_show","probed_trial","probed_context","correct","probe","probed_trial_n","probed_context_n","context_im"
"true","fullscreen","0","11051","0.0-0.0","","","","","","","","","","","","","","","","","","","","","","","","","","",""
"","pavlovia","1","11055","0.0-1.0","","","","","","","","","","","","","","","","","","","","","","","","","","",""
"","welc_back","2","23755","0.0-2.0","null","run_exp/static/audio/clip_29_welcome_back.m4a","null","57","65","9","female","<div class='center'><p>Welcome to day 2!</p><p> Yesterday, you were the head captain of a pirate ship. You and your fellow pirates robbed ships for their gold and traveled to six different islands .</p></div>","","","","","","","","","","","","","","","","","","",""
"","html-keyboard-response","3","24584","0.0-3.0","828.2000000029802","<div class='center'><p>Welcome to day 2!</p><p> Yesterday, you were the head captain of a pirate ship. You and your fellow pirates robbed ships for their gold and traveled to six different islands .</p><p><b>[Press the space bar to continue]</b></p></div>","32","","","","","","","","","","","","","","","","","","","","","","","",""
"","day_1_summary_goal","4","44533","0.0-4.0","null","run_exp/static/audio/clip_30_goal_of_game.m4a","null","","","","","<div class='center'><p>Today, like yesterday, you get to pick which pirate you want to rob the next ship.</p><p>If the pirate is successful in robbing a ship, you get gold coins that look like this: </p><p><img src='run_exp/static/images/tutorial/reward.png' height='150'></p><p> If they were not successful in robbing the ship, then you will get no gold coins and you'll see a big red x like this: </p><p><img src='run_exp/static/images/tutorial/reward_no.png' height='150'></p></div>","","","","","","","","","","","","","","","","","","",""
"","html-keyboard-response","5","44642","0.0-5.0","106.89999999850988","<div class='center'><p>Today, like yesterday, you get to pick which pirate you want to rob the next ship.</p><p>If the pirate is successful in robbing a ship, you get gold coins that look like this: </p><p><img src='run_exp/static/images/tutorial/reward.png' height='150'></p><p> If they were not successful in robbing the ship, then you will get no gold coins and you'll see a big red x like this: </p><p><img src='run_exp/static/images/tutorial/reward_no.png' height='150'></p><p><b>[Press the space bar to continue]</b></p></div>","32","","","","","","","","","","","","","","","","","","","","","","","",""
"","day_1_summary_pick","6","62452","0.0-6.0","null","run_exp/static/audio/clip_31_how_to_pick_a_pirate.m4a","null","","","","","<div class='center'><p>Also, just like yesterday, you will use the 1,2,3 keys on your keyboard to pick a pirate. Press '1' to choose red beard, '2' to choose white beard, and '3' to choose black beard . You only have 3 seconds to pick a pirate, so please make a choice quickly!</p></div>","","","","","","","","","","","","","","","","","","",""
"","html-keyboard-response","7","65458","0.0-7.0","3005.10000000149","<div class='center'><p>Also, just like yesterday, you will use the 1,2,3 keys on your keyboard to pick a pirate. Press '1' to choose red beard, '2' to choose white beard, and '3' to choose black beard . You only have 3 seconds to pick a pirate, so please make a choice quickly!</p><p><b>[Press the space bar to continue]</b></p></div>","32","","","","","","","","","","","","","","","","","","","","","","","",""
"","test_phase_begin","8","89888","0.0-8.0","null","run_exp/static/audio/clip_32_final_place.m4a","null","","","","","<div class='center'><p>You’ve arrived at the final island of your journey! Unfortunately, it’s very foggy out, so you won’t be able to see it in the distance like the other islands you've visited.</p><p>You’ll still be deciding which pirate you want to rob a ship like before. However, because of the fog, you also won’t be able to see the ship.</p><p>This means you do not have to remember the ships you rob on this island.</p></p></div>","","","","","","","","","","","","","","","","","","",""
"","html-keyboard-response","9","90724","0.0-9.0","835.8000000044703","<div class='center'><p>You’ve arrived at the final island of your journey! Unfortunately, it’s very foggy out, so you won’t be able to see it in the distance like the other islands you've visited.</p><p>You’ll still be deciding which pirate you want to rob a ship like before. However, because of the fog, you also won’t be able to see the ship.</p><p>This means you do not have to remember the ships you rob on this island.</p></p><p><b>[Press the space bar to continue]</b></p></div>","32","","","","","","","","","","","","","","","","","","","","","","","",""
"","explain_probe_1","10","100128","0.0-10.0","null","run_exp/static/audio/clip_33_recognition_1.m4a","null","","","","","<div class='center'><p> Sometimes you’ll be shown a ship, and you will be asked if you saw this ship on a past island.</p><p> Here is an example of what you will see.</p><p><img src='run_exp/static/images/tutorial/example_recog_trial.png' height='500'></p></div>","","","","","","","","","","","","","","","","","","",""
"","html-keyboard-response","11","101603","0.0-11.0","1474.7999999970198","<div class='center'><p> Sometimes you’ll be shown a ship, and you will be asked if you saw this ship on a past island.</p><p> Here is an example of what you will see.</p><p><img src='run_exp/static/images/tutorial/example_recog_trial.png' height='500'></p><p><b>[Press the space bar to continue]</b></p></div>","32","","","","","","","","","","","","","","","","","","","","","","","",""
"","explain_probe_2","12","128415","0.0-12.0","null","run_exp/static/audio/clip_34_recognition_2.m4a","null","","","","","<div class='center'><p> You will press the 5, 6, 7, 8 keys on your keyboard to respond.</p><p>If you are very sure saw the ship, press <b>5</b> on your keyboard.</p><p> If you think you  saw it before but are not sure, then press <b>6</b>.</p><p> If you think you have <b>not</b> seen it before but are not sure, then press <b>7</b>.</p><p> If you are sure you did <b>not</b> see the ship before, then press <b>8</b>.</p><p><img src='run_exp/static/images/tutorial/example_recog_trial.png' height='500'></p></div>","","","","","","","","","","","","","","","","","","",""
"","html-keyboard-response","13","131309","0.0-13.0","2892.1999999955297","<div class='center'><p> You will press the 5, 6, 7, 8 keys on your keyboard to respond.</p><p>If you are very sure saw the ship, press <b>5</b> on your keyboard.</p><p> If you think you  saw it before but are not sure, then press <b>6</b>.</p><p> If you think you have <b>not</b> seen it before but are not sure, then press <b>7</b>.</p><p> If you are sure you did <b>not</b> see the ship before, then press <b>8</b>.</p><p><img src='run_exp/static/images/tutorial/example_recog_trial.png' height='500'></p><p><b>[Press the space bar to continue]</b></p></div>","32","","","","","","","","","","","","","","","","","","","","","","","",""
"","explain_outcome","14","152821","0.0-14.0","null","run_exp/static/audio/clip_35_recognition_3.m4a","null","","","","","<div class='center'><p> If you remember correctly, then you’ll get a gold coin like this: </p><p><img src='run_exp/static/images/tutorial/reward_small.png' height='200'></p><p>If you do not remember correctly, then you'll see a red x like this: </p><p><img src='run_exp/static/images/tutorial/reward_no.png' height='200'></p><p>Importantly, when you are shown a ship, take the time to remind yourself which island you saw it on. This will help you in the next part of the study.</p></div>","","","","","","","","","","","","","","","","","","",""
"","html-keyboard-response","15","152829","0.0-15.0","7.199999995529652","<div class='center'><p> If you remember correctly, then you’ll get a gold coin like this: </p><p><img src='run_exp/static/images/tutorial/reward_small.png' height='200'></p><p>If you do not remember correctly, then you'll see a red x like this: </p><p><img src='run_exp/static/images/tutorial/reward_no.png' height='200'></p><p>Importantly, when you are shown a ship, take the time to remind yourself which island you saw it on. This will help you in the next part of the study.</p><p><b>[Press the space bar to continue]</b></p></div>","32","","","","","","","","","","","","","","","","","","","","","","","",""
"","begin_test_phase","16","177332","0.0-16.0","null","run_exp/static/audio/clip_36_begin_final.m4a","null","","","","","<div class='center'><p>Let's go over the important points again. Your job is to: </p><p>1. Pick the pirate who is best at robbing ships and will bring you back gold coins. </p><p>2. Correctly remember whether or not you saw a ship before. If you did see the ship before, remind yourself on which island you saw the ship. </p></div>","","","","","","","","","","","","","","","","","","",""
"","html-keyboard-response","17","177802","0.0-17.0","439.6000000014901","<div class='center'><p>Let's go over the important points again. Your job is to: </p><p>1. Pick the pirate who is best at robbing ships and will bring you back gold coins. </p><p>2. Correctly remember whether or not you saw a ship before. If you did see the ship before, remind yourself on which island you saw the ship. </p><p><b>[Press the space bar to continue]</b></p></div>","32","","","","","","","","","","","","","","","","","","","","","","","",""
"","do_welcome","18","179309","0.0-18.0","null","","","","","","","","null","","","","","","","","","","","","","","","","","",""
"","do_trial","19","183725","0.0-19.0-0.0","1873.2999999970198","","","","","","","","49","0,0,0","6","blank","230","null","0.27490617688341373","0.6092273869131641","0.09034977244332522","0","","","","","","","","",""
"","html-keyboard-response","20","184730","0.0-19.0-1.0","null","<p></p>","null","","","","","","","","","","","","","","","","","","","","","","","",""
"","do_trial","21","187905","0.0-20.0-0.0","631.8000000044703","","","","","","","","50","0,0,0","6","blank","231","null","0.28758418279711395","0.5000970205983576","0.2019269816107213","0","","","","","","","","",""
"","html-keyboard-response","22","188909","0.0-20.0-1.0","null","<p></p>","null","","","","","","","","","","","","","","","","","","","","","","","",""
"","do_trial","23","191810","0.0-21.0-0.0","356.8999999985099","","","","","","","","51","0,1,1","6","blank","232","null","0.24374894617079737","0.6387410037400401","0.15524539032206133","1","","","","","","","","",""
"","html-keyboard-response","24","192815","0.0-21.0-1.0","null","<p></p>","null","","","","","","","","","","","","","","","","","","","","","","","",""
"","do_trial","25","195791","0.0-22.0-0.0","432.20000000298023","","","","","","","","51","0,1,0","6","blank","233","null","0.34889769989308","0.6629261832218445","0.21719375147967185","0","","","","","","","","",""
"","html-keyboard-response","26","196795","0.0-22.0-1.0","null","<p></p>","null","","","","","","","","","","","","","","","","","","","","","","","",""
"","do_trial","27","199722","0.0-23.0-0.0","383.3999999985099","","","","","","","","50","0,0,0","6","blank","234","null","0.33133162166626945","0.5034216302412097","0.08980130232214206","0","","","","","","","","",""
"","html-keyboard-response","28","200726","0.0-23.0-1.0","null","<p></p>","null","","","","","","","","","","","","","","","","","","","","","","","",""
"","do_trial","29","203524","0.0-24.0-0.0","257","","","","","","","","49","0,0,0","6","blank","235","null","0.49849564244435896","0.4871169122224046","0.16976213239560406","0","","","","","","","","",""
"","html-keyboard-response","30","204525","0.0-24.0-1.0","null","<p></p>","null","","","","","","","","","","","","","","","","","","","","","","","",""
"","do_trial","31","207412","0.0-25.0-0.0","347.6000000014901","","","","","","","","51","1,1,0","6","blank","236","null","0.49902721174360354","0.5511429679062283","0.1986429127686372","0","","","","","","","","",""
"","html-keyboard-response","32","208417","0.0-25.0-1.0","null","<p></p>","null","","","","","","","","","","","","","","","","","","","","","","","",""
"","do_trial","33","211267","0.0-26.0-0.0","306.3999999985099","","","","","","","","50","1,0,0","6","blank","237","null","0.32548758851471826","0.5757809650883524","0.12644750068179308","0","","","","","","","","",""
"","html-keyboard-response","34","212271","0.0-26.0-1.0","null","<p></p>","null","","","","","","","","","","","","","","","","","","","","","","","",""
"","do_trial","35","215285","0.0-27.0-0.0","475.3999999985099","","","","","","","","49","0,1,1","6","blank","238","null","0.28891129082936745","0.6341180719970029","0.17636575792349507","0","","","","","","","","",""
"","html-keyboard-response","36","216290","0.0-27.0-1.0","null","<p></p>","null","","","","","","","","","","","","","","","","","","","","","","","",""
"","do_trial","37","219098","0.0-28.0-0.0","268.6000000014901","","","","","","","","50","0,1,0","6","blank","239","null","0.20011456363800534","0.5169630046477791","0.13082104641317385","1","","","","","","","","",""
"","html-keyboard-response","38","220102","0.0-28.0-1.0","null","<p></p>","null","","","","","","","","","","","","","","","","","","","","","","","",""
"","do_trial","39","222958","0.0-29.0-0.0","315.1000000014901","","","","","","","","49","0,1,0","6","blank","240","null","0.1868568329931095","0.5729361470029318","0.17527157256830625","0","","","","","","","","",""
"","html-keyboard-response","40","223962","0.0-29.0-1.0","null","<p></p>","null","","","","","","","","","","","","","","","","","","","","","","","",""
"","do_recog","41","229973","0.0-30.0-0.0","null","","","","","","","","null","","","","241","probe-45","","","","","1","[object Object]","46","1","0","","","",""
"","html-keyboard-response","42","230976","0.0-30.0-1.0","null","<p></p>","null","","","","","","","","","","","","","","","","","","","","","","","",""
"","do_trial","43","235466","0.0-31.0-0.0","1948.5","","","","","","","","49","0,0,0","6","blank","242","null","0.17266384980282484","0.49727801279156403","0.09729151112956703","0","","","","","","","","",""
"","html-keyboard-response","44","236468","0.0-31.0-1.0","null","<p></p>","null","","","","","","","","","","","","","","","","","","","","","","","",""
"","do_recog","45","240962","0.0-32.0-0.0","2987.89999999851","","","","","","","","56","","","","243","probe-234","","","","","0","[object Object]","null","null","1","","","",""
"","html-keyboard-response","46","241968","0.0-32.0-1.0","null","<p></p>","null","","","","","","","","","","","","","","","","","","","","","","","",""
"","do_trial","47","245721","0.0-33.0-0.0","1208.8000000044703","","","","","","","","49","0,1,0","6","blank","244","null","0.25393690659305895","0.2872430555155699","0.2495346621665899","0","","","","","","","","",""
"","html-keyboard-response","48","246724","0.0-33.0-1.0","null","<p></p>","null","","","","","","","","","","","","","","","","","","","","","","","",""
"","do_recog","49","252734","0.0-34.0-0.0","null","","","","","","","","null","","","","245","probe-33","","","","","1","[object Object]","201","5","0","","","",""
"","html-keyboard-response","50","253736","0.0-34.0-1.0","null","<p></p>","null","","","","","","","","","","","","","","","","","","","","","","","",""
"","do_trial","51","257240","0.0-35.0-0.0","964.5999999940395","","","","","","","","49","1,0,1","6","blank","246","null","0.3142218866533941","0.15961493683880373","0.3879219022636435","1","","","","","","","","",""
"","html-keyboard-response","52","258242","0.0-35.0-1.0","null","<p></p>","null","","","","","","","","","","","","","","","","","","","","","","","",""
"","do_trial","53","262096","0.0-36.0-0.0","1314.7999999970198","","","","","","","","50","0,1,0","6","blank","247","null","0.16670397506617562","0.09001133765240066","0.5138244604167541","1","","","","","","","","",""
"","html-keyboard-response","54","263100","0.0-36.0-1.0","null","<p></p>","null","","","","","","","","","","","","","","","","","","","","","","","",""
"","do_trial","55","266122","0.0-37.0-0.0","481.19999999552965","","","","","","","","51","1,0,0","6","blank","248","null","0.20112588963622785","0.09801761673953824","0.5578038431828491","0","","","","","","","","",""
"","html-keyboard-response","56","267126","0.0-37.0-1.0","null","<p></p>","null","","","","","","","","","","","","","","","","","","","","","","","",""
"","do_trial","57","269956","0.0-38.0-0.0","286.29999999701977","","","","","","","","49","0,0,1","6","blank","249","null","0.20299763786964067","0.08419110879999668","0.6856063745837419","0","","","","","","","","",""
"","html-keyboard-response","58","270961","0.0-38.0-1.0","null","<p></p>","null","","","","","","","","","","","","","","","","","","","","","","","",""
"","do_recog","59","274553","0.0-39.0-0.0","2086","","","","","","","","56","","","","250","probe-09","","","","","1","[object Object]","125","3","0","","","",""
"","html-keyboard-response","60","275554","0.0-39.0-1.0","null","<p></p>","null","","","","","","","","","","","","","","","","","","","","","","","",""
"","do_trial","61","279050","0.0-40.0-0.0","951.3999999985099","","","","","","","","49","0,0,1","6","blank","251","null","0.1830109304221509","0.06612649425964756","0.733552145679271","0","","","","","","","","",""
"","html-keyboard-response","62","280055","0.0-40.0-1.0","null","<p></p>","null","","","","","","","","","","","","","","","","","","","","","","","",""
"","do_trial","63","283180","0.0-41.0-0.0","587.8999999985099","","","","","","","","50","0,0,1","6","blank","252","null","0.23781401305933408","0.1980440605480077","0.5610671381868619","0","","","","","","","","",""
"","html-keyboard-response","64","284184","0.0-41.0-1.0","null","<p></p>","null","","","","","","","","","","","","","","","","","","","","","","","",""
"","do_trial","65","287407","0.0-42.0-0.0","681.5","","","","","","","","51","0,0,1","6","blank","253","null","0.39836584201739994","0.2715106385898149","0.6008956870854893","1","","","","","","","","",""
"","html-keyboard-response","66","288411","0.0-42.0-1.0","null","<p></p>","null","","","","","","","","","","","","","","","","","","","","","","","",""
"","do_recog","67","292128","0.0-43.0-0.0","2210.7000000029802","","","","","","","","53","","","","254","probe-184","","","","","1","[object Object]","83","2","1","","","",""
"","html-keyboard-response","68","293134","0.0-43.0-1.0","null","<p></p>","null","","","","","","","","","","","","","","","","","","","","","","","",""
"","do_trial","69","296897","0.0-44.0-0.0","1222","","","","","","","","49","0,1,0","6","blank","255","null","0.38965668419050686","0.22266866062654164","0.47934487455372166","0","","","","","","","","",""
"","html-keyboard-response","70","297902","0.0-44.0-1.0","null","<p></p>","null","","","","","","","","","","","","","","","","","","","","","","","",""
"","do_trial","71","302311","0.0-45.0-0.0","1862.6999999955297","","","","","","","","50","0,1,1","6","blank","256","null","0.22935772449779215","0.2876709461063619","0.5671299033385659","1","","","","","","","","",""
"","html-keyboard-response","72","303318","0.0-45.0-1.0","null","<p></p>","null","","","","","","","","","","","","","","","","","","","","","","","",""
"","do_trial","73","306127","0.0-46.0-0.0","265.20000000298023","","","","","","","","51","1,1,1","6","blank","257","null","0.23919131617787354","0.4164627777719887","0.5654822012652683","1","","","","","","","","",""
"","html-keyboard-response","74","307131","0.0-46.0-1.0","null","<p></p>","null","","","","","","","","","","","","","","","","","","","","","","","",""
"","do_recog","75","311060","0.0-47.0-0.0","2416.10000000149","","","","","","","","56","","","","258","probe-24","","","","","1","[object Object]","160","4","0","","","",""
"","html-keyboard-response","76","312066","0.0-47.0-1.0","null","<p></p>","null","","","","","","","","","","","","","","","","","","","","","","","",""
"","do_trial","77","316031","0.0-48.0-0.0","1417.3999999985099","","","","","","","","49","1,0,1","6","blank","259","null","0.3387549610999191","0.2485920898527185","0.5895308322897009","1","","","","","","","","",""
"","html-keyboard-response","78","317035","0.0-48.0-1.0","null","<p></p>","null","","","","","","","","","","","","","","","","","","","","","","","",""
"","do_trial","79","320369","0.0-49.0-0.0","794.1000000014901","","","","","","","","50","0,0,1","6","blank","260","null","0.2534241986477833","0.11136549099686559","0.543356010705271","0","","","","","","","","",""
"","html-keyboard-response","80","321373","0.0-49.0-1.0","null","<p></p>","null","","","","","","","","","","","","","","","","","","","","","","","",""
"","do_trial","81","324323","0.0-50.0-0.0","409","","","","","","","","51","0,0,1","6","blank","261","null","0.2130120745864182","0.11373334858576085","0.5822368189502884","1","","","","","","","","",""
"","html-keyboard-response","82","325330","0.0-50.0-1.0","null","<p></p>","null","","","","","","","","","","","","","","","","","","","","","","","",""
"","do_trial","83","329154","0.0-51.0-0.0","1281.5","","","","","","","","49","0,0,1","6","blank","262","null","0.2940970467893535","0.05928634421045046","0.5315982438334993","0","","","","","","","","",""
"","html-keyboard-response","84","330158","0.0-51.0-1.0","null","<p></p>","null","","","","","","","","","","","","","","","","","","","","","","","",""
"","do_trial","85","333326","0.0-52.0-0.0","627.1999999955297","","","","","","","","50","0,0,1","6","blank","263","null","0.13164453275829338","0.13144044765010132","0.5644621068925395","0","","","","","","","","",""
"","html-keyboard-response","86","334330","0.0-52.0-1.0","null","<p></p>","null","","","","","","","","","","","","","","","","","","","","","","","",""
"","do_trial","87","337350","0.0-53.0-0.0","475","","","","","","","","51","0,0,1","6","blank","264","null","0.21169885955270043","0.0700524245449765","0.6704413623610863","1","","","","","","","","",""
"","html-keyboard-response","88","338354","0.0-53.0-1.0","null","<p></p>","null","","","","","","","","","","","","","","","","","","","","","","","",""
"","do_trial","89","341988","0.0-54.0-0.0","1093.6000000014901","","","","","","","","49","0,0,1","6","blank","265","null","0.24183275240780952","0.09632157207506968","0.5729783782055283","0","","","","","","","","",""
"","html-keyboard-response","90","342994","0.0-54.0-1.0","null","<p></p>","null","","","","","","","","","","","","","","","","","","","","","","","",""
"","do_recog","91","349005","0.0-55.0-0.0","null","","","","","","","","null","","","","266","probe-183","","","","","1","[object Object]","127","3","0","","","",""
"","html-keyboard-response","92","350009","0.0-55.0-1.0","null","<p></p>","null","","","","","","","","","","","","","","","","","","","","","","","",""
"","do_trial","93","353658","0.0-56.0-0.0","1105.6000000014901","","","","","","","","49","0,0,0","6","blank","267","null","0.2658847490994937","0.08888874453976918","0.6490614408196749","0","","","","","","","","",""
"","html-keyboard-response","94","354662","0.0-56.0-1.0","null","<p></p>","null","","","","","","","","","","","","","","","","","","","","","","","",""
"","do_recog","95","358574","0.0-57.0-0.0","2402","","","","","","","","56","","","","268","probe-206","","","","","1","[object Object]","49","1","0","","","",""
"","html-keyboard-response","96","359581","0.0-57.0-1.0","null","<p></p>","null","","","","","","","","","","","","","","","","","","","","","","","",""
"","do_trial","97","363397","0.0-58.0-0.0","1274.1999999955297","","","","","","","","49","0,1,1","6","blank","269","null","0.09896598879192248","0.1984388846287581","0.4990697921079741","0","","","","","","","","",""
"","html-keyboard-response","98","364403","0.0-58.0-1.0","null","<p></p>","null","","","","","","","","","","","","","","","","","","","","","","","",""
"","do_trial","99","367885","0.0-59.0-0.0","938.3999999985099","","","","","","","","50","0,0,0","6","blank","270","null","0.14721226188519806","0.2341502475045728","0.580352720677126","0","","","","","","","","",""
"","html-keyboard-response","100","368889","0.0-59.0-1.0","null","<p></p>","null","","","","","","","","","","","","","","","","","","","","","","","",""
"","do_trial","101","371834","0.0-60.0-0.0","400.79999999701977","","","","","","","","51","1,0,0","6","blank","271","null","0.2646254177131428","0.26374094150760163","0.6457042920111866","0","","","","","","","","",""
"","html-keyboard-response","102","372837","0.0-60.0-1.0","null","<p></p>","null","","","","","","","","","","","","","","","","","","","","","","","",""
"","do_trial","103","376504","0.0-61.0-0.0","1122.3000000044703","","","","","","","","49","0,0,1","6","blank","272","null","0.25623849572434604","0.13432471556309117","0.6667719086300374","0","","","","","","","","",""
"","html-keyboard-response","104","377506","0.0-61.0-1.0","null","<p></p>","null","","","","","","","","","","","","","","","","","","","","","","","",""
"","do_trial","105","381105","0.0-62.0-0.0","1058.3000000044703","","","","","","","","50","1,0,0","6","blank","273","null","0.26164272267607885","0.08673451726775903","0.6447294207860209","0","","","","","","","","",""
"","html-keyboard-response","106","382109","0.0-62.0-1.0","null","<p></p>","null","","","","","","","","","","","","","","","","","","","","","","","",""
"","do_recog","107","385672","0.0-63.0-0.0","2053.60000000149","","","","","","","","55","","","","274","probe-159","","","","","1","[object Object]","126","3","0","","","",""
"","html-keyboard-response","108","386674","0.0-63.0-1.0","null","<p></p>","null","","","","","","","","","","","","","","","","","","","","","","","",""
"","do_trial","109","390063","0.0-64.0-0.0","845.7999999970198","","","","","","","","49","1,0,1","6","blank","275","null","0.3407579608236737","0.14615824171624586","0.5541743988444692","1","","","","","","","","",""
"","html-keyboard-response","110","391070","0.0-64.0-1.0","null","<p></p>","null","","","","","","","","","","","","","","","","","","","","","","","",""
"","do_recog","111","395286","0.0-65.0-0.0","2705.8000000044703","","","","","","","","55","","","","276","probe-188","","","","","1","[object Object]","88","2","0","","","",""
"","html-keyboard-response","112","396293","0.0-65.0-1.0","null","<p></p>","null","","","","","","","","","","","","","","","","","","","","","","","",""
"","do_trial","113","400100","0.0-66.0-0.0","1262.5999999940395","","","","","","","","49","0,0,1","6","blank","277","null","0.33531898562910445","0.2042811325645203","0.443084147091747","0","","","","","","","","",""
"","html-keyboard-response","114","401106","0.0-66.0-1.0","null","<p></p>","null","","","","","","","","","","","","","","","","","","","","","","","",""
"","do_recog","115","404602","0.0-67.0-0.0","1985.3999999985099","","","","","","","","54","","","","278","probe-215","","","","","1","[object Object]","40","1","1","","","",""
"","html-keyboard-response","116","405605","0.0-67.0-1.0","null","<p></p>","null","","","","","","","","","","","","","","","","","","","","","","","",""
"","do_trial","117","408900","0.0-68.0-0.0","750.2000000029802","","","","","","","","49","1,0,1","6","blank","279","null","0.299662034539407","0.16637148633113583","0.502093887149021","1","","","","","","","","",""
"","html-keyboard-response","118","409905","0.0-68.0-1.0","null","<p></p>","null","","","","","","","","","","","","","","","","","","","","","","","",""
"","do_recog","119","415916","0.0-69.0-0.0","null","","","","","","","","null","","","","280","probe-100","","","","","1","[object Object]","81","2","0","","","",""
"","html-keyboard-response","120","416920","0.0-69.0-1.0","null","<p></p>","null","","","","","","","","","","","","","","","","","","","","","","","",""
"","do_trial","121","421488","0.0-70.0-0.0","2028","","","","","","","","49","1,1,1","6","blank","281","null","0.2567847351720375","0.19710005231610453","0.6094813334080317","1","","","","","","","","",""
"","html-keyboard-response","122","422489","0.0-70.0-1.0","null","<p></p>","null","","","","","","","","","","","","","","","","","","","","","","","",""
"","do_trial","123","426317","0.0-71.0-0.0","1283.2000000029802","","","","","","","","50","0,0,0","6","blank","282","null","0.22952426777641077","0.11662365560768014","0.5880735988364408","0","","","","","","","","",""
"","html-keyboard-response","124","427320","0.0-71.0-1.0","null","<p></p>","null","","","","","","","","","","","","","","","","","","","","","","","",""
"","do_trial","125","430454","0.0-72.0-0.0","590.5","","","","","","","","51","1,1,0","6","blank","283","null","0.32142866109265783","0.09626892923280721","0.651296662794064","0","","","","","","","","",""
"","html-keyboard-response","126","431457","0.0-72.0-1.0","null","<p></p>","null","","","","","","","","","","","","","","","","","","","","","","","",""
"","do_trial","127","434688","0.0-73.0-0.0","685.3999999985099","","","","","","","","49","1,0,0","6","blank","284","null","0.211185519643385","0.09140703084051852","0.5359046971963868","1","","","","","","","","",""
"","html-keyboard-response","128","435692","0.0-73.0-1.0","null","<p></p>","null","","","","","","","","","","","","","","","","","","","","","","","",""
"","do_recog","129","439201","0.0-74.0-0.0","1998.7999999970198","","","","","","","","56","","","","285","probe-54","","","","","1","[object Object]","200","5","0","","","",""
"","html-keyboard-response","130","440208","0.0-74.0-1.0","null","<p></p>","null","","","","","","","","","","","","","","","","","","","","","","","",""
"","do_trial","131","444260","0.0-75.0-0.0","1512.2999999970198","","","","","","","","49","0,0,1","6","blank","286","null","0.20388296159312583","0.19040044603371653","0.5290258151311384","0","","","","","","","","",""
"","html-keyboard-response","132","445262","0.0-75.0-1.0","null","<p></p>","null","","","","","","","","","","","","","","","","","","","","","","","",""
"","do_trial","133","448385","0.0-76.0-0.0","577.9000000059605","","","","","","","","50","0,0,1","6","blank","287","null","0.24785329988272406","0.254118137516761","0.5088847970690974","0","","","","","","","","",""
"","html-keyboard-response","134","449387","0.0-76.0-1.0","null","<p></p>","null","","","","","","","","","","","","","","","","","","","","","","","",""
"","do_trial","135","453038","0.0-77.0-0.0","1110.6000000014901","","","","","","","","51","0,0,0","6","blank","288","null","0.2591505646307847","0.20142336040198067","0.5848131952390635","0","","","","","","","","",""
"","html-keyboard-response","136","454042","0.0-77.0-1.0","null","<p></p>","null","","","","","","","","","","","","","","","","","","","","","","","",""
"","do_trial","137","457484","0.0-78.0-0.0","900.2999999970198","","","","","","","","49","0,0,0","6","blank","289","null","0.09977234891853766","0.08415228899078964","0.5760479093954792","0","","","","","","","","",""
"","html-keyboard-response","138","458485","0.0-78.0-1.0","null","<p></p>","null","","","","","","","","","","","","","","","","","","","","","","","",""
"","do_trial","139","462050","0.0-79.0-0.0","1021.6000000014901","","","","","","","","50","0,1,1","6","blank","290","null","0.11772688033161338","0.12110112958041085","0.4058804546707572","1","","","","","","","","",""
"","html-keyboard-response","140","463055","0.0-79.0-1.0","null","<p></p>","null","","","","","","","","","","","","","","","","","","","","","","","",""
"","do_recog","141","466499","0.0-80.0-0.0","1933.2000000029802","","","","","","","","54","","","","291","probe-128","","","","","1","[object Object]","48","1","1","","","",""
"","html-keyboard-response","142","467500","0.0-80.0-1.0","null","<p></p>","null","","","","","","","","","","","","","","","","","","","","","","","",""
"","do_trial","143","470957","0.0-81.0-0.0","918.4000000059605","","","","","","","","51","0,0,0","6","blank","292","null","0.19316621950667523","0.07853412852666386","0.40963404862406483","0","","","","","","","","",""
"","html-keyboard-response","144","471959","0.0-81.0-1.0","null","<p></p>","null","","","","","","","","","","","","","","","","","","","","","","","",""
"","do_trial","145","475810","0.0-82.0-0.0","1308.8999999985099","","","","","","","","49","0,0,1","6","blank","293","null","0.180518426537965","0.05549055971478203","0.3471295828294935","0","","","","","","","","",""
"","html-keyboard-response","146","476813","0.0-82.0-1.0","null","<p></p>","null","","","","","","","","","","","","","","","","","","","","","","","",""
"","do_trial","147","480014","0.0-83.0-0.0","660.5","","","","","","","","50","1,0,0","6","blank","294","null","0.12806204419972372","0.07556735506559281","0.31409651797727983","0","","","","","","","","",""
"","html-keyboard-response","148","481017","0.0-83.0-1.0","null","<p></p>","null","","","","","","","","","","","","","","","","","","","","","","","",""
"","do_recog","149","485068","0.0-84.0-0.0","2541","","","","","","","","53","","","","295","probe-205","","","","","1","[object Object]","202","5","1","","","",""
"","html-keyboard-response","150","486071","0.0-84.0-1.0","null","<p></p>","null","","","","","","","","","","","","","","","","","","","","","","","",""
"","do_trial","151","489673","0.0-85.0-0.0","1063.1000000014901","","","","","","","","49","0,0,0","6","blank","296","null","0.12462219891909769","0.21861115798210334","0.2706539443546826","0","","","","","","","","",""
"","html-keyboard-response","152","490676","0.0-85.0-1.0","null","<p></p>","null","","","","","","","","","","","","","","","","","","","","","","","",""
"","do_trial","153","494600","0.0-86.0-0.0","1383.5","","","","","","","","50","0,0,0","6","blank","297","null","0.2939211626575265","0.07885464695862232","0.34208847371089257","0","","","","","","","","",""
"","html-keyboard-response","154","495604","0.0-86.0-1.0","null","<p></p>","null","","","","","","","","","","","","","","","","","","","","","","","",""
"","do_trial","155","499262","0.0-87.0-0.0","1113","","","","","","","","51","0,0,0","6","blank","298","null","0.4376420389645226","0.15862515993388943","0.1801714881240362","0","","","","","","","","",""
"","html-keyboard-response","156","500265","0.0-87.0-1.0","null","<p></p>","null","","","","","","","","","","","","","","","","","","","","","","","",""
"","do_trial","157","503630","0.0-88.0-0.0","824.6999999955297","","","","","","","","49","1,1,0","6","blank","299","null","0.4066127355666522","0.23862122116181309","0.06068357417447631","1","","","","","","","","",""
"","html-keyboard-response","158","504634","0.0-88.0-1.0","null","<p></p>","null","","","","","","","","","","","","","","","","","","","","","","","",""
"","do_trial","159","508051","0.0-89.0-0.0","873.0999999940395","","","","","","","","50","1,0,0","6","blank","300","null","0.3941532905573862","0.3091503666181306","0.10056624248011264","0","","","","","","","","",""
"","html-keyboard-response","160","509055","0.0-89.0-1.0","null","<p></p>","null","","","","","","","","","","","","","","","","","","","","","","","",""
"","do_trial","161","512383","0.0-90.0-0.0","786.1000000014901","","","","","","","","51","0,1,0","6","blank","301","null","0.3072072573344741","0.35651263044331255","0.1281009210556553","0","","","","","","","","",""
"","html-keyboard-response","162","513388","0.0-90.0-1.0","null","<p></p>","null","","","","","","","","","","","","","","","","","","","","","","","",""
"","do_recog","163","517101","0.0-91.0-0.0","2202.2999999970198","","","","","","","","54","","","","302","probe-98","","","","","1","[object Object]","85","2","1","","","",""
"","html-keyboard-response","164","518104","0.0-91.0-1.0","null","<p></p>","null","","","","","","","","","","","","","","","","","","","","","","","",""
"","do_trial","165","522172","0.0-92.0-0.0","1525.4000000059605","","","","","","","","49","1,1,0","6","blank","303","null","0.38031418282758084","0.32552039302328845","0.1509205619338437","1","","","","","","","","",""
"","html-keyboard-response","166","523177","0.0-92.0-1.0","null","<p></p>","null","","","","","","","","","","","","","","","","","","","","","","","",""
"","do_trial","167","526108","0.0-93.0-0.0","389.30000000447035","","","","","","","","49","0,1,0","6","blank","304","null","0.3402021571610856","0.32070033784134433","0.2850967432312357","0","","","","","","","","",""
"","html-keyboard-response","168","527110","0.0-93.0-1.0","null","<p></p>","null","","","","","","","","","","","","","","","","","","","","","","","",""
"","do_trial","169","529991","0.0-94.0-0.0","340.70000000298023","","","","","","","","50","1,0,0","6","blank","305","null","0.5400213973930467","0.3262098137655361","0.2714741656618704","0","","","","","","","","",""
"","html-keyboard-response","170","530995","0.0-94.0-1.0","null","<p></p>","null","","","","","","","","","","","","","","","","","","","","","","","",""
"","do_trial","171","533928","0.0-95.0-0.0","394.19999999552965","","","","","","","","51","1,0,0","6","blank","306","null","0.6974249205745688","0.09946911988528917","0.10962257557325543","0","","","","","","","","",""
"","html-keyboard-response","172","534933","0.0-95.0-1.0","null","<p></p>","null","","","","","","","","","","","","","","","","","","","","","","","",""
"","do_trial","173","538335","0.0-96.0-0.0","859.1000000014901","","","","","","","","49","0,0,1","6","blank","307","null","0.6711332931934503","0.21199185202797663","0.26201676433863097","0","","","","","","","","",""
"","html-keyboard-response","174","539342","0.0-96.0-1.0","null","<p></p>","null","","","","","","","","","","","","","","","","","","","","","","","",""
"","do_trial","175","542653","0.0-97.0-0.0","768.5","","","","","","","","50","0,1,0","6","blank","308","null","0.6530844801464317","0.3110584838394053","0.207071130542252","1","","","","","","","","",""
"","html-keyboard-response","176","543658","0.0-97.0-1.0","null","<p></p>","null","","","","","","","","","","","","","","","","","","","","","","","",""
"","do_recog","177","547226","0.0-98.0-0.0","2060.39999999851","","","","","","","","53","","","","309","probe-81","","","","","1","[object Object]","164","4","1","","","",""
"","html-keyboard-response","178","548227","0.0-98.0-1.0","null","<p></p>","null","","","","","","","","","","","","","","","","","","","","","","","",""
"","do_trial","179","552622","0.0-99.0-0.0","1853.1999999955297","","","","","","","","50","1,0,0","6","blank","310","null","0.5789381174270213","0.35931438319988124","0.19016818585001458","0","","","","","","","","",""
"","html-keyboard-response","180","553626","0.0-99.0-1.0","null","<p></p>","null","","","","","","","","","","","","","","","","","","","","","","","",""
"","do_trial","181","556647","0.0-100.0-0.0","476","","","","","","","","51","1,0,0","6","blank","311","null","0.7162255377455868","0.2780674763527321","0.20751664502231998","0","","","","","","","","",""
"","html-keyboard-response","182","557650","0.0-100.0-1.0","null","<p></p>","null","","","","","","","","","","","","","","","","","","","","","","","",""
"","do_trial","183","560587","0.0-101.0-0.0","392.79999999701977","","","","","","","","49","0,1,0","6","blank","312","null","0.6634343466622115","0.2815345735403528","0.17108764485024353","0","","","","","","","","",""
"","html-keyboard-response","184","561594","0.0-101.0-1.0","null","<p></p>","null","","","","","","","","","","","","","","","","","","","","","","","",""
"","do_recog","185","565514","0.0-102.0-0.0","2411.10000000149","","","","","","","","55","","","","313","probe-214","","","","","1","[object Object]","89","2","0","","","",""
"","html-keyboard-response","186","566519","0.0-102.0-1.0","null","<p></p>","null","","","","","","","","","","","","","","","","","","","","","","","",""
"","do_trial","187","570675","0.0-103.0-0.0","1614.2000000029802","","","","","","","","49","0,0,1","6","blank","314","null","0.668502917197921","0.39585597498158115","0.23858456264125225","0","","","","","","","","",""
"","html-keyboard-response","188","571681","0.0-103.0-1.0","null","<p></p>","null","","","","","","","","","","","","","","","","","","","","","","","",""
"","do_trial","189","575043","0.0-104.0-0.0","822.3999999985099","","","","","","","","51","0,1,0","6","blank","315","null","0.7241946890187007","0.40571007934493764","0.10364128866700913","0","","","","","","","","",""
"","html-keyboard-response","190","576045","0.0-104.0-1.0","null","<p></p>","null","","","","","","","","","","","","","","","","","","","","","","","",""
"","do_trial","191","579513","0.0-105.0-0.0","924.5","","","","","","","","49","0,0,0","6","blank","316","null","0.6791989819219849","0.3972741489198644","0.12407303266617599","0","","","","","","","","",""
"","html-keyboard-response","192","580519","0.0-105.0-1.0","null","<p></p>","null","","","","","","","","","","","","","","","","","","","","","","","",""
"","do_trial","193","583835","0.0-106.0-0.0","771.1999999955297","","","","","","","","50","1,1,1","6","blank","317","null","0.5429054666386907","0.35677200553178684","0.1439643613838937","1","","","","","","","","",""
"","html-keyboard-response","194","584837","0.0-106.0-1.0","null","<p></p>","null","","","","","","","","","","","","","","","","","","","","","","","",""
"","do_trial","195","588437","0.0-107.0-0.0","1058.2000000029802","","","","","","","","51","0,1,0","6","blank","318","null","0.6163105953980881","0.24503992540098124","0.13778078438330185","0","","","","","","","","",""
"","html-keyboard-response","196","589440","0.0-107.0-1.0","null","<p></p>","null","","","","","","","","","","","","","","","","","","","","","","","",""
"","do_trial","197","592456","0.0-108.0-0.0","475.6000000014901","","","","","","","","50","0,0,0","6","blank","319","null","0.6956825035366118","0.2646307360145951","0.12624403582262578","0","","","","","","","","",""
"","html-keyboard-response","198","593458","0.0-108.0-1.0","null","<p></p>","null","","","","","","","","","","","","","","","","","","","","","","","",""
"","do_trial","199","596934","0.0-109.0-0.0","934","","","","","","","","49","0,0,0","6","blank","320","null","0.5250966250642536","0.29978620714704196","0.14358518277585725","0","","","","","","","","",""
"","html-keyboard-response","200","597937","0.0-109.0-1.0","null","<p></p>","null","","","","","","","","","","","","","","","","","","","","","","","",""
"","do_recog","201","601785","0.0-110.0-0.0","2338.8000000044703","","","","","","","","55","","","","321","probe-165","","","","","1","[object Object]","43","1","0","","","",""
"","html-keyboard-response","202","602788","0.0-110.0-1.0","null","<p></p>","null","","","","","","","","","","","","","","","","","","","","","","","",""
"","do_trial","203","606518","0.0-111.0-0.0","1186.2000000029802","","","","","","","","49","0,1,0","6","blank","322","null","0.49744493275776036","0.3278961722812854","0.20684398241427318","0","","","","","","","","",""
"","html-keyboard-response","204","607520","0.0-111.0-1.0","null","<p></p>","null","","","","","","","","","","","","","","","","","","","","","","","",""
"","do_recog","205","611318","0.0-112.0-0.0","2289","","","","","","","","54","","","","323","probe-48","","","","","1","[object Object]","42","1","1","","","",""
"","html-keyboard-response","206","612320","0.0-112.0-1.0","null","<p></p>","null","","","","","","","","","","","","","","","","","","","","","","","",""
"","do_trial","207","615989","0.0-113.0-0.0","1127.3999999985099","","","","","","","","49","1,1,0","6","blank","324","null","0.5837026662386608","0.4208217323708489","0.1553493799478161","1","","","","","","","","",""
"","html-keyboard-response","208","616995","0.0-113.0-1.0","null","<p></p>","null","","","","","","","","","","","","","","","","","","","","","","","",""
"","do_recog","209","620779","0.0-114.0-0.0","2273.8000000044703","","","","","","","","55","","","","325","probe-225","","","","","1","[object Object]","205","5","0","","","",""
"","html-keyboard-response","210","621785","0.0-114.0-1.0","null","<p></p>","null","","","","","","","","","","","","","","","","","","","","","","","",""
"","do_trial","211","625010","0.0-115.0-0.0","684.5","","","","","","","","51","1,0,0","6","blank","326","null","0.47020426800893533","0.37652458244693654","0.21044327706190888","0","","","","","","","","",""
"","html-keyboard-response","212","626016","0.0-115.0-1.0","null","<p></p>","null","","","","","","","","","","","","","","","","","","","","","","","",""
"","do_trial","213","630359","0.0-116.0-0.0","1800.2999999970198","","","","","","","","49","1,0,0","6","blank","327","null","0.605284422688086","0.3177043341582533","0.248884291974254","1","","","","","","","","",""
"","html-keyboard-response","214","631363","0.0-116.0-1.0","null","<p></p>","null","","","","","","","","","","","","","","","","","","","","","","","",""
"","do_recog","215","635404","0.0-117.0-0.0","2532.8000000044703","","","","","","","","54","","","","328","probe-182","","","","","1","[object Object]","41","1","1","","","",""
"","html-keyboard-response","216","636410","0.0-117.0-1.0","null","<p></p>","null","","","","","","","","","","","","","","","","","","","","","","","",""
"","do_trial","217","640330","0.0-118.0-0.0","1379.7999999970198","","","","","","","","49","0,0,0","6","blank","329","null","0.7384339079404231","0.1716222517376493","0.3471023446235035","0","","","","","","","","",""
"","html-keyboard-response","218","641334","0.0-118.0-1.0","null","<p></p>","null","","","","","","","","","","","","","","","","","","","","","","","",""
"","do_trial","219","645003","0.0-119.0-0.0","1128.5","","","","","","","","50","1,1,0","6","blank","330","null","0.7832545602610336","0.08481375747732349","0.24110682093762673","1","","","","","","","","",""
"","html-keyboard-response","220","646008","0.0-119.0-1.0","null","<p></p>","null","","","","","","","","","","","","","","","","","","","","","","","",""
"","do_recog","221","652018","0.0-120.0-0.0","null","","","","","","","","null","","","","331","probe-133","","","","","1","[object Object]","207","5","0","","","",""
"","html-keyboard-response","222","653019","0.0-120.0-1.0","null","<p></p>","null","","","","","","","","","","","","","","","","","","","","","","","",""
"","do_trial","223","656580","0.0-121.0-0.0","1021.6999999955297","","","","","","","","49","1,0,0","6","blank","332","null","0.7811867723225089","0.17554135253808287","0.17994327507597663","1","","","","","","","","",""
"","html-keyboard-response","224","657583","0.0-121.0-1.0","null","<p></p>","null","","","","","","","","","","","","","","","","","","","","","","","",""
"","do_recog","225","660612","0.0-122.0-0.0","1519.5","","","","","","","","54","","","","333","probe-12","","","","","1","[object Object]","167","4","1","","","",""
"","html-keyboard-response","226","661614","0.0-122.0-1.0","null","<p></p>","null","","","","","","","","","","","","","","","","","","","","","","","",""
"","do_trial","227","664976","0.0-123.0-0.0","821.5999999940395","","","","","","","","50","1,0,0","6","blank","334","null","0.8179558698528178","0.18717860879522438","0.05093618536289162","0","","","","","","","","",""
"","html-keyboard-response","228","665978","0.0-123.0-1.0","null","<p></p>","null","","","","","","","","","","","","","","","","","","","","","","","",""
"","do_trial","229","669146","0.0-124.0-0.0","625.4000000059605","","","","","","","","51","1,1,0","6","blank","335","null","0.7089925917892671","0.1979036813442645","0.12434018407025907","0","","","","","","","","",""
"","html-keyboard-response","230","670151","0.0-124.0-1.0","null","<p></p>","null","","","","","","","","","","","","","","","","","","","","","","","",""
"","do_trial","231","673128","0.0-125.0-0.0","433.29999999701977","","","","","","","","49","1,0,0","6","blank","336","null","0.6872643487324942","0.10464532441872057","0.115595701618143","1","","","","","","","","",""
"","html-keyboard-response","232","674131","0.0-125.0-1.0","null","<p></p>","null","","","","","","","","","","","","","","","","","","","","","","","",""
"","do_trial","233","677312","0.0-126.0-0.0","641.8999999985099","","","","","","","","50","0,0,0","6","blank","337","null","0.43552467778622583","0.23431051190699223","0.22778803328366976","0","","","","","","","","",""
"","html-keyboard-response","234","678316","0.0-126.0-1.0","null","<p></p>","null","","","","","","","","","","","","","","","","","","","","","","","",""
"","do_trial","235","681479","0.0-127.0-0.0","618.3999999985099","","","","","","","","51","0,0,0","6","blank","338","null","0.5158411955700867","0.27169369426236034","0.15271520319292173","0","","","","","","","","",""
"","html-keyboard-response","236","682485","0.0-127.0-1.0","null","<p></p>","null","","","","","","","","","","","","","","","","","","","","","","","",""
"","do_recog","237","686308","0.0-128.0-0.0","2312.10000000149","","","","","","","","55","","","","339","probe-189","","","","","1","[object Object]","128","3","0","","","",""
"","html-keyboard-response","238","687309","0.0-128.0-1.0","null","<p></p>","null","","","","","","","","","","","","","","","","","","","","","","","",""
"","do_trial","239","691424","0.0-129.0-0.0","1575","","","","","","","","49","0,1,0","6","blank","340","null","0.675758123874334","0.3821517087689817","0.06172081685045848","0","","","","","","","","",""
"","html-keyboard-response","240","692425","0.0-129.0-1.0","null","<p></p>","null","","","","","","","","","","","","","","","","","","","","","","","",""
"","do_trial","241","696248","0.0-130.0-0.0","1281.0999999940395","","","","","","","","50","1,0,0","6","blank","341","null","0.7017204802557396","0.22259142067877227","0.06246266975520188","0","","","","","","","","",""
"","html-keyboard-response","242","697251","0.0-130.0-1.0","null","<p></p>","null","","","","","","","","","","","","","","","","","","","","","","","",""
"","do_trial","243","700961","0.0-131.0-0.0","1167.3999999985099","","","","","","","","50","0,0,0","6","blank","342","null","0.6145376928043832","0.32754394422717786","0.13612101884712216","0","","","","","","","","",""
"","html-keyboard-response","244","701964","0.0-131.0-1.0","null","<p></p>","null","","","","","","","","","","","","","","","","","","","","","","","",""
"","do_trial","245","705186","0.0-132.0-0.0","682.1999999955297","","","","","","","","51","1,1,1","6","blank","343","null","0.7488135265705136","0.37977136434977177","0.12450020362558602","1","","","","","","","","",""
"","html-keyboard-response","246","706189","0.0-132.0-1.0","null","<p></p>","null","","","","","","","","","","","","","","","","","","","","","","","",""
"","do_trial","247","709736","0.0-133.0-0.0","1008.8000000044703","","","","","","","","50","1,0,0","6","blank","344","null","0.6040370561222773","0.3686407780827339","0.256762964132987","0","","","","","","","","",""
"","html-keyboard-response","248","710743","0.0-133.0-1.0","null","<p></p>","null","","","","","","","","","","","","","","","","","","","","","","","",""
"","do_recog","249","714697","0.0-134.0-0.0","2445.39999999851","","","","","","","","55","","","","345","probe-251","","","","","0","[object Object]","null","null","1","","","",""
"","html-keyboard-response","250","715703","0.0-134.0-1.0","null","<p></p>","null","","","","","","","","","","","","","","","","","","","","","","","",""
"","do_trial","251","719149","0.0-135.0-0.0","906.8000000044703","","","","","","","","50","0,0,0","6","blank","346","null","0.6401159948230329","0.26873188397772746","0.21261931181000038","0","","","","","","","","",""
"","html-keyboard-response","252","720154","0.0-135.0-1.0","null","<p></p>","null","","","","","","","","","","","","","","","","","","","","","","","",""
"","do_trial","253","723725","0.0-136.0-0.0","1027.0999999940395","","","","","","","","49","1,0,1","6","blank","347","null","0.5553813458560828","0.35159149090893105","0.29902981442435506","1","","","","","","","","",""
"","html-keyboard-response","254","724728","0.0-136.0-1.0","null","<p></p>","null","","","","","","","","","","","","","","","","","","","","","","","",""
"","do_trial","255","728535","0.0-137.0-0.0","1268.5","","","","","","","","50","1,0,1","6","blank","348","null","0.4468427336807882","0.3156606317689586","0.19043068884987344","0","","","","","","","","",""
"","html-keyboard-response","256","729537","0.0-137.0-1.0","null","<p></p>","null","","","","","","","","","","","","","","","","","","","","","","","",""
"","do_trial","257","733053","0.0-138.0-0.0","974.6000000014901","","","","","","","","51","0,1,0","6","blank","349","null","0.5704264397701921","0.5474254446785652","0.12873254960639366","0","","","","","","","","",""
"","html-keyboard-response","258","734057","0.0-138.0-1.0","null","<p></p>","null","","","","","","","","","","","","","","","","","","","","","","","",""
"","do_recog","259","737896","0.0-139.0-0.0","2331.3000000044703","","","","","","","","55","","","","350","probe-241","","","","","0","[object Object]","null","null","1","","","",""
"","html-keyboard-response","260","738902","0.0-139.0-1.0","null","<p></p>","null","","","","","","","","","","","","","","","","","","","","","","","",""
"","do_trial","261","742244","0.0-140.0-0.0","801.5","","","","","","","","49","1,1,0","6","blank","351","null","0.42740092953911424","0.5989178695004247","0.16973363636456235","1","","","","","","","","",""
"","html-keyboard-response","262","743250","0.0-140.0-1.0","null","<p></p>","null","","","","","","","","","","","","","","","","","","","","","","","",""
"","do_recog","263","746700","0.0-141.0-0.0","1942.2999999970198","","","","","","","","55","","","","352","probe-232","","","","","0","[object Object]","null","null","1","","","",""
"","html-keyboard-response","264","747702","0.0-141.0-1.0","null","<p></p>","null","","","","","","","","","","","","","","","","","","","","","","","",""
"","do_trial","265","752186","0.0-142.0-0.0","1941.8999999985099","","","","","","","","50","0,0,0","6","blank","353","null","0.31501874431436855","0.48609409033753576","0.10344769472145719","0","","","","","","","","",""
"","html-keyboard-response","266","753190","0.0-142.0-1.0","null","<p></p>","null","","","","","","","","","","","","","","","","","","","","","","","",""
"","do_trial","267","756017","0.0-143.0-0.0","283.69999999552965","","","","","","","","49","0,1,0","6","blank","354","null","0.3026039863020234","0.7315841831567326","0.1087696957678714","0","","","","","","","","",""
"","html-keyboard-response","268","757019","0.0-143.0-1.0","null","<p></p>","null","","","","","","","","","","","","","","","","","","","","","","","",""
"","do_recog","269","760555","0.0-144.0-0.0","2026.7999999970198","","","","","","","","55","","","","355","probe-117","","","","","1","[object Object]","162","4","0","","","",""
"","html-keyboard-response","270","761557","0.0-144.0-1.0","null","<p></p>","null","","","","","","","","","","","","","","","","","","","","","","","",""
"","do_trial","271","767598","0.0-145.0-0.0","null","","","","","","","","null","0,0,0","6","blank","356","null","0.19341218168875857","0.6277059394886918","0.1355482649317579","","","","","","","","","",""
"","html-keyboard-response","272","768602","0.0-145.0-1.0","null","<p></p>","null","","","","","","","","","","","","","","","","","","","","","","","",""
"","do_trial","273","771848","0.0-146.0-0.0","705.5","","","","","","","","50","0,0,0","6","blank","357","null","0.24726628707151257","0.5640039558383811","0.16919772517651563","0","","","","","","","","",""
"","html-keyboard-response","274","772852","0.0-146.0-1.0","null","<p></p>","null","","","","","","","","","","","","","","","","","","","","","","","",""
"","do_trial","275","775705","0.0-147.0-0.0","314.3999999985099","","","","","","","","49","0,1,0","6","blank","358","null","0.2934452632815734","0.6276765965584389","0.11634658444950789","0","","","","","","","","",""
"","html-keyboard-response","276","776708","0.0-147.0-1.0","null","<p></p>","null","","","","","","","","","","","","","","","","","","","","","","","",""
"","do_trial","277","779551","0.0-148.0-0.0","300.40000000596046","","","","","","","","51","0,0,0","6","blank","359","null","0.20615182976822166","0.6236715626836093","0.06627471901685988","0","","","","","","","","",""
"","html-keyboard-response","278","780554","0.0-148.0-1.0","null","<p></p>","null","","","","","","","","","","","","","","","","","","","","","","","",""
"","do_trial","279","783729","0.0-149.0-0.0","633.3999999985099","","","","","","","","49","0,0,1","6","blank","360","null","0.3034023927386893","0.5394334273068212","0.18595382173781558","0","","","","","","","","",""
"","html-keyboard-response","280","784730","0.0-149.0-1.0","null","<p></p>","null","","","","","","","","","","","","","","","","","","","","","","","",""
"","do_trial","281","788474","0.0-150.0-0.0","1206.3999999985099","","","","","","","","50","0,0,0","6","blank","361","null","0.258388166044983","0.5535018951464968","0.17247207367194572","0","","","","","","","","",""
"","html-keyboard-response","282","789479","0.0-150.0-1.0","null","<p></p>","null","","","","","","","","","","","","","","","","","","","","","","","",""
"","do_recog","283","792663","0.0-151.0-0.0","1674.5","","","","","","","","55","","","","362","probe-40","","","","","1","[object Object]","168","4","0","","","",""
"","html-keyboard-response","284","793665","0.0-151.0-1.0","null","<p></p>","null","","","","","","","","","","","","","","","","","","","","","","","",""
"","do_trial","285","797432","0.0-152.0-0.0","1230.1000000014901","","","","","","","","50","0,1,1","6","blank","363","null","0.2076035327276237","0.561101718649813","0.20076600802050998","1","","","","","","","","",""
"","html-keyboard-response","286","798436","0.0-152.0-1.0","null","<p></p>","null","","","","","","","","","","","","","","","","","","","","","","","",""
"","do_recog","287","802029","0.0-153.0-0.0","2083.7999999970198","","","","","","","","55","","","","364","probe-108","","","","","1","[object Object]","120","3","0","","","",""
"","html-keyboard-response","288","803035","0.0-153.0-1.0","null","<p></p>","null","","","","","","","","","","","","","","","","","","","","","","","",""
"","do_trial","289","807397","0.0-154.0-0.0","1820.5999999940395","","","","","","","","50","0,1,0","6","blank","365","null","0.13779248017703136","0.6183410452389159","0.14016702116247604","1","","","","","","","","",""
"","html-keyboard-response","290","808398","0.0-154.0-1.0","null","<p></p>","null","","","","","","","","","","","","","","","","","","","","","","","",""
"","do_trial","291","812241","0.0-155.0-0.0","1303.0999999940395","","","","","","","","51","0,0,0","6","blank","366","null","0.35802442969556497","0.558656782417838","0.18228610552444688","0","","","","","","","","",""
"","html-keyboard-response","292","813243","0.0-155.0-1.0","null","<p></p>","null","","","","","","","","","","","","","","","","","","","","","","","",""
"","do_trial","293","815902","0.0-156.0-0.0","120.10000000149012","","","","","","","","50","0,0,0","6","blank","367","null","0.33442378197979883","0.4815333998511329","0.09826562751235457","0","","","","","","","","",""
"","html-keyboard-response","294","816906","0.0-156.0-1.0","null","<p></p>","null","","","","","","","","","","","","","","","","","","","","","","","",""
"","do_trial","295","819593","0.0-157.0-0.0","142.29999999701977","","","","","","","","49","0,0,0","6","blank","368","null","0.176727006434032","0.5933577885079484","0.05242759336223864","0","","","","","","","","",""
"","html-keyboard-response","296","820597","0.0-157.0-1.0","null","<p></p>","null","","","","","","","","","","","","","","","","","","","","","","","",""
"","do_trial","297","823263","0.0-158.0-0.0","125.30000000447035","","","","","","","","49","0,1,0","6","blank","369","null","0.16827999003933836","0.600651535931273","0.10474328021789982","0","","","","","","","","",""
"","html-keyboard-response","298","824267","0.0-158.0-1.0","null","<p></p>","null","","","","","","","","","","","","","","","","","","","","","","","",""
"","do_trial","299","826968","0.0-159.0-0.0","160.60000000149012","","","","","","","","50","0,1,0","6","blank","370","null","0.0923516233712044","0.5591542361703035","0.11473827274671793","1","","","","","","","","",""
"","html-keyboard-response","300","827972","0.0-159.0-1.0","null","<p></p>","null","","","","","","","","","","","","","","","","","","","","","","","",""
"","do_recog","301","831782","0.0-160.0-0.0","2305.2000000029802","","","","","","","","55","","","","371","probe-37","","","","","1","[object Object]","44","1","0","","","",""
"","html-keyboard-response","302","832785","0.0-160.0-1.0","null","<p></p>","null","","","","","","","","","","","","","","","","","","","","","","","",""
"","do_trial","303","835731","0.0-161.0-0.0","405.19999999552965","","","","","","","","50","0,0,1","6","blank","372","null","0.15421743356023837","0.5937225932402795","0.13017519340128778","0","","","","","","","","",""
"","html-keyboard-response","304","836736","0.0-161.0-1.0","null","<p></p>","null","","","","","","","","","","","","","","","","","","","","","","","",""
"","do_recog","305","840137","0.0-162.0-0.0","1894.7999999970198","","","","","","","","54","","","","373","probe-44","","","","","1","[object Object]","82","2","1","","","",""
"","html-keyboard-response","306","841144","0.0-162.0-1.0","null","<p></p>","null","","","","","","","","","","","","","","","","","","","","","","","",""
"","do_trial","307","844276","0.0-163.0-0.0","589.1000000014901","","","","","","","","49","0,1,0","6","blank","374","null","0.3443857577759783","0.5257612037189117","0.15630913736670174","0","","","","","","","","",""
"","html-keyboard-response","308","845280","0.0-163.0-1.0","null","<p></p>","null","","","","","","","","","","","","","","","","","","","","","","","",""
"","do_recog","309","848863","0.0-164.0-0.0","2074.7999999970198","","","","","","","","55","","","","375","probe-140","","","","","1","[object Object]","209","5","0","","","",""
"","html-keyboard-response","310","849869","0.0-164.0-1.0","null","<p></p>","null","","","","","","","","","","","","","","","","","","","","","","","",""
"","do_trial","311","852781","0.0-165.0-0.0","373.20000000298023","","","","","","","","51","1,0,0","6","blank","376","null","0.3816003658895042","0.548706815394741","0.12929819726740138","0","","","","","","","","",""
"","html-keyboard-response","312","853784","0.0-165.0-1.0","null","<p></p>","null","","","","","","","","","","","","","","","","","","","","","","","",""
"","do_trial","313","856442","0.0-166.0-0.0","117.80000000447035","","","","","","","","50","0,0,1","6","blank","377","null","0.2660913757507614","0.5531677431971564","0.050773961257830694","0","","","","","","","","",""
"","html-keyboard-response","314","857445","0.0-166.0-1.0","null","<p></p>","null","","","","","","","","","","","","","","","","","","","","","","","",""
"","do_trial","315","859999","0.0-167.0-0.0","12.200000002980232","","","","","","","","50","0,1,0","6","blank","378","null","0.26499051756528835","0.5969415541893351","0.1372021623191373","1","","","","","","","","",""
"","html-keyboard-response","316","861002","0.0-167.0-1.0","null","<p></p>","null","","","","","","","","","","","","","","","","","","","","","","","",""
"","do_trial","317","863632","0.0-168.0-0.0","90.60000000149012","","","","","","","","49","0,0,0","6","blank","379","null","0.3382578177491348","0.6366208403304048","0.0697117915677646","0","","","","","","","","",""
"","html-keyboard-response","318","864635","0.0-168.0-1.0","null","<p></p>","null","","","","","","","","","","","","","","","","","","","","","","","",""
"","do_trial","319","867243","0.0-169.0-0.0","63.20000000298023","","","","","","","","50","0,1,0","6","blank","380","null","0.3132242598689924","0.7177444736783782","0.1621332576212093","1","","","","","","","","",""
"","html-keyboard-response","320","868247","0.0-169.0-1.0","null","<p></p>","null","","","","","","","","","","","","","","","","","","","","","","","",""
"","do_trial","321","871194","0.0-170.0-0.0","404.3999999985099","","","","","","","","50","0,0,0","6","blank","381","null","0.25798617101566707","0.8316119001259847","0.1258167369822062","0","","","","","","","","",""
"","html-keyboard-response","322","872198","0.0-170.0-1.0","null","<p></p>","null","","","","","","","","","","","","","","","","","","","","","","","",""
"","do_recog","323","876084","0.0-171.0-0.0","2379.2999999970198","","","","","","","","54","","","","382","probe-102","","","","","1","[object Object]","169","4","1","","","",""
"","html-keyboard-response","324","877085","0.0-171.0-1.0","null","<p></p>","null","","","","","","","","","","","","","","","","","","","","","","","",""
"","do_trial","325","879818","0.0-172.0-0.0","190.19999999552965","","","","","","","","49","0,0,0","6","blank","383","null","0.3590443270956275","0.6945009212992964","0.09981817124590972","0","","","","","","","","",""
"","html-keyboard-response","326","880822","0.0-172.0-1.0","null","<p></p>","null","","","","","","","","","","","","","","","","","","","","","","","",""
"","do_trial","327","883363","0.0-173.0-0.0","0.19999999552965164","","","","","","","","49","1,1,0","6","blank","384","null","0.35545788321677463","0.5845431465308619","0.07314089710711574","1","","","","","","","","",""
"","html-keyboard-response","328","884365","0.0-173.0-1.0","null","<p></p>","null","","","","","","","","","","","","","","","","","","","","","","","",""
"","do_trial","329","887075","0.0-174.0-0.0","170.90000000596046","","","","","","","","50","0,1,0","6","blank","385","null","0.1665477719486966","0.599409980379597","0.15812673138768063","1","","","","","","","","",""
"","html-keyboard-response","330","888082","0.0-174.0-1.0","null","<p></p>","null","","","","","","","","","","","","","","","","","","","","","","","",""
"","do_trial","331","890789","0.0-175.0-0.0","162.39999999850988","","","","","","","","50","0,1,0","6","blank","386","null","0.1598033087798343","0.7037943739833873","0.06360476000745259","1","","","","","","","","",""
"","html-keyboard-response","332","891791","0.0-175.0-1.0","null","<p></p>","null","","","","","","","","","","","","","","","","","","","","","","","",""
"","do_recog","333","895279","0.0-176.0-0.0","1977.2000000029802","","","","","","","","55","","","","387","probe-66","","","","","1","[object Object]","166","4","0","","","",""
"","html-keyboard-response","334","896285","0.0-176.0-1.0","null","<p></p>","null","","","","","","","","","","","","","","","","","","","","","","","",""
"","do_trial","335","898979","0.0-177.0-0.0","154.60000000149012","","","","","","","","51","0,0,0","6","blank","388","null","0.18771582829366243","0.8184827524124947","0.2557853396403721","0","","","","","","","","",""
"","html-keyboard-response","336","899980","0.0-177.0-1.0","null","<p></p>","null","","","","","","","","","","","","","","","","","","","","","","","",""
"","do_trial","337","902620","0.0-178.0-0.0","100","","","","","","","","49","0,0,1","6","blank","389","null","0.2702794261162361","0.8259264499254262","0.2480730245927976","0","","","","","","","","",""
"","html-keyboard-response","338","903625","0.0-178.0-1.0","null","<p></p>","null","","","","","","","","","","","","","","","","","","","","","","","",""
"","do_trial","339","906279","0.0-179.0-0.0","121.10000000149012","","","","","","","","50","1,1,0","6","blank","390","null","0.39824294428680496","0.7456373323866774","0.22641639419107715","1","","","","","","","","",""
"","html-keyboard-response","340","907280","0.0-179.0-1.0","null","<p></p>","null","","","","","","","","","","","","","","","","","","","","","","","",""
"","do_trial","341","909878","0.0-180.0-0.0","61","","","","","","","","51","0,1,0","6","blank","391","null","0.2921529389220142","0.7226279951157061","0.23107965366285205","0","","","","","","","","",""
"","html-keyboard-response","342","910884","0.0-180.0-1.0","null","<p></p>","null","","","","","","","","","","","","","","","","","","","","","","","",""
"","do_trial","343","913476","0.0-181.0-0.0","52.100000001490116","","","","","","","","49","0,1,0","6","blank","392","null","0.340568213822835","0.7016240799391733","0.1887246563355817","0","","","","","","","","",""
"","html-keyboard-response","344","914478","0.0-181.0-1.0","null","<p></p>","null","","","","","","","","","","","","","","","","","","","","","","","",""
"","do_trial","345","917374","0.0-182.0-0.0","356","","","","","","","","49","1,1,0","6","blank","393","null","0.26948546809503693","0.7461958761236912","0.1291746319304562","1","","","","","","","","",""
"","html-keyboard-response","346","918377","0.0-182.0-1.0","null","<p></p>","null","","","","","","","","","","","","","","","","","","","","","","","",""
"","do_recog","347","921797","0.0-183.0-0.0","1911.3999999985099","","","","","","","","55","","","","394","probe-236","","","","","0","[object Object]","null","null","1","","","",""
"","html-keyboard-response","348","922802","0.0-183.0-1.0","null","<p></p>","null","","","","","","","","","","","","","","","","","","","","","","","",""
"","do_trial","349","925552","0.0-184.0-0.0","213.29999999701977","","","","","","","","51","0,1,0","6","blank","395","null","0.3843100851064443","0.7545120767093739","0.21254858705905108","0","","","","","","","","",""
"","html-keyboard-response","350","926554","0.0-184.0-1.0","null","<p></p>","null","","","","","","","","","","","","","","","","","","","","","","","",""
"","do_trial","351","930051","0.0-185.0-0.0","956.2999999970198","","","","","","","","49","0,0,0","6","blank","396","null","0.2983135325289509","0.6176545432016773","0.20560489050951045","0","","","","","","","","",""
"","html-keyboard-response","352","931052","0.0-185.0-1.0","null","<p></p>","null","","","","","","","","","","","","","","","","","","","","","","","",""
"","do_trial","353","933973","0.0-186.0-0.0","380.29999999701977","","","","","","","","49","0,1,1","6","blank","397","null","0.2536998919870302","0.5258147686419408","0.2545586724880499","0","","","","","","","","",""
"","html-keyboard-response","354","934977","0.0-186.0-1.0","null","<p></p>","null","","","","","","","","","","","","","","","","","","","","","","","",""
"","do_recog","355","938706","0.0-187.0-0.0","2221","","","","","","","","54","","","","398","probe-147","","","","","1","[object Object]","204","5","1","","","",""
"","html-keyboard-response","356","939708","0.0-187.0-1.0","null","<p></p>","null","","","","","","","","","","","","","","","","","","","","","","","",""
"","do_trial","357","942395","0.0-188.0-0.0","146.69999999552965","","","","","","","","50","1,1,0","6","blank","399","null","0.2503961536064793","0.5105067330589819","0.10265813855432301","1","","","","","","","","",""
"","html-keyboard-response","358","943397","0.0-188.0-1.0","null","<p></p>","null","","","","","","","","","","","","","","","","","","","","","","","",""
"","do_recog","359","946396","0.0-189.0-0.0","1490.8000000044703","","","","","","","","55","","","","400","probe-112","","","","","1","[object Object]","208","5","0","","","",""
"","html-keyboard-response","360","947397","0.0-189.0-1.0","null","<p></p>","null","","","","","","","","","","","","","","","","","","","","","","","",""
"","do_trial","361","949938","0.0-190.0-0.0","0.19999999552965164","","","","","","","","49","1,1,0","6","blank","401","null","0.36939726001032275","0.3667308755626557","0.1761992591607861","1","","","","","","","","",""
"","html-keyboard-response","362","950940","0.0-190.0-1.0","null","<p></p>","null","","","","","","","","","","","","","","","","","","","","","","","",""
"","do_recog","363","954066","0.0-191.0-0.0","1619.0999999940395","","","","","","","","55","","","","402","probe-104","","","","","1","[object Object]","124","3","0","","","",""
"","html-keyboard-response","364","955067","0.0-191.0-1.0","null","<p></p>","null","","","","","","","","","","","","","","","","","","","","","","","",""
"","do_trial","365","957944","0.0-192.0-0.0","332","","","","","","","","50","1,0,0","6","blank","403","null","0.5161560036148521","0.30139962962952377","0.3116938885229921","0","","","","","","","","",""
"","html-keyboard-response","366","958946","0.0-192.0-1.0","null","<p></p>","null","","","","","","","","","","","","","","","","","","","","","","","",""
"","do_recog","367","962115","0.0-193.0-0.0","1658.3999999985099","","","","","","","","54","","","","404","probe-75","","","","","1","[object Object]","45","1","1","","","",""
"","html-keyboard-response","368","963118","0.0-193.0-1.0","null","<p></p>","null","","","","","","","","","","","","","","","","","","","","","","","",""
"","do_trial","369","966285","0.0-194.0-0.0","622.6999999955297","","","","","","","","51","1,0,1","6","blank","405","null","0.47283333665947147","0.22903096343334095","0.33278773021426844","1","","","","","","","","",""
"","html-keyboard-response","370","967289","0.0-194.0-1.0","null","<p></p>","null","","","","","","","","","","","","","","","","","","","","","","","",""
"","do_trial","371","969978","0.0-195.0-0.0","145.70000000298023","","","","","","","","51","0,1,0","6","blank","406","null","0.48359833026824706","0.1835993008468286","0.2637960571703017","0","","","","","","","","",""
"","html-keyboard-response","372","970982","0.0-195.0-1.0","null","<p></p>","null","","","","","","","","","","","","","","","","","","","","","","","",""
"","do_trial","373","973523","0.0-196.0-0.0","0.10000000149011612","","","","","","","","50","1,1,1","6","blank","407","null","0.43486536041015994","0.08259430753564924","0.27355840480019644","1","","","","","","","","",""
"","html-keyboard-response","374","974525","0.0-196.0-1.0","null","<p></p>","null","","","","","","","","","","","","","","","","","","","","","","","",""
"","do_trial","375","977183","0.0-197.0-0.0","114.10000000149012","","","","","","","","50","1,0,1","6","blank","408","null","0.5964032638556274","0.18473190319025143","0.39971505645838923","0","","","","","","","","",""
"","html-keyboard-response","376","978187","0.0-197.0-1.0","null","<p></p>","null","","","","","","","","","","","","","","","","","","","","","","","",""
"","do_trial","377","980866","0.0-198.0-0.0","137.5","","","","","","","","49","0,0,0","6","blank","409","null","0.5841532358899597","0.21404714614738965","0.3088858846409073","0","","","","","","","","",""
"","html-keyboard-response","378","981869","0.0-198.0-1.0","null","<p></p>","null","","","","","","","","","","","","","","","","","","","","","","","",""
"","do_recog","379","985797","0.0-199.0-0.0","2418.39999999851","","","","","","","","53","","","","410","probe-96","","","","","1","[object Object]","121","3","1","","","",""
"","html-keyboard-response","380","986800","0.0-199.0-1.0","null","<p></p>","null","","","","","","","","","","","","","","","","","","","","","","","",""
"","do_trial","381","990147","0.0-200.0-0.0","801.5","","","","","","","","49","1,0,1","6","blank","411","null","0.5807280120152677","0.24514416749645587","0.3513553218710907","1","","","","","","","","",""
"","html-keyboard-response","382","991150","0.0-200.0-1.0","null","<p></p>","null","","","","","","","","","","","","","","","","","","","","","","","",""
"","do_trial","383","993703","0.0-201.0-0.0","14.399999998509884","","","","","","","","50","1,0,0","6","blank","412","null","0.5432675352985502","0.25808484287434935","0.4904068745336586","0","","","","","","","","",""
"","html-keyboard-response","384","994707","0.0-201.0-1.0","null","<p></p>","null","","","","","","","","","","","","","","","","","","","","","","","",""
"","do_trial","385","997260","0.0-202.0-0.0","12.600000001490116","","","","","","","","51","1,0,0","6","blank","413","null","0.7282977667843707","0.189561177926702","0.3866763560302775","0","","","","","","","","",""
"","html-keyboard-response","386","998264","0.0-202.0-1.0","null","<p></p>","null","","","","","","","","","","","","","","","","","","","","","","","",""
"","do_trial","387","1000815","0.0-203.0-0.0","8.100000001490116","","","","","","","","49","1,1,0","6","blank","414","null","0.57279256460658","0.1577955203257873","0.2258705938651111","1","","","","","","","","",""
"","html-keyboard-response","388","1001819","0.0-203.0-1.0","null","<p></p>","null","","","","","","","","","","","","","","","","","","","","","","","",""
"","do_trial","389","1004361","0.0-204.0-0.0","0.09999999403953552","","","","","","","","49","0,0,1","6","blank","415","null","0.5765806472843146","0.12193665722877431","0.2792412920492842","0","","","","","","","","",""
"","html-keyboard-response","390","1005366","0.0-204.0-1.0","null","<p></p>","null","","","","","","","","","","","","","","","","","","","","","","","",""
"","do_trial","391","1007947","0.0-205.0-0.0","41.399999998509884","","","","","","","","50","0,0,1","6","blank","416","null","0.6513850764496459","0.20558647203550023","0.3208935572491399","0","","","","","","","","",""
"","html-keyboard-response","392","1008949","0.0-205.0-1.0","null","<p></p>","null","","","","","","","","","","","","","","","","","","","","","","","",""
"","do_recog","393","1012493","0.0-206.0-0.0","2033.7000000029802","","","","","","","","54","","","","417","probe-161","","","","","1","[object Object]","129","3","1","","","",""
"","html-keyboard-response","394","1013500","0.0-206.0-1.0","null","<p></p>","null","","","","","","","","","","","","","","","","","","","","","","","",""
"","do_trial","395","1016579","0.0-207.0-0.0","534.2999999970198","","","","","","","","50","0,1,0","6","blank","418","null","0.6227353751824347","0.11401983305095201","0.22292677051671675","1","","","","","","","","",""
"","html-keyboard-response","396","1017584","0.0-207.0-1.0","null","<p></p>","null","","","","","","","","","","","","","","","","","","","","","","","",""
"","do_trial","397","1020856","0.0-208.0-0.0","730.1999999955297","","","","","","","","50","0,0,1","6","blank","419","null","0.45554376923909845","0.13454868925509794","0.3833595057578881","0","","","","","","","","",""
"","html-keyboard-response","398","1021860","0.0-208.0-1.0","null","<p></p>","null","","","","","","","","","","","","","","","","","","","","","","","",""
"","do_trial","399","1024950","0.0-209.0-0.0","553.1999999955297","","","","","","","","49","1,0,0","6","blank","420","null","0.457526193106663","0.23337430155955702","0.4273636718266667","1","","","","","","","","",""
"","html-keyboard-response","400","1025954","0.0-209.0-1.0","null","<p></p>","null","","","","","","","","","","","","","","","","","","","","","","","",""
"","do_recog","401","1030334","0.0-210.0-0.0","2871.89999999851","","","","","","","","55","","","","421","probe-64","","","","","1","[object Object]","161","4","0","","","",""
"","html-keyboard-response","402","1031336","0.0-210.0-1.0","null","<p></p>","null","","","","","","","","","","","","","","","","","","","","","","","",""
"","do_trial","403","1034530","0.0-211.0-0.0","653.1000000014901","","","","","","","","51","0,0,1","6","blank","422","null","0.4958026984958281","0.17926072767573217","0.4308774129640131","1","","","","","","","","",""
"","html-keyboard-response","404","1035534","0.0-211.0-1.0","null","<p></p>","null","","","","","","","","","","","","","","","","","","","","","","","",""
"","do_recog","405","1039485","0.0-212.0-0.0","2443.8000000044703","","","","","","","","53","","","","423","probe-110","","","","","1","[object Object]","163","4","1","","","",""
"","html-keyboard-response","406","1040491","0.0-212.0-1.0","null","<p></p>","null","","","","","","","","","","","","","","","","","","","","","","","",""
"","do_trial","407","1043133","0.0-213.0-0.0","98.70000000298023","","","","","","","","51","0,0,0","6","blank","424","null","0.4894914410847703","0.12155018926791311","0.3761242113947904","0","","","","","","","","",""
"","html-keyboard-response","408","1044137","0.0-213.0-1.0","null","<p></p>","null","","","","","","","","","","","","","","","","","","","","","","","",""
"","do_trial","409","1046773","0.0-214.0-0.0","92.19999999552965","","","","","","","","50","0,0,0","6","blank","425","null","0.4909494631084446","0.08070232053440127","0.37056584520238234","0","","","","","","","","",""
"","html-keyboard-response","410","1047777","0.0-214.0-1.0","null","<p></p>","null","","","","","","","","","","","","","","","","","","","","","","","",""
"","do_trial","411","1050664","0.0-215.0-0.0","346.8999999985099","","","","","","","","49","1,0,0","6","blank","426","null","0.4258442286552813","0.1254434233381675","0.2852406323053423","1","","","","","","","","",""
"","html-keyboard-response","412","1051670","0.0-215.0-1.0","null","<p></p>","null","","","","","","","","","","","","","","","","","","","","","","","",""
"","do_trial","413","1054709","0.0-216.0-0.0","498.6000000014901","","","","","","","","49","0,0,0","6","blank","427","null","0.5257815287546592","0.23001336909942843","0.43568817381006353","0","","","","","","","","",""
"","html-keyboard-response","414","1055712","0.0-216.0-1.0","null","<p></p>","null","","","","","","","","","","","","","","","","","","","","","","","",""
"","do_trial","415","1058314","0.0-217.0-0.0","64.39999999850988","","","","","","","","49","0,1,0","6","blank","428","null","0.657756839866883","0.14758307533427406","0.3729214224603446","0","","","","","","","","",""
"","html-keyboard-response","416","1059317","0.0-217.0-1.0","null","<p></p>","null","","","","","","","","","","","","","","","","","","","","","","","",""
"","do_trial","417","1062006","0.0-218.0-0.0","146.60000000149012","","","","","","","","51","1,0,1","6","blank","429","null","0.5736273938274542","0.15402606837740315","0.4040991811700332","1","","","","","","","","",""
"","html-keyboard-response","418","1063010","0.0-218.0-1.0","null","<p></p>","null","","","","","","","","","","","","","","","","","","","","","","","",""
"","do_recog","419","1067333","0.0-219.0-0.0","2812.5","","","","","","","","54","","","","430","probe-99","","","","","1","[object Object]","47","1","1","","","",""
"","html-keyboard-response","420","1068339","0.0-219.0-1.0","null","<p></p>","null","","","","","","","","","","","","","","","","","","","","","","","",""
"","do_trial","421","1070987","0.0-220.0-0.0","107","","","","","","","","50","0,0,0","6","blank","431","null","0.7274982560083771","0.07493174000389706","0.4210943248488696","0","","","","","","","","",""
"","html-keyboard-response","422","1071988","0.0-220.0-1.0","null","<p></p>","null","","","","","","","","","","","","","","","","","","","","","","","",""
"","do_trial","423","1075006","0.0-221.0-0.0","480.6000000014901","","","","","","","","49","0,0,0","6","blank","432","null","0.6454764480119927","0.06834863458172047","0.44187285630269346","0","","","","","","","","",""
"","html-keyboard-response","424","1076010","0.0-221.0-1.0","null","<p></p>","null","","","","","","","","","","","","","","","","","","","","","","","",""
"","do_trial","425","1078966","0.0-222.0-0.0","412.5","","","","","","","","51","1,0,1","6","blank","433","null","0.677996878159474","0.09100912573929648","0.257573396811719","1","","","","","","","","",""
"","html-keyboard-response","426","1079970","0.0-222.0-1.0","null","<p></p>","null","","","","","","","","","","","","","","","","","","","","","","","",""
"","do_trial","427","1083560","0.0-223.0-0.0","1051","","","","","","","","50","1,0,0","6","blank","434","null","0.6892822485983174","0.10075286778152989","0.32071162018430194","0","","","","","","","","",""
"","html-keyboard-response","428","1084564","0.0-223.0-1.0","null","<p></p>","null","","","","","","","","","","","","","","","","","","","","","","","",""
"","do_recog","429","1088217","0.0-224.0-0.0","2143.10000000149","","","","","","","","53","","","","435","probe-74","","","","","1","[object Object]","122","3","1","","","",""
"","html-keyboard-response","430","1089218","0.0-224.0-1.0","null","<p></p>","null","","","","","","","","","","","","","","","","","","","","","","","",""
"","do_trial","431","1092727","0.0-225.0-0.0","966.9000000059605","","","","","","","","49","0,1,0","6","blank","436","null","0.6105094992231582","0.10448596858407898","0.27299094644612903","0","","","","","","","","",""
"","html-keyboard-response","432","1093731","0.0-225.0-1.0","null","<p></p>","null","","","","","","","","","","","","","","","","","","","","","","","",""
"","do_trial","433","1096276","0.0-226.0-0.0","0.10000000149011612","","","","","","","","50","0,0,0","6","blank","437","null","0.6991111911406515","0.05976438850831005","0.1734784767130728","0","","","","","","","","",""
"","html-keyboard-response","434","1097280","0.0-226.0-1.0","null","<p></p>","null","","","","","","","","","","","","","","","","","","","","","","","",""
"","do_trial","435","1100350","0.0-227.0-0.0","530.2999999970198","","","","","","","","51","0,0,1","6","blank","438","null","0.5330713761656758","0.1209417910036833","0.15797413812267724","1","","","","","","","","",""
"","html-keyboard-response","436","1101356","0.0-227.0-1.0","null","<p></p>","null","","","","","","","","","","","","","","","","","","","","","","","",""
"","do_trial","437","1103982","0.0-228.0-0.0","82.10000000149012","","","","","","","","49","1,0,0","6","blank","439","null","0.4464067812997444","0.11647807459016765","0.17026481109051494","1","","","","","","","","",""
"","html-keyboard-response","438","1104986","0.0-228.0-1.0","null","<p></p>","null","","","","","","","","","","","","","","","","","","","","","","","",""
"","do_trial","439","1107883","0.0-229.0-0.0","357","","","","","","","","50","0,0,0","6","blank","440","null","0.6501723324866518","0.40124447678515085","0.2732556449197925","0","","","","","","","","",""
"","html-keyboard-response","440","1108886","0.0-229.0-1.0","null","<p></p>","null","","","","","","","","","","","","","","","","","","","","","","","",""
"","do_recog","441","1112350","0.0-230.0-0.0","1956.7000000029802","","","","","","","","53","","","","441","probe-69","","","","","1","[object Object]","86","2","1","","","",""
"","html-keyboard-response","442","1113355","0.0-230.0-1.0","null","<p></p>","null","","","","","","","","","","","","","","","","","","","","","","","",""
"","do_trial","443","1117023","0.0-231.0-0.0","1126.8000000044703","","","","","","","","50","1,0,0","6","blank","442","null","0.8281766694425613","0.1632463222654915","0.37534461918038553","0","","","","","","","","",""
"","html-keyboard-response","444","1118026","0.0-231.0-1.0","null","<p></p>","null","","","","","","","","","","","","","","","","","","","","","","","",""
"","do_recog","445","1122338","0.0-232.0-0.0","2802.2000000029802","","","","","","","","56","","","","443","probe-233","","","","","0","[object Object]","null","null","1","","","",""
"","html-keyboard-response","446","1123343","0.0-232.0-1.0","null","<p></p>","null","","","","","","","","","","","","","","","","","","","","","","","",""
"","do_trial","447","1126895","0.0-233.0-0.0","1007.7999999970198","","","","","","","","50","1,0,1","6","blank","444","null","0.738307816230042","0.24001162229459944","0.3478020887123933","0","","","","","","","","",""
"","html-keyboard-response","448","1127896","0.0-233.0-1.0","null","<p></p>","null","","","","","","","","","","","","","","","","","","","","","","","",""
"","do_trial","449","1130927","0.0-234.0-0.0","491.69999999552965","","","","","","","","51","1,0,0","6","blank","445","null","0.6394492995206645","0.21969418132108626","0.31829799139199744","0","","","","","","","","",""
"","html-keyboard-response","450","1131933","0.0-234.0-1.0","null","<p></p>","null","","","","","","","","","","","","","","","","","","","","","","","",""
"","do_recog","451","1135827","0.0-235.0-0.0","2383.5","","","","","","","","56","","","","446","probe-209","","","","","1","[object Object]","203","5","0","","","",""
"","html-keyboard-response","452","1136832","0.0-235.0-1.0","null","<p></p>","null","","","","","","","","","","","","","","","","","","","","","","","",""
"","do_trial","453","1140669","0.0-236.0-0.0","1298.6000000014901","","","","","","","","51","1,0,0","6","blank","447","null","0.7373711731079557","0.24449054696163153","0.24351732553226757","0","","","","","","","","",""
"","html-keyboard-response","454","1141673","0.0-236.0-1.0","null","<p></p>","null","","","","","","","","","","","","","","","","","","","","","","","",""
"","do_trial","455","1144299","0.0-237.0-0.0","88.10000000149012","","","","","","","","51","1,0,0","6","blank","448","null","0.7419833686207226","0.1650466797741212","0.31925071767611324","0","","","","","","","","",""
"","html-keyboard-response","456","1145305","0.0-237.0-1.0","null","<p></p>","null","","","","","","","","","","","","","","","","","","","","","","","",""
"","do_trial","457","1148133","0.0-238.0-0.0","288.70000000298023","","","","","","","","49","1,1,1","6","blank","449","null","0.590720746669607","0.25075768800233733","0.41658439727303553","1","","","","","","","","",""
"","html-keyboard-response","458","1149136","0.0-238.0-1.0","null","<p></p>","null","","","","","","","","","","","","","","","","","","","","","","","",""
"","do_recog","459","1153600","0.0-239.0-0.0","2957.3000000044703","","","","","","","","56","","","","450","probe-53","","","","","1","[object Object]","87","2","0","","","",""
"","html-keyboard-response","460","1154606","0.0-239.0-1.0","null","<p></p>","null","","","","","","","","","","","","","","","","","","","","","","","",""
"","do_trial","461","1158367","0.0-240.0-0.0","1221.6999999955297","","","","","","","","51","0,0,0","6","blank","451","null","0.4434124608475392","0.16135145788779873","0.3081097618675175","0","","","","","","","","",""
"","html-keyboard-response","462","1159372","0.0-240.0-1.0","null","<p></p>","null","","","","","","","","","","","","","","","","","","","","","","","",""
"","do_trial","463","1161971","0.0-241.0-0.0","59.399999998509884","","","","","","","","50","1,0,0","6","blank","452","null","0.5358392333990516","0.11304839488158842","0.3143437139500718","0","","","","","","","","",""
"","html-keyboard-response","464","1162975","0.0-241.0-1.0","null","<p></p>","null","","","","","","","","","","","","","","","","","","","","","","","",""
"","do_trial","465","1166633","0.0-242.0-0.0","1115.3999999985099","","","","","","","","50","1,0,1","6","blank","453","null","0.3810151289027553","0.20648289247838136","0.5148815022480742","0","","","","","","","","",""
"","html-keyboard-response","466","1167637","0.0-242.0-1.0","null","<p></p>","null","","","","","","","","","","","","","","","","","","","","","","","",""
"","do_trial","467","1170772","0.0-243.0-0.0","595.1000000014901","","","","","","","","49","0,0,1","6","blank","454","null","0.20563448440264778","0.4884457913433626","0.5216864776465628","0","","","","","","","","",""
"","html-keyboard-response","468","1171776","0.0-243.0-1.0","null","<p></p>","null","","","","","","","","","","","","","","","","","","","","","","","",""
"","do_trial","469","1174438","0.0-244.0-0.0","123.70000000298023","","","","","","","","50","0,0,1","6","blank","455","null","0.19755294412026903","0.23643691921928664","0.5969799699062499","0","","","","","","","","",""
"","html-keyboard-response","470","1175441","0.0-244.0-1.0","null","<p></p>","null","","","","","","","","","","","","","","","","","","","","","","","",""
"","do_recog","471","1179233","0.0-245.0-0.0","2282.7999999970198","","","","","","","","53","","","","456","probe-97","","","","","1","[object Object]","206","5","1","","","",""
"","html-keyboard-response","472","1180238","0.0-245.0-1.0","null","<p></p>","null","","","","","","","","","","","","","","","","","","","","","","","",""
"","do_trial","473","1184199","0.0-246.0-0.0","1420.9000000059605","","","","","","","","50","0,0,0","6","blank","457","null","0.14255121692532235","0.3954781771242617","0.650973368027024","0","","","","","","","","",""
"","html-keyboard-response","474","1185203","0.0-246.0-1.0","null","<p></p>","null","","","","","","","","","","","","","","","","","","","","","","","",""
"","do_trial","475","1188954","0.0-247.0-0.0","1213.1000000014901","","","","","","","","50","0,0,1","6","blank","458","null","0.09400653531042767","0.44530160697978605","0.700646078267979","0","","","","","","","","",""
"","html-keyboard-response","476","1189957","0.0-247.0-1.0","null","<p></p>","null","","","","","","","","","","","","","","","","","","","","","","","",""
"","do_recog","477","1193612","0.0-248.0-0.0","2144.7999999970198","","","","","","","","53","","","","459","probe-11","","","","","1","[object Object]","123","3","1","","","",""
"","html-keyboard-response","478","1194615","0.0-248.0-1.0","null","<p></p>","null","","","","","","","","","","","","","","","","","","","","","","","",""
"","do_trial","479","1197688","0.0-249.0-0.0","531.5","","","","","","","","49","0,0,1","6","blank","460","null","0.15021045578937048","0.5380218774901929","0.6696973828180116","0","","","","","","","","",""
"","html-keyboard-response","480","1198690","0.0-249.0-1.0","null","<p></p>","null","","","","","","","","","","","","","","","","","","","","","","","",""
"","do_trial","481","1201766","0.0-250.0-0.0","537.1999999955297","","","","","","","","51","0,1,0","6","blank","461","null","0.1572701799441575","0.35818045430242684","0.7038191654367915","0","","","","","","","","",""
"","html-keyboard-response","482","1202769","0.0-250.0-1.0","null","<p></p>","null","","","","","","","","","","","","","","","","","","","","","","","",""
"","do_recog","483","1206374","0.0-251.0-0.0","2094.3000000044703","","","","","","","","53","","","","462","probe-202","","","","","1","[object Object]","84","2","1","","","",""
"","html-keyboard-response","484","1207379","0.0-251.0-1.0","null","<p></p>","null","","","","","","","","","","","","","","","","","","","","","","","",""
"","do_trial","485","1211323","0.0-252.0-0.0","1406.4000000059605","","","","","","","","49","0,0,0","6","blank","463","null","0.07846535865412875","0.19144857616835936","0.6183747818250488","0","","","","","","","","",""
"","html-keyboard-response","486","1212325","0.0-252.0-1.0","null","<p></p>","null","","","","","","","","","","","","","","","","","","","","","","","",""
"","do_trial","487","1215563","0.0-253.0-0.0","696.6000000014901","","","","","","","","50","0,0,1","6","blank","464","null","0.11443336909183673","0.2414490631995895","0.635107761214889","0","","","","","","","","",""
"","html-keyboard-response","488","1216566","0.0-253.0-1.0","null","<p></p>","null","","","","","","","","","","","","","","","","","","","","","","","",""
"","do_trial","489","1219733","0.0-254.0-0.0","629.8999999985099","","","","","","","","51","0,0,1","6","blank","465","null","0.16348304691243457","0.2545278614704481","0.7007209794059458","1","","","","","","","","",""
"","html-keyboard-response","490","1220737","0.0-254.0-1.0","null","<p></p>","null","","","","","","","","","","","","","","","","","","","","","","","",""
"","do_recog","491","1224883","0.0-255.0-0.0","2639.7999999970198","","","","","","","","54","","","","466","probe-14","","","","","1","[object Object]","80","2","1","","","",""
"","html-keyboard-response","492","1225885","0.0-255.0-1.0","null","<p></p>","null","","","","","","","","","","","","","","","","","","","","","","","",""
"","do_trial","493","1230716","0.0-256.0-0.0","2288.10000000149","","","","","","","","50","0,0,0","6","blank","467","null","0.16099619672079812","0.25326790446888114","0.584362099051511","0","","","","","","","","",""
"","html-keyboard-response","494","1231720","0.0-256.0-1.0","null","<p></p>","null","","","","","","","","","","","","","","","","","","","","","","","",""
"","do_recog","495","1235206","0.0-257.0-0.0","1975.8999999985099","","","","","","","","53","","","","468","probe-176","","","","","1","[object Object]","165","4","1","","","",""
"","html-keyboard-response","496","1236211","0.0-257.0-1.0","null","<p></p>","null","","","","","","","","","","","","","","","","","","","","","","","",""
"","do_trial","497","1240256","0.0-258.0-0.0","1506.2000000029802","","","","","","","","49","0,1,1","6","blank","469","null","0.15728834354105017","0.29975097543567214","0.6204274584520983","0","","","","","","","","",""
"","html-keyboard-response","498","1241260","0.0-258.0-1.0","null","<p></p>","null","","","","","","","","","","","","","","","","","","","","","","","",""
"","do_trial","499","1244580","0.0-259.0-0.0","781.7999999970198","","","","","","","","50","0,0,1","6","blank","470","null","0.05706235412891436","0.42346532977325363","0.8470995107828057","0","","","","","","","","",""
"","html-keyboard-response","500","1245581","0.0-259.0-1.0","null","<p></p>","null","","","","","","","","","","","","","","","","","","","","","","","",""
"","do_recog","501","1249757","0.0-260.0-0.0","2668.5","","","","","","","","56","","","","471","probe-237","","","","","0","[object Object]","null","null","1","","","",""
"","html-keyboard-response","502","1250763","0.0-260.0-1.0","null","<p></p>","null","","","","","","","","","","","","","","","","","","","","","","","",""
"","do_trial","503","1254382","0.0-261.0-0.0","1077.1999999955297","","","","","","","","49","0,0,1","6","blank","472","null","0.07511812117185566","0.38461761470702827","0.8154357294739393","0","","","","","","","","",""
"","html-keyboard-response","504","1255388","0.0-261.0-1.0","null","<p></p>","null","","","","","","","","","","","","","","","","","","","","","","","",""
"","do_recog","505","1259623","0.0-262.0-0.0","2724.7000000029802","","","","","","","","55","","","","473","probe-238","","","","","0","[object Object]","null","null","1","","","",""
"","html-keyboard-response","506","1260630","0.0-262.0-1.0","null","<p></p>","null","","","","","","","","","","","","","","","","","","","","","","","",""
"","do_trial","507","1265109","0.0-263.0-0.0","1934.1999999955297","","","","","","","","51","0,0,1","6","blank","474","null","0.1647804644354588","0.2924557104322238","0.6324820199050883","1","","","","","","","","",""
"","html-keyboard-response","508","1266113","0.0-263.0-1.0","null","<p></p>","null","","","","","","","","","","","","","","","","","","","","","","","",""
"","do_trial","509","1269498","0.0-264.0-0.0","841.5999999940395","","","","","","","","49","1,1,0","6","blank","475","null","0.2597084899891089","0.21094911854463244","0.6209872543526513","1","","","","","","","","",""
"","html-keyboard-response","510","1270504","0.0-264.0-1.0","null","<p></p>","null","","","","","","","","","","","","","","","","","","","","","","","",""
"","do_trial","511","1273566","0.0-265.0-0.0","520.8000000044703","","","","","","","","51","1,0,1","6","blank","476","null","0.22644847671859214","0.4008081683160984","0.5958533177086629","1","","","","","","","","",""
"","html-keyboard-response","512","1274570","0.0-265.0-1.0","null","<p></p>","null","","","","","","","","","","","","","","","","","","","","","","","",""
"","do_recog","513","1278425","0.0-266.0-0.0","2345.39999999851","","","","","","","","55","","","","477","probe-242","","","","","0","[object Object]","null","null","1","","","",""
