"success","trial_type","trial_index","time_elapsed","internal_node_id","interactions","blur_events","focus_events","fullscreenenter_events","fullscreenexit_events","rt","stimulus","key_press","subject_id","participant_id","age","gender","prompt","response","choice_outcomes","context_n","context_img_id","trial_n","probe_img_id","pR_red","pR_white","pR_black","outcome","is_valid","image_to_show","probed_trial","probed_context","correct","probe","probed_trial_n","probed_context_n","context_im"
"true","fullscreen","0","3889","0.0-0.0","""event"",""trial"",""time""
""focus"",""0"",""0""
""fullscreenenter"",""0"",""3098""
","
","""event"",""trial"",""time""
""focus"",""0"",""0""
","""event"",""trial"",""time""
""fullscreenenter"",""0"",""3098""
","
","","","","","","","","","","","","","","","","","","","","","","","","","","",""
"","pavlovia","1","3891","0.0-1.0","""event"",""trial"",""time""
""focus"",""0"",""0""
""fullscreenenter"",""0"",""3098""
","
","""event"",""trial"",""time""
""focus"",""0"",""0""
","""event"",""trial"",""time""
""fullscreenenter"",""0"",""3098""
","
","","","","","","","","","","","","","","","","","","","","","","","","","","",""
"","welc_back","2","13695","0.0-2.0","""event"",""trial"",""time""
""focus"",""0"",""0""
""fullscreenenter"",""0"",""3098""
","
","""event"",""trial"",""time""
""focus"",""0"",""0""
","""event"",""trial"",""time""
""fullscreenenter"",""0"",""3098""
","
","null","run_exp/static/audio/clip_29_welcome_back.m4a","null","831","672","13","Female","<div class='center'><p>Welcome to day 2!</p><p> Yesterday, you were the head captain of a pirate ship. You asked your fellow pirates to rob other ships of their gold across six different islands.</p></div>","","","","","","","","","","","","","","","","","","",""
"","html-keyboard-response","3","16317","0.0-3.0","""event"",""trial"",""time""
""focus"",""0"",""0""
""fullscreenenter"",""0"",""3098""
","
","""event"",""trial"",""time""
""focus"",""0"",""0""
","""event"",""trial"",""time""
""fullscreenenter"",""0"",""3098""
","
","2621","<div class='center'><p>Welcome to day 2!</p><p> Yesterday, you were the head captain of a pirate ship. You asked your fellow pirates to rob other ships of their gold across six different islands.</p><p><b>[Press the space bar to continue]</b></p></div>","32","","","","","","","","","","","","","","","","","","","","","","","",""
"","day_1_summary_goal","4","33524","0.0-4.0","""event"",""trial"",""time""
""focus"",""0"",""0""
""fullscreenenter"",""0"",""3098""
","
","""event"",""trial"",""time""
""focus"",""0"",""0""
","""event"",""trial"",""time""
""fullscreenenter"",""0"",""3098""
","
","null","run_exp/static/audio/clip_30_goal_of_game.m4a","null","","","","","<div class='center'><p>Today, like yesterday, you get to pick which pirate you want to rob the next ship.</p><p>If the pirate is successful in robbing a ship, you get gold coins that look like this: </p><p><img src='run_exp/static/images/tutorial/reward.png' height='150'></p><p> If they were not successful in robbing the ship, then you will get no gold coins and you'll see a big red x like this: </p><p><img src='run_exp/static/images/tutorial/reward_no.png' height='150'></p></div>","","","","","","","","","","","","","","","","","","",""
"","html-keyboard-response","5","37564","0.0-5.0","""event"",""trial"",""time""
""focus"",""0"",""0""
""fullscreenenter"",""0"",""3098""
","
","""event"",""trial"",""time""
""focus"",""0"",""0""
","""event"",""trial"",""time""
""fullscreenenter"",""0"",""3098""
","
","4039","<div class='center'><p>Today, like yesterday, you get to pick which pirate you want to rob the next ship.</p><p>If the pirate is successful in robbing a ship, you get gold coins that look like this: </p><p><img src='run_exp/static/images/tutorial/reward.png' height='150'></p><p> If they were not successful in robbing the ship, then you will get no gold coins and you'll see a big red x like this: </p><p><img src='run_exp/static/images/tutorial/reward_no.png' height='150'></p><p><b>[Press the space bar to continue]</b></p></div>","32","","","","","","","","","","","","","","","","","","","","","","","",""
"","day_1_summary_pick","6","52265","0.0-6.0","""event"",""trial"",""time""
""focus"",""0"",""0""
""fullscreenenter"",""0"",""3098""
","
","""event"",""trial"",""time""
""focus"",""0"",""0""
","""event"",""trial"",""time""
""fullscreenenter"",""0"",""3098""
","
","null","run_exp/static/audio/clip_31_how_to_pick_a_pirate.m4a","null","","","","","<div class='center'><p>Also, just like yesterday, you will use the 1,2,3 keys on your keyboard to pick a pirate. Press '1' to choose red beard, '2' to choose white beard, and '3' to choose black beard . You only have 3 seconds to pick a pirate, so please make a choice quickly!</p></div>","","","","","","","","","","","","","","","","","","",""
"","html-keyboard-response","7","61172","0.0-7.0","""event"",""trial"",""time""
""focus"",""0"",""0""
""fullscreenenter"",""0"",""3098""
","
","""event"",""trial"",""time""
""focus"",""0"",""0""
","""event"",""trial"",""time""
""fullscreenenter"",""0"",""3098""
","
","8907","<div class='center'><p>Also, just like yesterday, you will use the 1,2,3 keys on your keyboard to pick a pirate. Press '1' to choose red beard, '2' to choose white beard, and '3' to choose black beard . You only have 3 seconds to pick a pirate, so please make a choice quickly!</p><p><b>[Press the space bar to continue]</b></p></div>","32","","","","","","","","","","","","","","","","","","","","","","","",""
"","test_phase_begin","8","91566","0.0-8.0","""event"",""trial"",""time""
""focus"",""0"",""0""
""fullscreenenter"",""0"",""3098""
","
","""event"",""trial"",""time""
""focus"",""0"",""0""
","""event"",""trial"",""time""
""fullscreenenter"",""0"",""3098""
","
","null","run_exp/static/audio/clip_32_final_place.m4a","null","","","","","<div class='center'><p>You’ve arrived at the final island of your journey! Unfortunately, it’s very foggy out, so you won’t be able to see it in the distance like the other islands you've visited.</p><p>You’ll still be deciding which pirate you want to rob a ship like before. However, because of the fog, you also won’t be able to see the ship.</p><p>This means you do not have to remember the ships you rob on this island.</p><p>Unlike yesterday, you won't be visiting multiple islands today. You will stay on this island for the entire game. This game will last ~30 minutes.</p></div>","","","","","","","","","","","","","","","","","","",""
"","html-keyboard-response","9","96980","0.0-9.0","""event"",""trial"",""time""
""focus"",""0"",""0""
""fullscreenenter"",""0"",""3098""
","
","""event"",""trial"",""time""
""focus"",""0"",""0""
","""event"",""trial"",""time""
""fullscreenenter"",""0"",""3098""
","
","5414","<div class='center'><p>You’ve arrived at the final island of your journey! Unfortunately, it’s very foggy out, so you won’t be able to see it in the distance like the other islands you've visited.</p><p>You’ll still be deciding which pirate you want to rob a ship like before. However, because of the fog, you also won’t be able to see the ship.</p><p>This means you do not have to remember the ships you rob on this island.</p><p>Unlike yesterday, you won't be visiting multiple islands today. You will stay on this island for the entire game. This game will last ~30 minutes.</p><p><b>[Press the space bar to continue]</b></p></div>","32","","","","","","","","","","","","","","","","","","","","","","","",""
"","explain_probe_1","10","104684","0.0-10.0","""event"",""trial"",""time""
""focus"",""0"",""0""
""fullscreenenter"",""0"",""3098""
","
","""event"",""trial"",""time""
""focus"",""0"",""0""
","""event"",""trial"",""time""
""fullscreenenter"",""0"",""3098""
","
","null","run_exp/static/audio/clip_33_recognition_1.m4a","null","","","","","<div class='center'><p> Sometimes you’ll be shown a ship, and you will be asked if you saw this ship on a past island.</p><p> Here is an example of what you will see.</p><p><img src='run_exp/static/images/tutorial/example_recog_trial.png' height='500'></p></div>","","","","","","","","","","","","","","","","","","",""
"","html-keyboard-response","11","106548","0.0-11.0","""event"",""trial"",""time""
""focus"",""0"",""0""
""fullscreenenter"",""0"",""3098""
","
","""event"",""trial"",""time""
""focus"",""0"",""0""
","""event"",""trial"",""time""
""fullscreenenter"",""0"",""3098""
","
","1863","<div class='center'><p> Sometimes you’ll be shown a ship, and you will be asked if you saw this ship on a past island.</p><p> Here is an example of what you will see.</p><p><img src='run_exp/static/images/tutorial/example_recog_trial.png' height='500'></p><p><b>[Press the space bar to continue]</b></p></div>","32","","","","","","","","","","","","","","","","","","","","","","","",""
"","explain_probe_2","12","128254","0.0-12.0","""event"",""trial"",""time""
""focus"",""0"",""0""
""fullscreenenter"",""0"",""3098""
","
","""event"",""trial"",""time""
""focus"",""0"",""0""
","""event"",""trial"",""time""
""fullscreenenter"",""0"",""3098""
","
","null","run_exp/static/audio/clip_34_recognition_2.m4a","null","","","","","<div class='center'><p> You will press the 5, 6, 7, 8 keys on your keyboard to respond.</p><p>If you are sure you saw the ship, press <b>5</b> on your keyboard.</p><p> If you think you saw it before but aren't sure, then press <b>6</b>.</p><p> If you think you have <b>not</b> seen it before but aren't sure, then press <b>7</b>.</p><p> If you are sure you did <b>not</b> see the ship before, then press <b>8</b>.</p><p><img src='run_exp/static/images/tutorial/example_recog_trial.png' height='500'></p></div>","","","","","","","","","","","","","","","","","","",""
"","html-keyboard-response","13","162420","0.0-13.0","""event"",""trial"",""time""
""focus"",""0"",""0""
""fullscreenenter"",""0"",""3098""
","
","""event"",""trial"",""time""
""focus"",""0"",""0""
","""event"",""trial"",""time""
""fullscreenenter"",""0"",""3098""
","
","34165","<div class='center'><p> You will press the 5, 6, 7, 8 keys on your keyboard to respond.</p><p>If you are sure you saw the ship, press <b>5</b> on your keyboard.</p><p> If you think you saw it before but aren't sure, then press <b>6</b>.</p><p> If you think you have <b>not</b> seen it before but aren't sure, then press <b>7</b>.</p><p> If you are sure you did <b>not</b> see the ship before, then press <b>8</b>.</p><p><img src='run_exp/static/images/tutorial/example_recog_trial.png' height='500'></p><p><b>[Press the space bar to continue]</b></p></div>","32","","","","","","","","","","","","","","","","","","","","","","","",""
"","explain_outcome","14","179624","0.0-14.0","""event"",""trial"",""time""
""focus"",""0"",""0""
""fullscreenenter"",""0"",""3098""
","
","""event"",""trial"",""time""
""focus"",""0"",""0""
","""event"",""trial"",""time""
""fullscreenenter"",""0"",""3098""
","
","null","run_exp/static/audio/clip_35_recognition_3.m4a","null","","","","","<div class='center'><p> If you remember correctly, then you’ll get a gold coin like this: </p><p><img src='run_exp/static/images/tutorial/reward_small.png' height='200'></p><p>If you do not remember correctly, then you'll see a red x like this: </p><p><img src='run_exp/static/images/tutorial/reward_no.png' height='200'></p><p>Importantly, when you are shown a ship, take the time to remind yourself which island you saw it on. This will help you in the next part of the study.</p></div>","","","","","","","","","","","","","","","","","","",""
"","html-keyboard-response","15","181149","0.0-15.0","""event"",""trial"",""time""
""focus"",""0"",""0""
""fullscreenenter"",""0"",""3098""
","
","""event"",""trial"",""time""
""focus"",""0"",""0""
","""event"",""trial"",""time""
""fullscreenenter"",""0"",""3098""
","
","1523","<div class='center'><p> If you remember correctly, then you’ll get a gold coin like this: </p><p><img src='run_exp/static/images/tutorial/reward_small.png' height='200'></p><p>If you do not remember correctly, then you'll see a red x like this: </p><p><img src='run_exp/static/images/tutorial/reward_no.png' height='200'></p><p>Importantly, when you are shown a ship, take the time to remind yourself which island you saw it on. This will help you in the next part of the study.</p><p><b>[Press the space bar to continue]</b></p></div>","32","","","","","","","","","","","","","","","","","","","","","","","",""
"","begin_test_phase","16","196954","0.0-16.0","""event"",""trial"",""time""
""focus"",""0"",""0""
""fullscreenenter"",""0"",""3098""
","
","""event"",""trial"",""time""
""focus"",""0"",""0""
","""event"",""trial"",""time""
""fullscreenenter"",""0"",""3098""
","
","null","run_exp/static/audio/clip_36_begin_final.m4a","null","","","","","<div class='center'><p>Let's go over the important points again. Your job is to: </p><p>1. Pick the pirate who is best at robbing ships and will bring you back gold coins. </p><p>2. Correctly remember whether or not you saw a ship before. If you did see the ship before, remind yourself on which island you saw it. </p></div>","","","","","","","","","","","","","","","","","","",""
"","html-keyboard-response","17","217373","0.0-17.0","""event"",""trial"",""time""
""focus"",""0"",""0""
""fullscreenenter"",""0"",""3098""
","
","""event"",""trial"",""time""
""focus"",""0"",""0""
","""event"",""trial"",""time""
""fullscreenenter"",""0"",""3098""
","
","20385","<div class='center'><p>Let's go over the important points again. Your job is to: </p><p>1. Pick the pirate who is best at robbing ships and will bring you back gold coins. </p><p>2. Correctly remember whether or not you saw a ship before. If you did see the ship before, remind yourself on which island you saw it. </p><p><b>[Press the space bar to continue]</b></p></div>","32","","","","","","","","","","","","","","","","","","","","","","","",""
"","do_welcome","18","221405","0.0-18.0","""event"",""trial"",""time""
""focus"",""0"",""0""
""fullscreenenter"",""0"",""3098""
","
","""event"",""trial"",""time""
""focus"",""0"",""0""
","""event"",""trial"",""time""
""fullscreenenter"",""0"",""3098""
","
","null","","","","","","","","null","","","","","","","","","","","","","","","","","",""
"","do_trial","19","225316","0.0-19.0-0.0","""event"",""trial"",""time""
""focus"",""0"",""0""
""fullscreenenter"",""0"",""3098""
","
","""event"",""trial"",""time""
""focus"",""0"",""0""
","""event"",""trial"",""time""
""fullscreenenter"",""0"",""3098""
","
","1383","","","","","","","","49","1,0,0","6","blank","230","null","0.8026920641443421","0.22655849542278803","0.2958824836695712","1","","","","","","","","",""
"","html-keyboard-response","20","226323","0.0-19.0-1.0","""event"",""trial"",""time""
""focus"",""0"",""0""
""fullscreenenter"",""0"",""3098""
","
","""event"",""trial"",""time""
""focus"",""0"",""0""
","""event"",""trial"",""time""
""fullscreenenter"",""0"",""3098""
","
","null","<p></p>","null","","","","","","","","","","","","","","","","","","","","","","","",""
"","do_trial","21","230325","0.0-20.0-0.0","""event"",""trial"",""time""
""focus"",""0"",""0""
""fullscreenenter"",""0"",""3098""
","
","""event"",""trial"",""time""
""focus"",""0"",""0""
","""event"",""trial"",""time""
""fullscreenenter"",""0"",""3098""
","
","1473","","","","","","","","49","1,0,1","6","blank","231","null","0.6204580560107833","0.21036350213016974","0.2984176098911962","1","","","","","","","","",""
"","html-keyboard-response","22","231335","0.0-20.0-1.0","""event"",""trial"",""time""
""focus"",""0"",""0""
""fullscreenenter"",""0"",""3098""
","
","""event"",""trial"",""time""
""focus"",""0"",""0""
","""event"",""trial"",""time""
""fullscreenenter"",""0"",""3098""
","
","null","<p></p>","null","","","","","","","","","","","","","","","","","","","","","","","",""
"","do_trial","23","234437","0.0-21.0-0.0","""event"",""trial"",""time""
""focus"",""0"",""0""
""fullscreenenter"",""0"",""3098""
","
","""event"",""trial"",""time""
""focus"",""0"",""0""
","""event"",""trial"",""time""
""fullscreenenter"",""0"",""3098""
","
","573","","","","","","","","49","1,0,0","6","blank","232","null","0.5840870444233608","0.07144447489691273","0.17146510496303832","1","","","","","","","","",""
"","html-keyboard-response","24","235450","0.0-21.0-1.0","""event"",""trial"",""time""
""focus"",""0"",""0""
""fullscreenenter"",""0"",""3098""
","
","""event"",""trial"",""time""
""focus"",""0"",""0""
","""event"",""trial"",""time""
""fullscreenenter"",""0"",""3098""
","
","null","<p></p>","null","","","","","","","","","","","","","","","","","","","","","","","",""
"","do_trial","25","238534","0.0-22.0-0.0","""event"",""trial"",""time""
""focus"",""0"",""0""
""fullscreenenter"",""0"",""3098""
","
","""event"",""trial"",""time""
""focus"",""0"",""0""
","""event"",""trial"",""time""
""fullscreenenter"",""0"",""3098""
","
","555","","","","","","","","49","1,0,1","6","blank","233","null","0.6998564809202381","0.0602503957674319","0.31540257115305353","1","","","","","","","","",""
"","html-keyboard-response","26","239544","0.0-22.0-1.0","""event"",""trial"",""time""
""focus"",""0"",""0""
""fullscreenenter"",""0"",""3098""
","
","""event"",""trial"",""time""
""focus"",""0"",""0""
","""event"",""trial"",""time""
""fullscreenenter"",""0"",""3098""
","
","null","<p></p>","null","","","","","","","","","","","","","","","","","","","","","","","",""
"","do_trial","27","242474","0.0-23.0-0.0","""event"",""trial"",""time""
""focus"",""0"",""0""
""fullscreenenter"",""0"",""3098""
","
","""event"",""trial"",""time""
""focus"",""0"",""0""
","""event"",""trial"",""time""
""fullscreenenter"",""0"",""3098""
","
","404","","","","","","","","49","1,0,0","6","blank","234","null","0.6796036918757149","0.16435738353408494","0.2666935844589777","1","","","","","","","","",""
"","html-keyboard-response","28","243483","0.0-23.0-1.0","""event"",""trial"",""time""
""focus"",""0"",""0""
""fullscreenenter"",""0"",""3098""
","
","""event"",""trial"",""time""
""focus"",""0"",""0""
","""event"",""trial"",""time""
""fullscreenenter"",""0"",""3098""
","
","null","<p></p>","null","","","","","","","","","","","","","","","","","","","","","","","",""
"","do_trial","29","246258","0.0-24.0-0.0","""event"",""trial"",""time""
""focus"",""0"",""0""
""fullscreenenter"",""0"",""3098""
","
","""event"",""trial"",""time""
""focus"",""0"",""0""
","""event"",""trial"",""time""
""fullscreenenter"",""0"",""3098""
","
","250","","","","","","","","49","0,0,0","6","blank","235","null","0.6318787506331046","0.1610437508910141","0.14177058739862086","0","","","","","","","","",""
"","html-keyboard-response","30","247266","0.0-24.0-1.0","""event"",""trial"",""time""
""focus"",""0"",""0""
""fullscreenenter"",""0"",""3098""
","
","""event"",""trial"",""time""
""focus"",""0"",""0""
","""event"",""trial"",""time""
""fullscreenenter"",""0"",""3098""
","
","null","<p></p>","null","","","","","","","","","","","","","","","","","","","","","","","",""
"","do_trial","31","250014","0.0-25.0-0.0","""event"",""trial"",""time""
""focus"",""0"",""0""
""fullscreenenter"",""0"",""3098""
","
","""event"",""trial"",""time""
""focus"",""0"",""0""
","""event"",""trial"",""time""
""fullscreenenter"",""0"",""3098""
","
","219","","","","","","","","49","1,0,0","6","blank","236","null","0.5830686578409546","0.058256560015388564","0.15808445834807683","1","","","","","","","","",""
"","html-keyboard-response","32","251024","0.0-25.0-1.0","""event"",""trial"",""time""
""focus"",""0"",""0""
""fullscreenenter"",""0"",""3098""
","
","""event"",""trial"",""time""
""focus"",""0"",""0""
","""event"",""trial"",""time""
""fullscreenenter"",""0"",""3098""
","
","null","<p></p>","null","","","","","","","","","","","","","","","","","","","","","","","",""
"","do_trial","33","253938","0.0-26.0-0.0","""event"",""trial"",""time""
""focus"",""0"",""0""
""fullscreenenter"",""0"",""3098""
","
","""event"",""trial"",""time""
""focus"",""0"",""0""
","""event"",""trial"",""time""
""fullscreenenter"",""0"",""3098""
","
","389","","","","","","","","49","1,0,0","6","blank","237","null","0.5650885952154409","0.08878339088883909","0.17296760072765902","1","","","","","","","","",""
"","html-keyboard-response","34","254949","0.0-26.0-1.0","""event"",""trial"",""time""
""focus"",""0"",""0""
""fullscreenenter"",""0"",""3098""
","
","""event"",""trial"",""time""
""focus"",""0"",""0""
","""event"",""trial"",""time""
""fullscreenenter"",""0"",""3098""
","
","null","<p></p>","null","","","","","","","","","","","","","","","","","","","","","","","",""
"","do_trial","35","257929","0.0-27.0-0.0","""event"",""trial"",""time""
""focus"",""0"",""0""
""fullscreenenter"",""0"",""3098""
","
","""event"",""trial"",""time""
""focus"",""0"",""0""
","""event"",""trial"",""time""
""fullscreenenter"",""0"",""3098""
","
","465","","","","","","","","49","1,0,1","6","blank","238","null","0.6113604825199627","0.0660275128806862","0.27414886391621374","1","","","","","","","","",""
"","html-keyboard-response","36","258937","0.0-27.0-1.0","""event"",""trial"",""time""
""focus"",""0"",""0""
""fullscreenenter"",""0"",""3098""
","
","""event"",""trial"",""time""
""focus"",""0"",""0""
","""event"",""trial"",""time""
""fullscreenenter"",""0"",""3098""
","
","null","<p></p>","null","","","","","","","","","","","","","","","","","","","","","","","",""
"","do_trial","37","261897","0.0-28.0-0.0","""event"",""trial"",""time""
""focus"",""0"",""0""
""fullscreenenter"",""0"",""3098""
","
","""event"",""trial"",""time""
""focus"",""0"",""0""
","""event"",""trial"",""time""
""fullscreenenter"",""0"",""3098""
","
","427","","","","","","","","49","0,0,1","6","blank","239","null","0.6478355249220362","0.06352238934028812","0.33534395394223404","0","","","","","","","","",""
"","html-keyboard-response","38","262903","0.0-28.0-1.0","""event"",""trial"",""time""
""focus"",""0"",""0""
""fullscreenenter"",""0"",""3098""
","
","""event"",""trial"",""time""
""focus"",""0"",""0""
","""event"",""trial"",""time""
""fullscreenenter"",""0"",""3098""
","
","null","<p></p>","null","","","","","","","","","","","","","","","","","","","","","","","",""
"","do_trial","39","268944","0.0-29.0-0.0","""event"",""trial"",""time""
""focus"",""0"",""0""
""fullscreenenter"",""0"",""3098""
","
","""event"",""trial"",""time""
""focus"",""0"",""0""
","""event"",""trial"",""time""
""fullscreenenter"",""0"",""3098""
","
","null","","","","","","","","null","1,0,0","6","blank","240","null","0.572499713736012","0.11853409825602622","0.33423784256437167","","","","","","","","","",""
"","html-keyboard-response","40","269956","0.0-29.0-1.0","""event"",""trial"",""time""
""focus"",""0"",""0""
""fullscreenenter"",""0"",""3098""
","
","""event"",""trial"",""time""
""focus"",""0"",""0""
","""event"",""trial"",""time""
""fullscreenenter"",""0"",""3098""
","
","null","<p></p>","null","","","","","","","","","","","","","","","","","","","","","","","",""
"","do_recog","41","275969","0.0-30.0-0.0","""event"",""trial"",""time""
""focus"",""0"",""0""
""fullscreenenter"",""0"",""3098""
","
","""event"",""trial"",""time""
""focus"",""0"",""0""
","""event"",""trial"",""time""
""fullscreenenter"",""0"",""3098""
","
","null","","","","","","","","null","","","","241","probe-240","","","","","0","[object Object]","null","null","0","","","",""
"","html-keyboard-response","42","276973","0.0-30.0-1.0","""event"",""trial"",""time""
""focus"",""0"",""0""
""fullscreenenter"",""0"",""3098""
","
","""event"",""trial"",""time""
""focus"",""0"",""0""
","""event"",""trial"",""time""
""fullscreenenter"",""0"",""3098""
","
","null","<p></p>","null","","","","","","","","","","","","","","","","","","","","","","","",""
"","do_trial","43","280003","0.0-31.0-0.0","""event"",""trial"",""time""
""focus"",""0"",""0""
""fullscreenenter"",""0"",""3098""
","
","""event"",""trial"",""time""
""focus"",""0"",""0""
","""event"",""trial"",""time""
""fullscreenenter"",""0"",""3098""
","
","513","","","","","","","","49","0,0,0","6","blank","242","null","0.5596408124595101","0.30128651083694197","0.20909868773339338","0","","","","","","","","",""
"","html-keyboard-response","44","281016","0.0-31.0-1.0","""event"",""trial"",""time""
""focus"",""0"",""0""
""fullscreenenter"",""0"",""3098""
","
","""event"",""trial"",""time""
""focus"",""0"",""0""
","""event"",""trial"",""time""
""fullscreenenter"",""0"",""3098""
","
","null","<p></p>","null","","","","","","","","","","","","","","","","","","","","","","","",""
"","do_trial","45","284110","0.0-32.0-0.0","""event"",""trial"",""time""
""focus"",""0"",""0""
""fullscreenenter"",""0"",""3098""
","
","""event"",""trial"",""time""
""focus"",""0"",""0""
","""event"",""trial"",""time""
""fullscreenenter"",""0"",""3098""
","
","566","","","","","","","","49","0,0,0","6","blank","243","null","0.5173267946178854","0.4613568128262467","0.31218292124218194","0","","","","","","","","",""
"","html-keyboard-response","46","285120","0.0-32.0-1.0","""event"",""trial"",""time""
""focus"",""0"",""0""
""fullscreenenter"",""0"",""3098""
","
","""event"",""trial"",""time""
""focus"",""0"",""0""
","""event"",""trial"",""time""
""fullscreenenter"",""0"",""3098""
","
","null","<p></p>","null","","","","","","","","","","","","","","","","","","","","","","","",""
"","do_trial","47","288013","0.0-33.0-0.0","""event"",""trial"",""time""
""focus"",""0"",""0""
""fullscreenenter"",""0"",""3098""
","
","""event"",""trial"",""time""
""focus"",""0"",""0""
","""event"",""trial"",""time""
""fullscreenenter"",""0"",""3098""
","
","374","","","","","","","","50","0,0,0","6","blank","244","null","0.44642837986086675","0.555731044433152","0.16180242564488423","0","","","","","","","","",""
"","html-keyboard-response","48","289024","0.0-33.0-1.0","""event"",""trial"",""time""
""focus"",""0"",""0""
""fullscreenenter"",""0"",""3098""
","
","""event"",""trial"",""time""
""focus"",""0"",""0""
","""event"",""trial"",""time""
""fullscreenenter"",""0"",""3098""
","
","null","<p></p>","null","","","","","","","","","","","","","","","","","","","","","","","",""
"","do_trial","49","291909","0.0-34.0-0.0","""event"",""trial"",""time""
""focus"",""0"",""0""
""fullscreenenter"",""0"",""3098""
","
","""event"",""trial"",""time""
""focus"",""0"",""0""
","""event"",""trial"",""time""
""fullscreenenter"",""0"",""3098""
","
","365","","","","","","","","49","0,0,0","6","blank","245","null","0.36749323286266566","0.523278019793428","0.1114295915300892","0","","","","","","","","",""
"","html-keyboard-response","50","292912","0.0-34.0-1.0","""event"",""trial"",""time""
""focus"",""0"",""0""
""fullscreenenter"",""0"",""3098""
","
","""event"",""trial"",""time""
""focus"",""0"",""0""
","""event"",""trial"",""time""
""fullscreenenter"",""0"",""3098""
","
","null","<p></p>","null","","","","","","","","","","","","","","","","","","","","","","","",""
"","do_trial","51","295809","0.0-35.0-0.0","""event"",""trial"",""time""
""focus"",""0"",""0""
""fullscreenenter"",""0"",""3098""
","
","""event"",""trial"",""time""
""focus"",""0"",""0""
","""event"",""trial"",""time""
""fullscreenenter"",""0"",""3098""
","
","380","","","","","","","","51","0,1,0","6","blank","246","null","0.38705522480530596","0.559263020687985","0.06761771211195232","0","","","","","","","","",""
"","html-keyboard-response","52","296818","0.0-35.0-1.0","""event"",""trial"",""time""
""focus"",""0"",""0""
""fullscreenenter"",""0"",""3098""
","
","""event"",""trial"",""time""
""focus"",""0"",""0""
","""event"",""trial"",""time""
""fullscreenenter"",""0"",""3098""
","
","null","<p></p>","null","","","","","","","","","","","","","","","","","","","","","","","",""
"","do_trial","53","299670","0.0-36.0-0.0","""event"",""trial"",""time""
""focus"",""0"",""0""
""fullscreenenter"",""0"",""3098""
","
","""event"",""trial"",""time""
""focus"",""0"",""0""
","""event"",""trial"",""time""
""fullscreenenter"",""0"",""3098""
","
","331","","","","","","","","49","0,1,0","6","blank","247","null","0.27290376415320433","0.609606501645347","0.18192413959032053","0","","","","","","","","",""
"","html-keyboard-response","54","300677","0.0-36.0-1.0","""event"",""trial"",""time""
""focus"",""0"",""0""
""fullscreenenter"",""0"",""3098""
","
","""event"",""trial"",""time""
""focus"",""0"",""0""
","""event"",""trial"",""time""
""fullscreenenter"",""0"",""3098""
","
","null","<p></p>","null","","","","","","","","","","","","","","","","","","","","","","","",""
"","do_recog","55","306687","0.0-37.0-0.0","""event"",""trial"",""time""
""focus"",""0"",""0""
""fullscreenenter"",""0"",""3098""
","
","""event"",""trial"",""time""
""focus"",""0"",""0""
","""event"",""trial"",""time""
""fullscreenenter"",""0"",""3098""
","
","null","","","","","","","","null","","","","248","probe-245","","","","","0","[object Object]","null","null","0","","","",""
"","html-keyboard-response","56","307698","0.0-37.0-1.0","""event"",""trial"",""time""
""focus"",""0"",""0""
""fullscreenenter"",""0"",""3098""
","
","""event"",""trial"",""time""
""focus"",""0"",""0""
","""event"",""trial"",""time""
""fullscreenenter"",""0"",""3098""
","
","null","<p></p>","null","","","","","","","","","","","","","","","","","","","","","","","",""
"","do_trial","57","311280","0.0-38.0-0.0","""event"",""trial"",""time""
""focus"",""0"",""0""
""fullscreenenter"",""0"",""3098""
","
","""event"",""trial"",""time""
""focus"",""0"",""0""
","""event"",""trial"",""time""
""fullscreenenter"",""0"",""3098""
","
","1057","","","","","","","","49","0,1,1","6","blank","249","null","0.29677234404383546","0.6945746100651192","0.3618149053913921","0","","","","","","","","",""
"","html-keyboard-response","58","312292","0.0-38.0-1.0","""event"",""trial"",""time""
""focus"",""0"",""0""
""fullscreenenter"",""0"",""3098""
","
","""event"",""trial"",""time""
""focus"",""0"",""0""
","""event"",""trial"",""time""
""fullscreenenter"",""0"",""3098""
","
","null","<p></p>","null","","","","","","","","","","","","","","","","","","","","","","","",""
"","do_recog","59","316780","0.0-39.0-0.0","""event"",""trial"",""time""
""focus"",""0"",""0""
""fullscreenenter"",""0"",""3098""
","
","""event"",""trial"",""time""
""focus"",""0"",""0""
","""event"",""trial"",""time""
""fullscreenenter"",""0"",""3098""
","
","2975","","","","","","","","53","","","","250","probe-213","","","","","1","[object Object]","190","4","1","","","",""
"","html-keyboard-response","60","317792","0.0-39.0-1.0","""event"",""trial"",""time""
""focus"",""0"",""0""
""fullscreenenter"",""0"",""3098""
","
","""event"",""trial"",""time""
""focus"",""0"",""0""
","""event"",""trial"",""time""
""fullscreenenter"",""0"",""3098""
","
","null","<p></p>","null","","","","","","","","","","","","","","","","","","","","","","","",""
"","do_trial","61","321339","0.0-40.0-0.0","""event"",""trial"",""time""
""focus"",""0"",""0""
""fullscreenenter"",""0"",""3098""
","
","""event"",""trial"",""time""
""focus"",""0"",""0""
","""event"",""trial"",""time""
""fullscreenenter"",""0"",""3098""
","
","1019","","","","","","","","49","0,0,0","6","blank","251","null","0.29342524398175507","0.6817027946398527","0.2067620248462539","0","","","","","","","","",""
"","html-keyboard-response","62","322345","0.0-40.0-1.0","""event"",""trial"",""time""
""focus"",""0"",""0""
""fullscreenenter"",""0"",""3098""
","
","""event"",""trial"",""time""
""focus"",""0"",""0""
","""event"",""trial"",""time""
""fullscreenenter"",""0"",""3098""
","
","null","<p></p>","null","","","","","","","","","","","","","","","","","","","","","","","",""
"","do_recog","63","326564","0.0-41.0-0.0","""event"",""trial"",""time""
""focus"",""0"",""0""
""fullscreenenter"",""0"",""3098""
","
","""event"",""trial"",""time""
""focus"",""0"",""0""
","""event"",""trial"",""time""
""fullscreenenter"",""0"",""3098""
","
","2714","","","","","","","","53","","","","252","probe-63","","","","","1","[object Object]","38","0","1","","","",""
"","html-keyboard-response","64","327570","0.0-41.0-1.0","""event"",""trial"",""time""
""focus"",""0"",""0""
""fullscreenenter"",""0"",""3098""
","
","""event"",""trial"",""time""
""focus"",""0"",""0""
","""event"",""trial"",""time""
""fullscreenenter"",""0"",""3098""
","
","null","<p></p>","null","","","","","","","","","","","","","","","","","","","","","","","",""
"","do_trial","65","331310","0.0-42.0-0.0","""event"",""trial"",""time""
""focus"",""0"",""0""
""fullscreenenter"",""0"",""3098""
","
","""event"",""trial"",""time""
""focus"",""0"",""0""
","""event"",""trial"",""time""
""fullscreenenter"",""0"",""3098""
","
","1210","","","","","","","","50","0,0,1","6","blank","253","null","0.3700065200504531","0.5145014115044925","0.27182289861069137","0","","","","","","","","",""
"","html-keyboard-response","66","332317","0.0-42.0-1.0","""event"",""trial"",""time""
""focus"",""0"",""0""
""fullscreenenter"",""0"",""3098""
","
","""event"",""trial"",""time""
""focus"",""0"",""0""
","""event"",""trial"",""time""
""fullscreenenter"",""0"",""3098""
","
","null","<p></p>","null","","","","","","","","","","","","","","","","","","","","","","","",""
"","do_trial","67","335313","0.0-43.0-0.0","""event"",""trial"",""time""
""focus"",""0"",""0""
""fullscreenenter"",""0"",""3098""
","
","""event"",""trial"",""time""
""focus"",""0"",""0""
","""event"",""trial"",""time""
""fullscreenenter"",""0"",""3098""
","
","480","","","","","","","","51","1,1,0","6","blank","254","null","0.46062133984838455","0.6162643706943479","0.19218897901617873","0","","","","","","","","",""
"","html-keyboard-response","68","336328","0.0-43.0-1.0","""event"",""trial"",""time""
""focus"",""0"",""0""
""fullscreenenter"",""0"",""3098""
","
","""event"",""trial"",""time""
""focus"",""0"",""0""
","""event"",""trial"",""time""
""fullscreenenter"",""0"",""3098""
","
","null","<p></p>","null","","","","","","","","","","","","","","","","","","","","","","","",""
"","do_trial","69","339297","0.0-44.0-0.0","""event"",""trial"",""time""
""focus"",""0"",""0""
""fullscreenenter"",""0"",""3098""
","
","""event"",""trial"",""time""
""focus"",""0"",""0""
","""event"",""trial"",""time""
""fullscreenenter"",""0"",""3098""
","
","453","","","","","","","","49","1,1,1","6","blank","255","null","0.473973981178569","0.571977064773585","0.10520109334653226","1","","","","","","","","",""
"","html-keyboard-response","70","340305","0.0-44.0-1.0","""event"",""trial"",""time""
""focus"",""0"",""0""
""fullscreenenter"",""0"",""3098""
","
","""event"",""trial"",""time""
""focus"",""0"",""0""
","""event"",""trial"",""time""
""fullscreenenter"",""0"",""3098""
","
","null","<p></p>","null","","","","","","","","","","","","","","","","","","","","","","","",""
"","do_recog","71","344806","0.0-45.0-0.0","""event"",""trial"",""time""
""focus"",""0"",""0""
""fullscreenenter"",""0"",""3098""
","
","""event"",""trial"",""time""
""focus"",""0"",""0""
","""event"",""trial"",""time""
""fullscreenenter"",""0"",""3098""
","
","2994","","","","","","","","53","","","","256","probe-20","","","","","1","[object Object]","39","0","1","","","",""
"","html-keyboard-response","72","345812","0.0-45.0-1.0","""event"",""trial"",""time""
""focus"",""0"",""0""
""fullscreenenter"",""0"",""3098""
","
","""event"",""trial"",""time""
""focus"",""0"",""0""
","""event"",""trial"",""time""
""fullscreenenter"",""0"",""3098""
","
","null","<p></p>","null","","","","","","","","","","","","","","","","","","","","","","","",""
"","do_trial","73","349329","0.0-46.0-0.0","""event"",""trial"",""time""
""focus"",""0"",""0""
""fullscreenenter"",""0"",""3098""
","
","""event"",""trial"",""time""
""focus"",""0"",""0""
","""event"",""trial"",""time""
""fullscreenenter"",""0"",""3098""
","
","993","","","","","","","","49","0,0,0","6","blank","257","null","0.37106477256839265","0.4900654892921248","0.09953244762920543","0","","","","","","","","",""
"","html-keyboard-response","74","350337","0.0-46.0-1.0","""event"",""trial"",""time""
""focus"",""0"",""0""
""fullscreenenter"",""0"",""3098""
","
","""event"",""trial"",""time""
""focus"",""0"",""0""
","""event"",""trial"",""time""
""fullscreenenter"",""0"",""3098""
","
","null","<p></p>","null","","","","","","","","","","","","","","","","","","","","","","","",""
"","do_trial","75","353952","0.0-47.0-0.0","""event"",""trial"",""time""
""focus"",""0"",""0""
""fullscreenenter"",""0"",""3098""
","
","""event"",""trial"",""time""
""focus"",""0"",""0""
","""event"",""trial"",""time""
""fullscreenenter"",""0"",""3098""
","
","1091","","","","","","","","49","0,0,0","6","blank","258","null","0.2379715625433375","0.4207931087719942","0.05739089048050401","0","","","","","","","","",""
"","html-keyboard-response","76","354954","0.0-47.0-1.0","""event"",""trial"",""time""
""focus"",""0"",""0""
""fullscreenenter"",""0"",""3098""
","
","""event"",""trial"",""time""
""focus"",""0"",""0""
","""event"",""trial"",""time""
""fullscreenenter"",""0"",""3098""
","
","null","<p></p>","null","","","","","","","","","","","","","","","","","","","","","","","",""
"","do_trial","77","358485","0.0-48.0-0.0","""event"",""trial"",""time""
""focus"",""0"",""0""
""fullscreenenter"",""0"",""3098""
","
","""event"",""trial"",""time""
""focus"",""0"",""0""
","""event"",""trial"",""time""
""fullscreenenter"",""0"",""3098""
","
","1010","","","","","","","","50","0,1,0","6","blank","259","null","0.1886581764031758","0.6104271677859714","0.11935452421779051","1","","","","","","","","",""
"","html-keyboard-response","78","359494","0.0-48.0-1.0","""event"",""trial"",""time""
""focus"",""0"",""0""
""fullscreenenter"",""0"",""3098""
","
","""event"",""trial"",""time""
""focus"",""0"",""0""
","""event"",""trial"",""time""
""fullscreenenter"",""0"",""3098""
","
","null","<p></p>","null","","","","","","","","","","","","","","","","","","","","","","","",""
"","do_trial","79","363839","0.0-49.0-0.0","""event"",""trial"",""time""
""focus"",""0"",""0""
""fullscreenenter"",""0"",""3098""
","
","""event"",""trial"",""time""
""focus"",""0"",""0""
","""event"",""trial"",""time""
""fullscreenenter"",""0"",""3098""
","
","1815","","","","","","","","49","0,0,0","6","blank","260","null","0.11292977829475229","0.6951934335913141","0.16089278912521807","0","","","","","","","","",""
"","html-keyboard-response","80","364848","0.0-49.0-1.0","""event"",""trial"",""time""
""focus"",""0"",""0""
""fullscreenenter"",""0"",""3098""
","
","""event"",""trial"",""time""
""focus"",""0"",""0""
","""event"",""trial"",""time""
""fullscreenenter"",""0"",""3098""
","
","null","<p></p>","null","","","","","","","","","","","","","","","","","","","","","","","",""
"","do_trial","81","368585","0.0-50.0-0.0","""event"",""trial"",""time""
""focus"",""0"",""0""
""fullscreenenter"",""0"",""3098""
","
","""event"",""trial"",""time""
""focus"",""0"",""0""
","""event"",""trial"",""time""
""fullscreenenter"",""0"",""3098""
","
","1221","","","","","","","","50","0,0,0","6","blank","261","null","0.2618220410128137","0.4995495808462148","0.083320014558928","0","","","","","","","","",""
"","html-keyboard-response","82","369594","0.0-50.0-1.0","""event"",""trial"",""time""
""focus"",""0"",""0""
""fullscreenenter"",""0"",""3098""
","
","""event"",""trial"",""time""
""focus"",""0"",""0""
","""event"",""trial"",""time""
""fullscreenenter"",""0"",""3098""
","
","null","<p></p>","null","","","","","","","","","","","","","","","","","","","","","","","",""
"","do_recog","83","375611","0.0-51.0-0.0","""event"",""trial"",""time""
""focus"",""0"",""0""
""fullscreenenter"",""0"",""3098""
","
","""event"",""trial"",""time""
""focus"",""0"",""0""
","""event"",""trial"",""time""
""fullscreenenter"",""0"",""3098""
","
","null","","","","","","","","null","","","","262","probe-52","","","","","1","[object Object]","79","1","0","","","",""
"","html-keyboard-response","84","376621","0.0-51.0-1.0","""event"",""trial"",""time""
""focus"",""0"",""0""
""fullscreenenter"",""0"",""3098""
","
","""event"",""trial"",""time""
""focus"",""0"",""0""
","""event"",""trial"",""time""
""fullscreenenter"",""0"",""3098""
","
","null","<p></p>","null","","","","","","","","","","","","","","","","","","","","","","","",""
"","do_trial","85","380548","0.0-52.0-0.0","""event"",""trial"",""time""
""focus"",""0"",""0""
""fullscreenenter"",""0"",""3098""
","
","""event"",""trial"",""time""
""focus"",""0"",""0""
","""event"",""trial"",""time""
""fullscreenenter"",""0"",""3098""
","
","1407","","","","","","","","49","0,1,0","6","blank","263","null","0.43810203174711876","0.4853260676163675","0.13439309409887615","0","","","","","","","","",""
"","html-keyboard-response","86","381552","0.0-52.0-1.0","""event"",""trial"",""time""
""focus"",""0"",""0""
""fullscreenenter"",""0"",""3098""
","
","""event"",""trial"",""time""
""focus"",""0"",""0""
","""event"",""trial"",""time""
""fullscreenenter"",""0"",""3098""
","
","null","<p></p>","null","","","","","","","","","","","","","","","","","","","","","","","",""
"","do_trial","87","384683","0.0-53.0-0.0","""event"",""trial"",""time""
""focus"",""0"",""0""
""fullscreenenter"",""0"",""3098""
","
","""event"",""trial"",""time""
""focus"",""0"",""0""
","""event"",""trial"",""time""
""fullscreenenter"",""0"",""3098""
","
","604","","","","","","","","50","0,1,0","6","blank","264","null","0.41749978188083525","0.5727365226785667","0.12870493683664877","1","","","","","","","","",""
"","html-keyboard-response","88","385693","0.0-53.0-1.0","""event"",""trial"",""time""
""focus"",""0"",""0""
""fullscreenenter"",""0"",""3098""
","
","""event"",""trial"",""time""
""focus"",""0"",""0""
","""event"",""trial"",""time""
""fullscreenenter"",""0"",""3098""
","
","null","<p></p>","null","","","","","","","","","","","","","","","","","","","","","","","",""
"","do_trial","89","388550","0.0-54.0-0.0","""event"",""trial"",""time""
""focus"",""0"",""0""
""fullscreenenter"",""0"",""3098""
","
","""event"",""trial"",""time""
""focus"",""0"",""0""
","""event"",""trial"",""time""
""fullscreenenter"",""0"",""3098""
","
","327","","","","","","","","50","1,0,0","6","blank","265","null","0.33298305996174365","0.6949797693723135","0.06277049517464012","0","","","","","","","","",""
"","html-keyboard-response","90","389559","0.0-54.0-1.0","""event"",""trial"",""time""
""focus"",""0"",""0""
""fullscreenenter"",""0"",""3098""
","
","""event"",""trial"",""time""
""focus"",""0"",""0""
","""event"",""trial"",""time""
""fullscreenenter"",""0"",""3098""
","
","null","<p></p>","null","","","","","","","","","","","","","","","","","","","","","","","",""
"","do_trial","91","392356","0.0-55.0-0.0","""event"",""trial"",""time""
""focus"",""0"",""0""
""fullscreenenter"",""0"",""3098""
","
","""event"",""trial"",""time""
""focus"",""0"",""0""
","""event"",""trial"",""time""
""fullscreenenter"",""0"",""3098""
","
","270","","","","","","","","49","1,1,0","6","blank","266","null","0.3720283581760703","0.6054876278864877","0.21935561329611175","1","","","","","","","","",""
"","html-keyboard-response","92","393360","0.0-55.0-1.0","""event"",""trial"",""time""
""focus"",""0"",""0""
""fullscreenenter"",""0"",""3098""
","
","""event"",""trial"",""time""
""focus"",""0"",""0""
","""event"",""trial"",""time""
""fullscreenenter"",""0"",""3098""
","
","null","<p></p>","null","","","","","","","","","","","","","","","","","","","","","","","",""
"","do_trial","93","396276","0.0-56.0-0.0","""event"",""trial"",""time""
""focus"",""0"",""0""
""fullscreenenter"",""0"",""3098""
","
","""event"",""trial"",""time""
""focus"",""0"",""0""
","""event"",""trial"",""time""
""fullscreenenter"",""0"",""3098""
","
","391","","","","","","","","49","0,1,0","6","blank","267","null","0.37729739979549437","0.5926523121008588","0.06083978090445875","0","","","","","","","","",""
"","html-keyboard-response","94","397280","0.0-56.0-1.0","""event"",""trial"",""time""
""focus"",""0"",""0""
""fullscreenenter"",""0"",""3098""
","
","""event"",""trial"",""time""
""focus"",""0"",""0""
","""event"",""trial"",""time""
""fullscreenenter"",""0"",""3098""
","
","null","<p></p>","null","","","","","","","","","","","","","","","","","","","","","","","",""
"","do_trial","95","400071","0.0-57.0-0.0","""event"",""trial"",""time""
""focus"",""0"",""0""
""fullscreenenter"",""0"",""3098""
","
","""event"",""trial"",""time""
""focus"",""0"",""0""
","""event"",""trial"",""time""
""fullscreenenter"",""0"",""3098""
","
","267","","","","","","","","49","0,0,0","6","blank","268","null","0.2319441205177653","0.5347538232742476","0.14762979767277162","0","","","","","","","","",""
"","html-keyboard-response","96","401079","0.0-57.0-1.0","""event"",""trial"",""time""
""focus"",""0"",""0""
""fullscreenenter"",""0"",""3098""
","
","""event"",""trial"",""time""
""focus"",""0"",""0""
","""event"",""trial"",""time""
""fullscreenenter"",""0"",""3098""
","
","null","<p></p>","null","","","","","","","","","","","","","","","","","","","","","","","",""
"","break","97","417485","0.0-58.0-0.0","""event"",""trial"",""time""
""focus"",""0"",""0""
""fullscreenenter"",""0"",""3098""
","
","""event"",""trial"",""time""
""focus"",""0"",""0""
","""event"",""trial"",""time""
""fullscreenenter"",""0"",""3098""
","
","16406","<div class='center'><p>Time to take a quick break! You have 2 minutes to rest, but you can move on sooner if you'd like.</p><p> Press the <b>space bar</b> to continue.</p></div>","32","","","","","","","","","","","","","","","","","","","","","","","",""
"","do_recog","98","421299","0.0-58.0-1.0","""event"",""trial"",""time""
""focus"",""0"",""0""
""fullscreenenter"",""0"",""3098""
","
","""event"",""trial"",""time""
""focus"",""0"",""0""
","""event"",""trial"",""time""
""fullscreenenter"",""0"",""3098""
","
","2302","","","","","","","","54","","","","269","probe-67","","","","","1","[object Object]","77","1","1","","","",""
"","html-keyboard-response","99","422309","0.0-58.0-2.0","""event"",""trial"",""time""
""focus"",""0"",""0""
""fullscreenenter"",""0"",""3098""
","
","""event"",""trial"",""time""
""focus"",""0"",""0""
","""event"",""trial"",""time""
""fullscreenenter"",""0"",""3098""
","
","null","<p></p>","null","","","","","","","","","","","","","","","","","","","","","","","",""
"","do_trial","100","425937","0.0-59.0-0.0","""event"",""trial"",""time""
""focus"",""0"",""0""
""fullscreenenter"",""0"",""3098""
","
","""event"",""trial"",""time""
""focus"",""0"",""0""
","""event"",""trial"",""time""
""fullscreenenter"",""0"",""3098""
","
","1096","","","","","","","","49","0,1,0","6","blank","270","null","0.17951935121689538","0.507521635767768","0.1905004420569023","0","","","","","","","","",""
"","html-keyboard-response","101","426943","0.0-59.0-1.0","""event"",""trial"",""time""
""focus"",""0"",""0""
""fullscreenenter"",""0"",""3098""
","
","""event"",""trial"",""time""
""focus"",""0"",""0""
","""event"",""trial"",""time""
""fullscreenenter"",""0"",""3098""
","
","null","<p></p>","null","","","","","","","","","","","","","","","","","","","","","","","",""
"","do_recog","102","430414","0.0-60.0-0.0","""event"",""trial"",""time""
""focus"",""0"",""0""
""fullscreenenter"",""0"",""3098""
","
","""event"",""trial"",""time""
""focus"",""0"",""0""
","""event"",""trial"",""time""
""fullscreenenter"",""0"",""3098""
","
","1964","","","","","","","","53","","","","271","probe-155","","","","","1","[object Object]","36","0","1","","","",""
"","html-keyboard-response","103","431423","0.0-60.0-1.0","""event"",""trial"",""time""
""focus"",""0"",""0""
""fullscreenenter"",""0"",""3098""
","
","""event"",""trial"",""time""
""focus"",""0"",""0""
","""event"",""trial"",""time""
""fullscreenenter"",""0"",""3098""
","
","null","<p></p>","null","","","","","","","","","","","","","","","","","","","","","","","",""
"","do_trial","104","434949","0.0-61.0-0.0","""event"",""trial"",""time""
""focus"",""0"",""0""
""fullscreenenter"",""0"",""3098""
","
","""event"",""trial"",""time""
""focus"",""0"",""0""
","""event"",""trial"",""time""
""fullscreenenter"",""0"",""3098""
","
","1001","","","","","","","","49","0,0,0","6","blank","272","null","0.23008870659054684","0.5277838797164216","0.09171155769921133","0","","","","","","","","",""
"","html-keyboard-response","105","435956","0.0-61.0-1.0","""event"",""trial"",""time""
""focus"",""0"",""0""
""fullscreenenter"",""0"",""3098""
","
","""event"",""trial"",""time""
""focus"",""0"",""0""
","""event"",""trial"",""time""
""fullscreenenter"",""0"",""3098""
","
","null","<p></p>","null","","","","","","","","","","","","","","","","","","","","","","","",""
"","do_trial","106","439028","0.0-62.0-0.0","""event"",""trial"",""time""
""focus"",""0"",""0""
""fullscreenenter"",""0"",""3098""
","
","""event"",""trial"",""time""
""focus"",""0"",""0""
","""event"",""trial"",""time""
""fullscreenenter"",""0"",""3098""
","
","554","","","","","","","","50","0,1,0","6","blank","273","null","0.2858594848192628","0.594620792529467","0.07099034004525688","1","","","","","","","","",""
"","html-keyboard-response","107","440038","0.0-62.0-1.0","""event"",""trial"",""time""
""focus"",""0"",""0""
""fullscreenenter"",""0"",""3098""
","
","""event"",""trial"",""time""
""focus"",""0"",""0""
","""event"",""trial"",""time""
""fullscreenenter"",""0"",""3098""
","
","null","<p></p>","null","","","","","","","","","","","","","","","","","","","","","","","",""
"","do_recog","108","444255","0.0-63.0-0.0","""event"",""trial"",""time""
""focus"",""0"",""0""
""fullscreenenter"",""0"",""3098""
","
","""event"",""trial"",""time""
""focus"",""0"",""0""
","""event"",""trial"",""time""
""fullscreenenter"",""0"",""3098""
","
","2710","","","","","","","","53","","","","274","probe-197","","","","","1","[object Object]","114","2","1","","","",""
"","html-keyboard-response","109","445267","0.0-63.0-1.0","""event"",""trial"",""time""
""focus"",""0"",""0""
""fullscreenenter"",""0"",""3098""
","
","""event"",""trial"",""time""
""focus"",""0"",""0""
","""event"",""trial"",""time""
""fullscreenenter"",""0"",""3098""
","
","null","<p></p>","null","","","","","","","","","","","","","","","","","","","","","","","",""
"","do_trial","110","449213","0.0-64.0-0.0","""event"",""trial"",""time""
""focus"",""0"",""0""
""fullscreenenter"",""0"",""3098""
","
","""event"",""trial"",""time""
""focus"",""0"",""0""
","""event"",""trial"",""time""
""fullscreenenter"",""0"",""3098""
","
","1416","","","","","","","","49","0,0,0","6","blank","275","null","0.13232803866135703","0.6349302354366073","0.0741502950447159","0","","","","","","","","",""
"","html-keyboard-response","111","450223","0.0-64.0-1.0","""event"",""trial"",""time""
""focus"",""0"",""0""
""fullscreenenter"",""0"",""3098""
","
","""event"",""trial"",""time""
""focus"",""0"",""0""
","""event"",""trial"",""time""
""fullscreenenter"",""0"",""3098""
","
","null","<p></p>","null","","","","","","","","","","","","","","","","","","","","","","","",""
"","do_recog","112","453589","0.0-65.0-0.0","""event"",""trial"",""time""
""focus"",""0"",""0""
""fullscreenenter"",""0"",""3098""
","
","""event"",""trial"",""time""
""focus"",""0"",""0""
","""event"",""trial"",""time""
""fullscreenenter"",""0"",""3098""
","
","1853","","","","","","","","53","","","","276","probe-167","","","","","1","[object Object]","35","0","1","","","",""
"","html-keyboard-response","113","454589","0.0-65.0-1.0","""event"",""trial"",""time""
""focus"",""0"",""0""
""fullscreenenter"",""0"",""3098""
","
","""event"",""trial"",""time""
""focus"",""0"",""0""
","""event"",""trial"",""time""
""fullscreenenter"",""0"",""3098""
","
","null","<p></p>","null","","","","","","","","","","","","","","","","","","","","","","","",""
"","do_trial","114","459179","0.0-66.0-0.0","""event"",""trial"",""time""
""focus"",""0"",""0""
""fullscreenenter"",""0"",""3098""
","
","""event"",""trial"",""time""
""focus"",""0"",""0""
","""event"",""trial"",""time""
""fullscreenenter"",""0"",""3098""
","
","2071","","","","","","","","49","0,0,0","6","blank","277","null","0.10419152756352677","0.5407050882069872","0.14566783417488435","0","","","","","","","","",""
"","html-keyboard-response","115","460189","0.0-66.0-1.0","""event"",""trial"",""time""
""focus"",""0"",""0""
""fullscreenenter"",""0"",""3098""
","
","""event"",""trial"",""time""
""focus"",""0"",""0""
","""event"",""trial"",""time""
""fullscreenenter"",""0"",""3098""
","
","null","<p></p>","null","","","","","","","","","","","","","","","","","","","","","","","",""
"","do_trial","116","463290","0.0-67.0-0.0","""event"",""trial"",""time""
""focus"",""0"",""0""
""fullscreenenter"",""0"",""3098""
","
","""event"",""trial"",""time""
""focus"",""0"",""0""
","""event"",""trial"",""time""
""fullscreenenter"",""0"",""3098""
","
","583","","","","","","","","49","0,0,0","6","blank","278","null","0.08644295555108757","0.5870138306520596","0.15994203347048133","0","","","","","","","","",""
"","html-keyboard-response","117","464295","0.0-67.0-1.0","""event"",""trial"",""time""
""focus"",""0"",""0""
""fullscreenenter"",""0"",""3098""
","
","""event"",""trial"",""time""
""focus"",""0"",""0""
","""event"",""trial"",""time""
""fullscreenenter"",""0"",""3098""
","
","null","<p></p>","null","","","","","","","","","","","","","","","","","","","","","","","",""
"","do_trial","118","467093","0.0-68.0-0.0","""event"",""trial"",""time""
""focus"",""0"",""0""
""fullscreenenter"",""0"",""3098""
","
","""event"",""trial"",""time""
""focus"",""0"",""0""
","""event"",""trial"",""time""
""fullscreenenter"",""0"",""3098""
","
","277","","","","","","","","50","0,0,0","6","blank","279","null","0.1963796193491268","0.5431237982758966","0.17256610554353288","0","","","","","","","","",""
"","html-keyboard-response","119","468099","0.0-68.0-1.0","""event"",""trial"",""time""
""focus"",""0"",""0""
""fullscreenenter"",""0"",""3098""
","
","""event"",""trial"",""time""
""focus"",""0"",""0""
","""event"",""trial"",""time""
""fullscreenenter"",""0"",""3098""
","
","null","<p></p>","null","","","","","","","","","","","","","","","","","","","","","","","",""
"","do_trial","120","470985","0.0-69.0-0.0","""event"",""trial"",""time""
""focus"",""0"",""0""
""fullscreenenter"",""0"",""3098""
","
","""event"",""trial"",""time""
""focus"",""0"",""0""
","""event"",""trial"",""time""
""fullscreenenter"",""0"",""3098""
","
","353","","","","","","","","50","1,1,0","6","blank","280","null","0.3864169449739594","0.5672152391392559","0.055010165741901","1","","","","","","","","",""
"","html-keyboard-response","121","471994","0.0-69.0-1.0","""event"",""trial"",""time""
""focus"",""0"",""0""
""fullscreenenter"",""0"",""3098""
","
","""event"",""trial"",""time""
""focus"",""0"",""0""
","""event"",""trial"",""time""
""fullscreenenter"",""0"",""3098""
","
","null","<p></p>","null","","","","","","","","","","","","","","","","","","","","","","","",""
"","do_trial","122","475089","0.0-70.0-0.0","""event"",""trial"",""time""
""focus"",""0"",""0""
""fullscreenenter"",""0"",""3098""
","
","""event"",""trial"",""time""
""focus"",""0"",""0""
","""event"",""trial"",""time""
""fullscreenenter"",""0"",""3098""
","
","570","","","","","","","","49","0,1,0","6","blank","281","null","0.07373375553054913","0.42953203280324614","0.10304673732767619","0","","","","","","","","",""
"","html-keyboard-response","123","476093","0.0-70.0-1.0","""event"",""trial"",""time""
""focus"",""0"",""0""
""fullscreenenter"",""0"",""3098""
","
","""event"",""trial"",""time""
""focus"",""0"",""0""
","""event"",""trial"",""time""
""fullscreenenter"",""0"",""3098""
","
","null","<p></p>","null","","","","","","","","","","","","","","","","","","","","","","","",""
"","do_recog","124","479896","0.0-71.0-0.0","""event"",""trial"",""time""
""focus"",""0"",""0""
""fullscreenenter"",""0"",""3098""
","
","""event"",""trial"",""time""
""focus"",""0"",""0""
","""event"",""trial"",""time""
""fullscreenenter"",""0"",""3098""
","
","2285","","","","","","","","55","","","","282","probe-254","","","","","0","[object Object]","null","null","1","","","",""
"","html-keyboard-response","125","480906","0.0-71.0-1.0","""event"",""trial"",""time""
""focus"",""0"",""0""
""fullscreenenter"",""0"",""3098""
","
","""event"",""trial"",""time""
""focus"",""0"",""0""
","""event"",""trial"",""time""
""fullscreenenter"",""0"",""3098""
","
","null","<p></p>","null","","","","","","","","","","","","","","","","","","","","","","","",""
"","do_trial","126","484709","0.0-72.0-0.0","""event"",""trial"",""time""
""focus"",""0"",""0""
""fullscreenenter"",""0"",""3098""
","
","""event"",""trial"",""time""
""focus"",""0"",""0""
","""event"",""trial"",""time""
""fullscreenenter"",""0"",""3098""
","
","1283","","","","","","","","49","0,1,0","6","blank","283","null","0.05583161601395702","0.4560706899904591","0.194145535945531","0","","","","","","","","",""
"","html-keyboard-response","127","485713","0.0-72.0-1.0","""event"",""trial"",""time""
""focus"",""0"",""0""
""fullscreenenter"",""0"",""3098""
","
","""event"",""trial"",""time""
""focus"",""0"",""0""
","""event"",""trial"",""time""
""fullscreenenter"",""0"",""3098""
","
","null","<p></p>","null","","","","","","","","","","","","","","","","","","","","","","","",""
"","do_trial","128","488623","0.0-73.0-0.0","""event"",""trial"",""time""
""focus"",""0"",""0""
""fullscreenenter"",""0"",""3098""
","
","""event"",""trial"",""time""
""focus"",""0"",""0""
","""event"",""trial"",""time""
""fullscreenenter"",""0"",""3098""
","
","380","","","","","","","","50","0,1,0","6","blank","284","null","0.17297637906210173","0.6631990270866627","0.28259559556143904","1","","","","","","","","",""
"","html-keyboard-response","129","489629","0.0-73.0-1.0","""event"",""trial"",""time""
""focus"",""0"",""0""
""fullscreenenter"",""0"",""3098""
","
","""event"",""trial"",""time""
""focus"",""0"",""0""
","""event"",""trial"",""time""
""fullscreenenter"",""0"",""3098""
","
","null","<p></p>","null","","","","","","","","","","","","","","","","","","","","","","","",""
"","do_trial","130","492595","0.0-74.0-0.0","""event"",""trial"",""time""
""focus"",""0"",""0""
""fullscreenenter"",""0"",""3098""
","
","""event"",""trial"",""time""
""focus"",""0"",""0""
","""event"",""trial"",""time""
""fullscreenenter"",""0"",""3098""
","
","440","","","","","","","","50","0,1,0","6","blank","285","null","0.2734381843866061","0.6682691393376027","0.18507563290914522","1","","","","","","","","",""
"","html-keyboard-response","131","493602","0.0-74.0-1.0","""event"",""trial"",""time""
""focus"",""0"",""0""
""fullscreenenter"",""0"",""3098""
","
","""event"",""trial"",""time""
""focus"",""0"",""0""
","""event"",""trial"",""time""
""fullscreenenter"",""0"",""3098""
","
","null","<p></p>","null","","","","","","","","","","","","","","","","","","","","","","","",""
"","do_trial","132","496579","0.0-75.0-0.0","""event"",""trial"",""time""
""focus"",""0"",""0""
""fullscreenenter"",""0"",""3098""
","
","""event"",""trial"",""time""
""focus"",""0"",""0""
","""event"",""trial"",""time""
""fullscreenenter"",""0"",""3098""
","
","458","","","","","","","","50","1,1,0","6","blank","286","null","0.30734736994046424","0.6770714449526725","0.08726426560484005","1","","","","","","","","",""
"","html-keyboard-response","133","497589","0.0-75.0-1.0","""event"",""trial"",""time""
""focus"",""0"",""0""
""fullscreenenter"",""0"",""3098""
","
","""event"",""trial"",""time""
""focus"",""0"",""0""
","""event"",""trial"",""time""
""fullscreenenter"",""0"",""3098""
","
","null","<p></p>","null","","","","","","","","","","","","","","","","","","","","","","","",""
"","do_recog","134","501095","0.0-76.0-0.0","""event"",""trial"",""time""
""focus"",""0"",""0""
""fullscreenenter"",""0"",""3098""
","
","""event"",""trial"",""time""
""focus"",""0"",""0""
","""event"",""trial"",""time""
""fullscreenenter"",""0"",""3098""
","
","1999","","","","","","","","53","","","","287","probe-120","","","","","1","[object Object]","197","4","1","","","",""
"","html-keyboard-response","135","502107","0.0-76.0-1.0","""event"",""trial"",""time""
""focus"",""0"",""0""
""fullscreenenter"",""0"",""3098""
","
","""event"",""trial"",""time""
""focus"",""0"",""0""
","""event"",""trial"",""time""
""fullscreenenter"",""0"",""3098""
","
","null","<p></p>","null","","","","","","","","","","","","","","","","","","","","","","","",""
"","do_trial","136","505677","0.0-77.0-0.0","""event"",""trial"",""time""
""focus"",""0"",""0""
""fullscreenenter"",""0"",""3098""
","
","""event"",""trial"",""time""
""focus"",""0"",""0""
","""event"",""trial"",""time""
""fullscreenenter"",""0"",""3098""
","
","1050","","","","","","","","49","0,1,0","6","blank","288","null","0.1883349318631796","0.5797689551139222","0.1278893062288516","0","","","","","","","","",""
"","html-keyboard-response","137","506686","0.0-77.0-1.0","""event"",""trial"",""time""
""focus"",""0"",""0""
""fullscreenenter"",""0"",""3098""
","
","""event"",""trial"",""time""
""focus"",""0"",""0""
","""event"",""trial"",""time""
""fullscreenenter"",""0"",""3098""
","
","null","<p></p>","null","","","","","","","","","","","","","","","","","","","","","","","",""
"","do_recog","138","510694","0.0-78.0-0.0","""event"",""trial"",""time""
""focus"",""0"",""0""
""fullscreenenter"",""0"",""3098""
","
","""event"",""trial"",""time""
""focus"",""0"",""0""
","""event"",""trial"",""time""
""fullscreenenter"",""0"",""3098""
","
","2501","","","","","","","","56","","","","289","probe-125","","","","","1","[object Object]","159","3","0","","","",""
"","html-keyboard-response","139","511701","0.0-78.0-1.0","""event"",""trial"",""time""
""focus"",""0"",""0""
""fullscreenenter"",""0"",""3098""
","
","""event"",""trial"",""time""
""focus"",""0"",""0""
","""event"",""trial"",""time""
""fullscreenenter"",""0"",""3098""
","
","null","<p></p>","null","","","","","","","","","","","","","","","","","","","","","","","",""
"","do_trial","140","515386","0.0-79.0-0.0","""event"",""trial"",""time""
""focus"",""0"",""0""
""fullscreenenter"",""0"",""3098""
","
","""event"",""trial"",""time""
""focus"",""0"",""0""
","""event"",""trial"",""time""
""fullscreenenter"",""0"",""3098""
","
","1169","","","","","","","","49","0,1,0","6","blank","290","null","0.32377992963098395","0.7070311898980688","0.08545229311331824","0","","","","","","","","",""
"","html-keyboard-response","141","516389","0.0-79.0-1.0","""event"",""trial"",""time""
""focus"",""0"",""0""
""fullscreenenter"",""0"",""3098""
","
","""event"",""trial"",""time""
""focus"",""0"",""0""
","""event"",""trial"",""time""
""fullscreenenter"",""0"",""3098""
","
","null","<p></p>","null","","","","","","","","","","","","","","","","","","","","","","","",""
"","do_recog","142","520247","0.0-80.0-0.0","""event"",""trial"",""time""
""focus"",""0"",""0""
""fullscreenenter"",""0"",""3098""
","
","""event"",""trial"",""time""
""focus"",""0"",""0""
","""event"",""trial"",""time""
""fullscreenenter"",""0"",""3098""
","
","2341","","","","","","","","53","","","","291","probe-44","","","","","1","[object Object]","37","0","1","","","",""
"","html-keyboard-response","143","521258","0.0-80.0-1.0","""event"",""trial"",""time""
""focus"",""0"",""0""
""fullscreenenter"",""0"",""3098""
","
","""event"",""trial"",""time""
""focus"",""0"",""0""
","""event"",""trial"",""time""
""fullscreenenter"",""0"",""3098""
","
","null","<p></p>","null","","","","","","","","","","","","","","","","","","","","","","","",""
"","do_trial","144","524845","0.0-81.0-0.0","""event"",""trial"",""time""
""focus"",""0"",""0""
""fullscreenenter"",""0"",""3098""
","
","""event"",""trial"",""time""
""focus"",""0"",""0""
","""event"",""trial"",""time""
""fullscreenenter"",""0"",""3098""
","
","1066","","","","","","","","49","0,1,1","6","blank","292","null","0.41924847939032767","0.605024310502039","0.12658434299499666","0","","","","","","","","",""
"","html-keyboard-response","145","525853","0.0-81.0-1.0","""event"",""trial"",""time""
""focus"",""0"",""0""
""fullscreenenter"",""0"",""3098""
","
","""event"",""trial"",""time""
""focus"",""0"",""0""
","""event"",""trial"",""time""
""fullscreenenter"",""0"",""3098""
","
","null","<p></p>","null","","","","","","","","","","","","","","","","","","","","","","","",""
"","do_trial","146","529716","0.0-82.0-0.0","""event"",""trial"",""time""
""focus"",""0"",""0""
""fullscreenenter"",""0"",""3098""
","
","""event"",""trial"",""time""
""focus"",""0"",""0""
","""event"",""trial"",""time""
""fullscreenenter"",""0"",""3098""
","
","1336","","","","","","","","49","1,1,0","6","blank","293","null","0.3120777180503132","0.6790587809375569","0.18452429236243872","1","","","","","","","","",""
"","html-keyboard-response","147","530722","0.0-82.0-1.0","""event"",""trial"",""time""
""focus"",""0"",""0""
""fullscreenenter"",""0"",""3098""
","
","""event"",""trial"",""time""
""focus"",""0"",""0""
","""event"",""trial"",""time""
""fullscreenenter"",""0"",""3098""
","
","null","<p></p>","null","","","","","","","","","","","","","","","","","","","","","","","",""
"","do_trial","148","534174","0.0-83.0-0.0","""event"",""trial"",""time""
""focus"",""0"",""0""
""fullscreenenter"",""0"",""3098""
","
","""event"",""trial"",""time""
""focus"",""0"",""0""
","""event"",""trial"",""time""
""fullscreenenter"",""0"",""3098""
","
","923","","","","","","","","49","0,1,0","6","blank","294","null","0.3354518467652824","0.8141718072902903","0.1649095573698436","0","","","","","","","","",""
"","html-keyboard-response","149","535189","0.0-83.0-1.0","""event"",""trial"",""time""
""focus"",""0"",""0""
""fullscreenenter"",""0"",""3098""
","
","""event"",""trial"",""time""
""focus"",""0"",""0""
","""event"",""trial"",""time""
""fullscreenenter"",""0"",""3098""
","
","null","<p></p>","null","","","","","","","","","","","","","","","","","","","","","","","",""
"","do_trial","150","538691","0.0-84.0-0.0","""event"",""trial"",""time""
""focus"",""0"",""0""
""fullscreenenter"",""0"",""3098""
","
","""event"",""trial"",""time""
""focus"",""0"",""0""
","""event"",""trial"",""time""
""fullscreenenter"",""0"",""3098""
","
","975","","","","","","","","49","0,1,0","6","blank","295","null","0.25215392474947623","0.8254112115741421","0.05033082630404232","0","","","","","","","","",""
"","html-keyboard-response","151","539702","0.0-84.0-1.0","""event"",""trial"",""time""
""focus"",""0"",""0""
""fullscreenenter"",""0"",""3098""
","
","""event"",""trial"",""time""
""focus"",""0"",""0""
","""event"",""trial"",""time""
""fullscreenenter"",""0"",""3098""
","
","null","<p></p>","null","","","","","","","","","","","","","","","","","","","","","","","",""
"","do_trial","152","543444","0.0-85.0-0.0","""event"",""trial"",""time""
""focus"",""0"",""0""
""fullscreenenter"",""0"",""3098""
","
","""event"",""trial"",""time""
""focus"",""0"",""0""
","""event"",""trial"",""time""
""fullscreenenter"",""0"",""3098""
","
","1215","","","","","","","","50","0,0,0","6","blank","296","null","0.2938865496972225","0.3501882311309016","0.14914721561931385","0","","","","","","","","",""
"","html-keyboard-response","153","544451","0.0-85.0-1.0","""event"",""trial"",""time""
""focus"",""0"",""0""
""fullscreenenter"",""0"",""3098""
","
","""event"",""trial"",""time""
""focus"",""0"",""0""
","""event"",""trial"",""time""
""fullscreenenter"",""0"",""3098""
","
","null","<p></p>","null","","","","","","","","","","","","","","","","","","","","","","","",""
"","do_recog","154","547811","0.0-86.0-0.0","""event"",""trial"",""time""
""focus"",""0"",""0""
""fullscreenenter"",""0"",""3098""
","
","""event"",""trial"",""time""
""focus"",""0"",""0""
","""event"",""trial"",""time""
""fullscreenenter"",""0"",""3098""
","
","1856","","","","","","","","53","","","","297","probe-13","","","","","1","[object Object]","150","3","1","","","",""
"","html-keyboard-response","155","548820","0.0-86.0-1.0","""event"",""trial"",""time""
""focus"",""0"",""0""
""fullscreenenter"",""0"",""3098""
","
","""event"",""trial"",""time""
""focus"",""0"",""0""
","""event"",""trial"",""time""
""fullscreenenter"",""0"",""3098""
","
","null","<p></p>","null","","","","","","","","","","","","","","","","","","","","","","","",""
"","do_trial","156","552259","0.0-87.0-0.0","""event"",""trial"",""time""
""focus"",""0"",""0""
""fullscreenenter"",""0"",""3098""
","
","""event"",""trial"",""time""
""focus"",""0"",""0""
","""event"",""trial"",""time""
""fullscreenenter"",""0"",""3098""
","
","920","","","","","","","","49","0,1,0","6","blank","298","null","0.26974439202918343","0.40330811241873094","0.18856636266916568","0","","","","","","","","",""
"","html-keyboard-response","157","553267","0.0-87.0-1.0","""event"",""trial"",""time""
""focus"",""0"",""0""
""fullscreenenter"",""0"",""3098""
","
","""event"",""trial"",""time""
""focus"",""0"",""0""
","""event"",""trial"",""time""
""fullscreenenter"",""0"",""3098""
","
","null","<p></p>","null","","","","","","","","","","","","","","","","","","","","","","","",""
"","do_trial","158","556718","0.0-88.0-0.0","""event"",""trial"",""time""
""focus"",""0"",""0""
""fullscreenenter"",""0"",""3098""
","
","""event"",""trial"",""time""
""focus"",""0"",""0""
","""event"",""trial"",""time""
""fullscreenenter"",""0"",""3098""
","
","929","","","","","","","","50","0,0,0","6","blank","299","null","0.43418762826607343","0.32965463259502087","0.14687525638544488","0","","","","","","","","",""
"","html-keyboard-response","159","557724","0.0-88.0-1.0","""event"",""trial"",""time""
""focus"",""0"",""0""
""fullscreenenter"",""0"",""3098""
","
","""event"",""trial"",""time""
""focus"",""0"",""0""
","""event"",""trial"",""time""
""fullscreenenter"",""0"",""3098""
","
","null","<p></p>","null","","","","","","","","","","","","","","","","","","","","","","","",""
"","do_trial","160","560783","0.0-89.0-0.0","""event"",""trial"",""time""
""focus"",""0"",""0""
""fullscreenenter"",""0"",""3098""
","
","""event"",""trial"",""time""
""focus"",""0"",""0""
","""event"",""trial"",""time""
""fullscreenenter"",""0"",""3098""
","
","537","","","","","","","","51","1,0,1","6","blank","300","null","0.5684851390325235","0.16182580215280049","0.17053219136349695","1","","","","","","","","",""
"","html-keyboard-response","161","561795","0.0-89.0-1.0","""event"",""trial"",""time""
""focus"",""0"",""0""
""fullscreenenter"",""0"",""3098""
","
","""event"",""trial"",""time""
""focus"",""0"",""0""
","""event"",""trial"",""time""
""fullscreenenter"",""0"",""3098""
","
","null","<p></p>","null","","","","","","","","","","","","","","","","","","","","","","","",""
"","do_trial","162","564937","0.0-90.0-0.0","""event"",""trial"",""time""
""focus"",""0"",""0""
""fullscreenenter"",""0"",""3098""
","
","""event"",""trial"",""time""
""focus"",""0"",""0""
","""event"",""trial"",""time""
""fullscreenenter"",""0"",""3098""
","
","617","","","","","","","","49","1,1,1","6","blank","301","null","0.4841952130030387","0.1674370610631199","0.2508694524589087","1","","","","","","","","",""
"","html-keyboard-response","163","565945","0.0-90.0-1.0","""event"",""trial"",""time""
""focus"",""0"",""0""
""fullscreenenter"",""0"",""3098""
","
","""event"",""trial"",""time""
""focus"",""0"",""0""
","""event"",""trial"",""time""
""fullscreenenter"",""0"",""3098""
","
","null","<p></p>","null","","","","","","","","","","","","","","","","","","","","","","","",""
"","do_trial","164","568916","0.0-91.0-0.0","""event"",""trial"",""time""
""focus"",""0"",""0""
""fullscreenenter"",""0"",""3098""
","
","""event"",""trial"",""time""
""focus"",""0"",""0""
","""event"",""trial"",""time""
""fullscreenenter"",""0"",""3098""
","
","443","","","","","","","","50","1,1,0","6","blank","302","null","0.5250945595883016","0.10174125089873252","0.2596395794673231","1","","","","","","","","",""
"","html-keyboard-response","165","569925","0.0-91.0-1.0","""event"",""trial"",""time""
""focus"",""0"",""0""
""fullscreenenter"",""0"",""3098""
","
","""event"",""trial"",""time""
""focus"",""0"",""0""
","""event"",""trial"",""time""
""fullscreenenter"",""0"",""3098""
","
","null","<p></p>","null","","","","","","","","","","","","","","","","","","","","","","","",""
"","do_recog","166","573536","0.0-92.0-0.0","""event"",""trial"",""time""
""focus"",""0"",""0""
""fullscreenenter"",""0"",""3098""
","
","""event"",""trial"",""time""
""focus"",""0"",""0""
","""event"",""trial"",""time""
""fullscreenenter"",""0"",""3098""
","
","2093","","","","","","","","53","","","","303","probe-137","","","","","1","[object Object]","72","1","1","","","",""
"","html-keyboard-response","167","574545","0.0-92.0-1.0","""event"",""trial"",""time""
""focus"",""0"",""0""
""fullscreenenter"",""0"",""3098""
","
","""event"",""trial"",""time""
""focus"",""0"",""0""
","""event"",""trial"",""time""
""fullscreenenter"",""0"",""3098""
","
","null","<p></p>","null","","","","","","","","","","","","","","","","","","","","","","","",""
"","do_trial","168","578996","0.0-93.0-0.0","""event"",""trial"",""time""
""focus"",""0"",""0""
""fullscreenenter"",""0"",""3098""
","
","""event"",""trial"",""time""
""focus"",""0"",""0""
","""event"",""trial"",""time""
""fullscreenenter"",""0"",""3098""
","
","1932","","","","","","","","49","1,0,1","6","blank","304","null","0.6137426944047045","0.20342901679577444","0.37540492304348294","1","","","","","","","","",""
"","html-keyboard-response","169","580002","0.0-93.0-1.0","""event"",""trial"",""time""
""focus"",""0"",""0""
""fullscreenenter"",""0"",""3098""
","
","""event"",""trial"",""time""
""focus"",""0"",""0""
","""event"",""trial"",""time""
""fullscreenenter"",""0"",""3098""
","
","null","<p></p>","null","","","","","","","","","","","","","","","","","","","","","","","",""
"","do_trial","170","583014","0.0-94.0-0.0","""event"",""trial"",""time""
""focus"",""0"",""0""
""fullscreenenter"",""0"",""3098""
","
","""event"",""trial"",""time""
""focus"",""0"",""0""
","""event"",""trial"",""time""
""fullscreenenter"",""0"",""3098""
","
","490","","","","","","","","50","0,0,1","6","blank","305","null","0.6917463554961387","0.21246864538763477","0.4581927836419301","0","","","","","","","","",""
"","html-keyboard-response","171","584015","0.0-94.0-1.0","""event"",""trial"",""time""
""focus"",""0"",""0""
""fullscreenenter"",""0"",""3098""
","
","""event"",""trial"",""time""
""focus"",""0"",""0""
","""event"",""trial"",""time""
""fullscreenenter"",""0"",""3098""
","
","null","<p></p>","null","","","","","","","","","","","","","","","","","","","","","","","",""
"","do_trial","172","588622","0.0-95.0-0.0","""event"",""trial"",""time""
""focus"",""0"",""0""
""fullscreenenter"",""0"",""3098""
","
","""event"",""trial"",""time""
""focus"",""0"",""0""
","""event"",""trial"",""time""
""fullscreenenter"",""0"",""3098""
","
","2077","","","","","","","","49","1,1,1","6","blank","306","null","0.519378457084112","0.2031834578348609","0.4481856246349294","1","","","","","","","","",""
"","html-keyboard-response","173","589630","0.0-95.0-1.0","""event"",""trial"",""time""
""focus"",""0"",""0""
""fullscreenenter"",""0"",""3098""
","
","""event"",""trial"",""time""
""focus"",""0"",""0""
","""event"",""trial"",""time""
""fullscreenenter"",""0"",""3098""
","
","null","<p></p>","null","","","","","","","","","","","","","","","","","","","","","","","",""
"","do_trial","174","594497","0.0-96.0-0.0","""event"",""trial"",""time""
""focus"",""0"",""0""
""fullscreenenter"",""0"",""3098""
","
","""event"",""trial"",""time""
""focus"",""0"",""0""
","""event"",""trial"",""time""
""fullscreenenter"",""0"",""3098""
","
","2349","","","","","","","","51","1,1,0","6","blank","307","null","0.5902076444699516","0.19456245564501276","0.4578407069208457","0","","","","","","","","",""
"","html-keyboard-response","175","595506","0.0-96.0-1.0","""event"",""trial"",""time""
""focus"",""0"",""0""
""fullscreenenter"",""0"",""3098""
","
","""event"",""trial"",""time""
""focus"",""0"",""0""
","""event"",""trial"",""time""
""fullscreenenter"",""0"",""3098""
","
","null","<p></p>","null","","","","","","","","","","","","","","","","","","","","","","","",""
"","do_trial","176","599038","0.0-97.0-0.0","""event"",""trial"",""time""
""focus"",""0"",""0""
""fullscreenenter"",""0"",""3098""
","
","""event"",""trial"",""time""
""focus"",""0"",""0""
","""event"",""trial"",""time""
""fullscreenenter"",""0"",""3098""
","
","1003","","","","","","","","49","1,0,0","6","blank","308","null","0.4761685179863116","0.12616993033188625","0.3593461888175578","1","","","","","","","","",""
"","html-keyboard-response","177","600045","0.0-97.0-1.0","""event"",""trial"",""time""
""focus"",""0"",""0""
""fullscreenenter"",""0"",""3098""
","
","""event"",""trial"",""time""
""focus"",""0"",""0""
","""event"",""trial"",""time""
""fullscreenenter"",""0"",""3098""
","
","null","<p></p>","null","","","","","","","","","","","","","","","","","","","","","","","",""
"","break","178","627342","0.0-98.0-0.0","""event"",""trial"",""time""
""focus"",""0"",""0""
""fullscreenenter"",""0"",""3098""
","
","""event"",""trial"",""time""
""focus"",""0"",""0""
","""event"",""trial"",""time""
""fullscreenenter"",""0"",""3098""
","
","27296","<div class='center'><p>Time to take a quick break! You have 2 minutes to rest, but you can move on sooner if you'd like.</p><p> Press the <b>space bar</b> to continue.</p></div>","32","","","","","","","","","","","","","","","","","","","","","","","",""
"","do_recog","179","630692","0.0-98.0-1.0","""event"",""trial"",""time""
""focus"",""0"",""0""
""fullscreenenter"",""0"",""3098""
","
","""event"",""trial"",""time""
""focus"",""0"",""0""
","""event"",""trial"",""time""
""fullscreenenter"",""0"",""3098""
","
","1838","","","","","","","","53","","","","309","probe-160","","","","","1","[object Object]","157","3","1","","","",""
"","html-keyboard-response","180","631701","0.0-98.0-2.0","""event"",""trial"",""time""
""focus"",""0"",""0""
""fullscreenenter"",""0"",""3098""
","
","""event"",""trial"",""time""
""focus"",""0"",""0""
","""event"",""trial"",""time""
""fullscreenenter"",""0"",""3098""
","
","null","<p></p>","null","","","","","","","","","","","","","","","","","","","","","","","",""
"","do_trial","181","635176","0.0-99.0-0.0","""event"",""trial"",""time""
""focus"",""0"",""0""
""fullscreenenter"",""0"",""3098""
","
","""event"",""trial"",""time""
""focus"",""0"",""0""
","""event"",""trial"",""time""
""fullscreenenter"",""0"",""3098""
","
","951","","","","","","","","49","1,0,0","6","blank","310","null","0.49032649314158105","0.07066026047558242","0.4297368342986833","1","","","","","","","","",""
"","html-keyboard-response","182","636185","0.0-99.0-1.0","""event"",""trial"",""time""
""focus"",""0"",""0""
""fullscreenenter"",""0"",""3098""
","
","""event"",""trial"",""time""
""focus"",""0"",""0""
","""event"",""trial"",""time""
""fullscreenenter"",""0"",""3098""
","
","null","<p></p>","null","","","","","","","","","","","","","","","","","","","","","","","",""
"","do_recog","183","639207","0.0-100.0-0.0","""event"",""trial"",""time""
""focus"",""0"",""0""
""fullscreenenter"",""0"",""3098""
","
","""event"",""trial"",""time""
""focus"",""0"",""0""
","""event"",""trial"",""time""
""fullscreenenter"",""0"",""3098""
","
","1515","","","","","","","","53","","","","311","probe-118","","","","","1","[object Object]","111","2","1","","","",""
"","html-keyboard-response","184","640211","0.0-100.0-1.0","""event"",""trial"",""time""
""focus"",""0"",""0""
""fullscreenenter"",""0"",""3098""
","
","""event"",""trial"",""time""
""focus"",""0"",""0""
","""event"",""trial"",""time""
""fullscreenenter"",""0"",""3098""
","
","null","<p></p>","null","","","","","","","","","","","","","","","","","","","","","","","",""
"","do_trial","185","643333","0.0-101.0-0.0","""event"",""trial"",""time""
""focus"",""0"",""0""
""fullscreenenter"",""0"",""3098""
","
","""event"",""trial"",""time""
""focus"",""0"",""0""
","""event"",""trial"",""time""
""fullscreenenter"",""0"",""3098""
","
","594","","","","","","","","49","1,0,0","6","blank","312","null","0.5893548956648224","0.18925097341977648","0.544892948511611","1","","","","","","","","",""
"","html-keyboard-response","186","644344","0.0-101.0-1.0","""event"",""trial"",""time""
""focus"",""0"",""0""
""fullscreenenter"",""0"",""3098""
","
","""event"",""trial"",""time""
""focus"",""0"",""0""
","""event"",""trial"",""time""
""fullscreenenter"",""0"",""3098""
","
","null","<p></p>","null","","","","","","","","","","","","","","","","","","","","","","","",""
"","do_recog","187","647536","0.0-102.0-0.0","""event"",""trial"",""time""
""focus"",""0"",""0""
""fullscreenenter"",""0"",""3098""
","
","""event"",""trial"",""time""
""focus"",""0"",""0""
","""event"",""trial"",""time""
""fullscreenenter"",""0"",""3098""
","
","1685","","","","","","","","53","","","","313","probe-192","","","","","1","[object Object]","154","3","1","","","",""
"","html-keyboard-response","188","648541","0.0-102.0-1.0","""event"",""trial"",""time""
""focus"",""0"",""0""
""fullscreenenter"",""0"",""3098""
","
","""event"",""trial"",""time""
""focus"",""0"",""0""
","""event"",""trial"",""time""
""fullscreenenter"",""0"",""3098""
","
","null","<p></p>","null","","","","","","","","","","","","","","","","","","","","","","","",""
"","do_trial","189","652087","0.0-103.0-0.0","""event"",""trial"",""time""
""focus"",""0"",""0""
""fullscreenenter"",""0"",""3098""
","
","""event"",""trial"",""time""
""focus"",""0"",""0""
","""event"",""trial"",""time""
""fullscreenenter"",""0"",""3098""
","
","1023","","","","","","","","49","1,0,0","6","blank","314","null","0.6097035496626391","0.26155095382187893","0.5357041488370682","1","","","","","","","","",""
"","html-keyboard-response","190","653102","0.0-103.0-1.0","""event"",""trial"",""time""
""focus"",""0"",""0""
""fullscreenenter"",""0"",""3098""
","
","""event"",""trial"",""time""
""focus"",""0"",""0""
","""event"",""trial"",""time""
""fullscreenenter"",""0"",""3098""
","
","null","<p></p>","null","","","","","","","","","","","","","","","","","","","","","","","",""
"","do_trial","191","656364","0.0-104.0-0.0","""event"",""trial"",""time""
""focus"",""0"",""0""
""fullscreenenter"",""0"",""3098""
","
","""event"",""trial"",""time""
""focus"",""0"",""0""
","""event"",""trial"",""time""
""fullscreenenter"",""0"",""3098""
","
","742","","","","","","","","49","1,0,0","6","blank","315","null","0.5727567516472699","0.23911298695894254","0.41403086129127853","1","","","","","","","","",""
"","html-keyboard-response","192","657368","0.0-104.0-1.0","""event"",""trial"",""time""
""focus"",""0"",""0""
""fullscreenenter"",""0"",""3098""
","
","""event"",""trial"",""time""
""focus"",""0"",""0""
","""event"",""trial"",""time""
""fullscreenenter"",""0"",""3098""
","
","null","<p></p>","null","","","","","","","","","","","","","","","","","","","","","","","",""
"","do_trial","193","660598","0.0-105.0-0.0","""event"",""trial"",""time""
""focus"",""0"",""0""
""fullscreenenter"",""0"",""3098""
","
","""event"",""trial"",""time""
""focus"",""0"",""0""
","""event"",""trial"",""time""
""fullscreenenter"",""0"",""3098""
","
","701","","","","","","","","49","1,0,0","6","blank","316","null","0.5934980298640566","0.26147683494349006","0.31561652852228167","1","","","","","","","","",""
"","html-keyboard-response","194","661606","0.0-105.0-1.0","""event"",""trial"",""time""
""focus"",""0"",""0""
""fullscreenenter"",""0"",""3098""
","
","""event"",""trial"",""time""
""focus"",""0"",""0""
","""event"",""trial"",""time""
""fullscreenenter"",""0"",""3098""
","
","null","<p></p>","null","","","","","","","","","","","","","","","","","","","","","","","",""
"","do_trial","195","664699","0.0-106.0-0.0","""event"",""trial"",""time""
""focus"",""0"",""0""
""fullscreenenter"",""0"",""3098""
","
","""event"",""trial"",""time""
""focus"",""0"",""0""
","""event"",""trial"",""time""
""fullscreenenter"",""0"",""3098""
","
","576","","","","","","","","49","1,0,1","6","blank","317","null","0.6561370043477933","0.3205431647519552","0.3171696152338206","1","","","","","","","","",""
"","html-keyboard-response","196","665706","0.0-106.0-1.0","""event"",""trial"",""time""
""focus"",""0"",""0""
""fullscreenenter"",""0"",""3098""
","
","""event"",""trial"",""time""
""focus"",""0"",""0""
","""event"",""trial"",""time""
""fullscreenenter"",""0"",""3098""
","
","null","<p></p>","null","","","","","","","","","","","","","","","","","","","","","","","",""
"","do_recog","197","669397","0.0-107.0-0.0","""event"",""trial"",""time""
""focus"",""0"",""0""
""fullscreenenter"",""0"",""3098""
","
","""event"",""trial"",""time""
""focus"",""0"",""0""
","""event"",""trial"",""time""
""fullscreenenter"",""0"",""3098""
","
","2185","","","","","","","","53","","","","318","probe-29","","","","","1","[object Object]","113","2","1","","","",""
"","html-keyboard-response","198","670402","0.0-107.0-1.0","""event"",""trial"",""time""
""focus"",""0"",""0""
""fullscreenenter"",""0"",""3098""
","
","""event"",""trial"",""time""
""focus"",""0"",""0""
","""event"",""trial"",""time""
""fullscreenenter"",""0"",""3098""
","
","null","<p></p>","null","","","","","","","","","","","","","","","","","","","","","","","",""
"","do_trial","199","673931","0.0-108.0-0.0","""event"",""trial"",""time""
""focus"",""0"",""0""
""fullscreenenter"",""0"",""3098""
","
","""event"",""trial"",""time""
""focus"",""0"",""0""
","""event"",""trial"",""time""
""fullscreenenter"",""0"",""3098""
","
","1002","","","","","","","","49","1,0,0","6","blank","319","null","0.7240608695093398","0.28805230499003953","0.21431090018133692","1","","","","","","","","",""
"","html-keyboard-response","200","674933","0.0-108.0-1.0","""event"",""trial"",""time""
""focus"",""0"",""0""
""fullscreenenter"",""0"",""3098""
","
","""event"",""trial"",""time""
""focus"",""0"",""0""
","""event"",""trial"",""time""
""fullscreenenter"",""0"",""3098""
","
","null","<p></p>","null","","","","","","","","","","","","","","","","","","","","","","","",""
"","do_trial","201","678490","0.0-109.0-0.0","""event"",""trial"",""time""
""focus"",""0"",""0""
""fullscreenenter"",""0"",""3098""
","
","""event"",""trial"",""time""
""focus"",""0"",""0""
","""event"",""trial"",""time""
""fullscreenenter"",""0"",""3098""
","
","1030","","","","","","","","49","1,0,1","6","blank","320","null","0.6898675823785319","0.27565924743228926","0.2012701711604639","1","","","","","","","","",""
"","html-keyboard-response","202","679496","0.0-109.0-1.0","""event"",""trial"",""time""
""focus"",""0"",""0""
""fullscreenenter"",""0"",""3098""
","
","""event"",""trial"",""time""
""focus"",""0"",""0""
","""event"",""trial"",""time""
""fullscreenenter"",""0"",""3098""
","
","null","<p></p>","null","","","","","","","","","","","","","","","","","","","","","","","",""
"","do_trial","203","682941","0.0-110.0-0.0","""event"",""trial"",""time""
""focus"",""0"",""0""
""fullscreenenter"",""0"",""3098""
","
","""event"",""trial"",""time""
""focus"",""0"",""0""
","""event"",""trial"",""time""
""fullscreenenter"",""0"",""3098""
","
","916","","","","","","","","49","0,0,0","6","blank","321","null","0.6726023045600401","0.17047104040504493","0.250555001766108","0","","","","","","","","",""
"","html-keyboard-response","204","683950","0.0-110.0-1.0","""event"",""trial"",""time""
""focus"",""0"",""0""
""fullscreenenter"",""0"",""3098""
","
","""event"",""trial"",""time""
""focus"",""0"",""0""
","""event"",""trial"",""time""
""fullscreenenter"",""0"",""3098""
","
","null","<p></p>","null","","","","","","","","","","","","","","","","","","","","","","","",""
"","do_trial","205","687144","0.0-111.0-0.0","""event"",""trial"",""time""
""focus"",""0"",""0""
""fullscreenenter"",""0"",""3098""
","
","""event"",""trial"",""time""
""focus"",""0"",""0""
","""event"",""trial"",""time""
""fullscreenenter"",""0"",""3098""
","
","670","","","","","","","","49","1,1,0","6","blank","322","null","0.6643524015191048","0.15576857721150666","0.2955629790743689","1","","","","","","","","",""
"","html-keyboard-response","206","688154","0.0-111.0-1.0","""event"",""trial"",""time""
""focus"",""0"",""0""
""fullscreenenter"",""0"",""3098""
","
","""event"",""trial"",""time""
""focus"",""0"",""0""
","""event"",""trial"",""time""
""fullscreenenter"",""0"",""3098""
","
","null","<p></p>","null","","","","","","","","","","","","","","","","","","","","","","","",""
"","do_trial","207","691499","0.0-112.0-0.0","""event"",""trial"",""time""
""focus"",""0"",""0""
""fullscreenenter"",""0"",""3098""
","
","""event"",""trial"",""time""
""focus"",""0"",""0""
","""event"",""trial"",""time""
""fullscreenenter"",""0"",""3098""
","
","824","","","","","","","","49","1,0,1","6","blank","323","null","0.7468403227208661","0.13640866602121082","0.25384612028371023","1","","","","","","","","",""
"","html-keyboard-response","208","692507","0.0-112.0-1.0","""event"",""trial"",""time""
""focus"",""0"",""0""
""fullscreenenter"",""0"",""3098""
","
","""event"",""trial"",""time""
""focus"",""0"",""0""
","""event"",""trial"",""time""
""fullscreenenter"",""0"",""3098""
","
","null","<p></p>","null","","","","","","","","","","","","","","","","","","","","","","","",""
"","do_trial","209","695985","0.0-113.0-0.0","""event"",""trial"",""time""
""focus"",""0"",""0""
""fullscreenenter"",""0"",""3098""
","
","""event"",""trial"",""time""
""focus"",""0"",""0""
","""event"",""trial"",""time""
""fullscreenenter"",""0"",""3098""
","
","952","","","","","","","","49","0,0,0","6","blank","324","null","0.7611892075159091","0.05391881140365832","0.38229185267638705","0","","","","","","","","",""
"","html-keyboard-response","210","696996","0.0-113.0-1.0","""event"",""trial"",""time""
""focus"",""0"",""0""
""fullscreenenter"",""0"",""3098""
","
","""event"",""trial"",""time""
""focus"",""0"",""0""
","""event"",""trial"",""time""
""fullscreenenter"",""0"",""3098""
","
","null","<p></p>","null","","","","","","","","","","","","","","","","","","","","","","","",""
"","do_recog","211","703018","0.0-114.0-0.0","""event"",""trial"",""time""
""focus"",""0"",""0""
""fullscreenenter"",""0"",""3098""
","
","""event"",""trial"",""time""
""focus"",""0"",""0""
","""event"",""trial"",""time""
""fullscreenenter"",""0"",""3098""
","
","null","","","","","","","","null","","","","325","probe-224","","","","","1","[object Object]","117","2","0","","","",""
"","html-keyboard-response","212","704031","0.0-114.0-1.0","""event"",""trial"",""time""
""focus"",""0"",""0""
""fullscreenenter"",""0"",""3098""
","
","""event"",""trial"",""time""
""focus"",""0"",""0""
","""event"",""trial"",""time""
""fullscreenenter"",""0"",""3098""
","
","null","<p></p>","null","","","","","","","","","","","","","","","","","","","","","","","",""
"","do_trial","213","707120","0.0-115.0-0.0","""event"",""trial"",""time""
""focus"",""0"",""0""
""fullscreenenter"",""0"",""3098""
","
","""event"",""trial"",""time""
""focus"",""0"",""0""
","""event"",""trial"",""time""
""fullscreenenter"",""0"",""3098""
","
","563","","","","","","","","49","1,0,0","6","blank","326","null","0.6959708012427605","0.18647542112340212","0.3439192596797737","1","","","","","","","","",""
"","html-keyboard-response","214","708133","0.0-115.0-1.0","""event"",""trial"",""time""
""focus"",""0"",""0""
""fullscreenenter"",""0"",""3098""
","
","""event"",""trial"",""time""
""focus"",""0"",""0""
","""event"",""trial"",""time""
""fullscreenenter"",""0"",""3098""
","
","null","<p></p>","null","","","","","","","","","","","","","","","","","","","","","","","",""
"","do_trial","215","711750","0.0-116.0-0.0","""event"",""trial"",""time""
""focus"",""0"",""0""
""fullscreenenter"",""0"",""3098""
","
","""event"",""trial"",""time""
""focus"",""0"",""0""
","""event"",""trial"",""time""
""fullscreenenter"",""0"",""3098""
","
","1087","","","","","","","","49","1,0,0","6","blank","327","null","0.6899235382487992","0.09745964473766919","0.313990703575988","1","","","","","","","","",""
"","html-keyboard-response","216","712758","0.0-116.0-1.0","""event"",""trial"",""time""
""focus"",""0"",""0""
""fullscreenenter"",""0"",""3098""
","
","""event"",""trial"",""time""
""focus"",""0"",""0""
","""event"",""trial"",""time""
""fullscreenenter"",""0"",""3098""
","
","null","<p></p>","null","","","","","","","","","","","","","","","","","","","","","","","",""
"","do_trial","217","716119","0.0-117.0-0.0","""event"",""trial"",""time""
""focus"",""0"",""0""
""fullscreenenter"",""0"",""3098""
","
","""event"",""trial"",""time""
""focus"",""0"",""0""
","""event"",""trial"",""time""
""fullscreenenter"",""0"",""3098""
","
","831","","","","","","","","49","1,0,0","6","blank","328","null","0.7278731986320923","0.08494503090352452","0.3660357399316605","1","","","","","","","","",""
"","html-keyboard-response","218","717127","0.0-117.0-1.0","""event"",""trial"",""time""
""focus"",""0"",""0""
""fullscreenenter"",""0"",""3098""
","
","""event"",""trial"",""time""
""focus"",""0"",""0""
","""event"",""trial"",""time""
""fullscreenenter"",""0"",""3098""
","
","null","<p></p>","null","","","","","","","","","","","","","","","","","","","","","","","",""
"","do_trial","219","720510","0.0-118.0-0.0","""event"",""trial"",""time""
""focus"",""0"",""0""
""fullscreenenter"",""0"",""3098""
","
","""event"",""trial"",""time""
""focus"",""0"",""0""
","""event"",""trial"",""time""
""fullscreenenter"",""0"",""3098""
","
","861","","","","","","","","49","1,0,1","6","blank","329","null","0.6947999517744612","0.05282898831671239","0.3965835777278278","1","","","","","","","","",""
"","html-keyboard-response","220","721515","0.0-118.0-1.0","""event"",""trial"",""time""
""focus"",""0"",""0""
""fullscreenenter"",""0"",""3098""
","
","""event"",""trial"",""time""
""focus"",""0"",""0""
","""event"",""trial"",""time""
""fullscreenenter"",""0"",""3098""
","
","null","<p></p>","null","","","","","","","","","","","","","","","","","","","","","","","",""
"","do_recog","221","724767","0.0-119.0-0.0","""event"",""trial"",""time""
""focus"",""0"",""0""
""fullscreenenter"",""0"",""3098""
","
","""event"",""trial"",""time""
""focus"",""0"",""0""
","""event"",""trial"",""time""
""fullscreenenter"",""0"",""3098""
","
","1736","","","","","","","","54","","","","330","probe-136","","","","","1","[object Object]","195","4","1","","","",""
"","html-keyboard-response","222","725772","0.0-119.0-1.0","""event"",""trial"",""time""
""focus"",""0"",""0""
""fullscreenenter"",""0"",""3098""
","
","""event"",""trial"",""time""
""focus"",""0"",""0""
","""event"",""trial"",""time""
""fullscreenenter"",""0"",""3098""
","
","null","<p></p>","null","","","","","","","","","","","","","","","","","","","","","","","",""
"","do_trial","223","729399","0.0-120.0-0.0","""event"",""trial"",""time""
""focus"",""0"",""0""
""fullscreenenter"",""0"",""3098""
","
","""event"",""trial"",""time""
""focus"",""0"",""0""
","""event"",""trial"",""time""
""fullscreenenter"",""0"",""3098""
","
","1097","","","","","","","","49","0,0,0","6","blank","331","null","0.6779662781299018","0.07111352895782505","0.22405488752622263","0","","","","","","","","",""
"","html-keyboard-response","224","730408","0.0-120.0-1.0","""event"",""trial"",""time""
""focus"",""0"",""0""
""fullscreenenter"",""0"",""3098""
","
","""event"",""trial"",""time""
""focus"",""0"",""0""
","""event"",""trial"",""time""
""fullscreenenter"",""0"",""3098""
","
","null","<p></p>","null","","","","","","","","","","","","","","","","","","","","","","","",""
"","do_trial","225","734016","0.0-121.0-0.0","""event"",""trial"",""time""
""focus"",""0"",""0""
""fullscreenenter"",""0"",""3098""
","
","""event"",""trial"",""time""
""focus"",""0"",""0""
","""event"",""trial"",""time""
""fullscreenenter"",""0"",""3098""
","
","1076","","","","","","","","49","1,0,1","6","blank","332","null","0.6229770852773365","0.13541637245009952","0.16087746635938102","1","","","","","","","","",""
"","html-keyboard-response","226","735022","0.0-121.0-1.0","""event"",""trial"",""time""
""focus"",""0"",""0""
""fullscreenenter"",""0"",""3098""
","
","""event"",""trial"",""time""
""focus"",""0"",""0""
","""event"",""trial"",""time""
""fullscreenenter"",""0"",""3098""
","
","null","<p></p>","null","","","","","","","","","","","","","","","","","","","","","","","",""
"","do_recog","227","738167","0.0-122.0-0.0","""event"",""trial"",""time""
""focus"",""0"",""0""
""fullscreenenter"",""0"",""3098""
","
","""event"",""trial"",""time""
""focus"",""0"",""0""
","""event"",""trial"",""time""
""fullscreenenter"",""0"",""3098""
","
","1637","","","","","","","","53","","","","333","probe-12","","","","","1","[object Object]","33","0","1","","","",""
"","html-keyboard-response","228","739175","0.0-122.0-1.0","""event"",""trial"",""time""
""focus"",""0"",""0""
""fullscreenenter"",""0"",""3098""
","
","""event"",""trial"",""time""
""focus"",""0"",""0""
","""event"",""trial"",""time""
""fullscreenenter"",""0"",""3098""
","
","null","<p></p>","null","","","","","","","","","","","","","","","","","","","","","","","",""
"","do_trial","229","742925","0.0-123.0-0.0","""event"",""trial"",""time""
""focus"",""0"",""0""
""fullscreenenter"",""0"",""3098""
","
","""event"",""trial"",""time""
""focus"",""0"",""0""
","""event"",""trial"",""time""
""fullscreenenter"",""0"",""3098""
","
","1221","","","","","","","","49","1,0,0","6","blank","334","null","0.6144667431583831","0.12240945436650728","0.23752180830014347","1","","","","","","","","",""
"","html-keyboard-response","230","743935","0.0-123.0-1.0","""event"",""trial"",""time""
""focus"",""0"",""0""
""fullscreenenter"",""0"",""3098""
","
","""event"",""trial"",""time""
""focus"",""0"",""0""
","""event"",""trial"",""time""
""fullscreenenter"",""0"",""3098""
","
