"success","trial_type","trial_index","time_elapsed","internal_node_id","interactions","blur_events","focus_events","fullscreenenter_events","fullscreenexit_events","rt","stimulus","key_press","subject_id","participant_id","age","gender","prompt","response","choice_outcomes","context_n","context_img_id","trial_n","probe_img_id","pR_red","pR_white","pR_black","outcome","is_valid","image_to_show","probed_trial","probed_context","correct","probe","probed_trial_n","probed_context_n","context_im"
"true","fullscreen","0","5960","0.0-0.0","""event"",""trial"",""time""
""fullscreenenter"",""0"",""5000""
","
","
","""event"",""trial"",""time""
""fullscreenenter"",""0"",""5000""
","
","","","","","","","","","","","","","","","","","","","","","","","","","","",""
"","pavlovia","1","5966","0.0-1.0","""event"",""trial"",""time""
""fullscreenenter"",""0"",""5000""
","
","
","""event"",""trial"",""time""
""fullscreenenter"",""0"",""5000""
","
","","","","","","","","","","","","","","","","","","","","","","","","","","",""
"","welc_back","2","15857","0.0-2.0","""event"",""trial"",""time""
""fullscreenenter"",""0"",""5000""
","
","
","""event"",""trial"",""time""
""fullscreenenter"",""0"",""5000""
","
","null","run_exp/static/audio/clip_29_welcome_back.m4a","null","425","233","17","Female","<div class='center'><p>Welcome to day 2!</p><p> Yesterday, you were the head captain of a pirate ship. You asked your fellow pirates to rob other ships of their gold across six different islands.</p></div>","","","","","","","","","","","","","","","","","","",""
"","html-keyboard-response","3","17499","0.0-3.0","""event"",""trial"",""time""
""fullscreenenter"",""0"",""5000""
","
","
","""event"",""trial"",""time""
""fullscreenenter"",""0"",""5000""
","
","1640.5","<div class='center'><p>Welcome to day 2!</p><p> Yesterday, you were the head captain of a pirate ship. You asked your fellow pirates to rob other ships of their gold across six different islands.</p><p><b>[Press the space bar to continue]</b></p></div>","32","","","","","","","","","","","","","","","","","","","","","","","",""
"","day_1_summary_goal","4","34709","0.0-4.0","""event"",""trial"",""time""
""fullscreenenter"",""0"",""5000""
","
","
","""event"",""trial"",""time""
""fullscreenenter"",""0"",""5000""
","
","null","run_exp/static/audio/clip_30_goal_of_game.m4a","null","","","","","<div class='center'><p>Today, like yesterday, you get to pick which pirate you want to rob the next ship.</p><p>If the pirate is successful in robbing a ship, you get gold coins that look like this: </p><p><img src='run_exp/static/images/tutorial/reward.png' height='150'></p><p> If they were not successful in robbing the ship, then you will get no gold coins and you'll see a big red x like this: </p><p><img src='run_exp/static/images/tutorial/reward_no.png' height='150'></p></div>","","","","","","","","","","","","","","","","","","",""
"","html-keyboard-response","5","37575","0.0-5.0","""event"",""trial"",""time""
""fullscreenenter"",""0"",""5000""
","
","
","""event"",""trial"",""time""
""fullscreenenter"",""0"",""5000""
","
","2863.0999999940395","<div class='center'><p>Today, like yesterday, you get to pick which pirate you want to rob the next ship.</p><p>If the pirate is successful in robbing a ship, you get gold coins that look like this: </p><p><img src='run_exp/static/images/tutorial/reward.png' height='150'></p><p> If they were not successful in robbing the ship, then you will get no gold coins and you'll see a big red x like this: </p><p><img src='run_exp/static/images/tutorial/reward_no.png' height='150'></p><p><b>[Press the space bar to continue]</b></p></div>","32","","","","","","","","","","","","","","","","","","","","","","","",""
"","day_1_summary_pick","6","52263","0.0-6.0","""event"",""trial"",""time""
""fullscreenenter"",""0"",""5000""
","
","
","""event"",""trial"",""time""
""fullscreenenter"",""0"",""5000""
","
","null","run_exp/static/audio/clip_31_how_to_pick_a_pirate.m4a","null","","","","","<div class='center'><p>Also, just like yesterday, you will use the 1,2,3 keys on your keyboard to pick a pirate. Press '1' to choose red beard, '2' to choose white beard, and '3' to choose black beard . You only have 3 seconds to pick a pirate, so please make a choice quickly!</p></div>","","","","","","","","","","","","","","","","","","",""
"","html-keyboard-response","7","71738","0.0-7.0","""event"",""trial"",""time""
""fullscreenenter"",""0"",""5000""
","
","
","""event"",""trial"",""time""
""fullscreenenter"",""0"",""5000""
","
","19475.19999998808","<div class='center'><p>Also, just like yesterday, you will use the 1,2,3 keys on your keyboard to pick a pirate. Press '1' to choose red beard, '2' to choose white beard, and '3' to choose black beard . You only have 3 seconds to pick a pirate, so please make a choice quickly!</p><p><b>[Press the space bar to continue]</b></p></div>","32","","","","","","","","","","","","","","","","","","","","","","","",""
"","test_phase_begin","8","102146","0.0-8.0","""event"",""trial"",""time""
""fullscreenenter"",""0"",""5000""
","
","
","""event"",""trial"",""time""
""fullscreenenter"",""0"",""5000""
","
","null","run_exp/static/audio/clip_32_final_place.m4a","null","","","","","<div class='center'><p>You’ve arrived at the final island of your journey! Unfortunately, it’s very foggy out, so you won’t be able to see it in the distance like the other islands you've visited.</p><p>You’ll still be deciding which pirate you want to rob a ship like before. However, because of the fog, you also won’t be able to see the ship.</p><p>This means you do not have to remember the ships you rob on this island.</p><p>Unlike yesterday, you won't be visiting multiple islands today. You will stay on this island for the entire game. This game will last ~30 minutes.</p></div>","","","","","","","","","","","","","","","","","","",""
"","html-keyboard-response","9","111278","0.0-9.0","""event"",""trial"",""time""
""fullscreenenter"",""0"",""5000""
","
","
","""event"",""trial"",""time""
""fullscreenenter"",""0"",""5000""
","
","9130.199999988079","<div class='center'><p>You’ve arrived at the final island of your journey! Unfortunately, it’s very foggy out, so you won’t be able to see it in the distance like the other islands you've visited.</p><p>You’ll still be deciding which pirate you want to rob a ship like before. However, because of the fog, you also won’t be able to see the ship.</p><p>This means you do not have to remember the ships you rob on this island.</p><p>Unlike yesterday, you won't be visiting multiple islands today. You will stay on this island for the entire game. This game will last ~30 minutes.</p><p><b>[Press the space bar to continue]</b></p></div>","32","","","","","","","","","","","","","","","","","","","","","","","",""
"","explain_probe_1","10","118981","0.0-10.0","""event"",""trial"",""time""
""fullscreenenter"",""0"",""5000""
","
","
","""event"",""trial"",""time""
""fullscreenenter"",""0"",""5000""
","
","null","run_exp/static/audio/clip_33_recognition_1.m4a","null","","","","","<div class='center'><p> Sometimes you’ll be shown a ship, and you will be asked if you saw this ship on a past island.</p><p> Here is an example of what you will see.</p><p><img src='run_exp/static/images/tutorial/example_recog_trial.png' height='500'></p></div>","","","","","","","","","","","","","","","","","","",""
"","html-keyboard-response","11","159365","0.0-11.0","""event"",""trial"",""time""
""fullscreenenter"",""0"",""5000""
","
","
","""event"",""trial"",""time""
""fullscreenenter"",""0"",""5000""
","
","40382.30000001192","<div class='center'><p> Sometimes you’ll be shown a ship, and you will be asked if you saw this ship on a past island.</p><p> Here is an example of what you will see.</p><p><img src='run_exp/static/images/tutorial/example_recog_trial.png' height='500'></p><p><b>[Press the space bar to continue]</b></p></div>","32","","","","","","","","","","","","","","","","","","","","","","","",""
"","explain_probe_2","12","181098","0.0-12.0","""event"",""trial"",""time""
""fullscreenenter"",""0"",""5000""
","
","
","""event"",""trial"",""time""
""fullscreenenter"",""0"",""5000""
","
","null","run_exp/static/audio/clip_34_recognition_2.m4a","null","","","","","<div class='center'><p> You will press the 5, 6, 7, 8 keys on your keyboard to respond.</p><p>If you are sure you saw the ship, press <b>5</b> on your keyboard.</p><p> If you think you saw it before but aren't sure, then press <b>6</b>.</p><p> If you think you have <b>not</b> seen it before but aren't sure, then press <b>7</b>.</p><p> If you are sure you did <b>not</b> see the ship before, then press <b>8</b>.</p><p><img src='run_exp/static/images/tutorial/example_recog_trial.png' height='500'></p></div>","","","","","","","","","","","","","","","","","","",""
"","html-keyboard-response","13","227553","0.0-13.0","""event"",""trial"",""time""
""fullscreenenter"",""0"",""5000""
","
","
","""event"",""trial"",""time""
""fullscreenenter"",""0"",""5000""
","
","46453.30000001192","<div class='center'><p> You will press the 5, 6, 7, 8 keys on your keyboard to respond.</p><p>If you are sure you saw the ship, press <b>5</b> on your keyboard.</p><p> If you think you saw it before but aren't sure, then press <b>6</b>.</p><p> If you think you have <b>not</b> seen it before but aren't sure, then press <b>7</b>.</p><p> If you are sure you did <b>not</b> see the ship before, then press <b>8</b>.</p><p><img src='run_exp/static/images/tutorial/example_recog_trial.png' height='500'></p><p><b>[Press the space bar to continue]</b></p></div>","32","","","","","","","","","","","","","","","","","","","","","","","",""
"","explain_outcome","14","244786","0.0-14.0","""event"",""trial"",""time""
""fullscreenenter"",""0"",""5000""
","
","
","""event"",""trial"",""time""
""fullscreenenter"",""0"",""5000""
","
","null","run_exp/static/audio/clip_35_recognition_3.m4a","null","","","","","<div class='center'><p> If you remember correctly, then you’ll get a gold coin like this: </p><p><img src='run_exp/static/images/tutorial/reward_small.png' height='200'></p><p>If you do not remember correctly, then you'll see a red x like this: </p><p><img src='run_exp/static/images/tutorial/reward_no.png' height='200'></p><p>Importantly, when you are shown a ship, take the time to remind yourself which island you saw it on. This will help you in the next part of the study.</p></div>","","","","","","","","","","","","","","","","","","",""
"","html-keyboard-response","15","255993","0.0-15.0","""event"",""trial"",""time""
""fullscreenenter"",""0"",""5000""
","
","
","""event"",""trial"",""time""
""fullscreenenter"",""0"",""5000""
","
","11204.700000017881","<div class='center'><p> If you remember correctly, then you’ll get a gold coin like this: </p><p><img src='run_exp/static/images/tutorial/reward_small.png' height='200'></p><p>If you do not remember correctly, then you'll see a red x like this: </p><p><img src='run_exp/static/images/tutorial/reward_no.png' height='200'></p><p>Importantly, when you are shown a ship, take the time to remind yourself which island you saw it on. This will help you in the next part of the study.</p><p><b>[Press the space bar to continue]</b></p></div>","32","","","","","","","","","","","","","","","","","","","","","","","",""
"","begin_test_phase","16","271818","0.0-16.0","""event"",""trial"",""time""
""fullscreenenter"",""0"",""5000""
","
","
","""event"",""trial"",""time""
""fullscreenenter"",""0"",""5000""
","
","null","run_exp/static/audio/clip_36_begin_final.m4a","null","","","","","<div class='center'><p>Let's go over the important points again. Your job is to: </p><p>1. Pick the pirate who is best at robbing ships and will bring you back gold coins. </p><p>2. Correctly remember whether or not you saw a ship before. If you did see the ship before, remind yourself on which island you saw it. </p></div>","","","","","","","","","","","","","","","","","","",""
"","html-keyboard-response","17","273914","0.0-17.0","""event"",""trial"",""time""
""fullscreenenter"",""0"",""5000""
","
","
","""event"",""trial"",""time""
""fullscreenenter"",""0"",""5000""
","
","2059.5999999940395","<div class='center'><p>Let's go over the important points again. Your job is to: </p><p>1. Pick the pirate who is best at robbing ships and will bring you back gold coins. </p><p>2. Correctly remember whether or not you saw a ship before. If you did see the ship before, remind yourself on which island you saw it. </p><p><b>[Press the space bar to continue]</b></p></div>","32","","","","","","","","","","","","","","","","","","","","","","","",""
"","do_welcome","18","277922","0.0-18.0","""event"",""trial"",""time""
""fullscreenenter"",""0"",""5000""
","
","
","""event"",""trial"",""time""
""fullscreenenter"",""0"",""5000""
","
","null","","","","","","","","null","","","","","","","","","","","","","","","","","",""
"","do_trial","19","281889","0.0-19.0-0.0","""event"",""trial"",""time""
""fullscreenenter"",""0"",""5000""
","
","
","""event"",""trial"",""time""
""fullscreenenter"",""0"",""5000""
","
","1441.699999988079","","","","","","","","49","1,0,0","6","blank","230","null","0.44912340333590195","0.4210449311590573","0.15419135307151835","1","","","","","","","","",""
"","html-keyboard-response","20","282896","0.0-19.0-1.0","""event"",""trial"",""time""
""fullscreenenter"",""0"",""5000""
","
","
","""event"",""trial"",""time""
""fullscreenenter"",""0"",""5000""
","
","null","<p></p>","null","","","","","","","","","","","","","","","","","","","","","","","",""
"","do_trial","21","286010","0.0-20.0-0.0","""event"",""trial"",""time""
""fullscreenenter"",""0"",""5000""
","
","
","""event"",""trial"",""time""
""fullscreenenter"",""0"",""5000""
","
","559.6999999880791","","","","","","","","50","0,1,0","6","blank","231","null","0.43107561690590984","0.589089835893864","0.1302419507986424","1","","","","","","","","",""
"","html-keyboard-response","22","287014","0.0-20.0-1.0","""event"",""trial"",""time""
""fullscreenenter"",""0"",""5000""
","
","
","""event"",""trial"",""time""
""fullscreenenter"",""0"",""5000""
","
","null","<p></p>","null","","","","","","","","","","","","","","","","","","","","","","","",""
"","do_trial","23","289860","0.0-21.0-0.0","""event"",""trial"",""time""
""fullscreenenter"",""0"",""5000""
","
","
","""event"",""trial"",""time""
""fullscreenenter"",""0"",""5000""
","
","294.7999999821186","","","","","","","","51","0,1,0","6","blank","232","null","0.3070923600630337","0.5016980457929487","0.05563400078792404","0","","","","","","","","",""
"","html-keyboard-response","24","290866","0.0-21.0-1.0","""event"",""trial"",""time""
""fullscreenenter"",""0"",""5000""
","
","
","""event"",""trial"",""time""
""fullscreenenter"",""0"",""5000""
","
","null","<p></p>","null","","","","","","","","","","","","","","","","","","","","","","","",""
"","do_trial","25","293683","0.0-22.0-0.0","""event"",""trial"",""time""
""fullscreenenter"",""0"",""5000""
","
","
","""event"",""trial"",""time""
""fullscreenenter"",""0"",""5000""
","
","277.59999999403954","","","","","","","","49","0,1,0","6","blank","233","null","0.33714024430539974","0.4746558941425048","0.17161191587352126","0","","","","","","","","",""
"","html-keyboard-response","26","294688","0.0-22.0-1.0","""event"",""trial"",""time""
""fullscreenenter"",""0"",""5000""
","
","
","""event"",""trial"",""time""
""fullscreenenter"",""0"",""5000""
","
","null","<p></p>","null","","","","","","","","","","","","","","","","","","","","","","","",""
"","do_trial","27","297576","0.0-23.0-0.0","""event"",""trial"",""time""
""fullscreenenter"",""0"",""5000""
","
","
","""event"",""trial"",""time""
""fullscreenenter"",""0"",""5000""
","
","332.69999998807907","","","","","","","","50","0,0,0","6","blank","234","null","0.31024822176006206","0.42659458051695526","0.20222779253928633","0","","","","","","","","",""
"","html-keyboard-response","28","298583","0.0-23.0-1.0","""event"",""trial"",""time""
""fullscreenenter"",""0"",""5000""
","
","
","""event"",""trial"",""time""
""fullscreenenter"",""0"",""5000""
","
","null","<p></p>","null","","","","","","","","","","","","","","","","","","","","","","","",""
"","do_trial","29","301706","0.0-24.0-0.0","""event"",""trial"",""time""
""fullscreenenter"",""0"",""5000""
","
","
","""event"",""trial"",""time""
""fullscreenenter"",""0"",""5000""
","
","566.3000000119209","","","","","","","","49","0,0,0","6","blank","235","null","0.4281198931714799","0.46903541535983806","0.0694499827496131","0","","","","","","","","",""
"","html-keyboard-response","30","302711","0.0-24.0-1.0","""event"",""trial"",""time""
""fullscreenenter"",""0"",""5000""
","
","
","""event"",""trial"",""time""
""fullscreenenter"",""0"",""5000""
","
","null","<p></p>","null","","","","","","","","","","","","","","","","","","","","","","","",""
"","do_trial","31","306101","0.0-25.0-0.0","""event"",""trial"",""time""
""fullscreenenter"",""0"",""5000""
","
","
","""event"",""trial"",""time""
""fullscreenenter"",""0"",""5000""
","
","859.7999999821186","","","","","","","","51","0,0,0","6","blank","236","null","0.49239023807881366","0.5307968459914894","0.1068716980910861","0","","","","","","","","",""
"","html-keyboard-response","32","307106","0.0-25.0-1.0","""event"",""trial"",""time""
""fullscreenenter"",""0"",""5000""
","
","
","""event"",""trial"",""time""
""fullscreenenter"",""0"",""5000""
","
","null","<p></p>","null","","","","","","","","","","","","","","","","","","","","","","","",""
"","do_trial","33","309707","0.0-26.0-0.0","""event"",""trial"",""time""
""fullscreenenter"",""0"",""5000""
","
","
","""event"",""trial"",""time""
""fullscreenenter"",""0"",""5000""
","
","48.39999997615814","","","","","","","","50","1,1,0","6","blank","237","null","0.45530804768910665","0.7110415784936029","0.20032160289493006","1","","","","","","","","",""
"","html-keyboard-response","34","310715","0.0-26.0-1.0","""event"",""trial"",""time""
""fullscreenenter"",""0"",""5000""
","
","
","""event"",""trial"",""time""
""fullscreenenter"",""0"",""5000""
","
","null","<p></p>","null","","","","","","","","","","","","","","","","","","","","","","","",""
"","do_trial","35","313635","0.0-27.0-0.0","""event"",""trial"",""time""
""fullscreenenter"",""0"",""5000""
","
","
","""event"",""trial"",""time""
""fullscreenenter"",""0"",""5000""
","
","361.10000002384186","","","","","","","","49","0,0,0","6","blank","238","null","0.2870218449031418","0.5551464660916701","0.21378510783478477","0","","","","","","","","",""
"","html-keyboard-response","36","314643","0.0-27.0-1.0","""event"",""trial"",""time""
""fullscreenenter"",""0"",""5000""
","
","
","""event"",""trial"",""time""
""fullscreenenter"",""0"",""5000""
","
","null","<p></p>","null","","","","","","","","","","","","","","","","","","","","","","","",""
"","do_trial","37","317223","0.0-28.0-0.0","""event"",""trial"",""time""
""fullscreenenter"",""0"",""5000""
","
","
","""event"",""trial"",""time""
""fullscreenenter"",""0"",""5000""
","
","33.099999994039536","","","","","","","","50","1,0,0","6","blank","239","null","0.23492109320046464","0.6084931535265694","0.26192840628734454","0","","","","","","","","",""
"","html-keyboard-response","38","318229","0.0-28.0-1.0","""event"",""trial"",""time""
""fullscreenenter"",""0"",""5000""
","
","
","""event"",""trial"",""time""
""fullscreenenter"",""0"",""5000""
","
","null","<p></p>","null","","","","","","","","","","","","","","","","","","","","","","","",""
"","do_trial","39","320948","0.0-29.0-0.0","""event"",""trial"",""time""
""fullscreenenter"",""0"",""5000""
","
","
","""event"",""trial"",""time""
""fullscreenenter"",""0"",""5000""
","
","163.5","","","","","","","","50","0,0,0","6","blank","240","null","0.12728954497073153","0.660065801514275","0.2644664157850702","0","","","","","","","","",""
"","html-keyboard-response","40","321951","0.0-29.0-1.0","""event"",""trial"",""time""
""fullscreenenter"",""0"",""5000""
","
","
","""event"",""trial"",""time""
""fullscreenenter"",""0"",""5000""
","
","null","<p></p>","null","","","","","","","","","","","","","","","","","","","","","","","",""
"","do_trial","41","324518","0.0-30.0-0.0","""event"",""trial"",""time""
""fullscreenenter"",""0"",""5000""
","
","
","""event"",""trial"",""time""
""fullscreenenter"",""0"",""5000""
","
","11.200000017881393","","","","","","","","51","1,1,0","6","blank","241","null","0.07015418072898293","0.7332514600533643","0.23813299854327263","0","","","","","","","","",""
"","html-keyboard-response","42","325524","0.0-30.0-1.0","""event"",""trial"",""time""
""fullscreenenter"",""0"",""5000""
","
","
","""event"",""trial"",""time""
""fullscreenenter"",""0"",""5000""
","
","null","<p></p>","null","","","","","","","","","","","","","","","","","","","","","","","",""
"","do_trial","43","328078","0.0-31.0-0.0","""event"",""trial"",""time""
""fullscreenenter"",""0"",""5000""
","
","
","""event"",""trial"",""time""
""fullscreenenter"",""0"",""5000""
","
","0.20000001788139343","","","","","","","","49","0,1,0","6","blank","242","null","0.19967736922352708","0.5173557653338482","0.4842083303217626","0","","","","","","","","",""
"","html-keyboard-response","44","329082","0.0-31.0-1.0","""event"",""trial"",""time""
""fullscreenenter"",""0"",""5000""
","
","
","""event"",""trial"",""time""
""fullscreenenter"",""0"",""5000""
","
","null","<p></p>","null","","","","","","","","","","","","","","","","","","","","","","","",""
"","do_trial","45","331847","0.0-32.0-0.0","""event"",""trial"",""time""
""fullscreenenter"",""0"",""5000""
","
","
","""event"",""trial"",""time""
""fullscreenenter"",""0"",""5000""
","
","206.40000000596046","","","","","","","","49","1,0,0","6","blank","243","null","0.1629091036418983","0.3321294550120038","0.5064071787883837","1","","","","","","","","",""
"","html-keyboard-response","46","332850","0.0-32.0-1.0","""event"",""trial"",""time""
""fullscreenenter"",""0"",""5000""
","
","
","""event"",""trial"",""time""
""fullscreenenter"",""0"",""5000""
","
","null","<p></p>","null","","","","","","","","","","","","","","","","","","","","","","","",""
"","do_trial","47","335472","0.0-33.0-0.0","""event"",""trial"",""time""
""fullscreenenter"",""0"",""5000""
","
","
","""event"",""trial"",""time""
""fullscreenenter"",""0"",""5000""
","
","81.30000001192093","","","","","","","","50","0,0,1","6","blank","244","null","0.10703265279379494","0.340656255577409","0.6805984849865686","0","","","","","","","","",""
"","html-keyboard-response","48","336477","0.0-33.0-1.0","""event"",""trial"",""time""
""fullscreenenter"",""0"",""5000""
","
","
","""event"",""trial"",""time""
""fullscreenenter"",""0"",""5000""
","
","null","<p></p>","null","","","","","","","","","","","","","","","","","","","","","","","",""
"","do_recog","49","342493","0.0-34.0-0.0","""event"",""trial"",""time""
""fullscreenenter"",""0"",""5000""
","
","
","""event"",""trial"",""time""
""fullscreenenter"",""0"",""5000""
","
","null","","","","","","","","null","","","","245","probe-213","","","","","1","[object Object]","114","2","0","","","",""
"","html-keyboard-response","50","343502","0.0-34.0-1.0","""event"",""trial"",""time""
""fullscreenenter"",""0"",""5000""
","
","
","""event"",""trial"",""time""
""fullscreenenter"",""0"",""5000""
","
","null","<p></p>","null","","","","","","","","","","","","","","","","","","","","","","","",""
"","do_trial","51","346943","0.0-35.0-0.0","""event"",""trial"",""time""
""fullscreenenter"",""0"",""5000""
","
","
","""event"",""trial"",""time""
""fullscreenenter"",""0"",""5000""
","
","883.0999999940395","","","","","","","","50","0,1,0","6","blank","246","null","0.15771097816385957","0.37361707953124745","0.6785610171816728","1","","","","","","","","",""
"","html-keyboard-response","52","347947","0.0-35.0-1.0","""event"",""trial"",""time""
""fullscreenenter"",""0"",""5000""
","
","
","""event"",""trial"",""time""
""fullscreenenter"",""0"",""5000""
","
","null","<p></p>","null","","","","","","","","","","","","","","","","","","","","","","","",""
"","do_recog","53","350844","0.0-36.0-0.0","""event"",""trial"",""time""
""fullscreenenter"",""0"",""5000""
","
","
","""event"",""trial"",""time""
""fullscreenenter"",""0"",""5000""
","
","1386.0999999940395","","","","","","","","56","","","","247","probe-08","","","","","1","[object Object]","191","4","0","","","",""
"","html-keyboard-response","54","351849","0.0-36.0-1.0","""event"",""trial"",""time""
""fullscreenenter"",""0"",""5000""
","
","
","""event"",""trial"",""time""
""fullscreenenter"",""0"",""5000""
","
","null","<p></p>","null","","","","","","","","","","","","","","","","","","","","","","","",""
"","do_trial","55","355094","0.0-37.0-0.0","""event"",""trial"",""time""
""fullscreenenter"",""0"",""5000""
","
","
","""event"",""trial"",""time""
""fullscreenenter"",""0"",""5000""
","
","688.0999999940395","","","","","","","","49","0,0,1","6","blank","248","null","0.11705553062954334","0.24578318035067262","0.6310176672612723","0","","","","","","","","",""
"","html-keyboard-response","56","356098","0.0-37.0-1.0","""event"",""trial"",""time""
""fullscreenenter"",""0"",""5000""
","
","
","""event"",""trial"",""time""
""fullscreenenter"",""0"",""5000""
","
","null","<p></p>","null","","","","","","","","","","","","","","","","","","","","","","","",""
"","do_trial","57","359494","0.0-38.0-0.0","""event"",""trial"",""time""
""fullscreenenter"",""0"",""5000""
","
","
","""event"",""trial"",""time""
""fullscreenenter"",""0"",""5000""
","
","838.6999999880791","","","","","","","","51","0,1,1","6","blank","249","null","0.19549304935263256","0.3360625999537547","0.6694951124815356","1","","","","","","","","",""
"","html-keyboard-response","58","360498","0.0-38.0-1.0","""event"",""trial"",""time""
""fullscreenenter"",""0"",""5000""
","
","
","""event"",""trial"",""time""
""fullscreenenter"",""0"",""5000""
","
","null","<p></p>","null","","","","","","","","","","","","","","","","","","","","","","","",""
"","do_recog","59","363107","0.0-39.0-0.0","""event"",""trial"",""time""
""fullscreenenter"",""0"",""5000""
","
","
","""event"",""trial"",""time""
""fullscreenenter"",""0"",""5000""
","
","1094.800000011921","","","","","","","","53","","","","250","probe-01","","","","","1","[object Object]","37","0","1","","","",""
"","html-keyboard-response","60","364115","0.0-39.0-1.0","""event"",""trial"",""time""
""fullscreenenter"",""0"",""5000""
","
","
","""event"",""trial"",""time""
""fullscreenenter"",""0"",""5000""
","
","null","<p></p>","null","","","","","","","","","","","","","","","","","","","","","","","",""
"","do_trial","61","367400","0.0-40.0-0.0","""event"",""trial"",""time""
""fullscreenenter"",""0"",""5000""
","
","
","""event"",""trial"",""time""
""fullscreenenter"",""0"",""5000""
","
","725.7000000178814","","","","","","","","49","0,0,1","6","blank","251","null","0.19514408972809222","0.28745035427457166","0.6554772465600494","0","","","","","","","","",""
"","html-keyboard-response","62","368404","0.0-40.0-1.0","""event"",""trial"",""time""
""fullscreenenter"",""0"",""5000""
","
","
","""event"",""trial"",""time""
""fullscreenenter"",""0"",""5000""
","
","null","<p></p>","null","","","","","","","","","","","","","","","","","","","","","","","",""
"","do_trial","63","371400","0.0-41.0-0.0","""event"",""trial"",""time""
""fullscreenenter"",""0"",""5000""
","
","
","""event"",""trial"",""time""
""fullscreenenter"",""0"",""5000""
","
","439.5","","","","","","","","49","0,0,1","6","blank","252","null","0.1838042193620499","0.333777145302583","0.7530828497732033","0","","","","","","","","",""
"","html-keyboard-response","64","372404","0.0-41.0-1.0","""event"",""trial"",""time""
""fullscreenenter"",""0"",""5000""
","
","
","""event"",""trial"",""time""
""fullscreenenter"",""0"",""5000""
","
","null","<p></p>","null","","","","","","","","","","","","","","","","","","","","","","","",""
"","do_recog","65","373943","0.0-42.0-0.0","""event"",""trial"",""time""
""fullscreenenter"",""0"",""5000""
","
","
","""event"",""trial"",""time""
""fullscreenenter"",""0"",""5000""
","
","27.5","","","","","","","","54","","","","253","probe-244","","","","","0","[object Object]","null","null","0","","","",""
"","html-keyboard-response","66","374946","0.0-42.0-1.0","""event"",""trial"",""time""
""fullscreenenter"",""0"",""5000""
","
","
","""event"",""trial"",""time""
""fullscreenenter"",""0"",""5000""
","
","null","<p></p>","null","","","","","","","","","","","","","","","","","","","","","","","",""
"","do_trial","67","381003","0.0-43.0-0.0","""event"",""trial"",""time""
""fullscreenenter"",""0"",""5000""
","
","
","""event"",""trial"",""time""
""fullscreenenter"",""0"",""5000""
","
","null","","","","","","","","null","1,0,0","6","blank","254","null","0.1645810870239277","0.3307317507045602","0.6842851989723653","","","","","","","","","",""
"","html-keyboard-response","68","382007","0.0-43.0-1.0","""event"",""trial"",""time""
""fullscreenenter"",""0"",""5000""
","
","
","""event"",""trial"",""time""
""fullscreenenter"",""0"",""5000""
","
","null","<p></p>","null","","","","","","","","","","","","","","","","","","","","","","","",""
"","do_trial","69","384882","0.0-44.0-0.0","""event"",""trial"",""time""
""fullscreenenter"",""0"",""5000""
","
","
","""event"",""trial"",""time""
""fullscreenenter"",""0"",""5000""
","
","320.5","","","","","","","","50","0,0,1","6","blank","255","null","0.2939836925373139","0.4393858835010781","0.7392860247340245","0","","","","","","","","",""
"","html-keyboard-response","70","385885","0.0-44.0-1.0","""event"",""trial"",""time""
""fullscreenenter"",""0"",""5000""
","
","
","""event"",""trial"",""time""
""fullscreenenter"",""0"",""5000""
","
","null","<p></p>","null","","","","","","","","","","","","","","","","","","","","","","","",""
"","do_trial","71","389141","0.0-45.0-0.0","""event"",""trial"",""time""
""fullscreenenter"",""0"",""5000""
","
","
","""event"",""trial"",""time""
""fullscreenenter"",""0"",""5000""
","
","698.2999999821186","","","","","","","","49","0,0,1","6","blank","256","null","0.3528836500580361","0.46075915301842685","0.7133318840355188","0","","","","","","","","",""
"","html-keyboard-response","72","390148","0.0-45.0-1.0","""event"",""trial"",""time""
""fullscreenenter"",""0"",""5000""
","
","
","""event"",""trial"",""time""
""fullscreenenter"",""0"",""5000""
","
","null","<p></p>","null","","","","","","","","","","","","","","","","","","","","","","","",""
"","do_trial","73","393760","0.0-46.0-0.0","""event"",""trial"",""time""
""fullscreenenter"",""0"",""5000""
","
","
","""event"",""trial"",""time""
""fullscreenenter"",""0"",""5000""
","
","1056.199999988079","","","","","","","","49","0,1,0","6","blank","257","null","0.2714514577138932","0.3259470066584342","0.6846168730432111","0","","","","","","","","",""
"","html-keyboard-response","74","394769","0.0-46.0-1.0","""event"",""trial"",""time""
""fullscreenenter"",""0"",""5000""
","
","
","""event"",""trial"",""time""
""fullscreenenter"",""0"",""5000""
","
","null","<p></p>","null","","","","","","","","","","","","","","","","","","","","","","","",""
"","do_trial","75","397636","0.0-47.0-0.0","""event"",""trial"",""time""
""fullscreenenter"",""0"",""5000""
","
","
","""event"",""trial"",""time""
""fullscreenenter"",""0"",""5000""
","
","312.2000000178814","","","","","","","","50","1,0,0","6","blank","258","null","0.15623651299011576","0.28322494977935647","0.5076276294492181","0","","","","","","","","",""
"","html-keyboard-response","76","398641","0.0-47.0-1.0","""event"",""trial"",""time""
""fullscreenenter"",""0"",""5000""
","
","
","""event"",""trial"",""time""
""fullscreenenter"",""0"",""5000""
","
","null","<p></p>","null","","","","","","","","","","","","","","","","","","","","","","","",""
"","do_trial","77","401724","0.0-48.0-0.0","""event"",""trial"",""time""
""fullscreenenter"",""0"",""5000""
","
","
","""event"",""trial"",""time""
""fullscreenenter"",""0"",""5000""
","
","536.2000000178814","","","","","","","","49","0,0,0","6","blank","259","null","0.23183476962928304","0.2237571292783022","0.5882873131542551","0","","","","","","","","",""
"","html-keyboard-response","78","402728","0.0-48.0-1.0","""event"",""trial"",""time""
""fullscreenenter"",""0"",""5000""
","
","
","""event"",""trial"",""time""
""fullscreenenter"",""0"",""5000""
","
","null","<p></p>","null","","","","","","","","","","","","","","","","","","","","","","","",""
"","do_trial","79","405282","0.0-49.0-0.0","""event"",""trial"",""time""
""fullscreenenter"",""0"",""5000""
","
","
","""event"",""trial"",""time""
""fullscreenenter"",""0"",""5000""
","
","0.09999999403953552","","","","","","","","50","0,0,1","6","blank","260","null","0.15242766778010167","0.20082985576233867","0.6234557347292712","0","","","","","","","","",""
"","html-keyboard-response","80","406287","0.0-49.0-1.0","""event"",""trial"",""time""
""fullscreenenter"",""0"",""5000""
","
","
","""event"",""trial"",""time""
""fullscreenenter"",""0"",""5000""
","
","null","<p></p>","null","","","","","","","","","","","","","","","","","","","","","","","",""
"","do_recog","81","408673","0.0-50.0-0.0","""event"",""trial"",""time""
""fullscreenenter"",""0"",""5000""
","
","
","""event"",""trial"",""time""
""fullscreenenter"",""0"",""5000""
","
","876.1000000238419","","","","","","","","53","","","","261","probe-100","","","","","1","[object Object]","153","3","1","","","",""
"","html-keyboard-response","82","409681","0.0-50.0-1.0","""event"",""trial"",""time""
""fullscreenenter"",""0"",""5000""
","
","
","""event"",""trial"",""time""
""fullscreenenter"",""0"",""5000""
","
","null","<p></p>","null","","","","","","","","","","","","","","","","","","","","","","","",""
"","do_trial","83","412899","0.0-51.0-0.0","""event"",""trial"",""time""
""fullscreenenter"",""0"",""5000""
","
","
","""event"",""trial"",""time""
""fullscreenenter"",""0"",""5000""
","
","657.5","","","","","","","","50","0,0,1","6","blank","262","null","0.0730134554605235","0.2815838638765595","0.5490134488557747","0","","","","","","","","",""
"","html-keyboard-response","84","413904","0.0-51.0-1.0","""event"",""trial"",""time""
""fullscreenenter"",""0"",""5000""
","
","
","""event"",""trial"",""time""
""fullscreenenter"",""0"",""5000""
","
","null","<p></p>","null","","","","","","","","","","","","","","","","","","","","","","","",""
"","do_trial","85","416863","0.0-52.0-0.0","""event"",""trial"",""time""
""fullscreenenter"",""0"",""5000""
","
","
","""event"",""trial"",""time""
""fullscreenenter"",""0"",""5000""
","
","412.09999999403954","","","","","","","","49","1,0,1","6","blank","263","null","0.16322397369956906","0.17816098844195813","0.5323630032635162","1","","","","","","","","",""
"","html-keyboard-response","86","417868","0.0-52.0-1.0","""event"",""trial"",""time""
""fullscreenenter"",""0"",""5000""
","
","
","""event"",""trial"",""time""
""fullscreenenter"",""0"",""5000""
","
","null","<p></p>","null","","","","","","","","","","","","","","","","","","","","","","","",""
"","do_trial","87","422189","0.0-53.0-0.0","""event"",""trial"",""time""
""fullscreenenter"",""0"",""5000""
","
","
","""event"",""trial"",""time""
""fullscreenenter"",""0"",""5000""
","
","1766.5","","","","","","","","51","0,0,1","6","blank","264","null","0.09439157573311228","0.3394807824998502","0.5647141735310762","1","","","","","","","","",""
"","html-keyboard-response","88","423192","0.0-53.0-1.0","""event"",""trial"",""time""
""fullscreenenter"",""0"",""5000""
","
","
","""event"",""trial"",""time""
""fullscreenenter"",""0"",""5000""
","
","null","<p></p>","null","","","","","","","","","","","","","","","","","","","","","","","",""
"","do_recog","89","425432","0.0-54.0-0.0","""event"",""trial"",""time""
""fullscreenenter"",""0"",""5000""
","
","
","""event"",""trial"",""time""
""fullscreenenter"",""0"",""5000""
","
","731.4000000059605","","","","","","","","53","","","","265","probe-229","","","","","1","[object Object]","118","2","1","","","",""
"","html-keyboard-response","90","426436","0.0-54.0-1.0","""event"",""trial"",""time""
""fullscreenenter"",""0"",""5000""
","
","
","""event"",""trial"",""time""
""fullscreenenter"",""0"",""5000""
","
","null","<p></p>","null","","","","","","","","","","","","","","","","","","","","","","","",""
"","do_trial","91","429592","0.0-55.0-0.0","""event"",""trial"",""time""
""fullscreenenter"",""0"",""5000""
","
","
","""event"",""trial"",""time""
""fullscreenenter"",""0"",""5000""
","
","595.2999999821186","","","","","","","","49","0,1,1","6","blank","266","null","0.2824462795573038","0.2984661530250229","0.6870029218535914","0","","","","","","","","",""
"","html-keyboard-response","92","430595","0.0-55.0-1.0","""event"",""trial"",""time""
""fullscreenenter"",""0"",""5000""
","
","
","""event"",""trial"",""time""
""fullscreenenter"",""0"",""5000""
","
","null","<p></p>","null","","","","","","","","","","","","","","","","","","","","","","","",""
"","do_trial","93","433524","0.0-56.0-0.0","""event"",""trial"",""time""
""fullscreenenter"",""0"",""5000""
","
","
","""event"",""trial"",""time""
""fullscreenenter"",""0"",""5000""
","
","370.5","","","","","","","","49","0,1,0","6","blank","267","null","0.3548082676763795","0.2688065054652577","0.5809057447272403","0","","","","","","","","",""
"","html-keyboard-response","94","434528","0.0-56.0-1.0","""event"",""trial"",""time""
""fullscreenenter"",""0"",""5000""
","
","
","""event"",""trial"",""time""
""fullscreenenter"",""0"",""5000""
","
","null","<p></p>","null","","","","","","","","","","","","","","","","","","","","","","","",""
"","do_trial","95","437628","0.0-57.0-0.0","""event"",""trial"",""time""
""fullscreenenter"",""0"",""5000""
","
","
","""event"",""trial"",""time""
""fullscreenenter"",""0"",""5000""
","
","544.0999999940395","","","","","","","","49","0,1,0","6","blank","268","null","0.20014116214915179","0.31655241270639545","0.6475438192684568","0","","","","","","","","",""
"","html-keyboard-response","96","438632","0.0-57.0-1.0","""event"",""trial"",""time""
""fullscreenenter"",""0"",""5000""
","
","
","""event"",""trial"",""time""
""fullscreenenter"",""0"",""5000""
","
","null","<p></p>","null","","","","","","","","","","","","","","","","","","","","","","","",""
"","break","97","441204","0.0-58.0-0.0","""event"",""trial"",""time""
""fullscreenenter"",""0"",""5000""
","
","
","""event"",""trial"",""time""
""fullscreenenter"",""0"",""5000""
","
","2567.9000000059605","<div class='center'><p>Time to take a quick break! You have 2 minutes to rest, but you can move on sooner if you'd like.</p><p> Press the <b>space bar</b> to continue.</p></div>","32","","","","","","","","","","","","","","","","","","","","","","","",""
"","do_trial","98","444274","0.0-58.0-1.0","""event"",""trial"",""time""
""fullscreenenter"",""0"",""5000""
","
","
","""event"",""trial"",""time""
""fullscreenenter"",""0"",""5000""
","
","517.4000000059605","","","","","","","","49","0,0,1","6","blank","269","null","0.16062172579640005","0.3004481254145918","0.7330056465581665","0","","","","","","","","",""
"","html-keyboard-response","99","445279","0.0-58.0-2.0","""event"",""trial"",""time""
""fullscreenenter"",""0"",""5000""
","
","
","""event"",""trial"",""time""
""fullscreenenter"",""0"",""5000""
","
","null","<p></p>","null","","","","","","","","","","","","","","","","","","","","","","","",""
"","do_trial","100","448170","0.0-59.0-0.0","""event"",""trial"",""time""
""fullscreenenter"",""0"",""5000""
","
","
","""event"",""trial"",""time""
""fullscreenenter"",""0"",""5000""
","
","338","","","","","","","","50","0,0,0","6","blank","270","null","0.08327905878069759","0.3862703487106668","0.6964584611588883","0","","","","","","","","",""
"","html-keyboard-response","101","449177","0.0-59.0-1.0","""event"",""trial"",""time""
""fullscreenenter"",""0"",""5000""
","
","
","""event"",""trial"",""time""
""fullscreenenter"",""0"",""5000""
","
","null","<p></p>","null","","","","","","","","","","","","","","","","","","","","","","","",""
"","do_recog","102","451327","0.0-60.0-0.0","""event"",""trial"",""time""
""fullscreenenter"",""0"",""5000""
","
","
","""event"",""trial"",""time""
""fullscreenenter"",""0"",""5000""
","
","634.8999999761581","","","","","","","","53","","","","271","probe-88","","","","","1","[object Object]","195","4","1","","","",""
"","html-keyboard-response","103","452332","0.0-60.0-1.0","""event"",""trial"",""time""
""fullscreenenter"",""0"",""5000""
","
","
","""event"",""trial"",""time""
""fullscreenenter"",""0"",""5000""
","
","null","<p></p>","null","","","","","","","","","","","","","","","","","","","","","","","",""
"","do_trial","104","455416","0.0-61.0-0.0","""event"",""trial"",""time""
""fullscreenenter"",""0"",""5000""
","
","
","""event"",""trial"",""time""
""fullscreenenter"",""0"",""5000""
","
","526.2999999821186","","","","","","","","49","0,1,1","6","blank","272","null","0.05320876397504203","0.3411905742295603","0.6694651311266757","0","","","","","","","","",""
"","html-keyboard-response","105","456418","0.0-61.0-1.0","""event"",""trial"",""time""
""fullscreenenter"",""0"",""5000""
","
","
","""event"",""trial"",""time""
""fullscreenenter"",""0"",""5000""
","
","null","<p></p>","null","","","","","","","","","","","","","","","","","","","","","","","",""
"","do_trial","106","459416","0.0-62.0-0.0","""event"",""trial"",""time""
""fullscreenenter"",""0"",""5000""
","
","
","""event"",""trial"",""time""
""fullscreenenter"",""0"",""5000""
","
","443.80000001192093","","","","","","","","51","0,1,1","6","blank","273","null","0.08680330107108322","0.5475999317840737","0.6499629021121682","1","","","","","","","","",""
"","html-keyboard-response","107","460424","0.0-62.0-1.0","""event"",""trial"",""time""
""fullscreenenter"",""0"",""5000""
","
","
","""event"",""trial"",""time""
""fullscreenenter"",""0"",""5000""
","
","null","<p></p>","null","","","","","","","","","","","","","","","","","","","","","","","",""
"","do_trial","108","463754","0.0-63.0-0.0","""event"",""trial"",""time""
""fullscreenenter"",""0"",""5000""
","
","
","""event"",""trial"",""time""
""fullscreenenter"",""0"",""5000""
","
","771.2000000178814","","","","","","","","50","0,1,1","6","blank","274","null","0.1506814121005173","0.550140824543322","0.6437019234384239","1","","","","","","","","",""
"","html-keyboard-response","109","464759","0.0-63.0-1.0","""event"",""trial"",""time""
""fullscreenenter"",""0"",""5000""
","
","
","""event"",""trial"",""time""
""fullscreenenter"",""0"",""5000""
","
","null","<p></p>","null","","","","","","","","","","","","","","","","","","","","","","","",""
"","do_trial","110","468017","0.0-64.0-0.0","""event"",""trial"",""time""
""fullscreenenter"",""0"",""5000""
","
","
","""event"",""trial"",""time""
""fullscreenenter"",""0"",""5000""
","
","725.7999999821186","","","","","","","","50","0,1,1","6","blank","275","null","0.07012548104733904","0.528586187972304","0.7251069333150647","1","","","","","","","","",""
"","html-keyboard-response","111","469021","0.0-64.0-1.0","""event"",""trial"",""time""
""fullscreenenter"",""0"",""5000""
","
","
","""event"",""trial"",""time""
""fullscreenenter"",""0"",""5000""
","
","null","<p></p>","null","","","","","","","","","","","","","","","","","","","","","","","",""
"","do_trial","112","472004","0.0-65.0-0.0","""event"",""trial"",""time""
""fullscreenenter"",""0"",""5000""
","
","
","""event"",""trial"",""time""
""fullscreenenter"",""0"",""5000""
","
","428.90000000596046","","","","","","","","51","0,1,1","6","blank","276","null","0.06557106046365473","0.513489522211812","0.5577899265048362","1","","","","","","","","",""
"","html-keyboard-response","113","473009","0.0-65.0-1.0","""event"",""trial"",""time""
""fullscreenenter"",""0"",""5000""
","
","
","""event"",""trial"",""time""
""fullscreenenter"",""0"",""5000""
","
","null","<p></p>","null","","","","","","","","","","","","","","","","","","","","","","","",""
"","do_trial","114","476184","0.0-66.0-0.0","""event"",""trial"",""time""
""fullscreenenter"",""0"",""5000""
","
","
","""event"",""trial"",""time""
""fullscreenenter"",""0"",""5000""
","
","617.5999999940395","","","","","","","","50","0,1,0","6","blank","277","null","0.1793624838865005","0.3312103022453185","0.5617391618915609","1","","","","","","","","",""
"","html-keyboard-response","115","477188","0.0-66.0-1.0","""event"",""trial"",""time""
""fullscreenenter"",""0"",""5000""
","
","
","""event"",""trial"",""time""
""fullscreenenter"",""0"",""5000""
","
","null","<p></p>","null","","","","","","","","","","","","","","","","","","","","","","","",""
"","do_recog","116","479394","0.0-67.0-0.0","""event"",""trial"",""time""
""fullscreenenter"",""0"",""5000""
","
","
","""event"",""trial"",""time""
""fullscreenenter"",""0"",""5000""
","
","693.9000000059605","","","","","","","","53","","","","278","probe-97","","","","","1","[object Object]","192","4","1","","","",""
"","html-keyboard-response","117","480401","0.0-67.0-1.0","""event"",""trial"",""time""
""fullscreenenter"",""0"",""5000""
","
","
","""event"",""trial"",""time""
""fullscreenenter"",""0"",""5000""
","
","null","<p></p>","null","","","","","","","","","","","","","","","","","","","","","","","",""
"","do_trial","118","483562","0.0-68.0-0.0","""event"",""trial"",""time""
""fullscreenenter"",""0"",""5000""
","
","
","""event"",""trial"",""time""
""fullscreenenter"",""0"",""5000""
","
","604.3000000119209","","","","","","","","49","0,0,1","6","blank","279","null","0.14846997838917322","0.3302364360276975","0.46003132027250315","0","","","","","","","","",""
"","html-keyboard-response","119","484566","0.0-68.0-1.0","""event"",""trial"",""time""
""fullscreenenter"",""0"",""5000""
","
","
","""event"",""trial"",""time""
""fullscreenenter"",""0"",""5000""
","
","null","<p></p>","null","","","","","","","","","","","","","","","","","","","","","","","",""
"","do_trial","120","487997","0.0-69.0-0.0","""event"",""trial"",""time""
""fullscreenenter"",""0"",""5000""
","
","
","""event"",""trial"",""time""
""fullscreenenter"",""0"",""5000""
","
","869.4000000059605","","","","","","","","50","0,0,1","6","blank","280","null","0.05216677580806957","0.3195247078514483","0.551078454936928","0","","","","","","","","",""
"","html-keyboard-response","121","489004","0.0-69.0-1.0","""event"",""trial"",""time""
""fullscreenenter"",""0"",""5000""
","
","
","""event"",""trial"",""time""
""fullscreenenter"",""0"",""5000""
","
","null","<p></p>","null","","","","","","","","","","","","","","","","","","","","","","","",""
"","do_trial","122","491561","0.0-70.0-0.0","""event"",""trial"",""time""
""fullscreenenter"",""0"",""5000""
","
","
","""event"",""trial"",""time""
""fullscreenenter"",""0"",""5000""
","
","0.30000001192092896","","","","","","","","51","0,0,0","6","blank","281","null","0.06568255937907848","0.31298836971541444","0.5311316278174814","0","","","","","","","","",""
"","html-keyboard-response","123","492567","0.0-70.0-1.0","""event"",""trial"",""time""
""fullscreenenter"",""0"",""5000""
","
","
","""event"",""trial"",""time""
""fullscreenenter"",""0"",""5000""
","
","null","<p></p>","null","","","","","","","","","","","","","","","","","","","","","","","",""
"","do_recog","124","494684","0.0-71.0-0.0","""event"",""trial"",""time""
""fullscreenenter"",""0"",""5000""
","
","
","""event"",""trial"",""time""
""fullscreenenter"",""0"",""5000""
","
","605.4000000059605","","","","","","","","53","","","","282","probe-38","","","","","1","[object Object]","34","0","1","","","",""
"","html-keyboard-response","125","495688","0.0-71.0-1.0","""event"",""trial"",""time""
""fullscreenenter"",""0"",""5000""
","
","
","""event"",""trial"",""time""
""fullscreenenter"",""0"",""5000""
","
","null","<p></p>","null","","","","","","","","","","","","","","","","","","","","","","","",""
"","do_trial","126","498654","0.0-72.0-0.0","""event"",""trial"",""time""
""fullscreenenter"",""0"",""5000""
","
","
","""event"",""trial"",""time""
""fullscreenenter"",""0"",""5000""
","
","404.80000001192093","","","","","","","","50","0,1,1","6","blank","283","null","0.21102809741736722","0.4022154354911658","0.5209806386666046","1","","","","","","","","",""
"","html-keyboard-response","127","499659","0.0-72.0-1.0","""event"",""trial"",""time""
""fullscreenenter"",""0"",""5000""
","
","
","""event"",""trial"",""time""
""fullscreenenter"",""0"",""5000""
","
","null","<p></p>","null","","","","","","","","","","","","","","","","","","","","","","","",""
"","do_recog","128","501786","0.0-73.0-0.0","""event"",""trial"",""time""
""fullscreenenter"",""0"",""5000""
","
","
","""event"",""trial"",""time""
""fullscreenenter"",""0"",""5000""
","
","612.5","","","","","","","","53","","","","284","probe-139","","","","","1","[object Object]","111","2","1","","","",""
"","html-keyboard-response","129","502793","0.0-73.0-1.0","""event"",""trial"",""time""
""fullscreenenter"",""0"",""5000""
","
","
","""event"",""trial"",""time""
""fullscreenenter"",""0"",""5000""
","
","null","<p></p>","null","","","","","","","","","","","","","","","","","","","","","","","",""
"","do_trial","130","505576","0.0-74.0-0.0","""event"",""trial"",""time""
""fullscreenenter"",""0"",""5000""
","
","
","""event"",""trial"",""time""
""fullscreenenter"",""0"",""5000""
","
","228.40000000596046","","","","","","","","49","0,0,0","6","blank","285","null","0.28201348050436437","0.4007002849804235","0.535234872336106","0","","","","","","","","",""
"","html-keyboard-response","131","506584","0.0-74.0-1.0","""event"",""trial"",""time""
""fullscreenenter"",""0"",""5000""
","
","
","""event"",""trial"",""time""
""fullscreenenter"",""0"",""5000""
","
","null","<p></p>","null","","","","","","","","","","","","","","","","","","","","","","","",""
"","do_trial","132","509571","0.0-75.0-0.0","""event"",""trial"",""time""
""fullscreenenter"",""0"",""5000""
","
","
","""event"",""trial"",""time""
""fullscreenenter"",""0"",""5000""
","
","430.2999999821186","","","","","","","","51","0,0,1","6","blank","286","null","0.11320197186484288","0.4029811021721835","0.6200978251507678","1","","","","","","","","",""
"","html-keyboard-response","133","510578","0.0-75.0-1.0","""event"",""trial"",""time""
""fullscreenenter"",""0"",""5000""
","
","
","""event"",""trial"",""time""
""fullscreenenter"",""0"",""5000""
","
","null","<p></p>","null","","","","","","","","","","","","","","","","","","","","","","","",""
"","do_recog","134","513432","0.0-76.0-0.0","""event"",""trial"",""time""
""fullscreenenter"",""0"",""5000""
","
","
","""event"",""trial"",""time""
""fullscreenenter"",""0"",""5000""
","
","1340.1000000238419","","","","","","","","53","","","","287","probe-09","","","","","1","[object Object]","116","2","1","","","",""
"","html-keyboard-response","135","514439","0.0-76.0-1.0","""event"",""trial"",""time""
""fullscreenenter"",""0"",""5000""
","
","
","""event"",""trial"",""time""
""fullscreenenter"",""0"",""5000""
","
","null","<p></p>","null","","","","","","","","","","","","","","","","","","","","","","","",""
"","do_trial","136","517561","0.0-77.0-0.0","""event"",""trial"",""time""
""fullscreenenter"",""0"",""5000""
","
","
","""event"",""trial"",""time""
""fullscreenenter"",""0"",""5000""
","
","567.5","","","","","","","","49","0,0,1","6","blank","288","null","0.17908811961102472","0.36032122879735745","0.6506824636877769","0","","","","","","","","",""
"","html-keyboard-response","137","518565","0.0-77.0-1.0","""event"",""trial"",""time""
""fullscreenenter"",""0"",""5000""
","
","
","""event"",""trial"",""time""
""fullscreenenter"",""0"",""5000""
","
","null","<p></p>","null","","","","","","","","","","","","","","","","","","","","","","","",""
"","do_trial","138","521515","0.0-78.0-0.0","""event"",""trial"",""time""
""fullscreenenter"",""0"",""5000""
","
","
","""event"",""trial"",""time""
""fullscreenenter"",""0"",""5000""
","
","395.19999998807907","","","","","","","","49","0,0,0","6","blank","289","null","0.19496985327855676","0.38368956818419164","0.5682951187948971","0","","","","","","","","",""
"","html-keyboard-response","139","522519","0.0-78.0-1.0","""event"",""trial"",""time""
""fullscreenenter"",""0"",""5000""
","
","
","""event"",""trial"",""time""
""fullscreenenter"",""0"",""5000""
","
","null","<p></p>","null","","","","","","","","","","","","","","","","","","","","","","","",""
"","do_trial","140","526430","0.0-79.0-0.0","""event"",""trial"",""time""
""fullscreenenter"",""0"",""5000""
","
","
","""event"",""trial"",""time""
""fullscreenenter"",""0"",""5000""
","
","1353.699999988079","","","","","","","","50","0,0,1","6","blank","290","null","0.13389030513805172","0.3173955374693337","0.6894308809336578","0","","","","","","","","",""
"","html-keyboard-response","141","527436","0.0-79.0-1.0","""event"",""trial"",""time""
""fullscreenenter"",""0"",""5000""
","
","
","""event"",""trial"",""time""
""fullscreenenter"",""0"",""5000""
","
","null","<p></p>","null","","","","","","","","","","","","","","","","","","","","","","","",""
"","do_trial","142","530408","0.0-80.0-0.0","""event"",""trial"",""time""
""fullscreenenter"",""0"",""5000""
","
","
","""event"",""trial"",""time""
""fullscreenenter"",""0"",""5000""
","
","413.80000001192093","","","","","","","","50","0,1,0","6","blank","291","null","0.12230879791927643","0.34672742731823186","0.7556622334412595","1","","","","","","","","",""
"","html-keyboard-response","143","531415","0.0-80.0-1.0","""event"",""trial"",""time""
""fullscreenenter"",""0"",""5000""
","
","
","""event"",""trial"",""time""
""fullscreenenter"",""0"",""5000""
","
","null","<p></p>","null","","","","","","","","","","","","","","","","","","","","","","","",""
"","do_recog","144","533925","0.0-81.0-0.0","""event"",""trial"",""time""
""fullscreenenter"",""0"",""5000""
","
","
","""event"",""trial"",""time""
""fullscreenenter"",""0"",""5000""
","
","997.8000000119209","","","","","","","","53","","","","292","probe-55","","","","","1","[object Object]","157","3","1","","","",""
"","html-keyboard-response","145","534930","0.0-81.0-1.0","""event"",""trial"",""time""
""fullscreenenter"",""0"",""5000""
","
","
","""event"",""trial"",""time""
""fullscreenenter"",""0"",""5000""
","
","null","<p></p>","null","","","","","","","","","","","","","","","","","","","","","","","",""
"","do_trial","146","538128","0.0-82.0-0.0","""event"",""trial"",""time""
""fullscreenenter"",""0"",""5000""
","
","
","""event"",""trial"",""time""
""fullscreenenter"",""0"",""5000""
","
","641.8999999761581","","","","","","","","50","0,1,1","6","blank","293","null","0.06293601459182482","0.36504276896273075","0.753530195637729","1","","","","","","","","",""
"","html-keyboard-response","147","539132","0.0-82.0-1.0","""event"",""trial"",""time""
""fullscreenenter"",""0"",""5000""
","
","
","""event"",""trial"",""time""
""fullscreenenter"",""0"",""5000""
","
","null","<p></p>","null","","","","","","","","","","","","","","","","","","","","","","","",""
"","do_trial","148","542348","0.0-83.0-0.0","""event"",""trial"",""time""
""fullscreenenter"",""0"",""5000""
","
","
","""event"",""trial"",""time""
""fullscreenenter"",""0"",""5000""
","
","659.1999999880791","","","","","","","","49","0,1,1","6","blank","294","null","0.13446803625232837","0.5364768167938577","0.725272388272802","0","","","","","","","","",""
"","html-keyboard-response","149","543352","0.0-83.0-1.0","""event"",""trial"",""time""
""fullscreenenter"",""0"",""5000""
","
","
","""event"",""trial"",""time""
""fullscreenenter"",""0"",""5000""
","
","null","<p></p>","null","","","","","","","","","","","","","","","","","","","","","","","",""
"","do_trial","150","546388","0.0-84.0-0.0","""event"",""trial"",""time""
""fullscreenenter"",""0"",""5000""
","
","
","""event"",""trial"",""time""
""fullscreenenter"",""0"",""5000""
","
","513.5","","","","","","","","50","0,0,1","6","blank","295","null","0.06438797263338478","0.577928557428678","0.6027842990575634","0","","","","","","","","",""
"","html-keyboard-response","151","547393","0.0-84.0-1.0","""event"",""trial"",""time""
""fullscreenenter"",""0"",""5000""
","
","
","""event"",""trial"",""time""
""fullscreenenter"",""0"",""5000""
","
","null","<p></p>","null","","","","","","","","","","","","","","","","","","","","","","","",""
"","do_trial","152","550295","0.0-85.0-0.0","""event"",""trial"",""time""
""fullscreenenter"",""0"",""5000""
","
","
","""event"",""trial"",""time""
""fullscreenenter"",""0"",""5000""
","
","344.60000002384186","","","","","","","","50","0,1,1","6","blank","296","null","0.1971298063808722","0.549210411270653","0.47229019846599685","1","","","","","","","","",""
"","html-keyboard-response","153","551303","0.0-85.0-1.0","""event"",""trial"",""time""
""fullscreenenter"",""0"",""5000""
","
","
","""event"",""trial"",""time""
""fullscreenenter"",""0"",""5000""
","
","null","<p></p>","null","","","","","","","","","","","","","","","","","","","","","","","",""
"","do_trial","154","554445","0.0-86.0-0.0","""event"",""trial"",""time""
""fullscreenenter"",""0"",""5000""
","
","
","""event"",""trial"",""time""
""fullscreenenter"",""0"",""5000""
","
","588.5999999940395","","","","","","","","49","0,0,1","6","blank","297","null","0.06473160982888386","0.5686278891686029","0.5874357422221669","0","","","","","","","","",""
"","html-keyboard-response","155","555450","0.0-86.0-1.0","""event"",""trial"",""time""
""fullscreenenter"",""0"",""5000""
","
","
","""event"",""trial"",""time""
""fullscreenenter"",""0"",""5000""
","
","null","<p></p>","null","","","","","","","","","","","","","","","","","","","","","","","",""
"","do_recog","156","557905","0.0-87.0-0.0","""event"",""trial"",""time""
""fullscreenenter"",""0"",""5000""
","
","
","""event"",""trial"",""time""
""fullscreenenter"",""0"",""5000""
","
","940.3000000119209","","","","","","","","53","","","","298","probe-183","","","","","1","[object Object]","33","0","1","","","",""
"","html-keyboard-response","157","558910","0.0-87.0-1.0","""event"",""trial"",""time""
""fullscreenenter"",""0"",""5000""
","
","
","""event"",""trial"",""time""
""fullscreenenter"",""0"",""5000""
","
","null","<p></p>","null","","","","","","","","","","","","","","","","","","","","","","","",""
"","do_trial","158","561806","0.0-88.0-0.0","""event"",""trial"",""time""
""fullscreenenter"",""0"",""5000""
","
","
","""event"",""trial"",""time""
""fullscreenenter"",""0"",""5000""
","
","340","","","","","","","","49","0,1,0","6","blank","299","null","0.1772395384942488","0.5442303535653976","0.30483386321081174","0","","","","","","","","",""
"","html-keyboard-response","159","562811","0.0-88.0-1.0","""event"",""trial"",""time""
""fullscreenenter"",""0"",""5000""
","
","
","""event"",""trial"",""time""
""fullscreenenter"",""0"",""5000""
","
","null","<p></p>","null","","","","","","","","","","","","","","","","","","","","","","","",""
"","do_recog","160","565519","0.0-89.0-0.0","""event"",""trial"",""time""
""fullscreenenter"",""0"",""5000""
","
","
","""event"",""trial"",""time""
""fullscreenenter"",""0"",""5000""
","
","1196.4000000059605","","","","","","","","53","","","","300","probe-90","","","","","1","[object Object]","78","1","1","","","",""
"","html-keyboard-response","161","566526","0.0-89.0-1.0","""event"",""trial"",""time""
""fullscreenenter"",""0"",""5000""
","
","
","""event"",""trial"",""time""
""fullscreenenter"",""0"",""5000""
","
","null","<p></p>","null","","","","","","","","","","","","","","","","","","","","","","","",""
"","do_trial","162","569770","0.0-90.0-0.0","""event"",""trial"",""time""
""fullscreenenter"",""0"",""5000""
","
","
","""event"",""trial"",""time""
""fullscreenenter"",""0"",""5000""
","
","689.1999999880791","","","","","","","","49","1,1,0","6","blank","301","null","0.10093444955506346","0.5078216809108019","0.2846124962438308","1","","","","","","","","",""
"","html-keyboard-response","163","570775","0.0-90.0-1.0","""event"",""trial"",""time""
""fullscreenenter"",""0"",""5000""
","
","
","""event"",""trial"",""time""
""fullscreenenter"",""0"",""5000""
","
","null","<p></p>","null","","","","","","","","","","","","","","","","","","","","","","","",""
"","do_recog","164","572911","0.0-91.0-0.0","""event"",""trial"",""time""
""fullscreenenter"",""0"",""5000""
","
","
","""event"",""trial"",""time""
""fullscreenenter"",""0"",""5000""
","
","623.9000000059605","","","","","","","","53","","","","302","probe-177","","","","","1","[object Object]","194","4","1","","","",""
"","html-keyboard-response","165","573916","0.0-91.0-1.0","""event"",""trial"",""time""
""fullscreenenter"",""0"",""5000""
","
","
","""event"",""trial"",""time""
""fullscreenenter"",""0"",""5000""
","
","null","<p></p>","null","","","","","","","","","","","","","","","","","","","","","","","",""
"","do_trial","166","577506","0.0-92.0-0.0","""event"",""trial"",""time""
""fullscreenenter"",""0"",""5000""
","
","
","""event"",""trial"",""time""
""fullscreenenter"",""0"",""5000""
","
","1033.2000000178814","","","","","","","","49","0,1,0","6","blank","303","null","0.07259989389979689","0.5448969905319077","0.24286150017773636","0","","","","","","","","",""
"","html-keyboard-response","167","578513","0.0-92.0-1.0","""event"",""trial"",""time""
""fullscreenenter"",""0"",""5000""
","
","
","""event"",""trial"",""time""
""fullscreenenter"",""0"",""5000""
","
","null","<p></p>","null","","","","","","","","","","","","","","","","","","","","","","","",""
"","do_recog","168","581418","0.0-93.0-0.0","""event"",""trial"",""time""
""fullscreenenter"",""0"",""5000""
","
","
","""event"",""trial"",""time""
""fullscreenenter"",""0"",""5000""
","
","1393.199999988079","","","","","","","","53","","","","304","probe-126","","","","","1","[object Object]","156","3","1","","","",""
"","html-keyboard-response","169","582425","0.0-93.0-1.0","""event"",""trial"",""time""
""fullscreenenter"",""0"",""5000""
","
","
","""event"",""trial"",""time""
""fullscreenenter"",""0"",""5000""
","
","null","<p></p>","null","","","","","","","","","","","","","","","","","","","","","","","",""
"","do_trial","170","585775","0.0-94.0-0.0","""event"",""trial"",""time""
""fullscreenenter"",""0"",""5000""
","
","
","""event"",""trial"",""time""
""fullscreenenter"",""0"",""5000""
","
","789.3000000119209","","","","","","","","49","0,0,1","6","blank","305","null","0.06379261224049114","0.5153431149095856","0.5796258913727493","0","","","","","","","","",""
"","html-keyboard-response","171","586779","0.0-94.0-1.0","""event"",""trial"",""time""
""fullscreenenter"",""0"",""5000""
","
","
","""event"",""trial"",""time""
""fullscreenenter"",""0"",""5000""
","
","null","<p></p>","null","","","","","","","","","","","","","","","","","","","","","","","",""
"","do_recog","172","590607","0.0-95.0-0.0","""event"",""trial"",""time""
""fullscreenenter"",""0"",""5000""
","
","
","""event"",""trial"",""time""
""fullscreenenter"",""0"",""5000""
","
","2318.7000000178814","","","","","","","","53","","","","306","probe-20","","","","","1","[object Object]","119","2","1","","","",""
"","html-keyboard-response","173","591613","0.0-95.0-1.0","""event"",""trial"",""time""
""fullscreenenter"",""0"",""5000""
","
","
","""event"",""trial"",""time""
""fullscreenenter"",""0"",""5000""
","
","null","<p></p>","null","","","","","","","","","","","","","","","","","","","","","","","",""
"","do_trial","174","595865","0.0-96.0-0.0","""event"",""trial"",""time""
""fullscreenenter"",""0"",""5000""
","
","
","""event"",""trial"",""time""
""fullscreenenter"",""0"",""5000""
","
","1695.5","","","","","","","","49","0,0,0","6","blank","307","null","0.08986253974724534","0.5240667369653527","0.5449850287141174","0","","","","","","","","",""
"","html-keyboard-response","175","596867","0.0-96.0-1.0","""event"",""trial"",""time""
""fullscreenenter"",""0"",""5000""
","
","
","""event"",""trial"",""time""
""fullscreenenter"",""0"",""5000""
","
","null","<p></p>","null","","","","","","","","","","","","","","","","","","","","","","","",""
"","do_trial","176","600078","0.0-97.0-0.0","""event"",""trial"",""time""
""fullscreenenter"",""0"",""5000""
","
","
","""event"",""trial"",""time""
""fullscreenenter"",""0"",""5000""
","
","673.0999999940395","","","","","","","","49","0,0,0","6","blank","308","null","0.13128073952888347","0.46762746070701455","0.5035226628220227","0","","","","","","","","",""
"","html-keyboard-response","177","601083","0.0-97.0-1.0","""event"",""trial"",""time""
""fullscreenenter"",""0"",""5000""
","
","
","""event"",""trial"",""time""
""fullscreenenter"",""0"",""5000""
","
","null","<p></p>","null","","","","","","","","","","","","","","","","","","","","","","","",""
"","break","178","691328","0.0-98.0-0.0","""event"",""trial"",""time""
""fullscreenenter"",""0"",""5000""
","
","
","""event"",""trial"",""time""
""fullscreenenter"",""0"",""5000""
","
","90243.69999998808","<div class='center'><p>Time to take a quick break! You have 2 minutes to rest, but you can move on sooner if you'd like.</p><p> Press the <b>space bar</b> to continue.</p></div>","32","","","","","","","","","","","","","","","","","","","","","","","",""
"","do_trial","179","694454","0.0-98.0-1.0","""event"",""trial"",""time""
""fullscreenenter"",""0"",""5000""
","
","
","""event"",""trial"",""time""
""fullscreenenter"",""0"",""5000""
","
","571.7000000178814","","","","","","","","49","1,0,1","6","blank","309","null","0.15423763759682246","0.5450522796547032","0.39475006893876435","1","","","","","","","","",""
"","html-keyboard-response","180","695458","0.0-98.0-2.0","""event"",""trial"",""time""
""fullscreenenter"",""0"",""5000""
","
","
","""event"",""trial"",""time""
""fullscreenenter"",""0"",""5000""
","
","null","<p></p>","null","","","","","","","","","","","","","","","","","","","","","","","",""
"","do_trial","181","698273","0.0-99.0-0.0","""event"",""trial"",""time""
""fullscreenenter"",""0"",""5000""
","
","
","""event"",""trial"",""time""
""fullscreenenter"",""0"",""5000""
","
","262.7999999821186","","","","","","","","50","0,1,1","6","blank","310","null","0.16749494757506156","0.4875404818868876","0.2653920061631346","1","","","","","","","","",""
"","html-keyboard-response","182","699281","0.0-99.0-1.0","""event"",""trial"",""time""
""fullscreenenter"",""0"",""5000""
","
","
","""event"",""trial"",""time""
""fullscreenenter"",""0"",""5000""
","
","null","<p></p>","null","","","","","","","","","","","","","","","","","","","","","","","",""
"","do_trial","183","702235","0.0-100.0-0.0","""event"",""trial"",""time""
""fullscreenenter"",""0"",""5000""
","
","
","""event"",""trial"",""time""
""fullscreenenter"",""0"",""5000""
","
","397.19999998807907","","","","","","","","49","0,0,0","6","blank","311","null","0.13985498413023592","0.6387310787948992","0.3397335873763111","0","","","","","","","","",""
"","html-keyboard-response","184","703242","0.0-100.0-1.0","""event"",""trial"",""time""
""fullscreenenter"",""0"",""5000""
","
","
","""event"",""trial"",""time""
""fullscreenenter"",""0"",""5000""
","
","null","<p></p>","null","","","","","","","","","","","","","","","","","","","","","","","",""
"","do_recog","185","706134","0.0-101.0-0.0","""event"",""trial"",""time""
""fullscreenenter"",""0"",""5000""
","
","
","""event"",""trial"",""time""
""fullscreenenter"",""0"",""5000""
","
","1380.199999988079","","","","","","","","53","","","","312","probe-28","","","","","1","[object Object]","151","3","1","","","",""
"","html-keyboard-response","186","707138","0.0-101.0-1.0","""event"",""trial"",""time""
""fullscreenenter"",""0"",""5000""
","
","
","""event"",""trial"",""time""
""fullscreenenter"",""0"",""5000""
","
","null","<p></p>","null","","","","","","","","","","","","","","","","","","","","","","","",""
"","do_trial","187","711019","0.0-102.0-0.0","""event"",""trial"",""time""
""fullscreenenter"",""0"",""5000""
","
","
","""event"",""trial"",""time""
""fullscreenenter"",""0"",""5000""
","
","1324.9000000059605","","","","","","","","49","0,1,0","6","blank","313","null","0.09227003949965161","0.5214060548528969","0.30192792508020516","0","","","","","","","","",""
"","html-keyboard-response","188","712026","0.0-102.0-1.0","""event"",""trial"",""time""
""fullscreenenter"",""0"",""5000""
","
","
","""event"",""trial"",""time""
""fullscreenenter"",""0"",""5000""
","
","null","<p></p>","null","","","","","","","","","","","","","","","","","","","","","","","",""
"","do_trial","189","716280","0.0-103.0-0.0","""event"",""trial"",""time""
""fullscreenenter"",""0"",""5000""
","
","
","""event"",""trial"",""time""
""fullscreenenter"",""0"",""5000""
","
","1696.699999988079","","","","","","","","50","0,1,1","6","blank","314","null","0.12275468474192576","0.6081667936571912","0.3510923821517322","1","","","","","","","","",""
"","html-keyboard-response","190","717285","0.0-103.0-1.0","""event"",""trial"",""time""
""fullscreenenter"",""0"",""5000""
","
","
","""event"",""trial"",""time""
""fullscreenenter"",""0"",""5000""
","
","null","<p></p>","null","","","","","","","","","","","","","","","","","","","","","","","",""
"","do_trial","191","720182","0.0-104.0-0.0","""event"",""trial"",""time""
""fullscreenenter"",""0"",""5000""
","
","
","""event"",""trial"",""time""
""fullscreenenter"",""0"",""5000""
","
","359.09999999403954","","","","","","","","50","0,1,0","6","blank","315","null","0.11900699293266659","0.5794433146250666","0.26531526306180764","1","","","","","","","","",""
"","html-keyboard-response","192","721186","0.0-104.0-1.0","""event"",""trial"",""time""
""fullscreenenter"",""0"",""5000""
","
","
","""event"",""trial"",""time""
""fullscreenenter"",""0"",""5000""
","
","null","<p></p>","null","","","","","","","","","","","","","","","","","","","","","","","",""
"","do_recog","193","724152","0.0-105.0-0.0","""event"",""trial"",""time""
""fullscreenenter"",""0"",""5000""
","
","
","""event"",""trial"",""time""
""fullscreenenter"",""0"",""5000""
","
","1452.4000000059605","","","","","","","","53","","","","316","probe-156","","","","","1","[object Object]","197","4","1","","","",""
"","html-keyboard-response","194","725156","0.0-105.0-1.0","""event"",""trial"",""time""
""fullscreenenter"",""0"",""5000""
","
","
","""event"",""trial"",""time""
""fullscreenenter"",""0"",""5000""
","
","null","<p></p>","null","","","","","","","","","","","","","","","","","","","","","","","",""
"","do_trial","195","728691","0.0-106.0-0.0","""event"",""trial"",""time""
""fullscreenenter"",""0"",""5000""
","
","
","""event"",""trial"",""time""
""fullscreenenter"",""0"",""5000""
","
","979","","","","","","","","49","0,0,0","6","blank","317","null","0.0811280736179971","0.542603371806341","0.24861935373426933","0","","","","","","","","",""
"","html-keyboard-response","196","729696","0.0-106.0-1.0","""event"",""trial"",""time""
""fullscreenenter"",""0"",""5000""
","
","
","""event"",""trial"",""time""
""fullscreenenter"",""0"",""5000""
","
","null","<p></p>","null","","","","","","","","","","","","","","","","","","","","","","","",""
"","do_trial","197","732541","0.0-107.0-0.0","""event"",""trial"",""time""
""fullscreenenter"",""0"",""5000""
","
","
","""event"",""trial"",""time""
""fullscreenenter"",""0"",""5000""
","
","292.09999999403954","","","","","","","","50","0,0,0","6","blank","318","null","0.051249432670789304","0.5908224032582213","0.3067307119703459","0","","","","","","","","",""
"","html-keyboard-response","198","733549","0.0-107.0-1.0","""event"",""trial"",""time""
""fullscreenenter"",""0"",""5000""
","
","
","""event"",""trial"",""time""
""fullscreenenter"",""0"",""5000""
","
","null","<p></p>","null","","","","","","","","","","","","","","","","","","","","","","","",""
"","do_trial","199","736104","0.0-108.0-0.0","""event"",""trial"",""time""
""fullscreenenter"",""0"",""5000""
","
","
","""event"",""trial"",""time""
""fullscreenenter"",""0"",""5000""
","
","0.19999998807907104","","","","","","","","50","0,0,1","6","blank","319","null","0.10071558736907887","0.6878846853573971","0.42531355302488977","0","","","","","","","","",""
"","html-keyboard-response","200","737109","0.0-108.0-1.0","""event"",""trial"",""time""
""fullscreenenter"",""0"",""5000""
","
","
","""event"",""trial"",""time""
""fullscreenenter"",""0"",""5000""
","
","null","<p></p>","null","","","","","","","","","","","","","","","","","","","","","","","",""
"","do_trial","201","739769","0.0-109.0-0.0","""event"",""trial"",""time""
""fullscreenenter"",""0"",""5000""
","
","
","""event"",""trial"",""time""
""fullscreenenter"",""0"",""5000""
","
","102.80000001192093","","","","","","","","49","1,0,1","6","blank","320","null","0.1604527687174228","0.6270645212519225","0.3444637536123066","1","","","","","","","","",""
"","html-keyboard-response","202","740772","0.0-109.0-1.0","""event"",""trial"",""time""
""fullscreenenter"",""0"",""5000""
","
","
","""event"",""trial"",""time""
""fullscreenenter"",""0"",""5000""
","
","null","<p></p>","null","","","","","","","","","","","","","","","","","","","","","","","",""
"","do_trial","203","743546","0.0-110.0-0.0","""event"",""trial"",""time""
""fullscreenenter"",""0"",""5000""
","
","
","""event"",""trial"",""time""
""fullscreenenter"",""0"",""5000""
","
","245.40000000596046","","","","","","","","49","0,1,0","6","blank","321","null","0.24126809741068156","0.7171196558481744","0.2940614512187344","0","","","","","","","","",""
"","html-keyboard-response","204","744550","0.0-110.0-1.0","""event"",""trial"",""time""
""fullscreenenter"",""0"",""5000""
","
","
","""event"",""trial"",""time""
""fullscreenenter"",""0"",""5000""
","
","null","<p></p>","null","","","","","","","","","","","","","","","","","","","","","","","",""
"","do_recog","205","746913","0.0-111.0-0.0","""event"",""trial"",""time""
""fullscreenenter"",""0"",""5000""
","
","
","""event"",""trial"",""time""
""fullscreenenter"",""0"",""5000""
","
","849.0999999940395","","","","","","","","53","","","","322","probe-108","","","","","1","[object Object]","110","2","1","","","",""
"","html-keyboard-response","206","747917","0.0-111.0-1.0","""event"",""trial"",""time""
""fullscreenenter"",""0"",""5000""
","
","
","""event"",""trial"",""time""
""fullscreenenter"",""0"",""5000""
","
","null","<p></p>","null","","","","","","","","","","","","","","","","","","","","","","","",""
"","do_trial","207","751011","0.0-112.0-0.0","""event"",""trial"",""time""
""fullscreenenter"",""0"",""5000""
","
","
","""event"",""trial"",""time""
""fullscreenenter"",""0"",""5000""
","
","541.2000000178814","","","","","","","","49","0,1,1","6","blank","323","null","0.09418321370076685","0.7511015079211402","0.47664888935418376","0","","","","","","","","",""
"","html-keyboard-response","208","752016","0.0-112.0-1.0","""event"",""trial"",""time""
""fullscreenenter"",""0"",""5000""
","
","
","""event"",""trial"",""time""
""fullscreenenter"",""0"",""5000""
","
","null","<p></p>","null","","","","","","","","","","","","","","","","","","","","","","","",""
"","do_recog","209","754479","0.0-113.0-0.0","""event"",""trial"",""time""
""fullscreenenter"",""0"",""5000""
","
","
","""event"",""trial"",""time""
""fullscreenenter"",""0"",""5000""
","
","949","","","","","","","","53","","","","324","probe-66","","","","","1","[object Object]","31","0","1","","","",""
"","html-keyboard-response","210","755484","0.0-113.0-1.0","""event"",""trial"",""time""
""fullscreenenter"",""0"",""5000""
","
","
","""event"",""trial"",""time""
""fullscreenenter"",""0"",""5000""
","
","null","<p></p>","null","","","","","","","","","","","","","","","","","","","","","","","",""
"","do_trial","211","759452","0.0-114.0-0.0","""event"",""trial"",""time""
""fullscreenenter"",""0"",""5000""
","
","
","""event"",""trial"",""time""
""fullscreenenter"",""0"",""5000""
","
","1411.3999999761581","","","","","","","","49","0,0,1","6","blank","325","null","0.2851505955989981","0.7114197491083861","0.39100755099617984","0","","","","","","","","",""
"","html-keyboard-response","212","760456","0.0-114.0-1.0","""event"",""trial"",""time""
""fullscreenenter"",""0"",""5000""
","
","
","""event"",""trial"",""time""
""fullscreenenter"",""0"",""5000""
","
","null","<p></p>","null","","","","","","","","","","","","","","","","","","","","","","","",""
"","do_trial","213","763600","0.0-115.0-0.0","""event"",""trial"",""time""
""fullscreenenter"",""0"",""5000""
","
","
","""event"",""trial"",""time""
""fullscreenenter"",""0"",""5000""
","
","588.1999999880791","","","","","","","","49","1,0,0","6","blank","326","null","0.1782231748392564","0.7334613909001884","0.2818131423618064","1","","","","","","","","",""
"","html-keyboard-response","214","764605","0.0-115.0-1.0","""event"",""trial"",""time""
""fullscreenenter"",""0"",""5000""
","
","
","""event"",""trial"",""time""
""fullscreenenter"",""0"",""5000""
","
","null","<p></p>","null","","","","","","","","","","","","","","","","","","","","","","","",""
"","do_trial","215","767758","0.0-116.0-0.0","""event"",""trial"",""time""
""fullscreenenter"",""0"",""5000""
","
","
","""event"",""trial"",""time""
""fullscreenenter"",""0"",""5000""
","
","600.4000000059605","","","","","","","","49","0,0,0","6","blank","327","null","0.1610329383056434","0.6654964000007041","0.31709874973766083","0","","","","","","","","",""
"","html-keyboard-response","216","768763","0.0-116.0-1.0","""event"",""trial"",""time""
""fullscreenenter"",""0"",""5000""
","
","
","""event"",""trial"",""time""
""fullscreenenter"",""0"",""5000""
","
","null","<p></p>","null","","","","","","","","","","","","","","","","","","","","","","","",""
"","do_recog","217","771160","0.0-117.0-0.0","""event"",""trial"",""time""
""fullscreenenter"",""0"",""5000""
","
","
","""event"",""trial"",""time""
""fullscreenenter"",""0"",""5000""
","
","884.3000000119209","","","","","","","","53","","","","328","probe-27","","","","","1","[object Object]","154","3","1","","","",""
"","html-keyboard-response","218","772164","0.0-117.0-1.0","""event"",""trial"",""time""
""fullscreenenter"",""0"",""5000""
","
","
","""event"",""trial"",""time""
""fullscreenenter"",""0"",""5000""
","
","null","<p></p>","null","","","","","","","","","","","","","","","","","","","","","","","",""
"","do_trial","219","775301","0.0-118.0-0.0","""event"",""trial"",""time""
""fullscreenenter"",""0"",""5000""
","
","
","""event"",""trial"",""time""
""fullscreenenter"",""0"",""5000""
","
","581.3999999761581","","","","","","","","49","0,1,1","6","blank","329","null","0.15733473666393752","0.5741095330664029","0.2433098568652026","0","","","","","","","","",""
"","html-keyboard-response","220","776307","0.0-118.0-1.0","""event"",""trial"",""time""
""fullscreenenter"",""0"",""5000""
","
","
","""event"",""trial"",""time""
""fullscreenenter"",""0"",""5000""
","
","null","<p></p>","null","","","","","","","","","","","","","","","","","","","","","","","",""
"","do_trial","221","779964","0.0-119.0-0.0","""event"",""trial"",""time""
""fullscreenenter"",""0"",""5000""
","
","
","""event"",""trial"",""time""
""fullscreenenter"",""0"",""5000""
","
","1103.0999999940395","","","","","","","","50","0,0,1","6","blank","330","null","0.19513270912790184","0.4923816090087607","0.3031463850370479","0","","","","","","","","",""
"","html-keyboard-response","222","780971","0.0-119.0-1.0","""event"",""trial"",""time""
""fullscreenenter"",""0"",""5000""
","
","
","""event"",""trial"",""time""
""fullscreenenter"",""0"",""5000""
","
","null","<p></p>","null","","","","","","","","","","","","","","","","","","","","","","","",""
"","do_recog","223","783560","0.0-120.0-0.0","""event"",""trial"",""time""
""fullscreenenter"",""0"",""5000""
","
","
","""event"",""trial"",""time""
""fullscreenenter"",""0"",""5000""
","
","1077.9000000059605","","","","","","","","53","","","","331","probe-133","","","","","1","[object Object]","70","1","1","","","",""
"","html-keyboard-response","224","784567","0.0-120.0-1.0","""event"",""trial"",""time""
""fullscreenenter"",""0"",""5000""
","
","
","""event"",""trial"",""time""
""fullscreenenter"",""0"",""5000""
","
","null","<p></p>","null","","","","","","","","","","","","","","","","","","","","","","","",""
"","do_trial","225","787605","0.0-121.0-0.0","""event"",""trial"",""time""
""fullscreenenter"",""0"",""5000""
","
","
","""event"",""trial"",""time""
""fullscreenenter"",""0"",""5000""
","
","483.5","","","","","","","","49","0,1,0","6","blank","332","null","0.18193700032958035","0.4684407051094951","0.31664175277283557","0","","","","","","","","",""
"","html-keyboard-response","226","788609","0.0-121.0-1.0","""event"",""trial"",""time""
""fullscreenenter"",""0"",""5000""
","
","
","""event"",""trial"",""time""
""fullscreenenter"",""0"",""5000""
","
","null","<p></p>","null","","","","","","","","","","","","","","","","","","","","","","","",""
"","do_trial","227","792452","0.0-122.0-0.0","""event"",""trial"",""time""
""fullscreenenter"",""0"",""5000""
","
","
","""event"",""trial"",""time""
""fullscreenenter"",""0"",""5000""
","
","1290.5","","","","","","","","50","0,0,0","6","blank","333","null","0.1497308964569603","0.527380318067289","0.1938907970931775","0","","","","","","","","",""
"","html-keyboard-response","228","793457","0.0-122.0-1.0","""event"",""trial"",""time""
""fullscreenenter"",""0"",""5000""
","
","
","""event"",""trial"",""time""
""fullscreenenter"",""0"",""5000""
","
","null","<p></p>","null","","","","","","","","","","","","","","","","","","","","","","","",""
"","do_trial","229","796929","0.0-123.0-0.0","""event"",""trial"",""time""
""fullscreenenter"",""0"",""5000""
","
","
","""event"",""trial"",""time""
""fullscreenenter"",""0"",""5000""
","
","916.3999999761581","","","","","","","","49","0,1,1","6","blank","334","null","0.11079822723100126","0.5754191182481329","0.22886529615431206","0","","","","","","","","",""
"","html-keyboard-response","230","797932","0.0-123.0-1.0","""event"",""trial"",""time""
""fullscreenenter"",""0"",""5000""
","
","
","""event"",""trial"",""time""
""fullscreenenter"",""0"",""5000""
","
","null","<p></p>","null","","","","","","","","","","","","","","","","","","","","","","","",""
"","do_trial","231","803146","0.0-124.0-0.0","""event"",""trial"",""time""
""fullscreenenter"",""0"",""5000""
","
","
","""event"",""trial"",""time""
""fullscreenenter"",""0"",""5000""
","
","2663.800000011921","","","","","","","","50","0,1,0","6","blank","335","null","0.14337812335043237","0.6062423164846096","0.2926285620318522","1","","","","","","","","",""
"","html-keyboard-response","232","804149","0.0-124.0-1.0","""event"",""trial"",""time""
""fullscreenenter"",""0"",""5000""
","
","
","""event"",""trial"",""time""
""fullscreenenter"",""0"",""5000""
","
","null","<p></p>","null","","","","","","","","","","","","","","","","","","","","","","","",""
"","do_recog","233","806979","0.0-125.0-0.0","""event"",""trial"",""time""
""fullscreenenter"",""0"",""5000""
","
","
","""event"",""trial"",""time""
""fullscreenenter"",""0"",""5000""
","
","1315.5","","","","","","","","53","","","","336","probe-235","","","","","0","[object Object]","null","null","0","","","",""
"","html-keyboard-response","234","807981","0.0-125.0-1.0","""event"",""trial"",""time""
""fullscreenenter"",""0"",""5000""
","
","
","""event"",""trial"",""time""
""fullscreenenter"",""0"",""5000""
","
","null","<p></p>","null","","","","","","","","","","","","","","","","","","","","","","","",""
"","do_trial","235","814043","0.0-126.0-0.0","""event"",""trial"",""time""
""fullscreenenter"",""0"",""5000""
","
","
","""event"",""trial"",""time""
""fullscreenenter"",""0"",""5000""
","
","null","","","","","","","","null","0,1,0","6","blank","337","null","0.08147682555788341","0.4740213408250355","0.19484533912626303","","","","","","","","","",""
"","html-keyboard-response","236","815051","0.0-126.0-1.0","""event"",""trial"",""time""
""fullscreenenter"",""0"",""5000""
","
","
","""event"",""trial"",""time""
""fullscreenenter"",""0"",""5000""
","
","null","<p></p>","null","","","","","","","","","","","","","","","","","","","","","","","",""
"","do_trial","237","818249","0.0-127.0-0.0","""event"",""trial"",""time""
""fullscreenenter"",""0"",""5000""
","
","
","""event"",""trial"",""time""
""fullscreenenter"",""0"",""5000""
","
","646.5999999940395","","","","","","","","49","0,0,1","6","blank","338","null","0.13699610682568392","0.4625361536958929","0.35450024134681757","0","","","","","","","","",""
"","html-keyboard-response","238","819254","0.0-127.0-1.0","""event"",""trial"",""time""
""fullscreenenter"",""0"",""5000""
","
","
","""event"",""trial"",""time""
""fullscreenenter"",""0"",""5000""
","
","null","<p></p>","null","","","","","","","","","","","","","","","","","","","","","","","",""
"","do_trial","239","822521","0.0-128.0-0.0","""event"",""trial"",""time""
""fullscreenenter"",""0"",""5000""
","
","
","""event"",""trial"",""time""
""fullscreenenter"",""0"",""5000""
","
","710.4000000059605","","","","","","","","50","0,1,0","6","blank","339","null","0.06559381188088277","0.4699040298810365","0.31445790894588427","1","","","","","","","","",""
"","html-keyboard-response","240","823526","0.0-128.0-1.0","""event"",""trial"",""time""
""fullscreenenter"",""0"",""5000""
","
","
","""event"",""trial"",""time""
""fullscreenenter"",""0"",""5000""
","
","null","<p></p>","null","","","","","","","","","","","","","","","","","","","","","","","",""
"","do_trial","241","829035","0.0-129.0-0.0","""event"",""trial"",""time""
""fullscreenenter"",""0"",""5000""
","
","
","""event"",""trial"",""time""
""fullscreenenter"",""0"",""5000""
","
","2952.2000000178814","","","","","","","","49","0,1,0","6","blank","340","null","0.2544408546012825","0.4625239608428536","0.2639825624680636","0","","","","","","","","",""
"","html-keyboard-response","242","830039","0.0-129.0-1.0","""event"",""trial"",""time""
""fullscreenenter"",""0"",""5000""
","
","
","""event"",""trial"",""time""
""fullscreenenter"",""0"",""5000""
","
","null","<p></p>","null","","","","","","","","","","","","","","","","","","","","","","","",""
"","do_trial","243","836099","0.0-130.0-0.0","""event"",""trial"",""time""
""fullscreenenter"",""0"",""5000""
","
","
","""event"",""trial"",""time""
""fullscreenenter"",""0"",""5000""
","
","null","","","","","","","","null","0,1,0","6","blank","341","null","0.1539656930795472","0.35933388432234203","0.28599794275461005","","","","","","","","","",""
"","html-keyboard-response","244","837104","0.0-130.0-1.0","""event"",""trial"",""time""
""fullscreenenter"",""0"",""5000""
","
","
","""event"",""trial"",""time""
""fullscreenenter"",""0"",""5000""
","
","null","<p></p>","null","","","","","","","","","","","","","","","","","","","","","","","",""
"","do_trial","245","840023","0.0-131.0-0.0","""event"",""trial"",""time""
""fullscreenenter"",""0"",""5000""
","
","
","""event"",""trial"",""time""
""fullscreenenter"",""0"",""5000""
","
","361","","","","","","","","50","1,1,0","6","blank","342","null","0.24627592136927878","0.569550098414368","0.31623492841340745","1","","","","","","","","",""
"","html-keyboard-response","246","841030","0.0-131.0-1.0","""event"",""trial"",""time""
""fullscreenenter"",""0"",""5000""
","
","
","""event"",""trial"",""time""
""fullscreenenter"",""0"",""5000""
","
","null","<p></p>","null","","","","","","","","","","","","","","","","","","","","","","","",""
"","do_recog","247","844179","0.0-132.0-0.0","""event"",""trial"",""time""
""fullscreenenter"",""0"",""5000""
","
","
","""event"",""trial"",""time""
""fullscreenenter"",""0"",""5000""
","
","1636.6000000238419","","","","","","","","53","","","","343","probe-249","","","","","0","[object Object]","null","null","0","","","",""
"","html-keyboard-response","248","845184","0.0-132.0-1.0","""event"",""trial"",""time""
""fullscreenenter"",""0"",""5000""
","
","
","""event"",""trial"",""time""
""fullscreenenter"",""0"",""5000""
","
","null","<p></p>","null","","","","","","","","","","","","","","","","","","","","","","","",""
"","do_trial","249","848099","0.0-133.0-0.0","""event"",""trial"",""time""
""fullscreenenter"",""0"",""5000""
","
","
","""event"",""trial"",""time""
""fullscreenenter"",""0"",""5000""
","
","359.59999999403954","","","","","","","","50","0,1,0","6","blank","344","null","0.29006834746979443","0.6664354862886377","0.27350980602723424","1","","","","","","","","",""
"","html-keyboard-response","250","849107","0.0-133.0-1.0","""event"",""trial"",""time""
""fullscreenenter"",""0"",""5000""
","
","
","""event"",""trial"",""time""
""fullscreenenter"",""0"",""5000""
","
","null","<p></p>","null","","","","","","","","","","","","","","","","","","","","","","","",""
"","do_trial","251","851906","0.0-134.0-0.0","""event"",""trial"",""time""
""fullscreenenter"",""0"",""5000""
","
","
","""event"",""trial"",""time""
""fullscreenenter"",""0"",""5000""
","
","243.60000002384186","","","","","","","","49","0,1,1","6","blank","345","null","0.23641708256308447","0.7368874623569442","0.4314173202446178","0","","","","","","","","",""
"","html-keyboard-response","252","852911","0.0-134.0-1.0","""event"",""trial"",""time""
""fullscreenenter"",""0"",""5000""
","
","
","""event"",""trial"",""time""
""fullscreenenter"",""0"",""5000""
","
","null","<p></p>","null","","","","","","","","","","","","","","","","","","","","","","","",""
"","do_trial","253","856661","0.0-135.0-0.0","""event"",""trial"",""time""
""fullscreenenter"",""0"",""5000""
","
","
","""event"",""trial"",""time""
""fullscreenenter"",""0"",""5000""
","
","1194.0999999940395","","","","","","","","50","0,0,0","6","blank","346","null","0.1827314205037704","0.5350443353054577","0.48922631812680595","0","","","","","","","","",""
"","html-keyboard-response","254","857665","0.0-135.0-1.0","""event"",""trial"",""time""
""fullscreenenter"",""0"",""5000""
","
","
","""event"",""trial"",""time""
""fullscreenenter"",""0"",""5000""
","
","null","<p></p>","null","","","","","","","","","","","","","","","","","","","","","","","",""
"","do_trial","255","861653","0.0-136.0-0.0","""event"",""trial"",""time""
""fullscreenenter"",""0"",""5000""
","
","
","""event"",""trial"",""time""
""fullscreenenter"",""0"",""5000""
","
","1451.0999999940395","","","","","","","","49","1,0,0","6","blank","347","null","0.29204973899425185","0.5171470291653095","0.30355805429322696","1","","","","","","","","",""
"","html-keyboard-response","256","862657","0.0-136.0-1.0","""event"",""trial"",""time""
""fullscreenenter"",""0"",""5000""
","
","
","""event"",""trial"",""time""
""fullscreenenter"",""0"",""5000""
","
","null","<p></p>","null","","","","","","","","","","","","","","","","","","","","","","","",""
"","do_trial","257","865448","0.0-137.0-0.0","""event"",""trial"",""time""
""fullscreenenter"",""0"",""5000""
","
","
","""event"",""trial"",""time""
""fullscreenenter"",""0"",""5000""
","
","232.09999999403954","","","","","","","","50","1,0,0","6","blank","348","null","0.4421664742681604","0.39309987052881057","0.2090668475097105","0","","","","","","","","",""
"","html-keyboard-response","258","866455","0.0-137.0-1.0","""event"",""trial"",""time""
""fullscreenenter"",""0"",""5000""
","
","
","""event"",""trial"",""time""
""fullscreenenter"",""0"",""5000""
","
","null","<p></p>","null","","","","","","","","","","","","","","","","","","","","","","","",""
"","break","259","869410","0.0-138.0-0.0","""event"",""trial"",""time""
""fullscreenenter"",""0"",""5000""
","
","
","""event"",""trial"",""time""
""fullscreenenter"",""0"",""5000""
","
","2953.199999988079","<div class='center'><p>Time to take a quick break! You have 2 minutes to rest, but you can move on sooner if you'd like.</p><p> Press the <b>space bar</b> to continue.</p></div>","32","","","","","","","","","","","","","","","","","","","","","","","",""
"","do_trial","260","872398","0.0-138.0-1.0","""event"",""trial"",""time""
""fullscreenenter"",""0"",""5000""
","
","
","""event"",""trial"",""time""
""fullscreenenter"",""0"",""5000""
","
","431.90000000596046","","","","","","","","49","1,1,0","6","blank","349","null","0.599736972923437","0.5040106802755289","0.058184726218401636","1","","","","","","","","",""
"","html-keyboard-response","261","873402","0.0-138.0-2.0","""event"",""trial"",""time""
""fullscreenenter"",""0"",""5000""
","
","
","""event"",""trial"",""time""
""fullscreenenter"",""0"",""5000""
","
","null","<p></p>","null","","","","","","","","","","","","","","","","","","","","","","","",""
"","do_trial","262","876554","0.0-139.0-0.0","""event"",""trial"",""time""
""fullscreenenter"",""0"",""5000""
","
","
","""event"",""trial"",""time""
""fullscreenenter"",""0"",""5000""
","
","591.9000000059605","","","","","","","","51","1,1,0","6","blank","350","null","0.5075753117472693","0.4307404849016717","0.05291752626534045","0","","","","","","","","",""
"","html-keyboard-response","263","877558","0.0-139.0-1.0","""event"",""trial"",""time""
""fullscreenenter"",""0"",""5000""
","
","
","""event"",""trial"",""time""
""fullscreenenter"",""0"",""5000""
","
","null","<p></p>","null","","","","","","","","","","","","","","","","","","","","","","","",""
"","do_recog","264","880379","0.0-140.0-0.0","""event"",""trial"",""time""
""fullscreenenter"",""0"",""5000""
","
","
","""event"",""trial"",""time""
""fullscreenenter"",""0"",""5000""
","
","1313.7999999821186","","","","","","","","53","","","","351","probe-233","","","","","0","[object Object]","null","null","0","","","",""
"","html-keyboard-response","265","881384","0.0-140.0-1.0","""event"",""trial"",""time""
""fullscreenenter"",""0"",""5000""
","
","
","""event"",""trial"",""time""
""fullscreenenter"",""0"",""5000""
","
","null","<p></p>","null","","","","","","","","","","","","","","","","","","","","","","","",""
"","do_trial","266","884356","0.0-141.0-0.0","""event"",""trial"",""time""
""fullscreenenter"",""0"",""5000""
","
","
","""event"",""trial"",""time""
""fullscreenenter"",""0"",""5000""
","
","419.80000001192093","","","","","","","","49","0,1,0","6","blank","352","null","0.4696383661848891","0.4389992001305707","0.09531176284112367","0","","","","","","","","",""
"","html-keyboard-response","267","885363","0.0-141.0-1.0","""event"",""trial"",""time""
""fullscreenenter"",""0"",""5000""
","
","
","""event"",""trial"",""time""
""fullscreenenter"",""0"",""5000""
","
","null","<p></p>","null","","","","","","","","","","","","","","","","","","","","","","","",""
"","do_recog","268","889316","0.0-142.0-0.0","""event"",""trial"",""time""
""fullscreenenter"",""0"",""5000""
","
","
","""event"",""trial"",""time""
""fullscreenenter"",""0"",""5000""
","
","2440.2999999821186","","","","","","","","55","","","","353","probe-203","","","","","1","[object Object]","36","0","0","","","",""
"","html-keyboard-response","269","890323","0.0-142.0-1.0","""event"",""trial"",""time""
""fullscreenenter"",""0"",""5000""
","
","
","""event"",""trial"",""time""
""fullscreenenter"",""0"",""5000""
","
","null","<p></p>","null","","","","","","","","","","","","","","","","","","","","","","","",""
"","do_trial","270","893682","0.0-143.0-0.0","""event"",""trial"",""time""
""fullscreenenter"",""0"",""5000""
","
","
","""event"",""trial"",""time""
""fullscreenenter"",""0"",""5000""
","
","795.4000000059605","","","","","","","","49","1,0,1","6","blank","354","null","0.5658139844414393","0.40064391736240657","0.05716185460243851","1","","","","","","","","",""
"","html-keyboard-response","271","894688","0.0-143.0-1.0","""event"",""trial"",""time""
""fullscreenenter"",""0"",""5000""
","
","
","""event"",""trial"",""time""
""fullscreenenter"",""0"",""5000""
","
","null","<p></p>","null","","","","","","","","","","","","","","","","","","","","","","","",""
"","do_recog","272","897957","0.0-144.0-0.0","""event"",""trial"",""time""
""fullscreenenter"",""0"",""5000""
","
","
","""event"",""trial"",""time""
""fullscreenenter"",""0"",""5000""
","
","1754.300000011921","","","","","","","","53","","","","355","probe-230","","","","","1","[object Object]","73","1","1","","","",""
"","html-keyboard-response","273","898962","0.0-144.0-1.0","""event"",""trial"",""time""
""fullscreenenter"",""0"",""5000""
","
","
","""event"",""trial"",""time""
""fullscreenenter"",""0"",""5000""
","
","null","<p></p>","null","","","","","","","","","","","","","","","","","","","","","","","",""
"","do_trial","274","902252","0.0-145.0-0.0","""event"",""trial"",""time""
""fullscreenenter"",""0"",""5000""
","
","
","""event"",""trial"",""time""
""fullscreenenter"",""0"",""5000""
","
","740.2000000178814","","","","","","","","50","0,1,0","6","blank","356","null","0.5826904361785108","0.3728069548309132","0.06909500160518886","1","","","","","","","","",""
"","html-keyboard-response","275","903257","0.0-145.0-1.0","""event"",""trial"",""time""
""fullscreenenter"",""0"",""5000""
","
","
","""event"",""trial"",""time""
""fullscreenenter"",""0"",""5000""
","
","null","<p></p>","null","","","","","","","","","","","","","","","","","","","","","","","",""
"","do_recog","276","905459","0.0-146.0-0.0","""event"",""trial"",""time""
""fullscreenenter"",""0"",""5000""
","
","
","""event"",""trial"",""time""
""fullscreenenter"",""0"",""5000""
","
","688.1999999880791","","","","","","","","56","","","","357","probe-197","","","","","1","[object Object]","155","3","0","","","",""
"","html-keyboard-response","277","906467","0.0-146.0-1.0","""event"",""trial"",""time""
""fullscreenenter"",""0"",""5000""
","
","