"success","trial_type","trial_index","time_elapsed","internal_node_id","interactions","blur_events","focus_events","fullscreenenter_events","fullscreenexit_events","rt","stimulus","key_press","subject_id","participant_id","age","gender","prompt","response","choice_outcomes","context_n","context_img_id","trial_n","probe_img_id","pR_red","pR_white","pR_black","outcome","is_valid","image_to_show","probed_trial","probed_context","correct","probe","probed_trial_n","probed_context_n","context_im"
"true","fullscreen","0","5279","0.0-0.0","""event"",""trial"",""time""
""fullscreenenter"",""0"",""4444""
","
","
","""event"",""trial"",""time""
""fullscreenenter"",""0"",""4444""
","
","","","","","","","","","","","","","","","","","","","","","","","","","","",""
"","pavlovia","1","5294","0.0-1.0","""event"",""trial"",""time""
""fullscreenenter"",""0"",""4444""
","
","
","""event"",""trial"",""time""
""fullscreenenter"",""0"",""4444""
","
","","","","","","","","","","","","","","","","","","","","","","","","","","",""
"","welc_back","2","15180","0.0-2.0","""event"",""trial"",""time""
""fullscreenenter"",""0"",""4444""
","
","
","""event"",""trial"",""time""
""fullscreenenter"",""0"",""4444""
","
","null","run_exp/static/audio/clip_29_welcome_back.m4a","null","438","124","12","Male","<div class='center'><p>Welcome to day 2!</p><p> Yesterday, you were the head captain of a pirate ship. You asked your fellow pirates to rob other ships of their gold across six different islands.</p></div>","","","","","","","","","","","","","","","","","","",""
"","html-keyboard-response","3","16115","0.0-3.0","""event"",""trial"",""time""
""fullscreenenter"",""0"",""4444""
","
","
","""event"",""trial"",""time""
""fullscreenenter"",""0"",""4444""
","
","930.6999999880791","<div class='center'><p>Welcome to day 2!</p><p> Yesterday, you were the head captain of a pirate ship. You asked your fellow pirates to rob other ships of their gold across six different islands.</p><p><b>[Press the space bar to continue]</b></p></div>","32","","","","","","","","","","","","","","","","","","","","","","","",""
"","day_1_summary_goal","4","33331","0.0-4.0","""event"",""trial"",""time""
""fullscreenenter"",""0"",""4444""
","
","
","""event"",""trial"",""time""
""fullscreenenter"",""0"",""4444""
","
","null","run_exp/static/audio/clip_30_goal_of_game.m4a","null","","","","","<div class='center'><p>Today, like yesterday, you get to pick which pirate you want to rob the next ship.</p><p>If the pirate is successful in robbing a ship, you get gold coins that look like this: </p><p><img src='run_exp/static/images/tutorial/reward.png' height='150'></p><p> If they were not successful in robbing the ship, then you will get no gold coins and you'll see a big red x like this: </p><p><img src='run_exp/static/images/tutorial/reward_no.png' height='150'></p></div>","","","","","","","","","","","","","","","","","","",""
"","html-keyboard-response","5","34092","0.0-5.0","""event"",""trial"",""time""
""fullscreenenter"",""0"",""4444""
","
","
","""event"",""trial"",""time""
""fullscreenenter"",""0"",""4444""
","
","752.9000000059605","<div class='center'><p>Today, like yesterday, you get to pick which pirate you want to rob the next ship.</p><p>If the pirate is successful in robbing a ship, you get gold coins that look like this: </p><p><img src='run_exp/static/images/tutorial/reward.png' height='150'></p><p> If they were not successful in robbing the ship, then you will get no gold coins and you'll see a big red x like this: </p><p><img src='run_exp/static/images/tutorial/reward_no.png' height='150'></p><p><b>[Press the space bar to continue]</b></p></div>","32","","","","","","","","","","","","","","","","","","","","","","","",""
"","day_1_summary_pick","6","48810","0.0-6.0","""event"",""trial"",""time""
""fullscreenenter"",""0"",""4444""
","
","
","""event"",""trial"",""time""
""fullscreenenter"",""0"",""4444""
","
","null","run_exp/static/audio/clip_31_how_to_pick_a_pirate.m4a","null","","","","","<div class='center'><p>Also, just like yesterday, you will use the 1,2,3 keys on your keyboard to pick a pirate. Press '1' to choose red beard, '2' to choose white beard, and '3' to choose black beard . You only have 3 seconds to pick a pirate, so please make a choice quickly!</p></div>","","","","","","","","","","","","","","","","","","",""
"","html-keyboard-response","7","49358","0.0-7.0","""event"",""trial"",""time""
""fullscreenenter"",""0"",""4444""
","
","
","""event"",""trial"",""time""
""fullscreenenter"",""0"",""4444""
","
","541.7999999821186","<div class='center'><p>Also, just like yesterday, you will use the 1,2,3 keys on your keyboard to pick a pirate. Press '1' to choose red beard, '2' to choose white beard, and '3' to choose black beard . You only have 3 seconds to pick a pirate, so please make a choice quickly!</p><p><b>[Press the space bar to continue]</b></p></div>","32","","","","","","","","","","","","","","","","","","","","","","","",""
"","test_phase_begin","8","79769","0.0-8.0","""event"",""trial"",""time""
""fullscreenenter"",""0"",""4444""
","
","
","""event"",""trial"",""time""
""fullscreenenter"",""0"",""4444""
","
","null","run_exp/static/audio/clip_32_final_place.m4a","null","","","","","<div class='center'><p>You’ve arrived at the final island of your journey! Unfortunately, it’s very foggy out, so you won’t be able to see it in the distance like the other islands you've visited.</p><p>You’ll still be deciding which pirate you want to rob a ship like before. However, because of the fog, you also won’t be able to see the ship.</p><p>This means you do not have to remember the ships you rob on this island.</p><p>Unlike yesterday, you won't be visiting multiple islands today. You will stay on this island for the entire game. This game will last ~30 minutes.</p></div>","","","","","","","","","","","","","","","","","","",""
"","html-keyboard-response","9","80502","0.0-9.0","""event"",""trial"",""time""
""fullscreenenter"",""0"",""4444""
","
","
","""event"",""trial"",""time""
""fullscreenenter"",""0"",""4444""
","
","728.7000000178814","<div class='center'><p>You’ve arrived at the final island of your journey! Unfortunately, it’s very foggy out, so you won’t be able to see it in the distance like the other islands you've visited.</p><p>You’ll still be deciding which pirate you want to rob a ship like before. However, because of the fog, you also won’t be able to see the ship.</p><p>This means you do not have to remember the ships you rob on this island.</p><p>Unlike yesterday, you won't be visiting multiple islands today. You will stay on this island for the entire game. This game will last ~30 minutes.</p><p><b>[Press the space bar to continue]</b></p></div>","32","","","","","","","","","","","","","","","","","","","","","","","",""
"","explain_probe_1","10","88251","0.0-10.0","""event"",""trial"",""time""
""fullscreenenter"",""0"",""4444""
","
","
","""event"",""trial"",""time""
""fullscreenenter"",""0"",""4444""
","
","null","run_exp/static/audio/clip_33_recognition_1.m4a","null","","","","","<div class='center'><p> Sometimes you’ll be shown a ship, and you will be asked if you saw this ship on a past island.</p><p> Here is an example of what you will see.</p><p><img src='run_exp/static/images/tutorial/example_recog_trial.png' height='500'></p></div>","","","","","","","","","","","","","","","","","","",""
"","html-keyboard-response","11","89810","0.0-11.0","""event"",""trial"",""time""
""fullscreenenter"",""0"",""4444""
","
","
","""event"",""trial"",""time""
""fullscreenenter"",""0"",""4444""
","
","1551.199999988079","<div class='center'><p> Sometimes you’ll be shown a ship, and you will be asked if you saw this ship on a past island.</p><p> Here is an example of what you will see.</p><p><img src='run_exp/static/images/tutorial/example_recog_trial.png' height='500'></p><p><b>[Press the space bar to continue]</b></p></div>","32","","","","","","","","","","","","","","","","","","","","","","","",""
"","explain_probe_2","12","111561","0.0-12.0","""event"",""trial"",""time""
""fullscreenenter"",""0"",""4444""
","
","
","""event"",""trial"",""time""
""fullscreenenter"",""0"",""4444""
","
","null","run_exp/static/audio/clip_34_recognition_2.m4a","null","","","","","<div class='center'><p> You will press the 5, 6, 7, 8 keys on your keyboard to respond.</p><p>If you are sure you saw the ship, press <b>5</b> on your keyboard.</p><p> If you think you saw it before but aren't sure, then press <b>6</b>.</p><p> If you think you have <b>not</b> seen it before but aren't sure, then press <b>7</b>.</p><p> If you are sure you did <b>not</b> see the ship before, then press <b>8</b>.</p><p><img src='run_exp/static/images/tutorial/example_recog_trial.png' height='500'></p></div>","","","","","","","","","","","","","","","","","","",""
"","html-keyboard-response","13","113044","0.0-13.0","""event"",""trial"",""time""
""fullscreenenter"",""0"",""4444""
","
","
","""event"",""trial"",""time""
""fullscreenenter"",""0"",""4444""
","
","1480.5","<div class='center'><p> You will press the 5, 6, 7, 8 keys on your keyboard to respond.</p><p>If you are sure you saw the ship, press <b>5</b> on your keyboard.</p><p> If you think you saw it before but aren't sure, then press <b>6</b>.</p><p> If you think you have <b>not</b> seen it before but aren't sure, then press <b>7</b>.</p><p> If you are sure you did <b>not</b> see the ship before, then press <b>8</b>.</p><p><img src='run_exp/static/images/tutorial/example_recog_trial.png' height='500'></p><p><b>[Press the space bar to continue]</b></p></div>","32","","","","","","","","","","","","","","","","","","","","","","","",""
"","explain_outcome","14","130249","0.0-14.0","""event"",""trial"",""time""
""fullscreenenter"",""0"",""4444""
","
","
","""event"",""trial"",""time""
""fullscreenenter"",""0"",""4444""
","
","null","run_exp/static/audio/clip_35_recognition_3.m4a","null","","","","","<div class='center'><p> If you remember correctly, then you’ll get a gold coin like this: </p><p><img src='run_exp/static/images/tutorial/reward_small.png' height='200'></p><p>If you do not remember correctly, then you'll see a red x like this: </p><p><img src='run_exp/static/images/tutorial/reward_no.png' height='200'></p><p>Importantly, when you are shown a ship, take the time to remind yourself which island you saw it on. This will help you in the next part of the study.</p></div>","","","","","","","","","","","","","","","","","","",""
"","html-keyboard-response","15","130750","0.0-15.0","""event"",""trial"",""time""
""fullscreenenter"",""0"",""4444""
","
","
","""event"",""trial"",""time""
""fullscreenenter"",""0"",""4444""
","
","496.90000000596046","<div class='center'><p> If you remember correctly, then you’ll get a gold coin like this: </p><p><img src='run_exp/static/images/tutorial/reward_small.png' height='200'></p><p>If you do not remember correctly, then you'll see a red x like this: </p><p><img src='run_exp/static/images/tutorial/reward_no.png' height='200'></p><p>Importantly, when you are shown a ship, take the time to remind yourself which island you saw it on. This will help you in the next part of the study.</p><p><b>[Press the space bar to continue]</b></p></div>","32","","","","","","","","","","","","","","","","","","","","","","","",""
"","begin_test_phase","16","146592","0.0-16.0","""event"",""trial"",""time""
""fullscreenenter"",""0"",""4444""
","
","
","""event"",""trial"",""time""
""fullscreenenter"",""0"",""4444""
","
","null","run_exp/static/audio/clip_36_begin_final.m4a","null","","","","","<div class='center'><p>Let's go over the important points again. Your job is to: </p><p>1. Pick the pirate who is best at robbing ships and will bring you back gold coins. </p><p>2. Correctly remember whether or not you saw a ship before. If you did see the ship before, remind yourself on which island you saw it. </p></div>","","","","","","","","","","","","","","","","","","",""
"","html-keyboard-response","17","147297","0.0-17.0","""event"",""trial"",""time""
""fullscreenenter"",""0"",""4444""
","
","
","""event"",""trial"",""time""
""fullscreenenter"",""0"",""4444""
","
","615.6999999880791","<div class='center'><p>Let's go over the important points again. Your job is to: </p><p>1. Pick the pirate who is best at robbing ships and will bring you back gold coins. </p><p>2. Correctly remember whether or not you saw a ship before. If you did see the ship before, remind yourself on which island you saw it. </p><p><b>[Press the space bar to continue]</b></p></div>","32","","","","","","","","","","","","","","","","","","","","","","","",""
"","do_welcome","18","151317","0.0-18.0","""event"",""trial"",""time""
""fullscreenenter"",""0"",""4444""
","
","
","""event"",""trial"",""time""
""fullscreenenter"",""0"",""4444""
","
","null","","","","","","","","null","","","","","","","","","","","","","","","","","",""
"","do_trial","19","155252","0.0-19.0-0.0","""event"",""trial"",""time""
""fullscreenenter"",""0"",""4444""
","
","
","""event"",""trial"",""time""
""fullscreenenter"",""0"",""4444""
","
","1329.9000000059605","","","","","","","","49","0,1,0","6","blank","230","null","0.37451216350156946","0.24569035178314985","0.3625548412684718","0","","","","","","","","",""
"","html-keyboard-response","20","156269","0.0-19.0-1.0","""event"",""trial"",""time""
""fullscreenenter"",""0"",""4444""
","
","
","""event"",""trial"",""time""
""fullscreenenter"",""0"",""4444""
","
","null","<p></p>","null","","","","","","","","","","","","","","","","","","","","","","","",""
"","do_trial","21","159717","0.0-20.0-0.0","""event"",""trial"",""time""
""fullscreenenter"",""0"",""4444""
","
","
","""event"",""trial"",""time""
""fullscreenenter"",""0"",""4444""
","
","850.5999999940395","","","","","","","","49","0,1,1","6","blank","231","null","0.38247887823568","0.24896243912416238","0.2915623377944973","0","","","","","","","","",""
"","html-keyboard-response","22","160726","0.0-20.0-1.0","""event"",""trial"",""time""
""fullscreenenter"",""0"",""4444""
","
","
","""event"",""trial"",""time""
""fullscreenenter"",""0"",""4444""
","
","null","<p></p>","null","","","","","","","","","","","","","","","","","","","","","","","",""
"","do_trial","23","163803","0.0-21.0-0.0","""event"",""trial"",""time""
""fullscreenenter"",""0"",""4444""
","
","
","""event"",""trial"",""time""
""fullscreenenter"",""0"",""4444""
","
","478.10000002384186","","","","","","","","50","1,1,0","6","blank","232","null","0.5956813423392785","0.33173188583480856","0.2388789071241233","1","","","","","","","","",""
"","html-keyboard-response","24","164821","0.0-21.0-1.0","""event"",""trial"",""time""
""fullscreenenter"",""0"",""4444""
","
","
","""event"",""trial"",""time""
""fullscreenenter"",""0"",""4444""
","
","null","<p></p>","null","","","","","","","","","","","","","","","","","","","","","","","",""
"","do_trial","25","167878","0.0-22.0-0.0","""event"",""trial"",""time""
""fullscreenenter"",""0"",""4444""
","
","
","""event"",""trial"",""time""
""fullscreenenter"",""0"",""4444""
","
","465.59999999403954","","","","","","","","50","1,1,0","6","blank","233","null","0.566394802209186","0.3492754506170727","0.182739909107086","1","","","","","","","","",""
"","html-keyboard-response","26","168886","0.0-22.0-1.0","""event"",""trial"",""time""
""fullscreenenter"",""0"",""4444""
","
","
","""event"",""trial"",""time""
""fullscreenenter"",""0"",""4444""
","
","null","<p></p>","null","","","","","","","","","","","","","","","","","","","","","","","",""
"","do_trial","27","172017","0.0-23.0-0.0","""event"",""trial"",""time""
""fullscreenenter"",""0"",""4444""
","
","
","""event"",""trial"",""time""
""fullscreenenter"",""0"",""4444""
","
","523.9000000059605","","","","","","","","50","1,0,0","6","blank","234","null","0.5605967277373618","0.2757208602856082","0.1931533150150479","0","","","","","","","","",""
"","html-keyboard-response","28","173022","0.0-23.0-1.0","""event"",""trial"",""time""
""fullscreenenter"",""0"",""4444""
","
","
","""event"",""trial"",""time""
""fullscreenenter"",""0"",""4444""
","
","null","<p></p>","null","","","","","","","","","","","","","","","","","","","","","","","",""
"","do_trial","29","175978","0.0-24.0-0.0","""event"",""trial"",""time""
""fullscreenenter"",""0"",""4444""
","
","
","""event"",""trial"",""time""
""fullscreenenter"",""0"",""4444""
","
","345.30000001192093","","","","","","","","50","1,0,0","6","blank","235","null","0.6201555409110703","0.28895200144163435","0.1706122721592911","0","","","","","","","","",""
"","html-keyboard-response","30","176990","0.0-24.0-1.0","""event"",""trial"",""time""
""fullscreenenter"",""0"",""4444""
","
","
","""event"",""trial"",""time""
""fullscreenenter"",""0"",""4444""
","
","null","<p></p>","null","","","","","","","","","","","","","","","","","","","","","","","",""
"","do_trial","31","180014","0.0-25.0-0.0","""event"",""trial"",""time""
""fullscreenenter"",""0"",""4444""
","
","
","""event"",""trial"",""time""
""fullscreenenter"",""0"",""4444""
","
","426.09999999403954","","","","","","","","51","1,0,0","6","blank","236","null","0.6404008445550892","0.34628344507695674","0.3528346488109441","0","","","","","","","","",""
"","html-keyboard-response","32","181024","0.0-25.0-1.0","""event"",""trial"",""time""
""fullscreenenter"",""0"",""4444""
","
","
","""event"",""trial"",""time""
""fullscreenenter"",""0"",""4444""
","
","null","<p></p>","null","","","","","","","","","","","","","","","","","","","","","","","",""
"","do_trial","33","184067","0.0-26.0-0.0","""event"",""trial"",""time""
""fullscreenenter"",""0"",""4444""
","
","
","""event"",""trial"",""time""
""fullscreenenter"",""0"",""4444""
","
","460.7999999821186","","","","","","","","51","1,0,0","6","blank","237","null","0.6291243632558232","0.2488390182187943","0.3254470415502291","0","","","","","","","","",""
"","html-keyboard-response","34","185077","0.0-26.0-1.0","""event"",""trial"",""time""
""fullscreenenter"",""0"",""4444""
","
","
","""event"",""trial"",""time""
""fullscreenenter"",""0"",""4444""
","
","null","<p></p>","null","","","","","","","","","","","","","","","","","","","","","","","",""
"","do_trial","35","188150","0.0-27.0-0.0","""event"",""trial"",""time""
""fullscreenenter"",""0"",""4444""
","
","
","""event"",""trial"",""time""
""fullscreenenter"",""0"",""4444""
","
","467.19999998807907","","","","","","","","50","1,0,0","6","blank","238","null","0.6368869484169075","0.37586827132551826","0.21242764420548152","0","","","","","","","","",""
"","html-keyboard-response","36","189160","0.0-27.0-1.0","""event"",""trial"",""time""
""fullscreenenter"",""0"",""4444""
","
","
","""event"",""trial"",""time""
""fullscreenenter"",""0"",""4444""
","
","null","<p></p>","null","","","","","","","","","","","","","","","","","","","","","","","",""
"","do_trial","37","192154","0.0-28.0-0.0","""event"",""trial"",""time""
""fullscreenenter"",""0"",""4444""
","
","
","""event"",""trial"",""time""
""fullscreenenter"",""0"",""4444""
","
","393.59999999403954","","","","","","","","49","0,0,0","6","blank","239","null","0.522061478534649","0.18778681825497892","0.14786688591843888","0","","","","","","","","",""
"","html-keyboard-response","38","193163","0.0-28.0-1.0","""event"",""trial"",""time""
""fullscreenenter"",""0"",""4444""
","
","
","""event"",""trial"",""time""
""fullscreenenter"",""0"",""4444""
","
","null","<p></p>","null","","","","","","","","","","","","","","","","","","","","","","","",""
"","do_trial","39","196269","0.0-29.0-0.0","""event"",""trial"",""time""
""fullscreenenter"",""0"",""4444""
","
","
","""event"",""trial"",""time""
""fullscreenenter"",""0"",""4444""
","
","497","","","","","","","","50","1,0,0","6","blank","240","null","0.4639433467491882","0.21808680581765358","0.1151130916167866","0","","","","","","","","",""
"","html-keyboard-response","40","197277","0.0-29.0-1.0","""event"",""trial"",""time""
""fullscreenenter"",""0"",""4444""
","
","
","""event"",""trial"",""time""
""fullscreenenter"",""0"",""4444""
","
","null","<p></p>","null","","","","","","","","","","","","","","","","","","","","","","","",""
"","do_recog","41","203322","0.0-30.0-0.0","""event"",""trial"",""time""
""fullscreenenter"",""0"",""4444""
","
","
","""event"",""trial"",""time""
""fullscreenenter"",""0"",""4444""
","
","null","","","","","","","","null","","","","241","probe-246","","","","","0","[object Object]","null","null","0","","","",""
"","html-keyboard-response","42","204345","0.0-30.0-1.0","""event"",""trial"",""time""
""fullscreenenter"",""0"",""4444""
","
","
","""event"",""trial"",""time""
""fullscreenenter"",""0"",""4444""
","
","null","<p></p>","null","","","","","","","","","","","","","","","","","","","","","","","",""
"","do_trial","43","207901","0.0-31.0-0.0","""event"",""trial"",""time""
""fullscreenenter"",""0"",""4444""
","
","
","""event"",""trial"",""time""
""fullscreenenter"",""0"",""4444""
","
","968.4000000059605","","","","","","","","49","1,0,1","6","blank","242","null","0.4335542992482284","0.3011281888485668","0.1997552727067098","1","","","","","","","","",""
"","html-keyboard-response","44","208910","0.0-31.0-1.0","""event"",""trial"",""time""
""fullscreenenter"",""0"",""4444""
","
","
","""event"",""trial"",""time""
""fullscreenenter"",""0"",""4444""
","
","null","<p></p>","null","","","","","","","","","","","","","","","","","","","","","","","",""
"","do_trial","45","212292","0.0-32.0-0.0","""event"",""trial"",""time""
""fullscreenenter"",""0"",""4444""
","
","
","""event"",""trial"",""time""
""fullscreenenter"",""0"",""4444""
","
","776.5","","","","","","","","49","1,1,0","6","blank","243","null","0.3312553335639486","0.5262585961969939","0.14145714235780435","1","","","","","","","","",""
"","html-keyboard-response","46","213310","0.0-32.0-1.0","""event"",""trial"",""time""
""fullscreenenter"",""0"",""4444""
","
","
","""event"",""trial"",""time""
""fullscreenenter"",""0"",""4444""
","
","null","<p></p>","null","","","","","","","","","","","","","","","","","","","","","","","",""
"","do_trial","47","216478","0.0-33.0-0.0","""event"",""trial"",""time""
""fullscreenenter"",""0"",""4444""
","
","
","""event"",""trial"",""time""
""fullscreenenter"",""0"",""4444""
","
","570.8000000119209","","","","","","","","49","0,1,0","6","blank","244","null","0.20775912198352134","0.5151484378806527","0.15147048077614086","0","","","","","","","","",""
"","html-keyboard-response","48","217486","0.0-33.0-1.0","""event"",""trial"",""time""
""fullscreenenter"",""0"",""4444""
","
","
","""event"",""trial"",""time""
""fullscreenenter"",""0"",""4444""
","
","null","<p></p>","null","","","","","","","","","","","","","","","","","","","","","","","",""
"","do_trial","49","220742","0.0-34.0-0.0","""event"",""trial"",""time""
""fullscreenenter"",""0"",""4444""
","
","
","""event"",""trial"",""time""
""fullscreenenter"",""0"",""4444""
","
","647.4000000059605","","","","","","","","50","0,1,1","6","blank","245","null","0.10742493454418728","0.6228579711797165","0.14447478073124348","1","","","","","","","","",""
"","html-keyboard-response","50","221746","0.0-34.0-1.0","""event"",""trial"",""time""
""fullscreenenter"",""0"",""4444""
","
","
","""event"",""trial"",""time""
""fullscreenenter"",""0"",""4444""
","
","null","<p></p>","null","","","","","","","","","","","","","","","","","","","","","","","",""
"","do_recog","51","225479","0.0-35.0-0.0","""event"",""trial"",""time""
""fullscreenenter"",""0"",""4444""
","
","
","""event"",""trial"",""time""
""fullscreenenter"",""0"",""4444""
","
","2211.800000011921","","","","","","","","56","","","","246","probe-227","","","","","1","[object Object]","114","2","0","","","",""
"","html-keyboard-response","52","226483","0.0-35.0-1.0","""event"",""trial"",""time""
""fullscreenenter"",""0"",""4444""
","
","
","""event"",""trial"",""time""
""fullscreenenter"",""0"",""4444""
","
","null","<p></p>","null","","","","","","","","","","","","","","","","","","","","","","","",""
"","do_trial","53","231857","0.0-36.0-0.0","""event"",""trial"",""time""
""fullscreenenter"",""0"",""4444""
","
","
","""event"",""trial"",""time""
""fullscreenenter"",""0"",""4444""
","
","2773.4000000059605","","","","","","","","49","0,1,0","6","blank","247","null","0.055126744241023644","0.717665920218629","0.08214458688277321","0","","","","","","","","",""
"","html-keyboard-response","54","232872","0.0-36.0-1.0","""event"",""trial"",""time""
""fullscreenenter"",""0"",""4444""
","
","
","""event"",""trial"",""time""
""fullscreenenter"",""0"",""4444""
","
","null","<p></p>","null","","","","","","","","","","","","","","","","","","","","","","","",""
"","do_trial","55","236148","0.0-37.0-0.0","""event"",""trial"",""time""
""fullscreenenter"",""0"",""4444""
","
","
","""event"",""trial"",""time""
""fullscreenenter"",""0"",""4444""
","
","684.3000000119209","","","","","","","","50","0,0,0","6","blank","248","null","0.1829878206900011","0.7942846203939561","0.05611735928555836","0","","","","","","","","",""
"","html-keyboard-response","56","237156","0.0-37.0-1.0","""event"",""trial"",""time""
""fullscreenenter"",""0"",""4444""
","
","
","""event"",""trial"",""time""
""fullscreenenter"",""0"",""4444""
","
","null","<p></p>","null","","","","","","","","","","","","","","","","","","","","","","","",""
"","do_trial","57","240216","0.0-38.0-0.0","""event"",""trial"",""time""
""fullscreenenter"",""0"",""4444""
","
","
","""event"",""trial"",""time""
""fullscreenenter"",""0"",""4444""
","
","471.69999998807907","","","","","","","","51","0,1,0","6","blank","249","null","0.17612118974689225","0.6761144564249021","0.059176960280578436","0","","","","","","","","",""
"","html-keyboard-response","58","241225","0.0-38.0-1.0","""event"",""trial"",""time""
""fullscreenenter"",""0"",""4444""
","
","
","""event"",""trial"",""time""
""fullscreenenter"",""0"",""4444""
","
","null","<p></p>","null","","","","","","","","","","","","","","","","","","","","","","","",""
"","do_trial","59","244232","0.0-39.0-0.0","""event"",""trial"",""time""
""fullscreenenter"",""0"",""4444""
","
","
","""event"",""trial"",""time""
""fullscreenenter"",""0"",""4444""
","
","410.19999998807907","","","","","","","","50","0,1,1","6","blank","250","null","0.11485889276269173","0.650155509497869","0.24879229923622107","1","","","","","","","","",""
"","html-keyboard-response","60","245242","0.0-39.0-1.0","""event"",""trial"",""time""
""fullscreenenter"",""0"",""4444""
","
","
","""event"",""trial"",""time""
""fullscreenenter"",""0"",""4444""
","
","null","<p></p>","null","","","","","","","","","","","","","","","","","","","","","","","",""
"","do_trial","61","248435","0.0-40.0-0.0","""event"",""trial"",""time""
""fullscreenenter"",""0"",""4444""
","
","
","""event"",""trial"",""time""
""fullscreenenter"",""0"",""4444""
","
","600.4000000059605","","","","","","","","50","0,1,0","6","blank","251","null","0.21537651426886778","0.6377644194061997","0.24693067050202408","1","","","","","","","","",""
"","html-keyboard-response","62","249443","0.0-40.0-1.0","""event"",""trial"",""time""
""fullscreenenter"",""0"",""4444""
","
","
","""event"",""trial"",""time""
""fullscreenenter"",""0"",""4444""
","
","null","<p></p>","null","","","","","","","","","","","","","","","","","","","","","","","",""
"","do_trial","63","252602","0.0-41.0-0.0","""event"",""trial"",""time""
""fullscreenenter"",""0"",""4444""
","
","
","""event"",""trial"",""time""
""fullscreenenter"",""0"",""4444""
","
","571.7000000178814","","","","","","","","50","0,1,0","6","blank","252","null","0.223890354461378","0.7107472972896381","0.37486496728875723","1","","","","","","","","",""
"","html-keyboard-response","64","253611","0.0-41.0-1.0","""event"",""trial"",""time""
""fullscreenenter"",""0"",""4444""
","
","
","""event"",""trial"",""time""
""fullscreenenter"",""0"",""4444""
","
","null","<p></p>","null","","","","","","","","","","","","","","","","","","","","","","","",""
"","do_recog","65","257563","0.0-42.0-0.0","""event"",""trial"",""time""
""fullscreenenter"",""0"",""4444""
","
","
","""event"",""trial"",""time""
""fullscreenenter"",""0"",""4444""
","
","2431.0999999940395","","","","","","","","55","","","","253","probe-242","","","","","0","[object Object]","null","null","1","","","",""
"","html-keyboard-response","66","258579","0.0-42.0-1.0","""event"",""trial"",""time""
""fullscreenenter"",""0"",""4444""
","
","
","""event"",""trial"",""time""
""fullscreenenter"",""0"",""4444""
","
","null","<p></p>","null","","","","","","","","","","","","","","","","","","","","","","","",""
"","do_trial","67","262034","0.0-43.0-0.0","""event"",""trial"",""time""
""fullscreenenter"",""0"",""4444""
","
","
","""event"",""trial"",""time""
""fullscreenenter"",""0"",""4444""
","
","876.0999999940395","","","","","","","","50","0,0,1","6","blank","254","null","0.17725643318993822","0.6798111001984924","0.3434973197369965","0","","","","","","","","",""
"","html-keyboard-response","68","263043","0.0-43.0-1.0","""event"",""trial"",""time""
""fullscreenenter"",""0"",""4444""
","
","
","""event"",""trial"",""time""
""fullscreenenter"",""0"",""4444""
","
","null","<p></p>","null","","","","","","","","","","","","","","","","","","","","","","","",""
"","do_trial","69","266615","0.0-44.0-0.0","""event"",""trial"",""time""
""fullscreenenter"",""0"",""4444""
","
","
","""event"",""trial"",""time""
""fullscreenenter"",""0"",""4444""
","
","975.1999999880791","","","","","","","","50","1,1,1","6","blank","255","null","0.2526632879095631","0.7154510220936444","0.35624347351457836","1","","","","","","","","",""
"","html-keyboard-response","70","267626","0.0-44.0-1.0","""event"",""trial"",""time""
""fullscreenenter"",""0"",""4444""
","
","
","""event"",""trial"",""time""
""fullscreenenter"",""0"",""4444""
","
","null","<p></p>","null","","","","","","","","","","","","","","","","","","","","","","","",""
"","do_trial","71","270735","0.0-45.0-0.0","""event"",""trial"",""time""
""fullscreenenter"",""0"",""4444""
","
","
","""event"",""trial"",""time""
""fullscreenenter"",""0"",""4444""
","
","516","","","","","","","","50","0,1,1","6","blank","256","null","0.11283212051329874","0.61906808013519","0.3841262744064906","1","","","","","","","","",""
"","html-keyboard-response","72","271746","0.0-45.0-1.0","""event"",""trial"",""time""
""fullscreenenter"",""0"",""4444""
","
","
","""event"",""trial"",""time""
""fullscreenenter"",""0"",""4444""
","
","null","<p></p>","null","","","","","","","","","","","","","","","","","","","","","","","",""
"","do_trial","73","274891","0.0-46.0-0.0","""event"",""trial"",""time""
""fullscreenenter"",""0"",""4444""
","
","
","""event"",""trial"",""time""
""fullscreenenter"",""0"",""4444""
","
","553.0999999940395","","","","","","","","50","0,0,0","6","blank","257","null","0.07289973894285805","0.4131271934324072","0.30517849774479927","0","","","","","","","","",""
"","html-keyboard-response","74","275902","0.0-46.0-1.0","""event"",""trial"",""time""
""fullscreenenter"",""0"",""4444""
","
","
","""event"",""trial"",""time""
""fullscreenenter"",""0"",""4444""
","
","null","<p></p>","null","","","","","","","","","","","","","","","","","","","","","","","",""
"","do_recog","75","279886","0.0-47.0-0.0","""event"",""trial"",""time""
""fullscreenenter"",""0"",""4444""
","
","
","""event"",""trial"",""time""
""fullscreenenter"",""0"",""4444""
","
","2459.800000011921","","","","","","","","53","","","","258","probe-81","","","","","1","[object Object]","191","4","1","","","",""
"","html-keyboard-response","76","280903","0.0-47.0-1.0","""event"",""trial"",""time""
""fullscreenenter"",""0"",""4444""
","
","
","""event"",""trial"",""time""
""fullscreenenter"",""0"",""4444""
","
","null","<p></p>","null","","","","","","","","","","","","","","","","","","","","","","","",""
"","do_trial","77","284542","0.0-48.0-0.0","""event"",""trial"",""time""
""fullscreenenter"",""0"",""4444""
","
","
","""event"",""trial"",""time""
""fullscreenenter"",""0"",""4444""
","
","1037.300000011921","","","","","","","","50","0,1,1","6","blank","259","null","0.05202660031388458","0.4633248770248675","0.4146006352181157","1","","","","","","","","",""
"","html-keyboard-response","78","285547","0.0-48.0-1.0","""event"",""trial"",""time""
""fullscreenenter"",""0"",""4444""
","
","
","""event"",""trial"",""time""
""fullscreenenter"",""0"",""4444""
","
","null","<p></p>","null","","","","","","","","","","","","","","","","","","","","","","","",""
"","do_trial","79","289012","0.0-49.0-0.0","""event"",""trial"",""time""
""fullscreenenter"",""0"",""4444""
","
","
","""event"",""trial"",""time""
""fullscreenenter"",""0"",""4444""
","
","882.6999999880791","","","","","","","","50","0,1,1","6","blank","260","null","0.19247388554589315","0.5996894617804908","0.41761287315381873","1","","","","","","","","",""
"","html-keyboard-response","80","290029","0.0-49.0-1.0","""event"",""trial"",""time""
""fullscreenenter"",""0"",""4444""
","
","
","""event"",""trial"",""time""
""fullscreenenter"",""0"",""4444""
","
","null","<p></p>","null","","","","","","","","","","","","","","","","","","","","","","","",""
"","do_trial","81","293529","0.0-50.0-0.0","""event"",""trial"",""time""
""fullscreenenter"",""0"",""4444""
","
","
","""event"",""trial"",""time""
""fullscreenenter"",""0"",""4444""
","
","883.3000000119209","","","","","","","","50","1,1,0","6","blank","261","null","0.32904854542886625","0.5152273784904511","0.46279986174562254","1","","","","","","","","",""
"","html-keyboard-response","82","294540","0.0-50.0-1.0","""event"",""trial"",""time""
""fullscreenenter"",""0"",""4444""
","
","
","""event"",""trial"",""time""
""fullscreenenter"",""0"",""4444""
","
","null","<p></p>","null","","","","","","","","","","","","","","","","","","","","","","","",""
"","do_trial","83","297684","0.0-51.0-0.0","""event"",""trial"",""time""
""fullscreenenter"",""0"",""4444""
","
","
","""event"",""trial"",""time""
""fullscreenenter"",""0"",""4444""
","
","558.9000000059605","","","","","","","","50","0,1,0","6","blank","262","null","0.24332311586002475","0.6203505265342044","0.42113320038479907","1","","","","","","","","",""
"","html-keyboard-response","84","298691","0.0-51.0-1.0","""event"",""trial"",""time""
""fullscreenenter"",""0"",""4444""
","
","
","""event"",""trial"",""time""
""fullscreenenter"",""0"",""4444""
","
","null","<p></p>","null","","","","","","","","","","","","","","","","","","","","","","","",""
"","do_trial","85","301896","0.0-52.0-0.0","""event"",""trial"",""time""
""fullscreenenter"",""0"",""4444""
","
","
","""event"",""trial"",""time""
""fullscreenenter"",""0"",""4444""
","
","580.3000000119209","","","","","","","","50","0,1,1","6","blank","263","null","0.13488476537921415","0.5924895753204217","0.2953314027089023","1","","","","","","","","",""
"","html-keyboard-response","86","302903","0.0-52.0-1.0","""event"",""trial"",""time""
""fullscreenenter"",""0"",""4444""
","
","
","""event"",""trial"",""time""
""fullscreenenter"",""0"",""4444""
","
","null","<p></p>","null","","","","","","","","","","","","","","","","","","","","","","","",""
"","do_trial","87","306011","0.0-53.0-0.0","""event"",""trial"",""time""
""fullscreenenter"",""0"",""4444""
","
","
","""event"",""trial"",""time""
""fullscreenenter"",""0"",""4444""
","
","504.80000001192093","","","","","","","","50","0,0,0","6","blank","264","null","0.1760444220292402","0.4581651205061495","0.3495836301414335","0","","","","","","","","",""
"","html-keyboard-response","88","307027","0.0-53.0-1.0","""event"",""trial"",""time""
""fullscreenenter"",""0"",""4444""
","
","
","""event"",""trial"",""time""
""fullscreenenter"",""0"",""4444""
","
","null","<p></p>","null","","","","","","","","","","","","","","","","","","","","","","","",""
"","do_recog","89","313053","0.0-54.0-0.0","""event"",""trial"",""time""
""fullscreenenter"",""0"",""4444""
","
","
","""event"",""trial"",""time""
""fullscreenenter"",""0"",""4444""
","
","null","","","","","","","","null","","","","265","probe-57","","","","","1","[object Object]","157","3","0","","","",""
"","html-keyboard-response","90","314059","0.0-54.0-1.0","""event"",""trial"",""time""
""fullscreenenter"",""0"",""4444""
","
","
","""event"",""trial"",""time""
""fullscreenenter"",""0"",""4444""
","
","null","<p></p>","null","","","","","","","","","","","","","","","","","","","","","","","",""
"","do_trial","91","318213","0.0-55.0-0.0","""event"",""trial"",""time""
""fullscreenenter"",""0"",""4444""
","
","
","""event"",""trial"",""time""
""fullscreenenter"",""0"",""4444""
","
","1567","","","","","","","","50","0,0,1","6","blank","266","null","0.2446112604729958","0.5858609703296075","0.302877114117851","0","","","","","","","","",""
"","html-keyboard-response","92","319226","0.0-55.0-1.0","""event"",""trial"",""time""
""fullscreenenter"",""0"",""4444""
","
","
","""event"",""trial"",""time""
""fullscreenenter"",""0"",""4444""
","
","null","<p></p>","null","","","","","","","","","","","","","","","","","","","","","","","",""
"","do_trial","93","322222","0.0-56.0-0.0","""event"",""trial"",""time""
""fullscreenenter"",""0"",""4444""
","
","
","""event"",""trial"",""time""
""fullscreenenter"",""0"",""4444""
","
","396.19999998807907","","","","","","","","50","0,1,0","6","blank","267","null","0.25303158749975047","0.7013917636655151","0.35565107563583986","1","","","","","","","","",""
"","html-keyboard-response","94","323235","0.0-56.0-1.0","""event"",""trial"",""time""
""fullscreenenter"",""0"",""4444""
","
","
","""event"",""trial"",""time""
""fullscreenenter"",""0"",""4444""
","
","null","<p></p>","null","","","","","","","","","","","","","","","","","","","","","","","",""
"","do_trial","95","326556","0.0-57.0-0.0","""event"",""trial"",""time""
""fullscreenenter"",""0"",""4444""
","
","
","""event"",""trial"",""time""
""fullscreenenter"",""0"",""4444""
","
","726.2000000178814","","","","","","","","50","0,0,0","6","blank","268","null","0.16331120977759309","0.434200105811956","0.3028129220488796","0","","","","","","","","",""
"","html-keyboard-response","96","327567","0.0-57.0-1.0","""event"",""trial"",""time""
""fullscreenenter"",""0"",""4444""
","
","
","""event"",""trial"",""time""
""fullscreenenter"",""0"",""4444""
","
","null","<p></p>","null","","","","","","","","","","","","","","","","","","","","","","","",""
"","break","97","330137","0.0-58.0-0.0","""event"",""trial"",""time""
""fullscreenenter"",""0"",""4444""
","
","
","""event"",""trial"",""time""
""fullscreenenter"",""0"",""4444""
","
","2567.2000000178814","<div class='center'><p>Time to take a quick break! You have 2 minutes to rest, but you can move on sooner if you'd like.</p><p> Press the <b>space bar</b> to continue.</p></div>","32","","","","","","","","","","","","","","","","","","","","","","","",""
"","do_trial","98","335104","0.0-58.0-1.0","""event"",""trial"",""time""
""fullscreenenter"",""0"",""4444""
","
","
","""event"",""trial"",""time""
""fullscreenenter"",""0"",""4444""
","
","2356.100000023842","","","","","","","","50","0,1,1","6","blank","269","null","0.1302431352404518","0.6259530786057425","0.4282819425654741","1","","","","","","","","",""
"","html-keyboard-response","99","336129","0.0-58.0-2.0","""event"",""trial"",""time""
""fullscreenenter"",""0"",""4444""
","
","
","""event"",""trial"",""time""
""fullscreenenter"",""0"",""4444""
","
","null","<p></p>","null","","","","","","","","","","","","","","","","","","","","","","","",""
"","do_recog","100","339688","0.0-59.0-0.0","""event"",""trial"",""time""
""fullscreenenter"",""0"",""4444""
","
","
","""event"",""trial"",""time""
""fullscreenenter"",""0"",""4444""
","
","2034.800000011921","","","","","","","","53","","","","270","probe-72","","","","","1","[object Object]","72","1","1","","","",""
"","html-keyboard-response","101","340698","0.0-59.0-1.0","""event"",""trial"",""time""
""fullscreenenter"",""0"",""4444""
","
","
","""event"",""trial"",""time""
""fullscreenenter"",""0"",""4444""
","
","null","<p></p>","null","","","","","","","","","","","","","","","","","","","","","","","",""
"","do_trial","102","344222","0.0-60.0-0.0","""event"",""trial"",""time""
""fullscreenenter"",""0"",""4444""
","
","
","""event"",""trial"",""time""
""fullscreenenter"",""0"",""4444""
","
","925.9000000059605","","","","","","","","50","0,0,0","6","blank","271","null","0.1699681340227265","0.6452573316702638","0.49055026943780394","0","","","","","","","","",""
"","html-keyboard-response","103","345239","0.0-60.0-1.0","""event"",""trial"",""time""
""fullscreenenter"",""0"",""4444""
","
","
","""event"",""trial"",""time""
""fullscreenenter"",""0"",""4444""
","
","null","<p></p>","null","","","","","","","","","","","","","","","","","","","","","","","",""
"","do_trial","104","348480","0.0-61.0-0.0","""event"",""trial"",""time""
""fullscreenenter"",""0"",""4444""
","
","
","""event"",""trial"",""time""
""fullscreenenter"",""0"",""4444""
","
","633.5999999940395","","","","","","","","50","0,0,1","6","blank","272","null","0.14539197211700344","0.6822288416712601","0.4088520154798315","0","","","","","","","","",""
"","html-keyboard-response","105","349488","0.0-61.0-1.0","""event"",""trial"",""time""
""fullscreenenter"",""0"",""4444""
","
","
","""event"",""trial"",""time""
""fullscreenenter"",""0"",""4444""
","
","null","<p></p>","null","","","","","","","","","","","","","","","","","","","","","","","",""
"","do_trial","106","352515","0.0-62.0-0.0","""event"",""trial"",""time""
""fullscreenenter"",""0"",""4444""
","
","
","""event"",""trial"",""time""
""fullscreenenter"",""0"",""4444""
","
","435.2000000178814","","","","","","","","49","0,0,0","6","blank","273","null","0.16673164597932721","0.6189559542867992","0.34157221142510347","0","","","","","","","","",""
"","html-keyboard-response","107","353523","0.0-62.0-1.0","""event"",""trial"",""time""
""fullscreenenter"",""0"",""4444""
","
","
","""event"",""trial"",""time""
""fullscreenenter"",""0"",""4444""
","
","null","<p></p>","null","","","","","","","","","","","","","","","","","","","","","","","",""
"","do_trial","108","356561","0.0-63.0-0.0","""event"",""trial"",""time""
""fullscreenenter"",""0"",""4444""
","
","
","""event"",""trial"",""time""
""fullscreenenter"",""0"",""4444""
","
","431.5","","","","","","","","51","0,1,0","6","blank","274","null","0.18665171237446934","0.4921148709419098","0.453339006952604","0","","","","","","","","",""
"","html-keyboard-response","109","357567","0.0-63.0-1.0","""event"",""trial"",""time""
""fullscreenenter"",""0"",""4444""
","
","
","""event"",""trial"",""time""
""fullscreenenter"",""0"",""4444""
","
","null","<p></p>","null","","","","","","","","","","","","","","","","","","","","","","","",""
"","do_recog","110","360642","0.0-64.0-0.0","""event"",""trial"",""time""
""fullscreenenter"",""0"",""4444""
","
","
","""event"",""trial"",""time""
""fullscreenenter"",""0"",""4444""
","
","1555.699999988079","","","","","","","","56","","","","275","probe-128","","","","","1","[object Object]","192","4","0","","","",""
"","html-keyboard-response","111","361652","0.0-64.0-1.0","""event"",""trial"",""time""
""fullscreenenter"",""0"",""4444""
","
","
","""event"",""trial"",""time""
""fullscreenenter"",""0"",""4444""
","
","null","<p></p>","null","","","","","","","","","","","","","","","","","","","","","","","",""
"","do_trial","112","366986","0.0-65.0-0.0","""event"",""trial"",""time""
""fullscreenenter"",""0"",""4444""
","
","
","""event"",""trial"",""time""
""fullscreenenter"",""0"",""4444""
","
","2759.5","","","","","","","","51","0,1,0","6","blank","276","null","0.059756396595136624","0.42808722853144654","0.4748277490078969","0","","","","","","","","",""
"","html-keyboard-response","113","367994","0.0-65.0-1.0","""event"",""trial"",""time""
""fullscreenenter"",""0"",""4444""
","
","
","""event"",""trial"",""time""
""fullscreenenter"",""0"",""4444""
","
","null","<p></p>","null","","","","","","","","","","","","","","","","","","","","","","","",""
"","do_recog","114","371848","0.0-66.0-0.0","""event"",""trial"",""time""
""fullscreenenter"",""0"",""4444""
","
","
","""event"",""trial"",""time""
""fullscreenenter"",""0"",""4444""
","
","2324.5999999940395","","","","","","","","54","","","","277","probe-201","","","","","1","[object Object]","39","0","1","","","",""
"","html-keyboard-response","115","372857","0.0-66.0-1.0","""event"",""trial"",""time""
""fullscreenenter"",""0"",""4444""
","
","
","""event"",""trial"",""time""
""fullscreenenter"",""0"",""4444""
","
","null","<p></p>","null","","","","","","","","","","","","","","","","","","","","","","","",""
"","do_trial","116","376322","0.0-67.0-0.0","""event"",""trial"",""time""
""fullscreenenter"",""0"",""4444""
","
","
","""event"",""trial"",""time""
""fullscreenenter"",""0"",""4444""
","
","869.8000000119209","","","","","","","","51","0,0,0","6","blank","278","null","0.2055202863355094","0.4431873777570115","0.5082358726095937","0","","","","","","","","",""
"","html-keyboard-response","117","377331","0.0-67.0-1.0","""event"",""trial"",""time""
""fullscreenenter"",""0"",""4444""
","
","
","""event"",""trial"",""time""
""fullscreenenter"",""0"",""4444""
","
","null","<p></p>","null","","","","","","","","","","","","","","","","","","","","","","","",""
"","do_recog","118","381190","0.0-68.0-0.0","""event"",""trial"",""time""
""fullscreenenter"",""0"",""4444""
","
","
","""event"",""trial"",""time""
""fullscreenenter"",""0"",""4444""
","
","2331.2000000178814","","","","","","","","54","","","","279","probe-48","","","","","1","[object Object]","195","4","1","","","",""
"","html-keyboard-response","119","382196","0.0-68.0-1.0","""event"",""trial"",""time""
""fullscreenenter"",""0"",""4444""
","
","
","""event"",""trial"",""time""
""fullscreenenter"",""0"",""4444""
","
","null","<p></p>","null","","","","","","","","","","","","","","","","","","","","","","","",""
"","do_trial","120","385343","0.0-69.0-0.0","""event"",""trial"",""time""
""fullscreenenter"",""0"",""4444""
","
","
","""event"",""trial"",""time""
""fullscreenenter"",""0"",""4444""
","
","550.3999999761581","","","","","","","","50","0,0,0","6","blank","280","null","0.1741898206944261","0.5200609754674073","0.3633415029663456","0","","","","","","","","",""
"","html-keyboard-response","121","386351","0.0-69.0-1.0","""event"",""trial"",""time""
""fullscreenenter"",""0"",""4444""
","
","
","""event"",""trial"",""time""
""fullscreenenter"",""0"",""4444""
","
","null","<p></p>","null","","","","","","","","","","","","","","","","","","","","","","","",""
"","do_trial","122","389686","0.0-70.0-0.0","""event"",""trial"",""time""
""fullscreenenter"",""0"",""4444""
","
","
","""event"",""trial"",""time""
""fullscreenenter"",""0"",""4444""
","
","752.1000000238419","","","","","","","","50","0,1,0","6","blank","281","null","0.11553700530786046","0.5060289733612942","0.24996067644948805","1","","","","","","","","",""
"","html-keyboard-response","123","390698","0.0-70.0-1.0","""event"",""trial"",""time""
""fullscreenenter"",""0"",""4444""
","
","
","""event"",""trial"",""time""
""fullscreenenter"",""0"",""4444""
","
","null","<p></p>","null","","","","","","","","","","","","","","","","","","","","","","","",""
"","do_trial","124","393845","0.0-71.0-0.0","""event"",""trial"",""time""
""fullscreenenter"",""0"",""4444""
","
","
","""event"",""trial"",""time""
""fullscreenenter"",""0"",""4444""
","
","543.5999999940395","","","","","","","","50","0,0,1","6","blank","282","null","0.11318510542714108","0.4631911072815545","0.3017859522514985","0","","","","","","","","",""
"","html-keyboard-response","125","394867","0.0-71.0-1.0","""event"",""trial"",""time""
""fullscreenenter"",""0"",""4444""
","
","
","""event"",""trial"",""time""
""fullscreenenter"",""0"",""4444""
","
","null","<p></p>","null","","","","","","","","","","","","","","","","","","","","","","","",""
"","do_recog","126","398229","0.0-72.0-0.0","""event"",""trial"",""time""
""fullscreenenter"",""0"",""4444""
","
","
","""event"",""trial"",""time""
""fullscreenenter"",""0"",""4444""
","
","1830.800000011921","","","","","","","","53","","","","283","probe-39","","","","","1","[object Object]","36","0","1","","","",""
"","html-keyboard-response","127","399236","0.0-72.0-1.0","""event"",""trial"",""time""
""fullscreenenter"",""0"",""4444""
","
","
","""event"",""trial"",""time""
""fullscreenenter"",""0"",""4444""
","
","null","<p></p>","null","","","","","","","","","","","","","","","","","","","","","","","",""
"","do_trial","128","402596","0.0-73.0-0.0","""event"",""trial"",""time""
""fullscreenenter"",""0"",""4444""
","
","
","""event"",""trial"",""time""
""fullscreenenter"",""0"",""4444""
","
","748.8000000119209","","","","","","","","50","0,0,0","6","blank","284","null","0.24416177383798612","0.39622377340067283","0.29901626158864725","0","","","","","","","","",""
"","html-keyboard-response","129","403606","0.0-73.0-1.0","""event"",""trial"",""time""
""fullscreenenter"",""0"",""4444""
","
","
","""event"",""trial"",""time""
""fullscreenenter"",""0"",""4444""
","
","null","<p></p>","null","","","","","","","","","","","","","","","","","","","","","","","",""
"","do_trial","130","406653","0.0-74.0-0.0","""event"",""trial"",""time""
""fullscreenenter"",""0"",""4444""
","
","
","""event"",""trial"",""time""
""fullscreenenter"",""0"",""4444""
","
","441.30000001192093","","","","","","","","49","0,0,0","6","blank","285","null","0.1401873016370678","0.42684376149597575","0.3416193053629493","0","","","","","","","","",""
"","html-keyboard-response","131","407657","0.0-74.0-1.0","""event"",""trial"",""time""
""fullscreenenter"",""0"",""4444""
","
","
","""event"",""trial"",""time""
""fullscreenenter"",""0"",""4444""
","
","null","<p></p>","null","","","","","","","","","","","","","","","","","","","","","","","",""
"","do_trial","132","411698","0.0-75.0-0.0","""event"",""trial"",""time""
""fullscreenenter"",""0"",""4444""
","
","
","""event"",""trial"",""time""
""fullscreenenter"",""0"",""4444""
","
","1443","","","","","","","","49","0,1,0","6","blank","286","null","0.09590358579765623","0.4577999928309729","0.25920736164472674","0","","","","","","","","",""
"","html-keyboard-response","133","412706","0.0-75.0-1.0","""event"",""trial"",""time""
""fullscreenenter"",""0"",""4444""
","
","
","""event"",""trial"",""time""
""fullscreenenter"",""0"",""4444""
","
","null","<p></p>","null","","","","","","","","","","","","","","","","","","","","","","","",""
"","do_trial","134","415758","0.0-76.0-0.0","""event"",""trial"",""time""
""fullscreenenter"",""0"",""4444""
","
","
","""event"",""trial"",""time""
""fullscreenenter"",""0"",""4444""
","
","457.7999999821186","","","","","","","","50","0,0,0","6","blank","287","null","0.08339596536798478","0.7095288524054111","0.228058774194931","0","","","","","","","","",""
"","html-keyboard-response","135","416768","0.0-76.0-1.0","""event"",""trial"",""time""
""fullscreenenter"",""0"",""4444""
","
","
","""event"",""trial"",""time""
""fullscreenenter"",""0"",""4444""
","
","null","<p></p>","null","","","","","","","","","","","","","","","","","","","","","","","",""
"","do_recog","136","419933","0.0-77.0-0.0","""event"",""trial"",""time""
""fullscreenenter"",""0"",""4444""
","
","
","""event"",""trial"",""time""
""fullscreenenter"",""0"",""4444""
","
","1650.4000000059605","","","","","","","","53","","","","288","probe-176","","","","","1","[object Object]","151","3","1","","","",""
"","html-keyboard-response","137","420944","0.0-77.0-1.0","""event"",""trial"",""time""
""fullscreenenter"",""0"",""4444""
","
","
","""event"",""trial"",""time""
""fullscreenenter"",""0"",""4444""
","
","null","<p></p>","null","","","","","","","","","","","","","","","","","","","","","","","",""
"","do_trial","138","424537","0.0-78.0-0.0","""event"",""trial"",""time""
""fullscreenenter"",""0"",""4444""
","
","
","""event"",""trial"",""time""
""fullscreenenter"",""0"",""4444""
","
","996.1999999880791","","","","","","","","51","0,1,0","6","blank","289","null","0.134004282028894","0.6410417214397175","0.35011043053444485","0","","","","","","","","",""
"","html-keyboard-response","139","425544","0.0-78.0-1.0","""event"",""trial"",""time""
""fullscreenenter"",""0"",""4444""
","
","
","""event"",""trial"",""time""
""fullscreenenter"",""0"",""4444""
","
","null","<p></p>","null","","","","","","","","","","","","","","","","","","","","","","","",""
"","do_trial","140","428869","0.0-79.0-0.0","""event"",""trial"",""time""
""fullscreenenter"",""0"",""4444""
","
","
","""event"",""trial"",""time""
""fullscreenenter"",""0"",""4444""
","
","723","","","","","","","","51","0,0,0","6","blank","290","null","0.05089924852170436","0.5866364760284197","0.30130543451502767","0","","","","","","","","",""
"","html-keyboard-response","141","429881","0.0-79.0-1.0","""event"",""trial"",""time""
""fullscreenenter"",""0"",""4444""
","
","
","""event"",""trial"",""time""
""fullscreenenter"",""0"",""4444""
","
","null","<p></p>","null","","","","","","","","","","","","","","","","","","","","","","","",""
"","do_trial","142","432936","0.0-80.0-0.0","""event"",""trial"",""time""
""fullscreenenter"",""0"",""4444""
","
","
","""event"",""trial"",""time""
""fullscreenenter"",""0"",""4444""
","
","452.40000000596046","","","","","","","","50","0,1,0","6","blank","291","null","0.09198406702974123","0.5166137882351558","0.15505554277694564","1","","","","","","","","",""
"","html-keyboard-response","143","433947","0.0-80.0-1.0","""event"",""trial"",""time""
""fullscreenenter"",""0"",""4444""
","
","
","""event"",""trial"",""time""
""fullscreenenter"",""0"",""4444""
","
","null","<p></p>","null","","","","","","","","","","","","","","","","","","","","","","","",""
"","do_trial","144","437168","0.0-81.0-0.0","""event"",""trial"",""time""
""fullscreenenter"",""0"",""4444""
","
","
","""event"",""trial"",""time""
""fullscreenenter"",""0"",""4444""
","
","639.5","","","","","","","","50","0,0,0","6","blank","292","null","0.10341005552481228","0.3809923088751023","0.20392003821132473","0","","","","","","","","",""
"","html-keyboard-response","145","438181","0.0-81.0-1.0","""event"",""trial"",""time""
""fullscreenenter"",""0"",""4444""
","
","
","""event"",""trial"",""time""
""fullscreenenter"",""0"",""4444""
","
","null","<p></p>","null","","","","","","","","","","","","","","","","","","","","","","","",""
"","do_trial","146","441282","0.0-82.0-0.0","""event"",""trial"",""time""
""fullscreenenter"",""0"",""4444""
","
","
","""event"",""trial"",""time""
""fullscreenenter"",""0"",""4444""
","
","499.90000000596046","","","","","","","","50","0,0,1","6","blank","293","null","0.3322035452061715","0.2856825184703546","0.143904369584886","0","","","","","","","","",""
"","html-keyboard-response","147","442299","0.0-82.0-1.0","""event"",""trial"",""time""
""fullscreenenter"",""0"",""4444""
","
","
","""event"",""trial"",""time""
""fullscreenenter"",""0"",""4444""
","
","null","<p></p>","null","","","","","","","","","","","","","","","","","","","","","","","",""
"","do_recog","148","445459","0.0-83.0-0.0","""event"",""trial"",""time""
""fullscreenenter"",""0"",""4444""
","
","
","""event"",""trial"",""time""
""fullscreenenter"",""0"",""4444""
","
","1642.5","","","","","","","","56","","","","294","probe-149","","","","","1","[object Object]","76","1","0","","","",""
"","html-keyboard-response","149","446465","0.0-83.0-1.0","""event"",""trial"",""time""
""fullscreenenter"",""0"",""4444""
","
","
","""event"",""trial"",""time""
""fullscreenenter"",""0"",""4444""
","
","null","<p></p>","null","","","","","","","","","","","","","","","","","","","","","","","",""
"","do_trial","150","450277","0.0-84.0-0.0","""event"",""trial"",""time""
""fullscreenenter"",""0"",""4444""
","
","
","""event"",""trial"",""time""
""fullscreenenter"",""0"",""4444""
","
","1209.2999999821186","","","","","","","","50","0,0,1","6","blank","295","null","0.5595984467352401","0.12425962450802447","0.19353345399786573","0","","","","","","","","",""
"","html-keyboard-response","151","451288","0.0-84.0-1.0","""event"",""trial"",""time""
""fullscreenenter"",""0"",""4444""
","
","
","""event"",""trial"",""time""
""fullscreenenter"",""0"",""4444""
","
","null","<p></p>","null","","","","","","","","","","","","","","","","","","","","","","","",""
"","do_recog","152","452809","0.0-85.0-0.0","""event"",""trial"",""time""
""fullscreenenter"",""0"",""4444""
","
","
","""event"",""trial"",""time""
""fullscreenenter"",""0"",""4444""
","
","0.29999998211860657","","","","","","","","55","","","","296","probe-185","","","","","1","[object Object]","37","0","0","","","",""
"","html-keyboard-response","153","453819","0.0-85.0-1.0","""event"",""trial"",""time""
""fullscreenenter"",""0"",""4444""
","
","
","""event"",""trial"",""time""
""fullscreenenter"",""0"",""4444""
","
","null","<p></p>","null","","","","","","","","","","","","","","","","","","","","","","","",""
"","do_trial","154","458762","0.0-86.0-0.0","""event"",""trial"",""time""
""fullscreenenter"",""0"",""4444""
","
","
","""event"",""trial"",""time""
""fullscreenenter"",""0"",""4444""
","
","2359.4000000059605","","","","","","","","50","1,0,0","6","blank","297","null","0.5485078187367673","0.16506124711960166","0.16147144373904967","0","","","","","","","","",""
"","html-keyboard-response","155","459770","0.0-86.0-1.0","""event"",""trial"",""time""
""fullscreenenter"",""0"",""4444""
","
","
","""event"",""trial"",""time""
""fullscreenenter"",""0"",""4444""
","
","null","<p></p>","null","","","","","","","","","","","","","","","","","","","","","","","",""
"","do_recog","156","462864","0.0-87.0-0.0","""event"",""trial"",""time""
""fullscreenenter"",""0"",""4444""
","
","
","""event"",""trial"",""time""
""fullscreenenter"",""0"",""4444""
","
","1573.0999999940395","","","","","","","","56","","","","298","probe-243","","","","","0","[object Object]","null","null","1","","","",""
"","html-keyboard-response","157","463870","0.0-87.0-1.0","""event"",""trial"",""time""
""fullscreenenter"",""0"",""4444""
","
","
","""event"",""trial"",""time""
""fullscreenenter"",""0"",""4444""
","
","null","<p></p>","null","","","","","","","","","","","","","","","","","","","","","","","",""
"","do_trial","158","467165","0.0-88.0-0.0","""event"",""trial"",""time""
""fullscreenenter"",""0"",""4444""
","
","
","""event"",""trial"",""time""
""fullscreenenter"",""0"",""4444""
","
","682.3000000119209","","","","","","","","49","1,0,0","6","blank","299","null","0.5013105112787963","0.167320829955332","0.2558722952875971","1","","","","","","","","",""
"","html-keyboard-response","159","468174","0.0-88.0-1.0","""event"",""trial"",""time""
""fullscreenenter"",""0"",""4444""
","
","
","""event"",""trial"",""time""
""fullscreenenter"",""0"",""4444""
","
","null","<p></p>","null","","","","","","","","","","","","","","","","","","","","","","","",""
"","do_trial","160","471500","0.0-89.0-0.0","""event"",""trial"",""time""
""fullscreenenter"",""0"",""4444""
","
","
","""event"",""trial"",""time""
""fullscreenenter"",""0"",""4444""
","
","744.5","","","","","","","","49","1,0,0","6","blank","300","null","0.6324099505848766","0.18909270092552186","0.320675988228652","1","","","","","","","","",""
"","html-keyboard-response","161","472508","0.0-89.0-1.0","""event"",""trial"",""time""
""fullscreenenter"",""0"",""4444""
","
","
","""event"",""trial"",""time""
""fullscreenenter"",""0"",""4444""
","
","null","<p></p>","null","","","","","","","","","","","","","","","","","","","","","","","",""
"","do_trial","162","475553","0.0-90.0-0.0","""event"",""trial"",""time""
""fullscreenenter"",""0"",""4444""
","
","
","""event"",""trial"",""time""
""fullscreenenter"",""0"",""4444""
","
","447.5","","","","","","","","49","0,0,0","6","blank","301","null","0.5396929613760598","0.1402565427787655","0.3463518102038388","0","","","","","","","","",""
"","html-keyboard-response","163","476576","0.0-90.0-1.0","""event"",""trial"",""time""
""fullscreenenter"",""0"",""4444""
","
","
","""event"",""trial"",""time""
""fullscreenenter"",""0"",""4444""
","
","null","<p></p>","null","","","","","","","","","","","","","","","","","","","","","","","",""
"","do_trial","164","479615","0.0-91.0-0.0","""event"",""trial"",""time""
""fullscreenenter"",""0"",""4444""
","
","
","""event"",""trial"",""time""
""fullscreenenter"",""0"",""4444""
","
","459.40000000596046","","","","","","","","49","0,1,1","6","blank","302","null","0.4349157608043156","0.0972407699946742","0.32278943799872095","0","","","","","","","","",""
"","html-keyboard-response","165","480621","0.0-91.0-1.0","""event"",""trial"",""time""
""fullscreenenter"",""0"",""4444""
","
","
","""event"",""trial"",""time""
""fullscreenenter"",""0"",""4444""
","
","null","<p></p>","null","","","","","","","","","","","","","","","","","","","","","","","",""
"","do_recog","166","483602","0.0-92.0-0.0","""event"",""trial"",""time""
""fullscreenenter"",""0"",""4444""
","
","
","""event"",""trial"",""time""
""fullscreenenter"",""0"",""4444""
","
","1461.699999988079","","","","","","","","53","","","","303","probe-95","","","","","1","[object Object]","38","0","1","","","",""
"","html-keyboard-response","167","484612","0.0-92.0-1.0","""event"",""trial"",""time""
""fullscreenenter"",""0"",""4444""
","
","
","""event"",""trial"",""time""
""fullscreenenter"",""0"",""4444""
","
","null","<p></p>","null","","","","","","","","","","","","","","","","","","","","","","","",""
"","do_trial","168","488006","0.0-93.0-0.0","""event"",""trial"",""time""
""fullscreenenter"",""0"",""4444""
","
","
","""event"",""trial"",""time""
""fullscreenenter"",""0"",""4444""
","
","801.9000000059605","","","","","","","","49","1,0,1","6","blank","304","null","0.5258347771729875","0.09735108065996649","0.4162035505367871","1","","","","","","","","",""
"","html-keyboard-response","169","489013","0.0-93.0-1.0","""event"",""trial"",""time""
""fullscreenenter"",""0"",""4444""
","
","
","""event"",""trial"",""time""
""fullscreenenter"",""0"",""4444""
","
","null","<p></p>","null","","","","","","","","","","","","","","","","","","","","","","","",""
"","do_trial","170","492316","0.0-94.0-0.0","""event"",""trial"",""time""
""fullscreenenter"",""0"",""4444""
","
","
","""event"",""trial"",""time""
""fullscreenenter"",""0"",""4444""
","
","712","","","","","","","","49","0,0,1","6","blank","305","null","0.49138756540941186","0.16336474620439956","0.4180444286054923","0","","","","","","","","",""
"","html-keyboard-response","171","493333","0.0-94.0-1.0","""event"",""trial"",""time""
""fullscreenenter"",""0"",""4444""
","
","
","""event"",""trial"",""time""
""fullscreenenter"",""0"",""4444""
","
","null","<p></p>","null","","","","","","","","","","","","","","","","","","","","","","","",""
"","do_trial","172","496643","0.0-95.0-0.0","""event"",""trial"",""time""
""fullscreenenter"",""0"",""4444""
","
","
","""event"",""trial"",""time""
""fullscreenenter"",""0"",""4444""
","
","727.7000000178814","","","","","","","","49","1,0,0","6","blank","306","null","0.5248355122704531","0.13307867901548012","0.2861575373182936","1","","","","","","","","",""
"","html-keyboard-response","173","497653","0.0-95.0-1.0","""event"",""trial"",""time""
""fullscreenenter"",""0"",""4444""
","
","
","""event"",""trial"",""time""
""fullscreenenter"",""0"",""4444""
","
","null","<p></p>","null","","","","","","","","","","","","","","","","","","","","","","","",""
"","do_trial","174","500851","0.0-96.0-0.0","""event"",""trial"",""time""
""fullscreenenter"",""0"",""4444""
","
","
","""event"",""trial"",""time""
""fullscreenenter"",""0"",""4444""
","
","611.7000000178814","","","","","","","","49","1,0,0","6","blank","307","null","0.5782312984739489","0.06563144027008938","0.26205825934293697","1","","","","","","","","",""
"","html-keyboard-response","175","501867","0.0-96.0-1.0","""event"",""trial"",""time""
""fullscreenenter"",""0"",""4444""
","
","
","""event"",""trial"",""time""
""fullscreenenter"",""0"",""4444""
","
","null","<p></p>","null","","","","","","","","","","","","","","","","","","","","","","","",""
"","do_trial","176","505071","0.0-97.0-0.0","""event"",""trial"",""time""
""fullscreenenter"",""0"",""4444""
","
","
","""event"",""trial"",""time""
""fullscreenenter"",""0"",""4444""
","
","618.5999999940395","","","","","","","","49","0,0,0","6","blank","308","null","0.5146078616801991","0.08590263596316686","0.23134411334261187","0","","","","","","","","",""
"","html-keyboard-response","177","506085","0.0-97.0-1.0","""event"",""trial"",""time""
""fullscreenenter"",""0"",""4444""
","
","
","""event"",""trial"",""time""
""fullscreenenter"",""0"",""4444""
","
","null","<p></p>","null","","","","","","","","","","","","","","","","","","","","","","","",""
"","break","178","507376","0.0-98.0-0.0","""event"",""trial"",""time""
""fullscreenenter"",""0"",""4444""
","
","
","""event"",""trial"",""time""
""fullscreenenter"",""0"",""4444""
","
","1288.300000011921","<div class='center'><p>Time to take a quick break! You have 2 minutes to rest, but you can move on sooner if you'd like.</p><p> Press the <b>space bar</b> to continue.</p></div>","32","","","","","","","","","","","","","","","","","","","","","","","",""
"","do_trial","179","511078","0.0-98.0-1.0","""event"",""trial"",""time""
""fullscreenenter"",""0"",""4444""
","
","
","""event"",""trial"",""time""
""fullscreenenter"",""0"",""4444""
","
","1103.3999999761581","","","","","","","","49","1,1,0","6","blank","309","null","0.4369746917133744","0.17693502075144898","0.1862443498923065","1","","","","","","","","",""
"","html-keyboard-response","180","512086","0.0-98.0-2.0","""event"",""trial"",""time""
""fullscreenenter"",""0"",""4444""
","
","
","""event"",""trial"",""time""
""fullscreenenter"",""0"",""4444""
","
","null","<p></p>","null","","","","","","","","","","","","","","","","","","","","","","","",""
"","do_recog","181","515822","0.0-99.0-0.0","""event"",""trial"",""time""
""fullscreenenter"",""0"",""4444""
","
","
","""event"",""trial"",""time""
""fullscreenenter"",""0"",""4444""
","
","2205.7999999821186","","","","","","","","56","","","","310","probe-118","","","","","1","[object Object]","75","1","0","","","",""
"","html-keyboard-response","182","516833","0.0-99.0-1.0","""event"",""trial"",""time""
""fullscreenenter"",""0"",""4444""
","
","
","""event"",""trial"",""time""
""fullscreenenter"",""0"",""4444""
","
","null","<p></p>","null","","","","","","","","","","","","","","","","","","","","","","","",""
"","do_trial","183","520214","0.0-100.0-0.0","""event"",""trial"",""time""
""fullscreenenter"",""0"",""4444""
","
","
","""event"",""trial"",""time""
""fullscreenenter"",""0"",""4444""
","
","794.0999999940395","","","","","","","","49","1,0,0","6","blank","311","null","0.4249282398405878","0.16823582482243662","0.2552810062589558","1","","","","","","","","",""
"","html-keyboard-response","184","521225","0.0-100.0-1.0","""event"",""trial"",""time""
""fullscreenenter"",""0"",""4444""
","
","
","""event"",""trial"",""time""
""fullscreenenter"",""0"",""4444""
","
","null","<p></p>","null","","","","","","","","","","","","","","","","","","","","","","","",""
"","do_recog","185","525148","0.0-101.0-0.0","""event"",""trial"",""time""
""fullscreenenter"",""0"",""4444""
","
","
","""event"",""trial"",""time""
""fullscreenenter"",""0"",""4444""
","
","2397.2000000178814","","","","","","","","56","","","","312","probe-33","","","","","1","[object Object]","34","0","0","","","",""
"","html-keyboard-response","186","526155","0.0-101.0-1.0","""event"",""trial"",""time""
""fullscreenenter"",""0"",""4444""
","
","
","""event"",""trial"",""time""
""fullscreenenter"",""0"",""4444""
","
","null","<p></p>","null","","","","","","","","","","","","","","","","","","","","","","","",""
"","do_trial","187","529749","0.0-102.0-0.0","""event"",""trial"",""time""
""fullscreenenter"",""0"",""4444""
","
","
","""event"",""trial"",""time""
""fullscreenenter"",""0"",""4444""
","
","1004.5999999940395","","","","","","","","49","1,0,1","6","blank","313","null","0.5417353419640558","0.16594571524674126","0.2539543866747239","1","","","","","","","","",""
"","html-keyboard-response","188","530759","0.0-102.0-1.0","""event"",""trial"",""time""
""fullscreenenter"",""0"",""4444""
","
","
","""event"",""trial"",""time""
""fullscreenenter"",""0"",""4444""
","
","null","<p></p>","null","","","","","","","","","","","","","","","","","","","","","","","",""
"","do_trial","189","534123","0.0-103.0-0.0","""event"",""trial"",""time""
""fullscreenenter"",""0"",""4444""
","
","
","""event"",""trial"",""time""
""fullscreenenter"",""0"",""4444""
","
","769.5999999940395","","","","","","","","49","0,1,0","6","blank","314","null","0.5792479888597459","0.17726858071001844","0.3348118970486879","0","","","","","","","","",""
"","html-keyboard-response","190","535128","0.0-103.0-1.0","""event"",""trial"",""time""
""fullscreenenter"",""0"",""4444""
","
","
","""event"",""trial"",""time""
""fullscreenenter"",""0"",""4444""
","
","null","<p></p>","null","","","","","","","","","","","","","","","","","","","","","","","",""
"","do_trial","191","538503","0.0-104.0-0.0","""event"",""trial"",""time""
""fullscreenenter"",""0"",""4444""
","
","
","""event"",""trial"",""time""
""fullscreenenter"",""0"",""4444""
","
","778.6999999880791","","","","","","","","50","0,1,1","6","blank","315","null","0.6439688354269518","0.19448062333368085","0.2681706267062747","1","","","","","","","","",""
"","html-keyboard-response","192","539513","0.0-104.0-1.0","""event"",""trial"",""time""
""fullscreenenter"",""0"",""4444""
","
","
","""event"",""trial"",""time""
""fullscreenenter"",""0"",""4444""
","
","null","<p></p>","null","","","","","","","","","","","","","","","","","","","","","","","",""
"","do_trial","193","542847","0.0-105.0-0.0","""event"",""trial"",""time""
""fullscreenenter"",""0"",""4444""
","
","
","""event"",""trial"",""time""
""fullscreenenter"",""0"",""4444""
","
","727.7000000178814","","","","","","","","50","1,0,0","6","blank","316","null","0.6054064903850072","0.14620866758014","0.12802926934742845","0","","","","","","","","",""
"","html-keyboard-response","194","543857","0.0-105.0-1.0","""event"",""trial"",""time""
""fullscreenenter"",""0"",""4444""
","
","
","""event"",""trial"",""time""
""fullscreenenter"",""0"",""4444""
","
","null","<p></p>","null","","","","","","","","","","","","","","","","","","","","","","","",""
"","do_trial","195","546915","0.0-106.0-0.0","""event"",""trial"",""time""
""fullscreenenter"",""0"",""4444""
","
","
","""event"",""trial"",""time""
""fullscreenenter"",""0"",""4444""
","
","460.7000000178814","","","","","","","","50","1,0,0","6","blank","317","null","0.5367244852246903","0.20992782239880114","0.06293181781966807","0","","","","","","","","",""
"","html-keyboard-response","196","547928","0.0-106.0-1.0","""event"",""trial"",""time""
""fullscreenenter"",""0"",""4444""
","
","
","""event"",""trial"",""time""
""fullscreenenter"",""0"",""4444""
","
","null","<p></p>","null","","","","","","","","","","","","","","","","","","","","","","","",""
"","do_recog","197","552253","0.0-107.0-0.0","""event"",""trial"",""time""
""fullscreenenter"",""0"",""4444""
","
","
","""event"",""trial"",""time""
""fullscreenenter"",""0"",""4444""
","
","2803","","","","","","","","54","","","","318","probe-46","","","","","1","[object Object]","35","0","1","","","",""
"","html-keyboard-response","198","553265","0.0-107.0-1.0","""event"",""trial"",""time""
""fullscreenenter"",""0"",""4444""
","
","
","""event"",""trial"",""time""
""fullscreenenter"",""0"",""4444""
","
","null","<p></p>","null","","","","","","","","","","","","","","","","","","","","","","","",""
"","do_trial","199","556923","0.0-108.0-0.0","""event"",""trial"",""time""
""fullscreenenter"",""0"",""4444""
","
","
","""event"",""trial"",""time""
""fullscreenenter"",""0"",""4444""
","
","1072.4000000059605","","","","","","","","51","0,0,0","6","blank","319","null","0.5484930761519579","0.05583635727894164","0.0723764342913068","0","","","","","","","","",""
"","html-keyboard-response","200","557934","0.0-108.0-1.0","""event"",""trial"",""time""
""fullscreenenter"",""0"",""4444""
","
","
","""event"",""trial"",""time""
""fullscreenenter"",""0"",""4444""
","
","null","<p></p>","null","","","","","","","","","","","","","","","","","","","","","","","",""
"","do_trial","201","561236","0.0-109.0-0.0","""event"",""trial"",""time""
""fullscreenenter"",""0"",""4444""
","
","
","""event"",""trial"",""time""
""fullscreenenter"",""0"",""4444""
","
","695.7000000178814","","","","","","","","49","0,0,0","6","blank","320","null","0.5552401673832664","0.09891861347454349","0.09145583608094579","0","","","","","","","","",""
"","html-keyboard-response","202","562245","0.0-109.0-1.0","""event"",""trial"",""time""
""fullscreenenter"",""0"",""4444""
","
","
","""event"",""trial"",""time""
""fullscreenenter"",""0"",""4444""
","
","null","<p></p>","null","","","","","","","","","","","","","","","","","","","","","","","",""
"","do_trial","203","565345","0.0-110.0-0.0","""event"",""trial"",""time""
""fullscreenenter"",""0"",""4444""
","
","
","""event"",""trial"",""time""
""fullscreenenter"",""0"",""4444""
","
","499.90000000596046","","","","","","","","50","0,0,0","6","blank","321","null","0.5860176593753131","0.11887393874807035","0.17286517433419285","0","","","","","","","","",""
"","html-keyboard-response","204","566348","0.0-110.0-1.0","""event"",""trial"",""time""
""fullscreenenter"",""0"",""4444""
","
","
","""event"",""trial"",""time""
""fullscreenenter"",""0"",""4444""
","
","null","<p></p>","null","","","","","","","","","","","","","","","","","","","","","","","",""
"","do_recog","205","569608","0.0-111.0-0.0","""event"",""trial"",""time""
""fullscreenenter"",""0"",""4444""
","
","
","""event"",""trial"",""time""
""fullscreenenter"",""0"",""4444""
","
","1740","","","","","","","","56","","","","322","probe-74","","","","","1","[object Object]","70","1","0","","","",""
"","html-keyboard-response","206","570620","0.0-111.0-1.0","""event"",""trial"",""time""
""fullscreenenter"",""0"",""4444""
","
","
","""event"",""trial"",""time""
""fullscreenenter"",""0"",""4444""
","
","null","<p></p>","null","","","","","","","","","","","","","","","","","","","","","","","",""
"","do_trial","207","574345","0.0-112.0-0.0","""event"",""trial"",""time""
""fullscreenenter"",""0"",""4444""
","
","
","""event"",""trial"",""time""
""fullscreenenter"",""0"",""4444""
","
","1111.9000000059605","","","","","","","","51","1,0,0","6","blank","323","null","0.6149623851353043","0.08876178199448977","0.1711732160157822","0","","","","","","","","",""
"","html-keyboard-response","208","575355","0.0-112.0-1.0","""event"",""trial"",""time""
""fullscreenenter"",""0"",""4444""
","
","
","""event"",""trial"",""time""
""fullscreenenter"",""0"",""4444""
","
","null","<p></p>","null","","","","","","","","","","","","","","","","","","","","","","","",""
"","do_trial","209","578464","0.0-113.0-0.0","""event"",""trial"",""time""
""fullscreenenter"",""0"",""4444""
","
","
","""event"",""trial"",""time""
""fullscreenenter"",""0"",""4444""
","
","523.5","","","","","","","","50","0,0,0","6","blank","324","null","0.6389835565333662","0.08412236453660484","0.25389773297011714","0","","","","","","","","",""
"","html-keyboard-response","210","579473","0.0-113.0-1.0","""event"",""trial"",""time""
""fullscreenenter"",""0"",""4444""
","
","
","""event"",""trial"",""time""
""fullscreenenter"",""0"",""4444""
","
","null","<p></p>","null","","","","","","","","","","","","","","","","","","","","","","","",""
"","do_trial","211","582549","0.0-114.0-0.0","""event"",""trial"",""time""
""fullscreenenter"",""0"",""4444""
","
","
","""event"",""trial"",""time""
""fullscreenenter"",""0"",""4444""
","
","483.59999999403954","","","","","","","","49","1,0,1","6","blank","325","null","0.6572176385936304","0.13055599207354845","0.26938915681638465","1","","","","","","","","",""
"","html-keyboard-response","212","583557","0.0-114.0-1.0","""event"",""trial"",""time""
""fullscreenenter"",""0"",""4444""
","
","
","""event"",""trial"",""time""
""fullscreenenter"",""0"",""4444""
","
","null","<p></p>","null","","","","","","","","","","","","","","","","","","","","","","","",""
"","do_trial","213","586777","0.0-115.0-0.0","""event"",""trial"",""time""
""fullscreenenter"",""0"",""4444""
","
","
","""event"",""trial"",""time""
""fullscreenenter"",""0"",""4444""
","
","620","","","","","","","","49","0,0,1","6","blank","326","null","0.45984287548992087","0.1533428462645183","0.40065790716590416","0","","","","","","","","",""
"","html-keyboard-response","214","587787","0.0-115.0-1.0","""event"",""trial"",""time""
""fullscreenenter"",""0"",""4444""
","
","
","""event"",""trial"",""time""
""fullscreenenter"",""0"",""4444""
","
","null","<p></p>","null","","","","","","","","","","","","","","","","","","","","","","","",""
"","do_recog","215","591698","0.0-116.0-0.0","""event"",""trial"",""time""
""fullscreenenter"",""0"",""4444""
","
","
","""event"",""trial"",""time""
""fullscreenenter"",""0"",""4444""
","
","2381.4000000059605","","","","","","","","54","","","","327","probe-124","","","","","1","[object Object]","197","4","1","","","",""
"","html-keyboard-response","216","592707","0.0-116.0-1.0","""event"",""trial"",""time""
""fullscreenenter"",""0"",""4444""
","
","
","""event"",""trial"",""time""
""fullscreenenter"",""0"",""4444""
","
","null","<p></p>","null","","","","","","","","","","","","","","","","","","","","","","","",""
"","do_trial","217","595985","0.0-117.0-0.0","""event"",""trial"",""time""
""fullscreenenter"",""0"",""4444""
","
","
","""event"",""trial"",""time""
""fullscreenenter"",""0"",""4444""
","
","690.6000000238419","","","","","","","","49","1,0,0","6","blank","328","null","0.46202103419623924","0.10137867445050983","0.46940046177877054","1","","","","","","","","",""
"","html-keyboard-response","218","596988","0.0-117.0-1.0","""event"",""trial"",""time""
""fullscreenenter"",""0"",""4444""
","
","
","""event"",""trial"",""time""
""fullscreenenter"",""0"",""4444""
","
","null","<p></p>","null","","","","","","","","","","","","","","","","","","","","","","","",""
"","do_trial","219","600272","0.0-118.0-0.0","""event"",""trial"",""time""
""fullscreenenter"",""0"",""4444""
","
","
","""event"",""trial"",""time""
""fullscreenenter"",""0"",""4444""
","
","688.5999999940395","","","","","","","","49","0,0,0","6","blank","329","null","0.5803984284762694","0.13792803196706724","0.43104915220865814","0","","","","","","","","",""
"","html-keyboard-response","220","601279","0.0-118.0-1.0","""event"",""trial"",""time""
""fullscreenenter"",""0"",""4444""
","
","
","""event"",""trial"",""time""
""fullscreenenter"",""0"",""4444""
","
","null","<p></p>","null","","","","","","","","","","","","","","","","","","","","","","","",""
"","do_recog","221","605289","0.0-119.0-0.0","""event"",""trial"",""time""
""fullscreenenter"",""0"",""4444""
","
","
","""event"",""trial"",""time""
""fullscreenenter"",""0"",""4444""
","
","2478.2000000178814","","","","","","","","56","","","","330","probe-231","","","","","0","[object Object]","null","null","1","","","",""
"","html-keyboard-response","222","606295","0.0-119.0-1.0","""event"",""trial"",""time""
""fullscreenenter"",""0"",""4444""
","
","
","""event"",""trial"",""time""
""fullscreenenter"",""0"",""4444""
","
","null","<p></p>","null","","","","","","","","","","","","","","","","","","","","","","","",""
"","do_trial","223","609872","0.0-120.0-0.0","""event"",""trial"",""time""
""fullscreenenter"",""0"",""4444""
","
","
","""event"",""trial"",""time""
""fullscreenenter"",""0"",""4444""
","
","988.6999999880791","","","","","","","","49","1,0,0","6","blank","331","null","0.6661855523314419","0.08763210218895756","0.31404012161261313","1","","","","","","","","",""
"","html-keyboard-response","224","610883","0.0-120.0-1.0","""event"",""trial"",""time""
""fullscreenenter"",""0"",""4444""
","
","
","""event"",""trial"",""time""
""fullscreenenter"",""0"",""4444""
","
","null","<p></p>","null","","","","","","","","","","","","","","","","","","","","","","","",""
"","do_trial","225","614319","0.0-121.0-0.0","""event"",""trial"",""time""
""fullscreenenter"",""0"",""4444""
","
","
","""event"",""trial"",""time""
""fullscreenenter"",""0"",""4444""
","
","832.9000000059605","","","","","","","","49","1,0,0","6","blank","332","null","0.7112399237291934","0.09966287364908619","0.2136555924572448","1","","","","","","","","",""
"","html-keyboard-response","226","615331","0.0-121.0-1.0","""event"",""trial"",""time""
""fullscreenenter"",""0"",""4444""
","
","
","""event"",""trial"",""time""
""fullscreenenter"",""0"",""4444""
","
","null","<p></p>","null","","","","","","","","","","","","","","","","","","","","","","","",""
"","do_trial","227","618792","0.0-122.0-0.0","""event"",""trial"",""time""
""fullscreenenter"",""0"",""4444""
","
","
","""event"",""trial"",""time""
""fullscreenenter"",""0"",""4444""
","
","861.5","","","","","","","","49","1,1,0","6","blank","333","null","0.6580817654570623","0.09352148727934814","0.25466755262572044","1","","","","","","","","",""
"","html-keyboard-response","228","619801","0.0-122.0-1.0","""event"",""trial"",""time""
""fullscreenenter"",""0"",""4444""
","
","
","""event"",""trial"",""time""
""fullscreenenter"",""0"",""4444""
","
","null","<p></p>","null","","","","","","","","","","","","","","","","","","","","","","","",""
"","do_trial","229","623036","0.0-123.0-0.0","""event"",""trial"",""time""
""fullscreenenter"",""0"",""4444""
","
","
","""event"",""trial"",""time""
""fullscreenenter"",""0"",""4444""
","
","611.2000000178814","","","","","","","","49","1,0,0","6","blank","334","null","0.6168342379610119","0.1876297458371212","0.1166403037775688","1","","","","","","","","",""
"","html-keyboard-response","230","624047","0.0-123.0-1.0","""event"",""trial"",""time""
""fullscreenenter"",""0"",""4444""
","
","
","""event"",""trial"",""time""
""fullscreenenter"",""0"",""4444""
","
","null","<p></p>","null","","","","","","","","","","","","","","","","","","","","","","","",""
"","do_trial","231","627189","0.0-124.0-0.0","""event"",""trial"",""time""
""fullscreenenter"",""0"",""4444""
","
","
","""event"",""trial"",""time""
""fullscreenenter"",""0"",""4444""
","
","497.40000000596046","","","","","","","","49","1,0,1","6","blank","335","null","0.6559995430432791","0.19045978086895907","0.1671388019346636","1","","","","","","","","",""
"","html-keyboard-response","232","628198","0.0-124.0-1.0","""event"",""trial"",""time""
""fullscreenenter"",""0"",""4444""
","
","
","""event"",""trial"",""time""
""fullscreenenter"",""0"",""4444""
","
","null","<p></p>","null","","","","","","","","","","","","","","","","","","","","","","","",""
"","do_trial","233","631309","0.0-125.0-0.0","""event"",""trial"",""time""
""fullscreenenter"",""0"",""4444""
","
","
","""event"",""trial"",""time""
""fullscreenenter"",""0"",""4444""
","
","523.5999999940395","","","","","","","","49","1,0,0","6","blank","336","null","0.644135146651161","0.13849625558329495","0.20025323535477285","1","","","","","","","","",""
"","html-keyboard-response","234","632321","0.0-125.0-1.0","""event"",""trial"",""time""
""fullscreenenter"",""0"",""4444""
","
","
","""event"",""trial"",""time""
""fullscreenenter"",""0"",""4444""
","
","null","<p></p>","null","","","","","","","","","","","","","","","","","","","","","","","",""
"","do_trial","235","635362","0.0-126.0-0.0","""event"",""trial"",""time""
""fullscreenenter"",""0"",""4444""
","
","
","""event"",""trial"",""time""
""fullscreenenter"",""0"",""4444""
","
","431.59999999403954","","","","","","","","49","1,0,0","6","blank","337","null","0.6751522621255356","0.06806725614849649","0.2810082247350015","1","","","","","","","","",""
"","html-keyboard-response","236","636366","0.0-126.0-1.0","""event"",""trial"",""time""
""fullscreenenter"",""0"",""4444""
","
","
","""event"",""trial"",""time""
""fullscreenenter"",""0"",""4444""
","
","null","<p></p>","null","","","","","","","","","","","","","","","","","","","","","","","",""
"","do_recog","237","639982","0.0-127.0-0.0","""event"",""trial"",""time""
""fullscreenenter"",""0"",""4444""
","
","
","""event"",""trial"",""time""
""fullscreenenter"",""0"",""4444""
","
","2094.4000000059605","","","","","","","","54","","","","338","probe-198","","","","","1","[object Object]","155","3","1","","","",""
"","html-keyboard-response","238","641024","0.0-127.0-1.0","""event"",""trial"",""time""
""fullscreenenter"",""0"",""4444""
","
","
","""event"",""trial"",""time""
""fullscreenenter"",""0"",""4444""
","
","null","<p></p>","null","","","","","","","","","","","","","","","","","","","","","","","",""
"","do_trial","239","644368","0.0-128.0-0.0","""event"",""trial"",""time""
""fullscreenenter"",""0"",""4444""
","
","
","""event"",""trial"",""time""
""fullscreenenter"",""0"",""4444""
","
","757.1999999880791","","","","","","","","49","0,0,1","6","blank","339","null","0.5896868378109477","0.08930606131580592","0.3078032636329391","0","","","","","","","","",""
"","html-keyboard-response","240","645378","0.0-128.0-1.0","""event"",""trial"",""time""
""fullscreenenter"",""0"",""4444""
","
","
","""event"",""trial"",""time""
""fullscreenenter"",""0"",""4444""
","
","null","<p></p>","null","","","","","","","","","","","","","","","","","","","","","","","",""
"","do_trial","241","648367","0.0-129.0-0.0","""event"",""trial"",""time""
""fullscreenenter"",""0"",""4444""
","
","
","""event"",""trial"",""time""
""fullscreenenter"",""0"",""4444""
","
","399","","","","","","","","49","0,0,0","6","blank","340","null","0.435344091473679","0.12287890267806761","0.2977291269539408","0","","","","","","","","",""
"","html-keyboard-response","242","649377","0.0-129.0-1.0","""event"",""trial"",""time""
""fullscreenenter"",""0"",""4444""
","
","
","""event"",""trial"",""time""
""fullscreenenter"",""0"",""4444""
","
","null","<p></p>","null","","","","","","","","","","","","","","","","","","","","","","","",""
"","do_recog","243","652953","0.0-130.0-0.0","""event"",""trial"",""time""
""fullscreenenter"",""0"",""4444""
","
","
","""event"",""trial"",""time""
""fullscreenenter"",""0"",""4444""
","
","2054.5","","","","","","","","55","","","","341","probe-234","","","","","0","[object Object]","null","null","1","","","",""
"","html-keyboard-response","244","653958","0.0-130.0-1.0","""event"",""trial"",""time""
""fullscreenenter"",""0"",""4444""
","
","
","""event"",""trial"",""time""
""fullscreenenter"",""0"",""4444""
","
","null","<p></p>","null","","","","","","","","","","","","","","","","","","","","","","","",""
"","do_trial","245","657635","0.0-131.0-0.0","""event"",""trial"",""time""
""fullscreenenter"",""0"",""4444""
","
","
","""event"",""trial"",""time""
""fullscreenenter"",""0"",""4444""
","
","1064.5999999940395","","","","","","","","50","0,0,0","6","blank","342","null","0.45864649072371544","0.15428501408678288","0.18418870076270782","0","","","","","","","","",""
"","html-keyboard-response","246","658647","0.0-131.0-1.0","""event"",""trial"",""time""
""fullscreenenter"",""0"",""4444""
","
","
","""event"",""trial"",""time""
""fullscreenenter"",""0"",""4444""
","
","null","<p></p>","null","","","","","","","","","","","","","","","","","","","","","","","",""
"","do_recog","247","662331","0.0-132.0-0.0","""event"",""trial"",""time""
""fullscreenenter"",""0"",""4444""
","
","
","""event"",""trial"",""time""
""fullscreenenter"",""0"",""4444""
","
","2153.300000011921","","","","","","","","54","","","","343","probe-102","","","","","1","[object Object]","194","4","1","","","",""
"","html-keyboard-response","248","663339","0.0-132.0-1.0","""event"",""trial"",""time""
""fullscreenenter"",""0"",""4444""
","
","
","""event"",""trial"",""time""
""fullscreenenter"",""0"",""4444""
","
","null","<p></p>","null","","","","","","","","","","","","","","","","","","","","","","","",""
"","do_trial","249","666523","0.0-133.0-0.0","""event"",""trial"",""time""
""fullscreenenter"",""0"",""4444""
","
","
","""event"",""trial"",""time""
""fullscreenenter"",""0"",""4444""
","
","585.8999999761581","","","","","","","","51","1,0,0","6","blank","344","null","0.5440507955826025","0.24107868354845496","0.07840960509798484","0","","","","","","","","",""
"","html-keyboard-response","250","667531","0.0-133.0-1.0","""event"",""trial"",""time""
""fullscreenenter"",""0"",""4444""
","
","
","""event"",""trial"",""time""
""fullscreenenter"",""0"",""4444""
","
","null","<p></p>","null","","","","","","","","","","","","","","","","","","","","","","","",""
"","do_recog","251","670825","0.0-134.0-0.0","""event"",""trial"",""time""
""fullscreenenter"",""0"",""4444""
","
","
","""event"",""trial"",""time""
""fullscreenenter"",""0"",""4444""
","
","1767.2999999821186","","","","","","","","55","","","","345","probe-129","","","","","1","[object Object]","79","1","0","","","",""
"","html-keyboard-response","252","671832","0.0-134.0-1.0","""event"",""trial"",""time""
""fullscreenenter"",""0"",""4444""
","
","
","""event"",""trial"",""time""
""fullscreenenter"",""0"",""4444""
","
","null","<p></p>","null","","","","","","","","","","","","","","","","","","","","","","","",""
"","do_trial","253","675341","0.0-135.0-0.0","""event"",""trial"",""time""
""fullscreenenter"",""0"",""4444""
","
","
","""event"",""trial"",""time""
""fullscreenenter"",""0"",""4444""
","
","916.2999999821186","","","","","","","","49","1,0,0","6","blank","346","null","0.4532906400535026","0.18482316674380272","0.14377361243627323","1","","","","","","","","",""
"","html-keyboard-response","254","676350","0.0-135.0-1.0","""event"",""trial"",""time""
""fullscreenenter"",""0"",""4444""
","
","
","""event"",""trial"",""time""
""fullscreenenter"",""0"",""4444""
","
","null","<p></p>","null","","","","","","","","","","","","","","","","","","","","","","","",""
"","do_recog","255","680323","0.0-136.0-0.0","""event"",""trial"",""time""
""fullscreenenter"",""0"",""4444""
","
","
","""event"",""trial"",""time""
""fullscreenenter"",""0"",""4444""
","
","2447.9000000059605","","","","","","","","54","","","","347","probe-151","","","","","1","[object Object]","154","3","1","","","",""
"","html-keyboard-response","256","681332","0.0-136.0-1.0","""event"",""trial"",""time""
""fullscreenenter"",""0"",""4444""
","
","
","""event"",""trial"",""time""
""fullscreenenter"",""0"",""4444""
","
","null","<p></p>","null","","","","","","","","","","","","","","","","","","","","","","","",""
"","do_trial","257","684644","0.0-137.0-0.0","""event"",""trial"",""time""
""fullscreenenter"",""0"",""4444""
","
","
","""event"",""trial"",""time""
""fullscreenenter"",""0"",""4444""
","
","721.3000000119209","","","","","","","","49","0,0,0","6","blank","348","null","0.24136599304060782","0.18985769380727469","0.19699611759131763","0","","","","","","","","",""
"","html-keyboard-response","258","685653","0.0-137.0-1.0","""event"",""trial"",""time""
""fullscreenenter"",""0"",""4444""
","
","
","""event"",""trial"",""time""
""fullscreenenter"",""0"",""4444""
","
","null","<p></p>","null","","","","","","","","","","","","","","","","","","","","","","","",""
"","break","259","686905","0.0-138.0-0.0","""event"",""trial"",""time""
""fullscreenenter"",""0"",""4444""
","
","
","""event"",""trial"",""time""
""fullscreenenter"",""0"",""4444""
","
","1247.800000011921","<div class='center'><p>Time to take a quick break! You have 2 minutes to rest, but you can move on sooner if you'd like.</p><p> Press the <b>space bar</b> to continue.</p></div>","32","","","","","","","","","","","","","","","","","","","","","","","",""
"","do_recog","260","691011","0.0-138.0-1.0","""event"",""trial"",""time""
""fullscreenenter"",""0"",""4444""
","
","
","""event"",""trial"",""time""
""fullscreenenter"",""0"",""4444""
","
","2586.0999999940395","","","","","","","","54","","","","349","probe-41","","","","","1","[object Object]","115","2","1","","","",""
"","html-keyboard-response","261","692020","0.0-138.0-2.0","""event"",""trial"",""time""
""fullscreenenter"",""0"",""4444""
","
","
","""event"",""trial"",""time""
""fullscreenenter"",""0"",""4444""
","
","null","<p></p>","null","","","","","","","","","","","","","","","","","","","","","","","",""
"","do_trial","262","695474","0.0-139.0-0.0","""event"",""trial"",""time""
""fullscreenenter"",""0"",""4444""
","
","
","""event"",""trial"",""time""
""fullscreenenter"",""0"",""4444""
","
","857","","","","","","","","49","0,0,1","6","blank","350","null","0.19213920130044887","0.319017479894754","0.4403283528675479","0","","","","","","","","",""
"","html-keyboard-response","263","696487","0.0-139.0-1.0","""event"",""trial"",""time""
""fullscreenenter"",""0"",""4444""
","
","
","""event"",""trial"",""time""
""fullscreenenter"",""0"",""4444""
","
","null","<p></p>","null","","","","","","","","","","","","","","","","","","","","","","","",""
"","do_trial","264","699866","0.0-140.0-0.0","""event"",""trial"",""time""
""fullscreenenter"",""0"",""4444""
","
","
","""event"",""trial"",""time""
""fullscreenenter"",""0"",""4444""
","
","774.8999999761581","","","","","","","","49","0,1,0","6","blank","351","null","0.11248010425639984","0.45430609964323915","0.42757013629042184","0","","","","","","","","",""
"","html-keyboard-response","265","700875","0.0-140.0-1.0","""event"",""trial"",""time""
""fullscreenenter"",""0"",""4444""
","
","
","""event"",""trial"",""time""
""fullscreenenter"",""0"",""4444""
","
","null","<p></p>","null","","","","","","","","","","","","","","","","","","","","","","","",""
"","do_trial","266","704080","0.0-141.0-0.0","""event"",""trial"",""time""
""fullscreenenter"",""0"",""4444""
","
","
","""event"",""trial"",""time""
""fullscreenenter"",""0"",""4444""
","
","611.1999999880791","","","","","","","","50","0,0,0","6","blank","352","null","0.07283187702332392","0.47876726660952496","0.6211660028133876","0","","","","","","","","",""
"","html-keyboard-response","267","705092","0.0-141.0-1.0","""event"",""trial"",""time""
""fullscreenenter"",""0"",""4444""
","
","
","""event"",""trial"",""time""
""fullscreenenter"",""0"",""4444""
","
","null","<p></p>","null","","","","","","","","","","","","","","","","","","","","","","","",""
"","do_trial","268","708147","0.0-142.0-0.0","""event"",""trial"",""time""
""fullscreenenter"",""0"",""4444""
","
","
","""event"",""trial"",""time""
""fullscreenenter"",""0"",""4444""
","
","460.59999999403954","","","","","","","","50","1,1,0","6","blank","353","null","0.09715417193373566","0.4112267752487505","0.711055537396434","1","","","","","","","","",""
"","html-keyboard-response","269","709160","0.0-142.0-1.0","""event"",""trial"",""time""
""fullscreenenter"",""0"",""4444""
","
","
","""event"",""trial"",""time""
""fullscreenenter"",""0"",""4444""
","
","null","<p></p>","null","","","","","","","","","","","","","","","","","","","","","","","",""
"","do_recog","270","712314","0.0-143.0-0.0","""event"",""trial"",""time""
""fullscreenenter"",""0"",""4444""
","
","
","""event"",""trial"",""time""
""fullscreenenter"",""0"",""4444""
","
","1627.4000000059605","","","","","","","","55","","","","354","probe-247","","","","","0","[object Object]","null","null","1","","","",""
"","html-keyboard-response","271","713320","0.0-143.0-1.0","""event"",""trial"",""time""
""fullscreenenter"",""0"",""4444""
","
","
","""event"",""trial"",""time""
""fullscreenenter"",""0"",""4444""
","
","null","<p></p>","null","","","","","","","","","","","","","","","","","","","","","","","",""
"","do_trial","272","716752","0.0-144.0-0.0","""event"",""trial"",""time""
""fullscreenenter"",""0"",""4444""
","
","
","""event"",""trial"",""time""
""fullscreenenter"",""0"",""4444""
","
","827.5","","","","","","","","50","0,0,1","6","blank","355","null","0.13602754347229387","0.34133951154343983","0.6584719928301763","0","","","","","","","","",""
"","html-keyboard-response","273","717762","0.0-144.0-1.0","""event"",""trial"",""time""
""fullscreenenter"",""0"",""4444""
","
","
","""event"",""trial"",""time""
""fullscreenenter"",""0"",""4444""
","
","null","<p></p>","null","","","","","","","","","","","","","","","","","","","","","","","",""
"","do_trial","274","720889","0.0-145.0-0.0","""event"",""trial"",""time""
""fullscreenenter"",""0"",""4444""
","
","
","""event"",""trial"",""time""
""fullscreenenter"",""0"",""4444""
","
","537.2000000178814","","","","","","","","50","0,1,1","6","blank","356","null","0.20192317830113246","0.39430549745683635","0.6406359139979461","1","","","","","","","","",""
"","html-keyboard-response","275","721899","0.0-145.0-1.0","""event"",""trial"",""time""
""fullscreenenter"",""0"",""4444""
","
","
","""event"",""trial"",""time""
""fullscreenenter"",""0"",""4444""
","
","null","<p></p>","null","","","","","","","","","","","","","","","","","","","","","","","",""
"","do_trial","276","725191","0.0-146.0-0.0","""event"",""trial"",""time""
""fullscreenenter"",""0"",""4444""
","
","
","""event"",""trial"",""time""
""fullscreenenter"",""0"",""4444""
","
","700.9000000059605","","","","","","","","50","0,0,1","6","blank","357","null","0.24070510973330492","0.2619272386319737","0.6992231106960743","0","","","","","","","","",""
"","html-keyboard-response","277","726198","0.0-146.0-1.0","""event"",""trial"",""time""
