"success","trial_type","trial_index","time_elapsed","internal_node_id","interactions","blur_events","focus_events","fullscreenenter_events","fullscreenexit_events","rt","stimulus","key_press","subject_id","participant_id","age","gender","prompt","response","choice_outcomes","context_n","context_img_id","trial_n","probe_img_id","pR_red","pR_white","pR_black","outcome","is_valid","image_to_show","probed_trial","probed_context","correct","probe","probed_trial_n","probed_context_n","context_im"
"true","fullscreen","0","14121","0.0-0.0","""event"",""trial"",""time""
""fullscreenenter"",""0"",""13277""
","
","
","""event"",""trial"",""time""
""fullscreenenter"",""0"",""13277""
","
","","","","","","","","","","","","","","","","","","","","","","","","","","",""
"","pavlovia","1","14125","0.0-1.0","""event"",""trial"",""time""
""fullscreenenter"",""0"",""13277""
","
","
","""event"",""trial"",""time""
""fullscreenenter"",""0"",""13277""
","
","","","","","","","","","","","","","","","","","","","","","","","","","","",""
"","welc_back","2","24087","0.0-2.0","""event"",""trial"",""time""
""fullscreenenter"",""0"",""13277""
","
","
","""event"",""trial"",""time""
""fullscreenenter"",""0"",""13277""
","
","null","run_exp/static/audio/clip_29_welcome_back.m4a","null","441","463","19","Female","<div class='center'><p>Welcome to day 2!</p><p> Yesterday, you were the head captain of a pirate ship. You asked your fellow pirates to rob other ships of their gold across six different islands.</p></div>","","","","","","","","","","","","","","","","","","",""
"","html-keyboard-response","3","25590","0.0-3.0","""event"",""trial"",""time""
""fullscreenenter"",""0"",""13277""
","
","
","""event"",""trial"",""time""
""fullscreenenter"",""0"",""13277""
","
","1488.3000000044703","<div class='center'><p>Welcome to day 2!</p><p> Yesterday, you were the head captain of a pirate ship. You asked your fellow pirates to rob other ships of their gold across six different islands.</p><p><b>[Press the space bar to continue]</b></p></div>","32","","","","","","","","","","","","","","","","","","","","","","","",""
"","day_1_summary_goal","4","42802","0.0-4.0","""event"",""trial"",""time""
""fullscreenenter"",""0"",""13277""
","
","
","""event"",""trial"",""time""
""fullscreenenter"",""0"",""13277""
","
","null","run_exp/static/audio/clip_30_goal_of_game.m4a","null","","","","","<div class='center'><p>Today, like yesterday, you get to pick which pirate you want to rob the next ship.</p><p>If the pirate is successful in robbing a ship, you get gold coins that look like this: </p><p><img src='run_exp/static/images/tutorial/reward.png' height='150'></p><p> If they were not successful in robbing the ship, then you will get no gold coins and you'll see a big red x like this: </p><p><img src='run_exp/static/images/tutorial/reward_no.png' height='150'></p></div>","","","","","","","","","","","","","","","","","","",""
"","html-keyboard-response","5","43367","0.0-5.0","""event"",""trial"",""time""
""fullscreenenter"",""0"",""13277""
","
","
","""event"",""trial"",""time""
""fullscreenenter"",""0"",""13277""
","
","563.7999999970198","<div class='center'><p>Today, like yesterday, you get to pick which pirate you want to rob the next ship.</p><p>If the pirate is successful in robbing a ship, you get gold coins that look like this: </p><p><img src='run_exp/static/images/tutorial/reward.png' height='150'></p><p> If they were not successful in robbing the ship, then you will get no gold coins and you'll see a big red x like this: </p><p><img src='run_exp/static/images/tutorial/reward_no.png' height='150'></p><p><b>[Press the space bar to continue]</b></p></div>","32","","","","","","","","","","","","","","","","","","","","","","","",""
"","day_1_summary_pick","6","58058","0.0-6.0","""event"",""trial"",""time""
""fullscreenenter"",""0"",""13277""
","
","
","""event"",""trial"",""time""
""fullscreenenter"",""0"",""13277""
","
","null","run_exp/static/audio/clip_31_how_to_pick_a_pirate.m4a","null","","","","","<div class='center'><p>Also, just like yesterday, you will use the 1,2,3 keys on your keyboard to pick a pirate. Press '1' to choose red beard, '2' to choose white beard, and '3' to choose black beard . You only have 3 seconds to pick a pirate, so please make a choice quickly!</p></div>","","","","","","","","","","","","","","","","","","",""
"","html-keyboard-response","7","59346","0.0-7.0","""event"",""trial"",""time""
""fullscreenenter"",""0"",""13277""
","
","
","""event"",""trial"",""time""
""fullscreenenter"",""0"",""13277""
","
","1287.2000000029802","<div class='center'><p>Also, just like yesterday, you will use the 1,2,3 keys on your keyboard to pick a pirate. Press '1' to choose red beard, '2' to choose white beard, and '3' to choose black beard . You only have 3 seconds to pick a pirate, so please make a choice quickly!</p><p><b>[Press the space bar to continue]</b></p></div>","32","","","","","","","","","","","","","","","","","","","","","","","",""
"","test_phase_begin","8","89754","0.0-8.0","""event"",""trial"",""time""
""fullscreenenter"",""0"",""13277""
","
","
","""event"",""trial"",""time""
""fullscreenenter"",""0"",""13277""
","
","null","run_exp/static/audio/clip_32_final_place.m4a","null","","","","","<div class='center'><p>You’ve arrived at the final island of your journey! Unfortunately, it’s very foggy out, so you won’t be able to see it in the distance like the other islands you've visited.</p><p>You’ll still be deciding which pirate you want to rob a ship like before. However, because of the fog, you also won’t be able to see the ship.</p><p>This means you do not have to remember the ships you rob on this island.</p><p>Unlike yesterday, you won't be visiting multiple islands today. You will stay on this island for the entire game. This game will last ~30 minutes.</p></div>","","","","","","","","","","","","","","","","","","",""
"","html-keyboard-response","9","90814","0.0-9.0","""event"",""trial"",""time""
""fullscreenenter"",""0"",""13277""
","
","
","""event"",""trial"",""time""
""fullscreenenter"",""0"",""13277""
","
","1058.7999999970198","<div class='center'><p>You’ve arrived at the final island of your journey! Unfortunately, it’s very foggy out, so you won’t be able to see it in the distance like the other islands you've visited.</p><p>You’ll still be deciding which pirate you want to rob a ship like before. However, because of the fog, you also won’t be able to see the ship.</p><p>This means you do not have to remember the ships you rob on this island.</p><p>Unlike yesterday, you won't be visiting multiple islands today. You will stay on this island for the entire game. This game will last ~30 minutes.</p><p><b>[Press the space bar to continue]</b></p></div>","32","","","","","","","","","","","","","","","","","","","","","","","",""
"","explain_probe_1","10","98531","0.0-10.0","""event"",""trial"",""time""
""fullscreenenter"",""0"",""13277""
","
","
","""event"",""trial"",""time""
""fullscreenenter"",""0"",""13277""
","
","null","run_exp/static/audio/clip_33_recognition_1.m4a","null","","","","","<div class='center'><p> Sometimes you’ll be shown a ship, and you will be asked if you saw this ship on a past island.</p><p> Here is an example of what you will see.</p><p><img src='run_exp/static/images/tutorial/example_recog_trial.png' height='500'></p></div>","","","","","","","","","","","","","","","","","","",""
"","html-keyboard-response","11","100685","0.0-11.0","""event"",""trial"",""time""
""fullscreenenter"",""0"",""13277""
","
","
","""event"",""trial"",""time""
""fullscreenenter"",""0"",""13277""
","
","2151.5","<div class='center'><p> Sometimes you’ll be shown a ship, and you will be asked if you saw this ship on a past island.</p><p> Here is an example of what you will see.</p><p><img src='run_exp/static/images/tutorial/example_recog_trial.png' height='500'></p><p><b>[Press the space bar to continue]</b></p></div>","32","","","","","","","","","","","","","","","","","","","","","","","",""
"","explain_probe_2","12","122402","0.0-12.0","""event"",""trial"",""time""
""fullscreenenter"",""0"",""13277""
","
","
","""event"",""trial"",""time""
""fullscreenenter"",""0"",""13277""
","
","null","run_exp/static/audio/clip_34_recognition_2.m4a","null","","","","","<div class='center'><p> You will press the 5, 6, 7, 8 keys on your keyboard to respond.</p><p>If you are sure you saw the ship, press <b>5</b> on your keyboard.</p><p> If you think you saw it before but aren't sure, then press <b>6</b>.</p><p> If you think you have <b>not</b> seen it before but aren't sure, then press <b>7</b>.</p><p> If you are sure you did <b>not</b> see the ship before, then press <b>8</b>.</p><p><img src='run_exp/static/images/tutorial/example_recog_trial.png' height='500'></p></div>","","","","","","","","","","","","","","","","","","",""
"","html-keyboard-response","13","123149","0.0-13.0","""event"",""trial"",""time""
""fullscreenenter"",""0"",""13277""
","
","
","""event"",""trial"",""time""
""fullscreenenter"",""0"",""13277""
","
","744.5999999940395","<div class='center'><p> You will press the 5, 6, 7, 8 keys on your keyboard to respond.</p><p>If you are sure you saw the ship, press <b>5</b> on your keyboard.</p><p> If you think you saw it before but aren't sure, then press <b>6</b>.</p><p> If you think you have <b>not</b> seen it before but aren't sure, then press <b>7</b>.</p><p> If you are sure you did <b>not</b> see the ship before, then press <b>8</b>.</p><p><img src='run_exp/static/images/tutorial/example_recog_trial.png' height='500'></p><p><b>[Press the space bar to continue]</b></p></div>","32","","","","","","","","","","","","","","","","","","","","","","","",""
"","explain_outcome","14","140352","0.0-14.0","""event"",""trial"",""time""
""fullscreenenter"",""0"",""13277""
","
","
","""event"",""trial"",""time""
""fullscreenenter"",""0"",""13277""
","
","null","run_exp/static/audio/clip_35_recognition_3.m4a","null","","","","","<div class='center'><p> If you remember correctly, then you’ll get a gold coin like this: </p><p><img src='run_exp/static/images/tutorial/reward_small.png' height='200'></p><p>If you do not remember correctly, then you'll see a red x like this: </p><p><img src='run_exp/static/images/tutorial/reward_no.png' height='200'></p><p>Importantly, when you are shown a ship, take the time to remind yourself which island you saw it on. This will help you in the next part of the study.</p></div>","","","","","","","","","","","","","","","","","","",""
"","html-keyboard-response","15","140745","0.0-15.0","""event"",""trial"",""time""
""fullscreenenter"",""0"",""13277""
","
","
","""event"",""trial"",""time""
""fullscreenenter"",""0"",""13277""
","
","392.1000000014901","<div class='center'><p> If you remember correctly, then you’ll get a gold coin like this: </p><p><img src='run_exp/static/images/tutorial/reward_small.png' height='200'></p><p>If you do not remember correctly, then you'll see a red x like this: </p><p><img src='run_exp/static/images/tutorial/reward_no.png' height='200'></p><p>Importantly, when you are shown a ship, take the time to remind yourself which island you saw it on. This will help you in the next part of the study.</p><p><b>[Press the space bar to continue]</b></p></div>","32","","","","","","","","","","","","","","","","","","","","","","","",""
"","begin_test_phase","16","156560","0.0-16.0","""event"",""trial"",""time""
""fullscreenenter"",""0"",""13277""
","
","
","""event"",""trial"",""time""
""fullscreenenter"",""0"",""13277""
","
","null","run_exp/static/audio/clip_36_begin_final.m4a","null","","","","","<div class='center'><p>Let's go over the important points again. Your job is to: </p><p>1. Pick the pirate who is best at robbing ships and will bring you back gold coins. </p><p>2. Correctly remember whether or not you saw a ship before. If you did see the ship before, remind yourself on which island you saw it. </p></div>","","","","","","","","","","","","","","","","","","",""
"","html-keyboard-response","17","158948","0.0-17.0","""event"",""trial"",""time""
""fullscreenenter"",""0"",""13277""
","
","
","""event"",""trial"",""time""
""fullscreenenter"",""0"",""13277""
","
","2331.89999999851","<div class='center'><p>Let's go over the important points again. Your job is to: </p><p>1. Pick the pirate who is best at robbing ships and will bring you back gold coins. </p><p>2. Correctly remember whether or not you saw a ship before. If you did see the ship before, remind yourself on which island you saw it. </p><p><b>[Press the space bar to continue]</b></p></div>","32","","","","","","","","","","","","","","","","","","","","","","","",""
"","do_welcome","18","162960","0.0-18.0","""event"",""trial"",""time""
""fullscreenenter"",""0"",""13277""
","
","
","""event"",""trial"",""time""
""fullscreenenter"",""0"",""13277""
","
","null","","","","","","","","null","","","","","","","","","","","","","","","","","",""
"","do_trial","19","169016","0.0-19.0-0.0","""event"",""trial"",""time""
""fullscreenenter"",""0"",""13277""
","
","
","""event"",""trial"",""time""
""fullscreenenter"",""0"",""13277""
","
","null","","","","","","","","null","0,1,0","6","blank","230","null","0.2074975071121423","0.7953914374899702","0.060301273890772895","","","","","","","","","",""
"","html-keyboard-response","20","170021","0.0-19.0-1.0","""event"",""trial"",""time""
""fullscreenenter"",""0"",""13277""
","
","
","""event"",""trial"",""time""
""fullscreenenter"",""0"",""13277""
","
","null","<p></p>","null","","","","","","","","","","","","","","","","","","","","","","","",""
"","do_trial","21","174047","0.0-20.0-0.0","""event"",""trial"",""time""
""fullscreenenter"",""0"",""13277""
","
","
","""event"",""trial"",""time""
""fullscreenenter"",""0"",""13277""
","
","1474","","","","","","","","50","1,1,1","6","blank","231","null","0.11662921276481487","0.7605591688743171","0.17051046510213838","1","","","","","","","","",""
"","html-keyboard-response","22","175052","0.0-20.0-1.0","""event"",""trial"",""time""
""fullscreenenter"",""0"",""13277""
","
","
","""event"",""trial"",""time""
""fullscreenenter"",""0"",""13277""
","
","null","<p></p>","null","","","","","","","","","","","","","","","","","","","","","","","",""
"","do_trial","23","178066","0.0-21.0-0.0","""event"",""trial"",""time""
""fullscreenenter"",""0"",""13277""
","
","
","""event"",""trial"",""time""
""fullscreenenter"",""0"",""13277""
","
","465.20000000298023","","","","","","","","50","0,0,1","6","blank","232","null","0.19457669827366894","0.6970481472149674","0.28465212090018527","0","","","","","","","","",""
"","html-keyboard-response","24","179073","0.0-21.0-1.0","""event"",""trial"",""time""
""fullscreenenter"",""0"",""13277""
","
","
","""event"",""trial"",""time""
""fullscreenenter"",""0"",""13277""
","
","null","<p></p>","null","","","","","","","","","","","","","","","","","","","","","","","",""
"","do_trial","25","181947","0.0-22.0-0.0","""event"",""trial"",""time""
""fullscreenenter"",""0"",""13277""
","
","
","""event"",""trial"",""time""
""fullscreenenter"",""0"",""13277""
","
","321.70000000298023","","","","","","","","49","0,0,0","6","blank","233","null","0.0867332827942665","0.5680618604750199","0.253871024168513","0","","","","","","","","",""
"","html-keyboard-response","26","182950","0.0-22.0-1.0","""event"",""trial"",""time""
""fullscreenenter"",""0"",""13277""
","
","
","""event"",""trial"",""time""
""fullscreenenter"",""0"",""13277""
","
","null","<p></p>","null","","","","","","","","","","","","","","","","","","","","","","","",""
"","do_trial","27","185831","0.0-23.0-0.0","""event"",""trial"",""time""
""fullscreenenter"",""0"",""13277""
","
","
","""event"",""trial"",""time""
""fullscreenenter"",""0"",""13277""
","
","328.8999999985099","","","","","","","","49","1,0,1","6","blank","234","null","0.08870415883359423","0.5028615009813435","0.221027206428264","1","","","","","","","","",""
"","html-keyboard-response","28","186835","0.0-23.0-1.0","""event"",""trial"",""time""
""fullscreenenter"",""0"",""13277""
","
","
","""event"",""trial"",""time""
""fullscreenenter"",""0"",""13277""
","
","null","<p></p>","null","","","","","","","","","","","","","","","","","","","","","","","",""
"","do_trial","29","191080","0.0-24.0-0.0","""event"",""trial"",""time""
""fullscreenenter"",""0"",""13277""
","
","
","""event"",""trial"",""time""
""fullscreenenter"",""0"",""13277""
","
","1692.6999999955297","","","","","","","","49","1,1,1","6","blank","235","null","0.12536377302636834","0.4861445506738297","0.23630927926249057","1","","","","","","","","",""
"","html-keyboard-response","30","192084","0.0-24.0-1.0","""event"",""trial"",""time""
""fullscreenenter"",""0"",""13277""
","
","
","""event"",""trial"",""time""
""fullscreenenter"",""0"",""13277""
","
","null","<p></p>","null","","","","","","","","","","","","","","","","","","","","","","","",""
"","do_trial","31","194982","0.0-25.0-0.0","""event"",""trial"",""time""
""fullscreenenter"",""0"",""13277""
","
","
","""event"",""trial"",""time""
""fullscreenenter"",""0"",""13277""
","
","350.80000000447035","","","","","","","","49","1,1,0","6","blank","236","null","0.22849065528833257","0.524786046926825","0.296575579089681","1","","","","","","","","",""
"","html-keyboard-response","32","195985","0.0-25.0-1.0","""event"",""trial"",""time""
""fullscreenenter"",""0"",""13277""
","
","
","""event"",""trial"",""time""
""fullscreenenter"",""0"",""13277""
","
","null","<p></p>","null","","","","","","","","","","","","","","","","","","","","","","","",""
"","do_trial","33","199076","0.0-26.0-0.0","""event"",""trial"",""time""
""fullscreenenter"",""0"",""13277""
","
","
","""event"",""trial"",""time""
""fullscreenenter"",""0"",""13277""
","
","540.6000000014901","","","","","","","","49","0,1,0","6","blank","237","null","0.05309413347190052","0.5609759759217144","0.3716733434636626","0","","","","","","","","",""
"","html-keyboard-response","34","200081","0.0-26.0-1.0","""event"",""trial"",""time""
""fullscreenenter"",""0"",""13277""
","
","
","""event"",""trial"",""time""
""fullscreenenter"",""0"",""13277""
","
","null","<p></p>","null","","","","","","","","","","","","","","","","","","","","","","","",""
"","do_trial","35","202914","0.0-27.0-0.0","""event"",""trial"",""time""
""fullscreenenter"",""0"",""13277""
","
","
","""event"",""trial"",""time""
""fullscreenenter"",""0"",""13277""
","
","285.79999999701977","","","","","","","","50","1,1,0","6","blank","238","null","0.11937373419089069","0.44370146474439737","0.15299920133444908","1","","","","","","","","",""
"","html-keyboard-response","36","203918","0.0-27.0-1.0","""event"",""trial"",""time""
""fullscreenenter"",""0"",""13277""
","
","
","""event"",""trial"",""time""
""fullscreenenter"",""0"",""13277""
","
","null","<p></p>","null","","","","","","","","","","","","","","","","","","","","","","","",""
"","do_trial","37","206901","0.0-28.0-0.0","""event"",""trial"",""time""
""fullscreenenter"",""0"",""13277""
","
","
","""event"",""trial"",""time""
""fullscreenenter"",""0"",""13277""
","
","433.59999999403954","","","","","","","","51","0,0,0","6","blank","239","null","0.07468511746060505","0.5291856461103427","0.19067441738541863","0","","","","","","","","",""
"","html-keyboard-response","38","207906","0.0-28.0-1.0","""event"",""trial"",""time""
""fullscreenenter"",""0"",""13277""
","
","
","""event"",""trial"",""time""
""fullscreenenter"",""0"",""13277""
","
","null","<p></p>","null","","","","","","","","","","","","","","","","","","","","","","","",""
"","do_trial","39","210937","0.0-29.0-0.0","""event"",""trial"",""time""
""fullscreenenter"",""0"",""13277""
","
","
","""event"",""trial"",""time""
""fullscreenenter"",""0"",""13277""
","
","480.20000000298023","","","","","","","","50","0,0,0","6","blank","240","null","0.14650536622671415","0.5800120353456292","0.17551881107882103","0","","","","","","","","",""
"","html-keyboard-response","40","211943","0.0-29.0-1.0","""event"",""trial"",""time""
""fullscreenenter"",""0"",""13277""
","
","
","""event"",""trial"",""time""
""fullscreenenter"",""0"",""13277""
","
","null","<p></p>","null","","","","","","","","","","","","","","","","","","","","","","","",""
"","do_trial","41","214770","0.0-30.0-0.0","""event"",""trial"",""time""
""fullscreenenter"",""0"",""13277""
","
","
","""event"",""trial"",""time""
""fullscreenenter"",""0"",""13277""
","
","280","","","","","","","","49","0,0,0","6","blank","241","null","0.21861471601402546","0.5581113619847423","0.18311383295767364","0","","","","","","","","",""
"","html-keyboard-response","42","215775","0.0-30.0-1.0","""event"",""trial"",""time""
""fullscreenenter"",""0"",""13277""
","
","
","""event"",""trial"",""time""
""fullscreenenter"",""0"",""13277""
","
","null","<p></p>","null","","","","","","","","","","","","","","","","","","","","","","","",""
"","do_trial","43","218653","0.0-31.0-0.0","""event"",""trial"",""time""
""fullscreenenter"",""0"",""13277""
","
","
","""event"",""trial"",""time""
""fullscreenenter"",""0"",""13277""
","
","328.09999999403954","","","","","","","","50","0,1,0","6","blank","242","null","0.3713688050892825","0.4881943885557168","0.16875959279839783","1","","","","","","","","",""
"","html-keyboard-response","44","219659","0.0-31.0-1.0","""event"",""trial"",""time""
""fullscreenenter"",""0"",""13277""
","
","
","""event"",""trial"",""time""
""fullscreenenter"",""0"",""13277""
","
","null","<p></p>","null","","","","","","","","","","","","","","","","","","","","","","","",""
"","do_trial","45","222668","0.0-32.0-0.0","""event"",""trial"",""time""
""fullscreenenter"",""0"",""13277""
","
","
","""event"",""trial"",""time""
""fullscreenenter"",""0"",""13277""
","
","457.70000000298023","","","","","","","","50","1,0,0","6","blank","243","null","0.4563158042975949","0.4256655367146769","0.14350127991644043","0","","","","","","","","",""
"","html-keyboard-response","46","223673","0.0-32.0-1.0","""event"",""trial"",""time""
""fullscreenenter"",""0"",""13277""
","
","
","""event"",""trial"",""time""
""fullscreenenter"",""0"",""13277""
","
","null","<p></p>","null","","","","","","","","","","","","","","","","","","","","","","","",""
"","do_trial","47","226564","0.0-33.0-0.0","""event"",""trial"",""time""
""fullscreenenter"",""0"",""13277""
","
","
","""event"",""trial"",""time""
""fullscreenenter"",""0"",""13277""
","
","342.30000000447035","","","","","","","","51","0,0,0","6","blank","244","null","0.5233172245809693","0.22484034655916568","0.07108632454640254","0","","","","","","","","",""
"","html-keyboard-response","48","227569","0.0-33.0-1.0","""event"",""trial"",""time""
""fullscreenenter"",""0"",""13277""
","
","
","""event"",""trial"",""time""
""fullscreenenter"",""0"",""13277""
","
","null","<p></p>","null","","","","","","","","","","","","","","","","","","","","","","","",""
"","do_trial","49","230461","0.0-34.0-0.0","""event"",""trial"",""time""
""fullscreenenter"",""0"",""13277""
","
","
","""event"",""trial"",""time""
""fullscreenenter"",""0"",""13277""
","
","341","","","","","","","","49","0,0,0","6","blank","245","null","0.5200887497688367","0.2985923938811854","0.18866247470024505","0","","","","","","","","",""
"","html-keyboard-response","50","231466","0.0-34.0-1.0","""event"",""trial"",""time""
""fullscreenenter"",""0"",""13277""
","
","
","""event"",""trial"",""time""
""fullscreenenter"",""0"",""13277""
","
","null","<p></p>","null","","","","","","","","","","","","","","","","","","","","","","","",""
"","do_recog","51","237484","0.0-35.0-0.0","""event"",""trial"",""time""
""fullscreenenter"",""0"",""13277""
","
","
","""event"",""trial"",""time""
""fullscreenenter"",""0"",""13277""
","
","null","","","","","","","","null","","","","246","probe-232","","","","","0","[object Object]","null","null","0","","","",""
"","html-keyboard-response","52","238489","0.0-35.0-1.0","""event"",""trial"",""time""
""fullscreenenter"",""0"",""13277""
","
","
","""event"",""trial"",""time""
""fullscreenenter"",""0"",""13277""
","
","null","<p></p>","null","","","","","","","","","","","","","","","","","","","","","","","",""
"","do_trial","53","242481","0.0-36.0-0.0","""event"",""trial"",""time""
""fullscreenenter"",""0"",""13277""
","
","
","""event"",""trial"",""time""
""fullscreenenter"",""0"",""13277""
","
","1445.6000000014901","","","","","","","","50","0,1,0","6","blank","247","null","0.6736486314832624","0.34877961742795616","0.0640149462608798","1","","","","","","","","",""
"","html-keyboard-response","54","243485","0.0-36.0-1.0","""event"",""trial"",""time""
""fullscreenenter"",""0"",""13277""
","
","
","""event"",""trial"",""time""
""fullscreenenter"",""0"",""13277""
","
","null","<p></p>","null","","","","","","","","","","","","","","","","","","","","","","","",""
"","do_trial","55","246513","0.0-37.0-0.0","""event"",""trial"",""time""
""fullscreenenter"",""0"",""13277""
","
","
","""event"",""trial"",""time""
""fullscreenenter"",""0"",""13277""
","
","476.80000000447035","","","","","","","","50","0,0,0","6","blank","248","null","0.6497227657900239","0.27818627005197266","0.11746345655801424","0","","","","","","","","",""
"","html-keyboard-response","56","247518","0.0-37.0-1.0","""event"",""trial"",""time""
""fullscreenenter"",""0"",""13277""
","
","
","""event"",""trial"",""time""
""fullscreenenter"",""0"",""13277""
","
","null","<p></p>","null","","","","","","","","","","","","","","","","","","","","","","","",""
"","do_trial","57","250410","0.0-38.0-0.0","""event"",""trial"",""time""
""fullscreenenter"",""0"",""13277""
","
","
","""event"",""trial"",""time""
""fullscreenenter"",""0"",""13277""
","
","346","","","","","","","","49","1,0,0","6","blank","249","null","0.5681869813275117","0.34372544007992956","0.12526687599014197","1","","","","","","","","",""
"","html-keyboard-response","58","251424","0.0-38.0-1.0","""event"",""trial"",""time""
""fullscreenenter"",""0"",""13277""
","
","
","""event"",""trial"",""time""
""fullscreenenter"",""0"",""13277""
","
","null","<p></p>","null","","","","","","","","","","","","","","","","","","","","","","","",""
"","do_trial","59","254329","0.0-39.0-0.0","""event"",""trial"",""time""
""fullscreenenter"",""0"",""13277""
","
","
","""event"",""trial"",""time""
""fullscreenenter"",""0"",""13277""
","
","322.1000000014901","","","","","","","","49","1,0,0","6","blank","250","null","0.5945630043064535","0.525145403109862","0.164107869031363","1","","","","","","","","",""
"","html-keyboard-response","60","255334","0.0-39.0-1.0","""event"",""trial"",""time""
""fullscreenenter"",""0"",""13277""
","
","
","""event"",""trial"",""time""
""fullscreenenter"",""0"",""13277""
","
","null","<p></p>","null","","","","","","","","","","","","","","","","","","","","","","","",""
"","do_trial","61","258379","0.0-40.0-0.0","""event"",""trial"",""time""
""fullscreenenter"",""0"",""13277""
","
","
","""event"",""trial"",""time""
""fullscreenenter"",""0"",""13277""
","
","495.5","","","","","","","","50","0,0,1","6","blank","251","null","0.6766171366962703","0.5141491928025084","0.17751414956281675","0","","","","","","","","",""
"","html-keyboard-response","62","259385","0.0-40.0-1.0","""event"",""trial"",""time""
""fullscreenenter"",""0"",""13277""
","
","
","""event"",""trial"",""time""
""fullscreenenter"",""0"",""13277""
","
","null","<p></p>","null","","","","","","","","","","","","","","","","","","","","","","","",""
"","do_recog","63","263647","0.0-41.0-0.0","""event"",""trial"",""time""
""fullscreenenter"",""0"",""13277""
","
","
","""event"",""trial"",""time""
""fullscreenenter"",""0"",""13277""
","
","2749.1999999955297","","","","","","","","53","","","","252","probe-139","","","","","1","[object Object]","111","2","1","","","",""
"","html-keyboard-response","64","264652","0.0-41.0-1.0","""event"",""trial"",""time""
""fullscreenenter"",""0"",""13277""
","
","
","""event"",""trial"",""time""
""fullscreenenter"",""0"",""13277""
","
","null","<p></p>","null","","","","","","","","","","","","","","","","","","","","","","","",""
"","do_trial","65","268001","0.0-42.0-0.0","""event"",""trial"",""time""
""fullscreenenter"",""0"",""13277""
","
","
","""event"",""trial"",""time""
""fullscreenenter"",""0"",""13277""
","
","797.7000000029802","","","","","","","","50","1,0,0","6","blank","253","null","0.6366323817324105","0.34038703564582645","0.13555248196611547","0","","","","","","","","",""
"","html-keyboard-response","66","269005","0.0-42.0-1.0","""event"",""trial"",""time""
""fullscreenenter"",""0"",""13277""
","
","
","""event"",""trial"",""time""
""fullscreenenter"",""0"",""13277""
","
","null","<p></p>","null","","","","","","","","","","","","","","","","","","","","","","","",""
"","do_recog","67","272981","0.0-43.0-0.0","""event"",""trial"",""time""
""fullscreenenter"",""0"",""13277""
","
","
","""event"",""trial"",""time""
""fullscreenenter"",""0"",""13277""
","
","2463.39999999851","","","","","","","","56","","","","254","probe-242","","","","","0","[object Object]","null","null","1","","","",""
"","html-keyboard-response","68","273986","0.0-43.0-1.0","""event"",""trial"",""time""
""fullscreenenter"",""0"",""13277""
","
","
","""event"",""trial"",""time""
""fullscreenenter"",""0"",""13277""
","
","null","<p></p>","null","","","","","","","","","","","","","","","","","","","","","","","",""
"","do_trial","69","277097","0.0-44.0-0.0","""event"",""trial"",""time""
""fullscreenenter"",""0"",""13277""
","
","
","""event"",""trial"",""time""
""fullscreenenter"",""0"",""13277""
","
","560.1000000014901","","","","","","","","49","1,0,0","6","blank","255","null","0.5418677571925524","0.423461549014706","0.11045563625233375","1","","","","","","","","",""
"","html-keyboard-response","70","278102","0.0-44.0-1.0","""event"",""trial"",""time""
""fullscreenenter"",""0"",""13277""
","
","
","""event"",""trial"",""time""
""fullscreenenter"",""0"",""13277""
","
","null","<p></p>","null","","","","","","","","","","","","","","","","","","","","","","","",""
"","do_recog","71","281775","0.0-45.0-0.0","""event"",""trial"",""time""
""fullscreenenter"",""0"",""13277""
","
","
","""event"",""trial"",""time""
""fullscreenenter"",""0"",""13277""
","
","2161","","","","","","","","53","","","","256","probe-66","","","","","1","[object Object]","72","1","1","","","",""
"","html-keyboard-response","72","282779","0.0-45.0-1.0","""event"",""trial"",""time""
""fullscreenenter"",""0"",""13277""
","
","
","""event"",""trial"",""time""
""fullscreenenter"",""0"",""13277""
","
","null","<p></p>","null","","","","","","","","","","","","","","","","","","","","","","","",""
"","do_trial","73","286330","0.0-46.0-0.0","""event"",""trial"",""time""
""fullscreenenter"",""0"",""13277""
","
","
","""event"",""trial"",""time""
""fullscreenenter"",""0"",""13277""
","
","999.6999999955297","","","","","","","","49","0,1,0","6","blank","257","null","0.5192109895361684","0.3551803060008917","0.10424433354756943","0","","","","","","","","",""
"","html-keyboard-response","74","287335","0.0-46.0-1.0","""event"",""trial"",""time""
""fullscreenenter"",""0"",""13277""
","
","
","""event"",""trial"",""time""
""fullscreenenter"",""0"",""13277""
","
","null","<p></p>","null","","","","","","","","","","","","","","","","","","","","","","","",""
"","do_recog","75","291304","0.0-47.0-0.0","""event"",""trial"",""time""
""fullscreenenter"",""0"",""13277""
","
","
","""event"",""trial"",""time""
""fullscreenenter"",""0"",""13277""
","
","2457.1999999955297","","","","","","","","53","","","","258","probe-55","","","","","1","[object Object]","159","3","1","","","",""
"","html-keyboard-response","76","292309","0.0-47.0-1.0","""event"",""trial"",""time""
""fullscreenenter"",""0"",""13277""
","
","
","""event"",""trial"",""time""
""fullscreenenter"",""0"",""13277""
","
","null","<p></p>","null","","","","","","","","","","","","","","","","","","","","","","","",""
"","do_trial","77","295828","0.0-48.0-0.0","""event"",""trial"",""time""
""fullscreenenter"",""0"",""13277""
","
","
","""event"",""trial"",""time""
""fullscreenenter"",""0"",""13277""
","
","968.6000000014901","","","","","","","","50","1,0,0","6","blank","259","null","0.5431012693786169","0.40960734670786764","0.15852718950300207","0","","","","","","","","",""
"","html-keyboard-response","78","296833","0.0-48.0-1.0","""event"",""trial"",""time""
""fullscreenenter"",""0"",""13277""
","
","
","""event"",""trial"",""time""
""fullscreenenter"",""0"",""13277""
","
","null","<p></p>","null","","","","","","","","","","","","","","","","","","","","","","","",""
"","do_recog","79","302848","0.0-49.0-0.0","""event"",""trial"",""time""
""fullscreenenter"",""0"",""13277""
","
","
","""event"",""trial"",""time""
""fullscreenenter"",""0"",""13277""
","
","null","","","","","","","","null","","","","260","probe-89","","","","","1","[object Object]","37","0","0","","","",""
"","html-keyboard-response","80","303852","0.0-49.0-1.0","""event"",""trial"",""time""
""fullscreenenter"",""0"",""13277""
","
","
","""event"",""trial"",""time""
""fullscreenenter"",""0"",""13277""
","
","null","<p></p>","null","","","","","","","","","","","","","","","","","","","","","","","",""
"","do_trial","81","307066","0.0-50.0-0.0","""event"",""trial"",""time""
""fullscreenenter"",""0"",""13277""
","
","
","""event"",""trial"",""time""
""fullscreenenter"",""0"",""13277""
","
","663.5","","","","","","","","50","0,1,0","6","blank","261","null","0.6297003491534058","0.3683598172369995","0.08888365174437915","1","","","","","","","","",""
"","html-keyboard-response","82","308071","0.0-50.0-1.0","""event"",""trial"",""time""
""fullscreenenter"",""0"",""13277""
","
","
","""event"",""trial"",""time""
""fullscreenenter"",""0"",""13277""
","
","null","<p></p>","null","","","","","","","","","","","","","","","","","","","","","","","",""
"","do_trial","83","311005","0.0-51.0-0.0","""event"",""trial"",""time""
""fullscreenenter"",""0"",""13277""
","
","
","""event"",""trial"",""time""
""fullscreenenter"",""0"",""13277""
","
","383.3999999985099","","","","","","","","49","0,1,1","6","blank","262","null","0.6296715954206975","0.38134284262843565","0.143714116800157","0","","","","","","","","",""
"","html-keyboard-response","84","312009","0.0-51.0-1.0","""event"",""trial"",""time""
""fullscreenenter"",""0"",""13277""
","
","
","""event"",""trial"",""time""
""fullscreenenter"",""0"",""13277""
","
","null","<p></p>","null","","","","","","","","","","","","","","","","","","","","","","","",""
"","do_trial","85","315076","0.0-52.0-0.0","""event"",""trial"",""time""
""fullscreenenter"",""0"",""13277""
","
","
","""event"",""trial"",""time""
""fullscreenenter"",""0"",""13277""
","
","518","","","","","","","","50","0,0,0","6","blank","263","null","0.4505000790826374","0.43488435211330984","0.11526554566638328","0","","","","","","","","",""
"","html-keyboard-response","86","316081","0.0-52.0-1.0","""event"",""trial"",""time""
""fullscreenenter"",""0"",""13277""
","
","
","""event"",""trial"",""time""
""fullscreenenter"",""0"",""13277""
","
","null","<p></p>","null","","","","","","","","","","","","","","","","","","","","","","","",""
"","do_trial","87","319007","0.0-53.0-0.0","""event"",""trial"",""time""
""fullscreenenter"",""0"",""13277""
","
","
","""event"",""trial"",""time""
""fullscreenenter"",""0"",""13277""
","
","375.69999999552965","","","","","","","","50","0,0,0","6","blank","264","null","0.5763997823534869","0.22607580858807144","0.07136974862610067","0","","","","","","","","",""
"","html-keyboard-response","88","320014","0.0-53.0-1.0","""event"",""trial"",""time""
""fullscreenenter"",""0"",""13277""
","
","
","""event"",""trial"",""time""
""fullscreenenter"",""0"",""13277""
","
","null","<p></p>","null","","","","","","","","","","","","","","","","","","","","","","","",""
"","do_trial","89","322882","0.0-54.0-0.0","""event"",""trial"",""time""
""fullscreenenter"",""0"",""13277""
","
","
","""event"",""trial"",""time""
""fullscreenenter"",""0"",""13277""
","
","317.3999999985099","","","","","","","","51","1,0,0","6","blank","265","null","0.5334555757124755","0.20002292831700894","0.09546081249163464","0","","","","","","","","",""
"","html-keyboard-response","90","323886","0.0-54.0-1.0","""event"",""trial"",""time""
""fullscreenenter"",""0"",""13277""
","
","
","""event"",""trial"",""time""
""fullscreenenter"",""0"",""13277""
","
","null","<p></p>","null","","","","","","","","","","","","","","","","","","","","","","","",""
"","do_trial","91","328395","0.0-55.0-0.0","""event"",""trial"",""time""
""fullscreenenter"",""0"",""13277""
","
","
","""event"",""trial"",""time""
""fullscreenenter"",""0"",""13277""
","
","1959.2999999970198","","","","","","","","49","0,0,0","6","blank","266","null","0.5569270267943789","0.2546650512385399","0.0510494542188234","0","","","","","","","","",""
"","html-keyboard-response","92","329400","0.0-55.0-1.0","""event"",""trial"",""time""
""fullscreenenter"",""0"",""13277""
","
","
","""event"",""trial"",""time""
""fullscreenenter"",""0"",""13277""
","
","null","<p></p>","null","","","","","","","","","","","","","","","","","","","","","","","",""
"","do_recog","93","332933","0.0-56.0-0.0","""event"",""trial"",""time""
""fullscreenenter"",""0"",""13277""
","
","
","""event"",""trial"",""time""
""fullscreenenter"",""0"",""13277""
","
","2021.2000000029802","","","","","","","","54","","","","267","probe-100","","","","","1","[object Object]","74","1","1","","","",""
"","html-keyboard-response","94","333937","0.0-56.0-1.0","""event"",""trial"",""time""
""fullscreenenter"",""0"",""13277""
","
","
","""event"",""trial"",""time""
""fullscreenenter"",""0"",""13277""
","
","null","<p></p>","null","","","","","","","","","","","","","","","","","","","","","","","",""
"","do_trial","95","337178","0.0-57.0-0.0","""event"",""trial"",""time""
""fullscreenenter"",""0"",""13277""
","
","
","""event"",""trial"",""time""
""fullscreenenter"",""0"",""13277""
","
","689.2999999970198","","","","","","","","49","1,0,0","6","blank","268","null","0.6199928903325975","0.24183756777633608","0.05628409524396798","1","","","","","","","","",""
"","html-keyboard-response","96","338184","0.0-57.0-1.0","""event"",""trial"",""time""
""fullscreenenter"",""0"",""13277""
","
","
","""event"",""trial"",""time""
""fullscreenenter"",""0"",""13277""
","
","null","<p></p>","null","","","","","","","","","","","","","","","","","","","","","","","",""
"","break","97","397208","0.0-58.0-0.0","""event"",""trial"",""time""
""fullscreenenter"",""0"",""13277""
","
","
","""event"",""trial"",""time""
""fullscreenenter"",""0"",""13277""
","
","59021.5","<div class='center'><p>Time to take a quick break! You have 2 minutes to rest, but you can move on sooner if you'd like.</p><p> Press the <b>space bar</b> to continue.</p></div>","32","","","","","","","","","","","","","","","","","","","","","","","",""
"","do_trial","98","403263","0.0-58.0-1.0","""event"",""trial"",""time""
""fullscreenenter"",""0"",""13277""
","
","
","""event"",""trial"",""time""
""fullscreenenter"",""0"",""13277""
","
","null","","","","","","","","null","0,1,0","6","blank","269","null","0.6509070740719411","0.26878002507668486","0.14788809670797426","","","","","","","","","",""
"","html-keyboard-response","99","404264","0.0-58.0-2.0","""event"",""trial"",""time""
""fullscreenenter"",""0"",""13277""
","
","
","""event"",""trial"",""time""
""fullscreenenter"",""0"",""13277""
","
","null","<p></p>","null","","","","","","","","","","","","","","","","","","","","","","","",""
"","do_trial","100","407407","0.0-59.0-0.0","""event"",""trial"",""time""
""fullscreenenter"",""0"",""13277""
","
","
","""event"",""trial"",""time""
""fullscreenenter"",""0"",""13277""
","
","591.6999999955297","","","","","","","","50","1,0,0","6","blank","270","null","0.6675858293948527","0.2710331204472528","0.09513138016248139","0","","","","","","","","",""
"","html-keyboard-response","101","408412","0.0-59.0-1.0","""event"",""trial"",""time""
""fullscreenenter"",""0"",""13277""
","
","
","""event"",""trial"",""time""
""fullscreenenter"",""0"",""13277""
","
","null","<p></p>","null","","","","","","","","","","","","","","","","","","","","","","","",""
"","do_recog","102","412000","0.0-60.0-0.0","""event"",""trial"",""time""
""fullscreenenter"",""0"",""13277""
","
","
","""event"",""trial"",""time""
""fullscreenenter"",""0"",""13277""
","
","2077.10000000149","","","","","","","","56","","","","271","probe-17","","","","","1","[object Object]","158","3","0","","","",""
"","html-keyboard-response","103","413003","0.0-60.0-1.0","""event"",""trial"",""time""
""fullscreenenter"",""0"",""13277""
","
","
","""event"",""trial"",""time""
""fullscreenenter"",""0"",""13277""
","
","null","<p></p>","null","","","","","","","","","","","","","","","","","","","","","","","",""
"","do_trial","104","416216","0.0-61.0-0.0","""event"",""trial"",""time""
""fullscreenenter"",""0"",""13277""
","
","
","""event"",""trial"",""time""
""fullscreenenter"",""0"",""13277""
","
","659.7999999970198","","","","","","","","49","1,0,0","6","blank","272","null","0.6323772555429277","0.2826034794699822","0.13200941900836466","1","","","","","","","","",""
"","html-keyboard-response","105","417221","0.0-61.0-1.0","""event"",""trial"",""time""
""fullscreenenter"",""0"",""13277""
","
","
","""event"",""trial"",""time""
""fullscreenenter"",""0"",""13277""
","
","null","<p></p>","null","","","","","","","","","","","","","","","","","","","","","","","",""
"","do_trial","106","420282","0.0-62.0-0.0","""event"",""trial"",""time""
""fullscreenenter"",""0"",""13277""
","
","
","""event"",""trial"",""time""
""fullscreenenter"",""0"",""13277""
","
","512.8999999985099","","","","","","","","50","0,1,0","6","blank","273","null","0.5525037889826713","0.3264192828612917","0.07990383997909521","1","","","","","","","","",""
"","html-keyboard-response","107","421284","0.0-62.0-1.0","""event"",""trial"",""time""
""fullscreenenter"",""0"",""13277""
","
","
","""event"",""trial"",""time""
""fullscreenenter"",""0"",""13277""
","
","null","<p></p>","null","","","","","","","","","","","","","","","","","","","","","","","",""
"","do_recog","108","424840","0.0-63.0-0.0","""event"",""trial"",""time""
""fullscreenenter"",""0"",""13277""
","
","
","""event"",""trial"",""time""
""fullscreenenter"",""0"",""13277""
","
","2043","","","","","","","","53","","","","274","probe-205","","","","","1","[object Object]","199","4","1","","","",""
"","html-keyboard-response","109","425844","0.0-63.0-1.0","""event"",""trial"",""time""
""fullscreenenter"",""0"",""13277""
","
","
","""event"",""trial"",""time""
""fullscreenenter"",""0"",""13277""
","
","null","<p></p>","null","","","","","","","","","","","","","","","","","","","","","","","",""
"","do_trial","110","429130","0.0-64.0-0.0","""event"",""trial"",""time""
""fullscreenenter"",""0"",""13277""
","
","
","""event"",""trial"",""time""
""fullscreenenter"",""0"",""13277""
","
","735.1000000014901","","","","","","","","49","0,1,0","6","blank","275","null","0.37429978313160467","0.39135295214062765","0.0964527666880868","0","","","","","","","","",""
"","html-keyboard-response","111","430135","0.0-64.0-1.0","""event"",""trial"",""time""
""fullscreenenter"",""0"",""13277""
","
","
","""event"",""trial"",""time""
""fullscreenenter"",""0"",""13277""
","
","null","<p></p>","null","","","","","","","","","","","","","","","","","","","","","","","",""
"","do_recog","112","433666","0.0-65.0-0.0","""event"",""trial"",""time""
""fullscreenenter"",""0"",""13277""
","
","
","""event"",""trial"",""time""
""fullscreenenter"",""0"",""13277""
","
","2018.3999999985099","","","","","","","","53","","","","276","probe-191","","","","","1","[object Object]","191","4","1","","","",""
"","html-keyboard-response","113","434670","0.0-65.0-1.0","""event"",""trial"",""time""
""fullscreenenter"",""0"",""13277""
","
","
","""event"",""trial"",""time""
""fullscreenenter"",""0"",""13277""
","
","null","<p></p>","null","","","","","","","","","","","","","","","","","","","","","","","",""
"","do_trial","114","437816","0.0-66.0-0.0","""event"",""trial"",""time""
""fullscreenenter"",""0"",""13277""
","
","
","""event"",""trial"",""time""
""fullscreenenter"",""0"",""13277""
","
","599","","","","","","","","50","0,0,0","6","blank","277","null","0.4762548854116411","0.4098620364340473","0.10003405836009871","0","","","","","","","","",""
"","html-keyboard-response","115","438820","0.0-66.0-1.0","""event"",""trial"",""time""
""fullscreenenter"",""0"",""13277""
","
","
","""event"",""trial"",""time""
""fullscreenenter"",""0"",""13277""
","
","null","<p></p>","null","","","","","","","","","","","","","","","","","","","","","","","",""
"","do_trial","116","442100","0.0-67.0-0.0","""event"",""trial"",""time""
""fullscreenenter"",""0"",""13277""
","
","
","""event"",""trial"",""time""
""fullscreenenter"",""0"",""13277""
","
","727.2999999970198","","","","","","","","51","1,1,0","6","blank","278","null","0.434063506910022","0.40241219973754144","0.1090964303192648","0","","","","","","","","",""
"","html-keyboard-response","117","443105","0.0-67.0-1.0","""event"",""trial"",""time""
""fullscreenenter"",""0"",""13277""
","
","
","""event"",""trial"",""time""
""fullscreenenter"",""0"",""13277""
","
","null","<p></p>","null","","","","","","","","","","","","","","","","","","","","","","","",""
"","do_trial","118","446097","0.0-68.0-0.0","""event"",""trial"",""time""
""fullscreenenter"",""0"",""13277""
","
","
","""event"",""trial"",""time""
""fullscreenenter"",""0"",""13277""
","
","441.3999999985099","","","","","","","","49","1,1,0","6","blank","279","null","0.49212053025671043","0.47288465137196656","0.11587009807253569","1","","","","","","","","",""
"","html-keyboard-response","119","447101","0.0-68.0-1.0","""event"",""trial"",""time""
""fullscreenenter"",""0"",""13277""
","
","
","""event"",""trial"",""time""
""fullscreenenter"",""0"",""13277""
","
","null","<p></p>","null","","","","","","","","","","","","","","","","","","","","","","","",""
"","do_recog","120","450508","0.0-69.0-0.0","""event"",""trial"",""time""
""fullscreenenter"",""0"",""13277""
","
","
","""event"",""trial"",""time""
""fullscreenenter"",""0"",""13277""
","
","1893.8999999985099","","","","","","","","55","","","","280","probe-241","","","","","0","[object Object]","null","null","1","","","",""
"","html-keyboard-response","121","451512","0.0-69.0-1.0","""event"",""trial"",""time""
""fullscreenenter"",""0"",""13277""
","
","
","""event"",""trial"",""time""
""fullscreenenter"",""0"",""13277""
","
","null","<p></p>","null","","","","","","","","","","","","","","","","","","","","","","","",""
"","do_trial","122","454846","0.0-70.0-0.0","""event"",""trial"",""time""
""fullscreenenter"",""0"",""13277""
","
","
","""event"",""trial"",""time""
""fullscreenenter"",""0"",""13277""
","
","781.8999999985099","","","","","","","","51","0,1,0","6","blank","281","null","0.5862428044748034","0.3810697538684076","0.1283312218668452","0","","","","","","","","",""
"","html-keyboard-response","123","455850","0.0-70.0-1.0","""event"",""trial"",""time""
""fullscreenenter"",""0"",""13277""
","
","
","""event"",""trial"",""time""
""fullscreenenter"",""0"",""13277""
","
","null","<p></p>","null","","","","","","","","","","","","","","","","","","","","","","","",""
"","do_trial","124","458918","0.0-71.0-0.0","""event"",""trial"",""time""
""fullscreenenter"",""0"",""13277""
","
","
","""event"",""trial"",""time""
""fullscreenenter"",""0"",""13277""
","
","518.2000000029802","","","","","","","","49","0,1,0","6","blank","282","null","0.52483093860029","0.2919403634098605","0.12082271746565086","0","","","","","","","","",""
"","html-keyboard-response","125","459922","0.0-71.0-1.0","""event"",""trial"",""time""
""fullscreenenter"",""0"",""13277""
","
","
","""event"",""trial"",""time""
""fullscreenenter"",""0"",""13277""
","
","null","<p></p>","null","","","","","","","","","","","","","","","","","","","","","","","",""
"","do_recog","126","463374","0.0-72.0-0.0","""event"",""trial"",""time""
""fullscreenenter"",""0"",""13277""
","
","
","""event"",""trial"",""time""
""fullscreenenter"",""0"",""13277""
","
","1941.8999999985099","","","","","","","","53","","","","283","probe-88","","","","","1","[object Object]","110","2","1","","","",""
"","html-keyboard-response","127","464376","0.0-72.0-1.0","""event"",""trial"",""time""
""fullscreenenter"",""0"",""13277""
","
","
","""event"",""trial"",""time""
""fullscreenenter"",""0"",""13277""
","
","null","<p></p>","null","","","","","","","","","","","","","","","","","","","","","","","",""
"","do_trial","128","467525","0.0-73.0-0.0","""event"",""trial"",""time""
""fullscreenenter"",""0"",""13277""
","
","
","""event"",""trial"",""time""
""fullscreenenter"",""0"",""13277""
","
","602.7000000029802","","","","","","","","49","0,0,1","6","blank","284","null","0.5350750807531077","0.3303406717442993","0.11403847477149416","0","","","","","","","","",""
"","html-keyboard-response","129","468530","0.0-73.0-1.0","""event"",""trial"",""time""
""fullscreenenter"",""0"",""13277""
","
","
","""event"",""trial"",""time""
""fullscreenenter"",""0"",""13277""
","
","null","<p></p>","null","","","","","","","","","","","","","","","","","","","","","","","",""
"","do_trial","130","472138","0.0-74.0-0.0","""event"",""trial"",""time""
""fullscreenenter"",""0"",""13277""
","
","
","""event"",""trial"",""time""
""fullscreenenter"",""0"",""13277""
","
","1057","","","","","","","","50","1,0,0","6","blank","285","null","0.5401668045980189","0.22229862711340098","0.18408433427814216","0","","","","","","","","",""
"","html-keyboard-response","131","473143","0.0-74.0-1.0","""event"",""trial"",""time""
""fullscreenenter"",""0"",""13277""
","
","
","""event"",""trial"",""time""
""fullscreenenter"",""0"",""13277""
","
","null","<p></p>","null","","","","","","","","","","","","","","","","","","","","","","","",""
"","do_trial","132","476542","0.0-75.0-0.0","""event"",""trial"",""time""
""fullscreenenter"",""0"",""13277""
","
","
","""event"",""trial"",""time""
""fullscreenenter"",""0"",""13277""
","
","848.8000000044703","","","","","","","","50","1,0,0","6","blank","286","null","0.5472125618829198","0.3788567506909795","0.20593780986797464","0","","","","","","","","",""
"","html-keyboard-response","133","477547","0.0-75.0-1.0","""event"",""trial"",""time""
""fullscreenenter"",""0"",""13277""
","
","
","""event"",""trial"",""time""
""fullscreenenter"",""0"",""13277""
","
","null","<p></p>","null","","","","","","","","","","","","","","","","","","","","","","","",""
"","do_trial","134","480749","0.0-76.0-0.0","""event"",""trial"",""time""
""fullscreenenter"",""0"",""13277""
","
","
","""event"",""trial"",""time""
""fullscreenenter"",""0"",""13277""
","
","651.2000000029802","","","","","","","","49","0,0,0","6","blank","287","null","0.5489271439078552","0.3432473311839689","0.24028957976575377","0","","","","","","","","",""
"","html-keyboard-response","135","481754","0.0-76.0-1.0","""event"",""trial"",""time""
""fullscreenenter"",""0"",""13277""
","
","
","""event"",""trial"",""time""
""fullscreenenter"",""0"",""13277""
","
","null","<p></p>","null","","","","","","","","","","","","","","","","","","","","","","","",""
"","do_trial","136","485047","0.0-77.0-0.0","""event"",""trial"",""time""
""fullscreenenter"",""0"",""13277""
","
","
","""event"",""trial"",""time""
""fullscreenenter"",""0"",""13277""
","
","741.3000000044703","","","","","","","","51","0,0,0","6","blank","288","null","0.5737516976053607","0.28384832267736637","0.2005979331720674","0","","","","","","","","",""
"","html-keyboard-response","137","486051","0.0-77.0-1.0","""event"",""trial"",""time""
""fullscreenenter"",""0"",""13277""
","
","
","""event"",""trial"",""time""
""fullscreenenter"",""0"",""13277""
","
","null","<p></p>","null","","","","","","","","","","","","","","","","","","","","","","","",""
"","do_recog","138","489214","0.0-78.0-0.0","""event"",""trial"",""time""
""fullscreenenter"",""0"",""13277""
","
","
","""event"",""trial"",""time""
""fullscreenenter"",""0"",""13277""
","
","1651.5","","","","","","","","53","","","","289","probe-150","","","","","1","[object Object]","112","2","1","","","",""
"","html-keyboard-response","139","490220","0.0-78.0-1.0","""event"",""trial"",""time""
""fullscreenenter"",""0"",""13277""
","
","
","""event"",""trial"",""time""
""fullscreenenter"",""0"",""13277""
","
","null","<p></p>","null","","","","","","","","","","","","","","","","","","","","","","","",""
"","do_trial","140","493475","0.0-79.0-0.0","""event"",""trial"",""time""
""fullscreenenter"",""0"",""13277""
","
","
","""event"",""trial"",""time""
""fullscreenenter"",""0"",""13277""
","
","704.5","","","","","","","","49","1,1,0","6","blank","290","null","0.570015869242963","0.3585038625801005","0.12332460462782634","1","","","","","","","","",""
"","html-keyboard-response","141","494479","0.0-79.0-1.0","""event"",""trial"",""time""
""fullscreenenter"",""0"",""13277""
","
","
","""event"",""trial"",""time""
""fullscreenenter"",""0"",""13277""
","
","null","<p></p>","null","","","","","","","","","","","","","","","","","","","","","","","",""
"","do_recog","142","498045","0.0-80.0-0.0","""event"",""trial"",""time""
""fullscreenenter"",""0"",""13277""
","
","
","""event"",""trial"",""time""
""fullscreenenter"",""0"",""13277""
","
","2053.7999999970198","","","","","","","","53","","","","291","probe-212","","","","","1","[object Object]","192","4","1","","","",""
"","html-keyboard-response","143","499052","0.0-80.0-1.0","""event"",""trial"",""time""
""fullscreenenter"",""0"",""13277""
","
","
","""event"",""trial"",""time""
""fullscreenenter"",""0"",""13277""
","
","null","<p></p>","null","","","","","","","","","","","","","","","","","","","","","","","",""
"","do_trial","144","502372","0.0-81.0-0.0","""event"",""trial"",""time""
""fullscreenenter"",""0"",""13277""
","
","
","""event"",""trial"",""time""
""fullscreenenter"",""0"",""13277""
","
","765.7999999970198","","","","","","","","50","1,1,0","6","blank","292","null","0.4712382805714059","0.4721132147512028","0.07831263517727084","1","","","","","","","","",""
"","html-keyboard-response","145","503377","0.0-81.0-1.0","""event"",""trial"",""time""
""fullscreenenter"",""0"",""13277""
","
","
","""event"",""trial"",""time""
""fullscreenenter"",""0"",""13277""
","
","null","<p></p>","null","","","","","","","","","","","","","","","","","","","","","","","",""
"","do_recog","146","507486","0.0-82.0-0.0","""event"",""trial"",""time""
""fullscreenenter"",""0"",""13277""
","
","
","""event"",""trial"",""time""
""fullscreenenter"",""0"",""13277""
","
","2600.10000000149","","","","","","","","53","","","","293","probe-110","","","","","1","[object Object]","113","2","1","","","",""
"","html-keyboard-response","147","508490","0.0-82.0-1.0","""event"",""trial"",""time""
""fullscreenenter"",""0"",""13277""
","
","
","""event"",""trial"",""time""
""fullscreenenter"",""0"",""13277""
","
","null","<p></p>","null","","","","","","","","","","","","","","","","","","","","","","","",""
"","do_trial","148","511889","0.0-83.0-0.0","""event"",""trial"",""time""
""fullscreenenter"",""0"",""13277""
","
","
","""event"",""trial"",""time""
""fullscreenenter"",""0"",""13277""
","
","850.2000000029802","","","","","","","","50","1,0,0","6","blank","294","null","0.643325622813627","0.46979953760569443","0.07946550654587099","0","","","","","","","","",""
"","html-keyboard-response","149","512894","0.0-83.0-1.0","""event"",""trial"",""time""
""fullscreenenter"",""0"",""13277""
","
","
","""event"",""trial"",""time""
""fullscreenenter"",""0"",""13277""
","
","null","<p></p>","null","","","","","","","","","","","","","","","","","","","","","","","",""
"","do_trial","150","516133","0.0-84.0-0.0","""event"",""trial"",""time""
""fullscreenenter"",""0"",""13277""
","
","
","""event"",""trial"",""time""
""fullscreenenter"",""0"",""13277""
","
","691.5","","","","","","","","49","0,1,0","6","blank","295","null","0.641759788876859","0.5105096713136988","0.14861235528669994","0","","","","","","","","",""
"","html-keyboard-response","151","517138","0.0-84.0-1.0","""event"",""trial"",""time""
""fullscreenenter"",""0"",""13277""
","
","
","""event"",""trial"",""time""
""fullscreenenter"",""0"",""13277""
","
","null","<p></p>","null","","","","","","","","","","","","","","","","","","","","","","","",""
"","do_trial","152","520662","0.0-85.0-0.0","""event"",""trial"",""time""
""fullscreenenter"",""0"",""13277""
","
","
","""event"",""trial"",""time""
""fullscreenenter"",""0"",""13277""
","
","972.6000000014901","","","","","","","","50","1,0,0","6","blank","296","null","0.6298459104033565","0.4709742473118081","0.20625778791300456","0","","","","","","","","",""
"","html-keyboard-response","153","521667","0.0-85.0-1.0","""event"",""trial"",""time""
""fullscreenenter"",""0"",""13277""
","
","
","""event"",""trial"",""time""
""fullscreenenter"",""0"",""13277""
","
","null","<p></p>","null","","","","","","","","","","","","","","","","","","","","","","","",""
"","do_trial","154","524703","0.0-86.0-0.0","""event"",""trial"",""time""
""fullscreenenter"",""0"",""13277""
","
","
","""event"",""trial"",""time""
""fullscreenenter"",""0"",""13277""
","
","484.6000000014901","","","","","","","","49","0,0,0","6","blank","297","null","0.46753329301854185","0.5996413316324373","0.2963988829258853","0","","","","","","","","",""
"","html-keyboard-response","155","525708","0.0-86.0-1.0","""event"",""trial"",""time""
""fullscreenenter"",""0"",""13277""
","
","
","""event"",""trial"",""time""
""fullscreenenter"",""0"",""13277""
","
","null","<p></p>","null","","","","","","","","","","","","","","","","","","","","","","","",""
"","do_recog","156","528735","0.0-87.0-0.0","""event"",""trial"",""time""
""fullscreenenter"",""0"",""13277""
","
","
","""event"",""trial"",""time""
""fullscreenenter"",""0"",""13277""
","
","1519.1000000014901","","","","","","","","53","","","","298","probe-80","","","","","1","[object Object]","33","0","1","","","",""
"","html-keyboard-response","157","529739","0.0-87.0-1.0","""event"",""trial"",""time""
""fullscreenenter"",""0"",""13277""
","
","
","""event"",""trial"",""time""
""fullscreenenter"",""0"",""13277""
","
","null","<p></p>","null","","","","","","","","","","","","","","","","","","","","","","","",""
"","do_trial","158","533188","0.0-88.0-0.0","""event"",""trial"",""time""
""fullscreenenter"",""0"",""13277""
","
","
","""event"",""trial"",""time""
""fullscreenenter"",""0"",""13277""
","
","898.2999999970198","","","","","","","","50","0,1,1","6","blank","299","null","0.25362069865098685","0.6980539355167906","0.2718477670640441","1","","","","","","","","",""
"","html-keyboard-response","159","534193","0.0-88.0-1.0","""event"",""trial"",""time""
""fullscreenenter"",""0"",""13277""
","
","
","""event"",""trial"",""time""
""fullscreenenter"",""0"",""13277""
","
","null","<p></p>","null","","","","","","","","","","","","","","","","","","","","","","","",""
"","do_trial","160","537811","0.0-89.0-0.0","""event"",""trial"",""time""
""fullscreenenter"",""0"",""13277""
","
","
","""event"",""trial"",""time""
""fullscreenenter"",""0"",""13277""
","
","1071.1000000014901","","","","","","","","49","0,1,0","6","blank","300","null","0.3649293814603943","0.78332038330178","0.14347872142513762","0","","","","","","","","",""
"","html-keyboard-response","161","538815","0.0-89.0-1.0","""event"",""trial"",""time""
""fullscreenenter"",""0"",""13277""
","
","
","""event"",""trial"",""time""
""fullscreenenter"",""0"",""13277""
","
","null","<p></p>","null","","","","","","","","","","","","","","","","","","","","","","","",""
"","do_trial","162","541866","0.0-90.0-0.0","""event"",""trial"",""time""
""fullscreenenter"",""0"",""13277""
","
","
","""event"",""trial"",""time""
""fullscreenenter"",""0"",""13277""
","
","500.20000000298023","","","","","","","","50","0,1,0","6","blank","301","null","0.26119411814903637","0.7645992219007031","0.29566355231487373","1","","","","","","","","",""
"","html-keyboard-response","163","542870","0.0-90.0-1.0","""event"",""trial"",""time""
""fullscreenenter"",""0"",""13277""
","
","
","""event"",""trial"",""time""
""fullscreenenter"",""0"",""13277""
","
","null","<p></p>","null","","","","","","","","","","","","","","","","","","","","","","","",""
"","do_trial","164","546514","0.0-91.0-0.0","""event"",""trial"",""time""
""fullscreenenter"",""0"",""13277""
","
","
","""event"",""trial"",""time""
""fullscreenenter"",""0"",""13277""
","
","1094.8999999985099","","","","","","","","51","0,1,0","6","blank","302","null","0.18001278633780993","0.7176932237071415","0.2895427916760357","0","","","","","","","","",""
"","html-keyboard-response","165","547519","0.0-91.0-1.0","""event"",""trial"",""time""
""fullscreenenter"",""0"",""13277""
","
","
","""event"",""trial"",""time""
""fullscreenenter"",""0"",""13277""
","
","null","<p></p>","null","","","","","","","","","","","","","","","","","","","","","","","",""
"","do_trial","166","550862","0.0-92.0-0.0","""event"",""trial"",""time""
""fullscreenenter"",""0"",""13277""
","
","
","""event"",""trial"",""time""
""fullscreenenter"",""0"",""13277""
","
","793.6999999955297","","","","","","","","50","0,1,0","6","blank","303","null","0.08836017023694609","0.638056013839994","0.265109435015763","1","","","","","","","","",""
"","html-keyboard-response","167","551867","0.0-92.0-1.0","""event"",""trial"",""time""
""fullscreenenter"",""0"",""13277""
","
","
","""event"",""trial"",""time""
""fullscreenenter"",""0"",""13277""
","
","null","<p></p>","null","","","","","","","","","","","","","","","","","","","","","","","",""
"","do_trial","168","554879","0.0-93.0-0.0","""event"",""trial"",""time""
""fullscreenenter"",""0"",""13277""
","
","
","""event"",""trial"",""time""
""fullscreenenter"",""0"",""13277""
","
","460.79999999701977","","","","","","","","50","0,0,1","6","blank","304","null","0.24653177249441843","0.5650715488518939","0.3091919474234521","0","","","","","","","","",""
"","html-keyboard-response","169","555884","0.0-93.0-1.0","""event"",""trial"",""time""
""fullscreenenter"",""0"",""13277""
","
","
","""event"",""trial"",""time""
""fullscreenenter"",""0"",""13277""
","
","null","<p></p>","null","","","","","","","","","","","","","","","","","","","","","","","",""
"","do_trial","170","558730","0.0-94.0-0.0","""event"",""trial"",""time""
""fullscreenenter"",""0"",""13277""
","
","
","""event"",""trial"",""time""
""fullscreenenter"",""0"",""13277""
","
","296.3999999985099","","","","","","","","49","0,1,1","6","blank","305","null","0.1773991996459746","0.5101552167620819","0.3875406721412423","0","","","","","","","","",""
"","html-keyboard-response","171","559737","0.0-94.0-1.0","""event"",""trial"",""time""
""fullscreenenter"",""0"",""13277""
","
","
","""event"",""trial"",""time""
""fullscreenenter"",""0"",""13277""
","
","null","<p></p>","null","","","","","","","","","","","","","","","","","","","","","","","",""
"","do_recog","172","562966","0.0-95.0-0.0","""event"",""trial"",""time""
""fullscreenenter"",""0"",""13277""
","
","
","""event"",""trial"",""time""
""fullscreenenter"",""0"",""13277""
","
","1716.7000000029802","","","","","","","","53","","","","306","probe-222","","","","","1","[object Object]","36","0","1","","","",""
"","html-keyboard-response","173","563970","0.0-95.0-1.0","""event"",""trial"",""time""
""fullscreenenter"",""0"",""13277""
","
","
","""event"",""trial"",""time""
""fullscreenenter"",""0"",""13277""
","
","null","<p></p>","null","","","","","","","","","","","","","","","","","","","","","","","",""
"","do_trial","174","567191","0.0-96.0-0.0","""event"",""trial"",""time""
""fullscreenenter"",""0"",""13277""
","
","
","""event"",""trial"",""time""
""fullscreenenter"",""0"",""13277""
","
","672.3000000044703","","","","","","","","49","0,0,1","6","blank","307","null","0.10700719397108448","0.494700167171458","0.310345447247231","0","","","","","","","","",""
"","html-keyboard-response","175","568196","0.0-96.0-1.0","""event"",""trial"",""time""
""fullscreenenter"",""0"",""13277""
","
","
","""event"",""trial"",""time""
""fullscreenenter"",""0"",""13277""
","
","null","<p></p>","null","","","","","","","","","","","","","","","","","","","","","","","",""
"","do_recog","176","571534","0.0-97.0-0.0","""event"",""trial"",""time""
""fullscreenenter"",""0"",""13277""
","
","
","""event"",""trial"",""time""
""fullscreenenter"",""0"",""13277""
","
","1825.5","","","","","","","","53","","","","308","probe-146","","","","","1","[object Object]","79","1","1","","","",""
"","html-keyboard-response","177","572537","0.0-97.0-1.0","""event"",""trial"",""time""
""fullscreenenter"",""0"",""13277""
","
","
","""event"",""trial"",""time""
""fullscreenenter"",""0"",""13277""
","
","null","<p></p>","null","","","","","","","","","","","","","","","","","","","","","","","",""
"","break","178","646607","0.0-98.0-0.0","""event"",""trial"",""time""
""fullscreenenter"",""0"",""13277""
","
","
","""event"",""trial"",""time""
""fullscreenenter"",""0"",""13277""
","
","74066.70000000298","<div class='center'><p>Time to take a quick break! You have 2 minutes to rest, but you can move on sooner if you'd like.</p><p> Press the <b>space bar</b> to continue.</p></div>","32","","","","","","","","","","","","","","","","","","","","","","","",""
"","do_trial","179","651480","0.0-98.0-1.0","""event"",""trial"",""time""
""fullscreenenter"",""0"",""13277""
","
","
","""event"",""trial"",""time""
""fullscreenenter"",""0"",""13277""
","
","2324.3000000044703","","","","","","","","50","0,0,0","6","blank","309","null","0.11922420611731814","0.40957532870965985","0.20386887842692666","0","","","","","","","","",""
"","html-keyboard-response","180","652485","0.0-98.0-2.0","""event"",""trial"",""time""
""fullscreenenter"",""0"",""13277""
","
","
","""event"",""trial"",""time""
""fullscreenenter"",""0"",""13277""
","
","null","<p></p>","null","","","","","","","","","","","","","","","","","","","","","","","",""
"","do_recog","181","656320","0.0-99.0-0.0","""event"",""trial"",""time""
""fullscreenenter"",""0"",""13277""
","
","
","""event"",""trial"",""time""
""fullscreenenter"",""0"",""13277""
","
","2323","","","","","","","","56","","","","310","probe-116","","","","","1","[object Object]","156","3","0","","","",""
"","html-keyboard-response","182","657322","0.0-99.0-1.0","""event"",""trial"",""time""
""fullscreenenter"",""0"",""13277""
","
","
","""event"",""trial"",""time""
""fullscreenenter"",""0"",""13277""
","
","null","<p></p>","null","","","","","","","","","","","","","","","","","","","","","","","",""
"","do_trial","183","660607","0.0-100.0-0.0","""event"",""trial"",""time""
""fullscreenenter"",""0"",""13277""
","
","
","""event"",""trial"",""time""
""fullscreenenter"",""0"",""13277""
","
","733.3999999985099","","","","","","","","49","0,0,0","6","blank","311","null","0.13437936473134024","0.5280256074504944","0.10555586192686789","0","","","","","","","","",""
"","html-keyboard-response","184","661612","0.0-100.0-1.0","""event"",""trial"",""time""
""fullscreenenter"",""0"",""13277""
","
","
","""event"",""trial"",""time""
""fullscreenenter"",""0"",""13277""
","
","null","<p></p>","null","","","","","","","","","","","","","","","","","","","","","","","",""
"","do_trial","185","664812","0.0-101.0-0.0","""event"",""trial"",""time""
""fullscreenenter"",""0"",""13277""
","
","
","""event"",""trial"",""time""
""fullscreenenter"",""0"",""13277""
","
","649","","","","","","","","50","0,0,0","6","blank","312","null","0.2370374093155145","0.5307327657204622","0.209980903063837","0","","","","","","","","",""
"","html-keyboard-response","186","665817","0.0-101.0-1.0","""event"",""trial"",""time""
""fullscreenenter"",""0"",""13277""
","
","
","""event"",""trial"",""time""
""fullscreenenter"",""0"",""13277""
","
","null","<p></p>","null","","","","","","","","","","","","","","","","","","","","","","","",""
"","do_trial","187","668925","0.0-102.0-0.0","""event"",""trial"",""time""
""fullscreenenter"",""0"",""13277""
","
","
","""event"",""trial"",""time""
""fullscreenenter"",""0"",""13277""
","
","554.1000000014901","","","","","","","","49","0,1,0","6","blank","313","null","0.2503863974115888","0.5965886825428264","0.10994409927440865","0","","","","","","","","",""
"","html-keyboard-response","188","669930","0.0-102.0-1.0","""event"",""trial"",""time""
""fullscreenenter"",""0"",""13277""
","
","
","""event"",""trial"",""time""
""fullscreenenter"",""0"",""13277""
","
","null","<p></p>","null","","","","","","","","","","","","","","","","","","","","","","","",""
"","do_trial","189","672883","0.0-103.0-0.0","""event"",""trial"",""time""
""fullscreenenter"",""0"",""13277""
","
","
","""event"",""trial"",""time""
""fullscreenenter"",""0"",""13277""
","
","402","","","","","","","","50","0,0,0","6","blank","314","null","0.1319461277805407","0.6640841245247939","0.17324062718434172","0","","","","","","","","",""
"","html-keyboard-response","190","673888","0.0-103.0-1.0","""event"",""trial"",""time""
""fullscreenenter"",""0"",""13277""
","
","
","""event"",""trial"",""time""
""fullscreenenter"",""0"",""13277""
","
","null","<p></p>","null","","","","","","","","","","","","","","","","","","","","","","","",""
"","do_trial","191","677000","0.0-104.0-0.0","""event"",""trial"",""time""
""fullscreenenter"",""0"",""13277""
","
","
","""event"",""trial"",""time""
""fullscreenenter"",""0"",""13277""
","
","565.8999999985099","","","","","","","","49","0,0,0","6","blank","315","null","0.07666646736281525","0.5197302432953118","0.22876368281319182","0","","","","","","","","",""
"","html-keyboard-response","192","678006","0.0-104.0-1.0","""event"",""trial"",""time""
""fullscreenenter"",""0"",""13277""
","
","
","""event"",""trial"",""time""
""fullscreenenter"",""0"",""13277""
","
","null","<p></p>","null","","","","","","","","","","","","","","","","","","","","","","","",""
"","do_recog","193","681188","0.0-105.0-0.0","""event"",""trial"",""time""
""fullscreenenter"",""0"",""13277""
","
","
","""event"",""trial"",""time""
""fullscreenenter"",""0"",""13277""
","
","1673.6000000014901","","","","","","","","53","","","","316","probe-71","","","","","1","[object Object]","195","4","1","","","",""
"","html-keyboard-response","194","682193","0.0-105.0-1.0","""event"",""trial"",""time""
""fullscreenenter"",""0"",""13277""
","
","
","""event"",""trial"",""time""
""fullscreenenter"",""0"",""13277""
","
","null","<p></p>","null","","","","","","","","","","","","","","","","","","","","","","","",""
"","do_trial","195","685726","0.0-106.0-0.0","""event"",""trial"",""time""
""fullscreenenter"",""0"",""13277""
","
","
","""event"",""trial"",""time""
""fullscreenenter"",""0"",""13277""
","
","984.8000000044703","","","","","","","","50","0,1,0","6","blank","317","null","0.12735714630620687","0.5851244584404147","0.24193813354848281","1","","","","","","","","",""
"","html-keyboard-response","196","686731","0.0-106.0-1.0","""event"",""trial"",""time""
""fullscreenenter"",""0"",""13277""
","
","
","""event"",""trial"",""time""
""fullscreenenter"",""0"",""13277""
","
","null","<p></p>","null","","","","","","","","","","","","","","","","","","","","","","","",""
"","do_trial","197","690215","0.0-107.0-0.0","""event"",""trial"",""time""
""fullscreenenter"",""0"",""13277""
","
","
","""event"",""trial"",""time""
""fullscreenenter"",""0"",""13277""
","
","933","","","","","","","","49","0,0,0","6","blank","318","null","0.10556647019189519","0.4358866713756735","0.2748635127023574","0","","","","","","","","",""
"","html-keyboard-response","198","691220","0.0-107.0-1.0","""event"",""trial"",""time""
""fullscreenenter"",""0"",""13277""
","
","
","""event"",""trial"",""time""
""fullscreenenter"",""0"",""13277""
","
","null","<p></p>","null","","","","","","","","","","","","","","","","","","","","","","","",""
"","do_trial","199","694592","0.0-108.0-0.0","""event"",""trial"",""time""
""fullscreenenter"",""0"",""13277""
","
","
","""event"",""trial"",""time""
""fullscreenenter"",""0"",""13277""
","
","821.3999999985099","","","","","","","","49","0,0,0","6","blank","319","null","0.08215732178839971","0.41621243962999976","0.25501063835201676","0","","","","","","","","",""
"","html-keyboard-response","200","695597","0.0-108.0-1.0","""event"",""trial"",""time""
""fullscreenenter"",""0"",""13277""
","
","
","""event"",""trial"",""time""
""fullscreenenter"",""0"",""13277""
","
","null","<p></p>","null","","","","","","","","","","","","","","","","","","","","","","","",""
"","do_trial","201","698787","0.0-109.0-0.0","""event"",""trial"",""time""
""fullscreenenter"",""0"",""13277""
","
","
","""event"",""trial"",""time""
""fullscreenenter"",""0"",""13277""
","
","638.3999999985099","","","","","","","","50","0,0,0","6","blank","320","null","0.10602555149318736","0.6390914863605692","0.2433799380198497","0","","","","","","","","",""
"","html-keyboard-response","202","699792","0.0-109.0-1.0","""event"",""trial"",""time""
""fullscreenenter"",""0"",""13277""
","
","
","""event"",""trial"",""time""
""fullscreenenter"",""0"",""13277""
","
","null","<p></p>","null","","","","","","","","","","","","","","","","","","","","","","","",""
"","do_trial","203","702971","0.0-110.0-0.0","""event"",""trial"",""time""
""fullscreenenter"",""0"",""13277""
","
","
","""event"",""trial"",""time""
""fullscreenenter"",""0"",""13277""
","
","628.1999999955297","","","","","","","","49","0,0,0","6","blank","321","null","0.11716554849212214","0.5740814485598915","0.33448293245176025","0","","","","","","","","",""
"","html-keyboard-response","204","703977","0.0-110.0-1.0","""event"",""trial"",""time""
""fullscreenenter"",""0"",""13277""
","
","
","""event"",""trial"",""time""
""fullscreenenter"",""0"",""13277""
","
","null","<p></p>","null","","","","","","","","","","","","","","","","","","","","","","","",""
"","do_trial","205","707170","0.0-111.0-0.0","""event"",""trial"",""time""
""fullscreenenter"",""0"",""13277""
","
","
","""event"",""trial"",""time""
""fullscreenenter"",""0"",""13277""
","
","645.7000000029802","","","","","","","","49","0,0,0","6","blank","322","null","0.1385260830336161","0.7048981211695674","0.36121805151723146","0","","","","","","","","",""
"","html-keyboard-response","206","708175","0.0-111.0-1.0","""event"",""trial"",""time""
""fullscreenenter"",""0"",""13277""
","
","
","""event"",""trial"",""time""
""fullscreenenter"",""0"",""13277""
","
","null","<p></p>","null","","","","","","","","","","","","","","","","","","","","","","","",""
"","do_recog","207","711367","0.0-112.0-0.0","""event"",""trial"",""time""
""fullscreenenter"",""0"",""13277""
","
","
","""event"",""trial"",""time""
""fullscreenenter"",""0"",""13277""
","
","1679.9000000059605","","","","","","","","53","","","","323","probe-225","","","","","1","[object Object]","119","2","1","","","",""
"","html-keyboard-response","208","712371","0.0-112.0-1.0","""event"",""trial"",""time""
""fullscreenenter"",""0"",""13277""
","
","
","""event"",""trial"",""time""
""fullscreenenter"",""0"",""13277""
","
","null","<p></p>","null","","","","","","","","","","","","","","","","","","","","","","","",""
"","do_trial","209","715916","0.0-113.0-0.0","""event"",""trial"",""time""
""fullscreenenter"",""0"",""13277""
","
","
","""event"",""trial"",""time""
""fullscreenenter"",""0"",""13277""
","
","994.5","","","","","","","","50","0,1,0","6","blank","324","null","0.08220210722888087","0.6530457468120308","0.4079637208817119","1","","","","","","","","",""
"","html-keyboard-response","210","716921","0.0-113.0-1.0","""event"",""trial"",""time""
""fullscreenenter"",""0"",""13277""
","
","
","""event"",""trial"",""time""
""fullscreenenter"",""0"",""13277""
","
","null","<p></p>","null","","","","","","","","","","","","","","","","","","","","","","","",""
"","do_recog","211","719970","0.0-114.0-0.0","""event"",""trial"",""time""
""fullscreenenter"",""0"",""13277""
","
","
","""event"",""trial"",""time""
""fullscreenenter"",""0"",""13277""
","
","1537.2999999970198","","","","","","","","53","","","","325","probe-93","","","","","1","[object Object]","157","3","1","","","",""
"","html-keyboard-response","212","720975","0.0-114.0-1.0","""event"",""trial"",""time""
""fullscreenenter"",""0"",""13277""
","
","
","""event"",""trial"",""time""
""fullscreenenter"",""0"",""13277""
","
","null","<p></p>","null","","","","","","","","","","","","","","","","","","","","","","","",""
"","do_trial","213","724691","0.0-115.0-0.0","""event"",""trial"",""time""
""fullscreenenter"",""0"",""13277""
","
","
","""event"",""trial"",""time""
""fullscreenenter"",""0"",""13277""
","
","1165.1000000014901","","","","","","","","50","0,1,1","6","blank","326","null","0.10938016588119304","0.6680981457766888","0.47436166016445774","1","","","","","","","","",""
"","html-keyboard-response","214","725693","0.0-115.0-1.0","""event"",""trial"",""time""
""fullscreenenter"",""0"",""13277""
","
","
","""event"",""trial"",""time""
""fullscreenenter"",""0"",""13277""
","
","null","<p></p>","null","","","","","","","","","","","","","","","","","","","","","","","",""
"","do_trial","215","728810","0.0-116.0-0.0","""event"",""trial"",""time""
""fullscreenenter"",""0"",""13277""
","
","
","""event"",""trial"",""time""
""fullscreenenter"",""0"",""13277""
","
","569.6000000014901","","","","","","","","49","0,0,1","6","blank","327","null","0.09459095581258417","0.6580259863864066","0.4558477366497","0","","","","","","","","",""
"","html-keyboard-response","216","729815","0.0-116.0-1.0","""event"",""trial"",""time""
""fullscreenenter"",""0"",""13277""
","
","
","""event"",""trial"",""time""
""fullscreenenter"",""0"",""13277""
","
","null","<p></p>","null","","","","","","","","","","","","","","","","","","","","","","","",""
"","do_trial","217","732890","0.0-117.0-0.0","""event"",""trial"",""time""
""fullscreenenter"",""0"",""13277""
","
","
","""event"",""trial"",""time""
""fullscreenenter"",""0"",""13277""
","
","523.3999999985099","","","","","","","","50","0,1,1","6","blank","328","null","0.06807417530628855","0.8074356497439391","0.3408331553552346","1","","","","","","","","",""
"","html-keyboard-response","218","733894","0.0-117.0-1.0","""event"",""trial"",""time""
""fullscreenenter"",""0"",""13277""
","
","
","""event"",""trial"",""time""
""fullscreenenter"",""0"",""13277""
","
","null","<p></p>","null","","","","","","","","","","","","","","","","","","","","","","","",""
"","do_trial","219","736948","0.0-118.0-0.0","""event"",""trial"",""time""
""fullscreenenter"",""0"",""13277""
","
","
","""event"",""trial"",""time""
""fullscreenenter"",""0"",""13277""
","
","506.70000000298023","","","","","","","","49","1,1,1","6","blank","329","null","0.127773861073741","0.6657088504850203","0.24428182418789543","1","","","","","","","","",""
"","html-keyboard-response","220","737955","0.0-118.0-1.0","""event"",""trial"",""time""
""fullscreenenter"",""0"",""13277""
","
","
","""event"",""trial"",""time""
""fullscreenenter"",""0"",""13277""
","
","null","<p></p>","null","","","","","","","","","","","","","","","","","","","","","","","",""
"","do_recog","221","742336","0.0-119.0-0.0","""event"",""trial"",""time""
""fullscreenenter"",""0"",""13277""
","
","
","""event"",""trial"",""time""
""fullscreenenter"",""0"",""13277""
","
","2868.7999999970198","","","","","","","","53","","","","330","probe-11","","","","","1","[object Object]","78","1","1","","","",""
"","html-keyboard-response","222","743340","0.0-119.0-1.0","""event"",""trial"",""time""
""fullscreenenter"",""0"",""13277""
","
","
","""event"",""trial"",""time""
""fullscreenenter"",""0"",""13277""
","
","null","<p></p>","null","","","","","","","","","","","","","","","","","","","","","","","",""
"","do_trial","223","746740","0.0-120.0-0.0","""event"",""trial"",""time""
""fullscreenenter"",""0"",""13277""
","
","
","""event"",""trial"",""time""
""fullscreenenter"",""0"",""13277""
","
","848.8000000044703","","","","","","","","50","0,1,0","6","blank","331","null","0.09213362979710775","0.710204275941936","0.22844535808506913","1","","","","","","","","",""
"","html-keyboard-response","224","747745","0.0-120.0-1.0","""event"",""trial"",""time""
""fullscreenenter"",""0"",""13277""
","
","
","""event"",""trial"",""time""
""fullscreenenter"",""0"",""13277""
","
","null","<p></p>","null","","","","","","","","","","","","","","","","","","","","","","","",""
"","do_recog","225","750875","0.0-121.0-0.0","""event"",""trial"",""time""
""fullscreenenter"",""0"",""13277""
","
","
","""event"",""trial"",""time""
""fullscreenenter"",""0"",""13277""
","
","1622","","","","","","","","53","","","","332","probe-201","","","","","1","[object Object]","116","2","1","","","",""
"","html-keyboard-response","226","751879","0.0-121.0-1.0","""event"",""trial"",""time""
""fullscreenenter"",""0"",""13277""
","
","
","""event"",""trial"",""time""
""fullscreenenter"",""0"",""13277""
","
","null","<p></p>","null","","","","","","","","","","","","","","","","","","","","","","","",""
"","do_trial","227","755151","0.0-122.0-0.0","""event"",""trial"",""time""
""fullscreenenter"",""0"",""13277""
","
","
","""event"",""trial"",""time""
""fullscreenenter"",""0"",""13277""
","
","719.6000000014901","","","","","","","","49","1,1,1","6","blank","333","null","0.059790703363515746","0.703374709961627","0.22790237286773946","1","","","","","","","","",""
"","html-keyboard-response","228","756155","0.0-122.0-1.0","""event"",""trial"",""time""
""fullscreenenter"",""0"",""13277""
","
","
","""event"",""trial"",""time""
""fullscreenenter"",""0"",""13277""
","
","null","<p></p>","null","","","","","","","","","","","","","","","","","","","","","","","",""
"","do_trial","229","759207","0.0-123.0-0.0","""event"",""trial"",""time""
""fullscreenenter"",""0"",""13277""
","
","
","""event"",""trial"",""time""
""fullscreenenter"",""0"",""13277""
","
","501.70000000298023","","","","","","","","50","1,0,1","6","blank","334","null","0.19499315806956344","0.6764386494207103","0.3357511928827087","0","","","","","","","","",""
"","html-keyboard-response","230","760208","0.0-123.0-1.0","""event"",""trial"",""time""
""fullscreenenter"",""0"",""13277""
","
","
","""event"",""trial"",""time""
""fullscreenenter"",""0"",""13277""
","
","null","<p></p>","null","","","","","","","","","","","","","","","","","","","","","","","",""
"","do_trial","231","763143","0.0-124.0-0.0","""event"",""trial"",""time""
""fullscreenenter"",""0"",""13277""
","
","
","""event"",""trial"",""time""
""fullscreenenter"",""0"",""13277""
","
","383.70000000298023","","","","","","","","49","0,0,0","6","blank","335","null","0.19654204978969794","0.5952614940126234","0.3877634574086357","0","","","","","","","","",""
"","html-keyboard-response","232","764148","0.0-124.0-1.0","""event"",""trial"",""time""
""fullscreenenter"",""0"",""13277""
","
","
","""event"",""trial"",""time""
""fullscreenenter"",""0"",""13277""
","
","null","<p></p>","null","","","","","","","","","","","","","","","","","","","","","","","",""
"","do_trial","233","767112","0.0-125.0-0.0","""event"",""trial"",""time""
""fullscreenenter"",""0"",""13277""
","
","
","""event"",""trial"",""time""
""fullscreenenter"",""0"",""13277""
","
","413.30000000447035","","","","","","","","50","0,0,1","6","blank","336","null","0.1968486006382968","0.5971646941299936","0.5546503951938304","0","","","","","","","","",""
"","html-keyboard-response","234","768117","0.0-125.0-1.0","""event"",""trial"",""time""
""fullscreenenter"",""0"",""13277""
","
","
","""event"",""trial"",""time""
""fullscreenenter"",""0"",""13277""
","
","null","<p></p>","null","","","","","","","","","","","","","","","","","","","","","","","",""
"","do_trial","235","771142","0.0-126.0-0.0","""event"",""trial"",""time""
""fullscreenenter"",""0"",""13277""
","
","
","""event"",""trial"",""time""
""fullscreenenter"",""0"",""13277""
","
","474.5","","","","","","","","51","0,1,0","6","blank","337","null","0.19759139639008272","0.6292858498127123","0.3896670028854569","0","","","","","","","","",""
"","html-keyboard-response","236","772147","0.0-126.0-1.0","""event"",""trial"",""time""
""fullscreenenter"",""0"",""13277""
","
","
","""event"",""trial"",""time""
""fullscreenenter"",""0"",""13277""
","
","null","<p></p>","null","","","","","","","","","","","","","","","","","","","","","","","",""
"","do_recog","237","776035","0.0-127.0-0.0","""event"",""trial"",""time""
""fullscreenenter"",""0"",""13277""
","
","
","""event"",""trial"",""time""
""fullscreenenter"",""0"",""13277""
","
","2380.10000000149","","","","","","","","55","","","","338","probe-148","","","","","1","[object Object]","39","0","0","","","",""
"","html-keyboard-response","238","777039","0.0-127.0-1.0","""event"",""trial"",""time""
""fullscreenenter"",""0"",""13277""
","
","
","""event"",""trial"",""time""
""fullscreenenter"",""0"",""13277""
","
","null","<p></p>","null","","","","","","","","","","","","","","","","","","","","","","","",""
"","do_trial","239","780419","0.0-128.0-0.0","""event"",""trial"",""time""
""fullscreenenter"",""0"",""13277""
","
","
","""event"",""trial"",""time""
""fullscreenenter"",""0"",""13277""
","
","827.8999999985099","","","","","","","","49","1,0,0","6","blank","339","null","0.2694259994884655","0.6216876196934632","0.2278254927055012","1","","","","","","","","",""
"","html-keyboard-response","240","781424","0.0-128.0-1.0","""event"",""trial"",""time""
""fullscreenenter"",""0"",""13277""
","
","
","""event"",""trial"",""time""
""fullscreenenter"",""0"",""13277""
","
","null","<p></p>","null","","","","","","","","","","","","","","","","","","","","","","","",""
"","do_trial","241","784651","0.0-129.0-0.0","""event"",""trial"",""time""
""fullscreenenter"",""0"",""13277""
","
","
","""event"",""trial"",""time""
""fullscreenenter"",""0"",""13277""
","
","678.1000000014901","","","","","","","","49","0,1,1","6","blank","340","null","0.09937005206259604","0.5738224653567644","0.21879767332598313","0","","","","","","","","",""
"","html-keyboard-response","242","785655","0.0-129.0-1.0","""event"",""trial"",""time""
""fullscreenenter"",""0"",""13277""
","
","
","""event"",""trial"",""time""
""fullscreenenter"",""0"",""13277""
","
","null","<p></p>","null","","","","","","","","","","","","","","","","","","","","","","","",""
"","do_recog","243","788680","0.0-130.0-0.0","""event"",""trial"",""time""
""fullscreenenter"",""0"",""13277""
","
","
","""event"",""trial"",""time""
""fullscreenenter"",""0"",""13277""
","
","1515.7000000029802","","","","","","","","53","","","","341","probe-70","","","","","1","[object Object]","77","1","1","","","",""
"","html-keyboard-response","244","789686","0.0-130.0-1.0","""event"",""trial"",""time""
""fullscreenenter"",""0"",""13277""
","
","
","""event"",""trial"",""time""
""fullscreenenter"",""0"",""13277""
","
","null","<p></p>","null","","","","","","","","","","","","","","","","","","","","","","","",""
"","do_trial","245","793077","0.0-131.0-0.0","""event"",""trial"",""time""
""fullscreenenter"",""0"",""13277""
","
","
","""event"",""trial"",""time""
""fullscreenenter"",""0"",""13277""
","
","849.1000000014901","","","","","","","","49","0,0,0","6","blank","342","null","0.24624309756944032","0.570096874968723","0.28870146757347376","0","","","","","","","","",""
"","html-keyboard-response","246","794079","0.0-131.0-1.0","""event"",""trial"",""time""
""fullscreenenter"",""0"",""13277""
","
","
","""event"",""trial"",""time""
""fullscreenenter"",""0"",""13277""
","
","null","<p></p>","null","","","","","","","","","","","","","","","","","","","","","","","",""
"","do_trial","247","797123","0.0-132.0-0.0","""event"",""trial"",""time""
""fullscreenenter"",""0"",""13277""
","
","
","""event"",""trial"",""time""
""fullscreenenter"",""0"",""13277""
","
","495.70000000298023","","","","","","","","50","0,1,0","6","blank","343","null","0.2203665477404018","0.5518161945413502","0.26575781906934437","1","","","","","","","","",""
"","html-keyboard-response","248","798126","0.0-132.0-1.0","""event"",""trial"",""time""
""fullscreenenter"",""0"",""13277""
","
","
","""event"",""trial"",""time""
""fullscreenenter"",""0"",""13277""
","
","null","<p></p>","null","","","","","","","","","","","","","","","","","","","","","","","",""
"","do_trial","249","801098","0.0-133.0-0.0","""event"",""trial"",""time""
""fullscreenenter"",""0"",""13277""
","
","
","""event"",""trial"",""time""
""fullscreenenter"",""0"",""13277""
","
","425.8999999985099","","","","","","","","50","0,0,1","6","blank","344","null","0.17030582581314516","0.5502360061963562","0.18800854946110326","0","","","","","","","","",""
"","html-keyboard-response","250","802103","0.0-133.0-1.0","""event"",""trial"",""time""
""fullscreenenter"",""0"",""13277""
","
","
","""event"",""trial"",""time""
""fullscreenenter"",""0"",""13277""
","
","null","<p></p>","null","","","","","","","","","","","","","","","","","","","","","","","",""
"","do_trial","251","805776","0.0-134.0-0.0","""event"",""trial"",""time""
""fullscreenenter"",""0"",""13277""
","
","
","""event"",""trial"",""time""
""fullscreenenter"",""0"",""13277""
","
","1121.5","","","","","","","","49","0,1,1","6","blank","345","null","0.117390020375798","0.48187984528445427","0.11944653199864684","0","","","","","","","","",""
"","html-keyboard-response","252","806780","0.0-134.0-1.0","""event"",""trial"",""time""
""fullscreenenter"",""0"",""13277""
","
","
","""event"",""trial"",""time""
""fullscreenenter"",""0"",""13277""
","
","null","<p></p>","null","","","","","","","","","","","","","","","","","","","","","","","",""
"","do_trial","253","809976","0.0-135.0-0.0","""event"",""trial"",""time""
""fullscreenenter"",""0"",""13277""
","
","
","""event"",""trial"",""time""
""fullscreenenter"",""0"",""13277""
","
","643","","","","","","","","50","0,1,0","6","blank","346","null","0.2427686729136516","0.49463006303257934","0.06243009609470421","1","","","","","","","","",""
"","html-keyboard-response","254","810981","0.0-135.0-1.0","""event"",""trial"",""time""
""fullscreenenter"",""0"",""13277""
","
","
","""event"",""trial"",""time""
""fullscreenenter"",""0"",""13277""
","
","null","<p></p>","null","","","","","","","","","","","","","","","","","","","","","","","",""
"","do_trial","255","814107","0.0-136.0-0.0","""event"",""trial"",""time""
""fullscreenenter"",""0"",""13277""
","
","
","""event"",""trial"",""time""
""fullscreenenter"",""0"",""13277""
","
","574.5","","","","","","","","50","0,1,1","6","blank","347","null","0.18893055818898155","0.4494655982034881","0.0913117377892876","1","","","","","","","","",""
"","html-keyboard-response","256","815112","0.0-136.0-1.0","""event"",""trial"",""time""
""fullscreenenter"",""0"",""13277""
","
","
","""event"",""trial"",""time""
""fullscreenenter"",""0"",""13277""
","
","null","<p></p>","null","","","","","","","","","","","","","","","","","","","","","","","",""
"","do_trial","257","818100","0.0-137.0-0.0","""event"",""trial"",""time""
""fullscreenenter"",""0"",""13277""
","
","
","""event"",""trial"",""time""
""fullscreenenter"",""0"",""13277""
","
","438.5","","","","","","","","50","0,0,0","6","blank","348","null","0.3629634505878928","0.4705259582987394","0.263223273517235","0","","","","","","","","",""
"","html-keyboard-response","258","819106","0.0-137.0-1.0","""event"",""trial"",""time""
""fullscreenenter"",""0"",""13277""
","
","
","""event"",""trial"",""time""
""fullscreenenter"",""0"",""13277""
","
","null","<p></p>","null","","","","","","","","","","","","","","","","","","","","","","","",""
"","break","259","870499","0.0-138.0-0.0","""event"",""trial"",""time""
""fullscreenenter"",""0"",""13277""
","
","
","""event"",""trial"",""time""
""fullscreenenter"",""0"",""13277""
","
","51386.89999999851","<div class='center'><p>Time to take a quick break! You have 2 minutes to rest, but you can move on sooner if you'd like.</p><p> Press the <b>space bar</b> to continue.</p></div>","32","","","","","","","","","","","","","","","","","","","","","","","",""
"","do_recog","260","874026","0.0-138.0-1.0","""event"",""trial"",""time""
""fullscreenenter"",""0"",""13277""
","
","
","""event"",""trial"",""time""
""fullscreenenter"",""0"",""13277""
","
","2018.7000000029802","","","","","","","","53","","","","349","probe-137","","","","","1","[object Object]","193","4","1","","","",""
"","html-keyboard-response","261","875033","0.0-138.0-2.0","""event"",""trial"",""time""
""fullscreenenter"",""0"",""13277""
","
","
","""event"",""trial"",""time""
""fullscreenenter"",""0"",""13277""
","
","null","<p></p>","null","","","","","","","","","","","","","","","","","","","","","","","",""
"","do_trial","262","878530","0.0-139.0-0.0","""event"",""trial"",""time""
""fullscreenenter"",""0"",""13277""
","
","
","""event"",""trial"",""time""
""fullscreenenter"",""0"",""13277""
","
","948.9000000059605","","","","","","","","50","1,0,1","6","blank","350","null","0.49126198400326326","0.33456829040954505","0.3327507371610308","0","","","","","","","","",""
"","html-keyboard-response","263","879536","0.0-139.0-1.0","""event"",""trial"",""time""
""fullscreenenter"",""0"",""13277""
","
","
","""event"",""trial"",""time""
""fullscreenenter"",""0"",""13277""
","
","null","<p></p>","null","","","","","","","","","","","","","","","","","","","","","","","",""
"","do_trial","264","882712","0.0-140.0-0.0","""event"",""trial"",""time""
""fullscreenenter"",""0"",""13277""
","
","
","""event"",""trial"",""time""
""fullscreenenter"",""0"",""13277""
","
","629.3999999985099","","","","","","","","49","0,0,0","6","blank","351","null","0.5420044181668993","0.2606328191151252","0.2573245346350899","0","","","","","","","","",""
"","html-keyboard-response","265","883716","0.0-140.0-1.0","""event"",""trial"",""time""
""fullscreenenter"",""0"",""13277""
","
","
","""event"",""trial"",""time""
""fullscreenenter"",""0"",""13277""
","
","null","<p></p>","null","","","","","","","","","","","","","","","","","","","","","","","",""
"","do_trial","266","886839","0.0-141.0-0.0","""event"",""trial"",""time""
""fullscreenenter"",""0"",""13277""
","
","
","""event"",""trial"",""time""
""fullscreenenter"",""0"",""13277""
","
","574.3999999985099","","","","","","","","50","1,0,0","6","blank","352","null","0.5628753930682807","0.33986900298008565","0.29804266812660535","0","","","","","","","","",""
"","html-keyboard-response","267","887843","0.0-141.0-1.0","""event"",""trial"",""time""
""fullscreenenter"",""0"",""13277""
","
","
","""event"",""trial"",""time""
""fullscreenenter"",""0"",""13277""
","
","null","<p></p>","null","","","","","","","","","","","","","","","","","","","","","","","",""
"","do_recog","268","891501","0.0-142.0-0.0","""event"",""trial"",""time""
""fullscreenenter"",""0"",""13277""
","
","
","""event"",""trial"",""time""
""fullscreenenter"",""0"",""13277""
","
","2149.7000000029802","","","","","","","","56","","","","353","probe-252","","","","","0","[object Object]","null","null","1","","","",""
"","html-keyboard-response","269","892506","0.0-142.0-1.0","""event"",""trial"",""time""
""fullscreenenter"",""0"",""13277""
","
","
","""event"",""trial"",""time""
""fullscreenenter"",""0"",""13277""
","
","null","<p></p>","null","","","","","","","","","","","","","","","","","","","","","","","",""
"","do_trial","270","895950","0.0-143.0-0.0","""event"",""trial"",""time""
""fullscreenenter"",""0"",""13277""
","
","
","""event"",""trial"",""time""
""fullscreenenter"",""0"",""13277""
","
","893.1000000014901","","","","","","","","49","0,1,0","6","blank","354","null","0.6090175738228387","0.2572921021756408","0.37301935904886363","0","","","","","","","","",""
"","html-keyboard-response","271","896955","0.0-143.0-1.0","""event"",""trial"",""time""
""fullscreenenter"",""0"",""13277""
","
","
","""event"",""trial"",""time""
""fullscreenenter"",""0"",""13277""
","
","null","<p></p>","null","","","","","","","","","","","","","","","","","","","","","","","",""
"","do_recog","272","900156","0.0-144.0-0.0","""event"",""trial"",""time""
""fullscreenenter"",""0"",""13277""
","
","
","""event"",""trial"",""time""
""fullscreenenter"",""0"",""13277""
","
","1694.3000000044703","","","","","","","","54","","","","355","probe-86","","","","","1","[object Object]","75","1","1","","","",""
"","html-keyboard-response","273","901161","0.0-144.0-1.0","""event"",""trial"",""time""
""fullscreenenter"",""0"",""13277""
","
","
","""event"",""trial"",""time""
""fullscreenenter"",""0"",""13277""
","
","null","<p></p>","null","","","","","","","","","","","","","","","","","","","","","","","",""
"","do_trial","274","904440","0.0-145.0-0.0","""event"",""trial"",""time""
""fullscreenenter"",""0"",""13277""
","
","
","""event"",""trial"",""time""
""fullscreenenter"",""0"",""13277""
","
","727.7000000029802","","","","","","","","49","1,0,1","6","blank","356","null","0.6632098154676902","0.2266359272269751","0.3722762921172101","1","","","","","","","","",""
"","html-keyboard-response","275","905444","0.0-145.0-1.0","""event"",""trial"",""time""
""fullscreenenter"",""0"",""13277""
","
","
","""event"",""trial"",""time""
""fullscreenenter"",""0"",""13277""
","
","null","<p></p>","null","","","","","","","","","","","","","","","","","","","","","","","",""
"","do_trial","276","908636","0.0-146.0-0.0","""event"",""trial"",""time""
