"success","trial_type","trial_index","time_elapsed","internal_node_id","rt","stimulus","key_press","subject_id","participant_id","age","gender","prompt","response","choice_outcomes","context_n","context_img_id","trial_n","probe_img_id","pR_red","pR_white","pR_black","outcome","is_valid","image_to_show","probed_trial","probed_context","correct","probe","probed_trial_n","probed_context_n","context_im"
"true","fullscreen","0","3623","0.0-0.0","","","","","","","","","","","","","","","","","","","","","","","","","","",""
"","pavlovia","1","3626","0.0-1.0","","","","","","","","","","","","","","","","","","","","","","","","","","",""
"","welc_back","2","16464","0.0-2.0","null","run_exp/static/audio/clip_29_welcome_back.m4a","null","55","18","8","female","<div class='center'><p>Welcome to day 2!</p><p> Yesterday, you were the head captain of a pirate ship. You and your fellow pirates robbed ships for their gold and traveled to six different islands .</p></div>","","","","","","","","","","","","","","","","","","",""
"","html-keyboard-response","3","19520","0.0-3.0","3054.10000000149","<div class='center'><p>Welcome to day 2!</p><p> Yesterday, you were the head captain of a pirate ship. You and your fellow pirates robbed ships for their gold and traveled to six different islands .</p><p><b>[Press the space bar to continue]</b></p></div>","32","","","","","","","","","","","","","","","","","","","","","","","",""
"","day_1_summary_goal","4","39608","0.0-4.0","null","run_exp/static/audio/clip_30_goal_of_game.m4a","null","","","","","<div class='center'><p>Today, like yesterday, you get to pick which pirate you want to rob the next ship.</p><p>If the pirate is successful in robbing a ship, you get gold coins that look like this: </p><p><img src='run_exp/static/images/tutorial/reward.png' height='150'></p><p> If they were not successful in robbing the ship, then you will get no gold coins and you'll see a big red x like this: </p><p><img src='run_exp/static/images/tutorial/reward_no.png' height='150'></p></div>","","","","","","","","","","","","","","","","","","",""
"","html-keyboard-response","5","52012","0.0-5.0","12402.90000000596","<div class='center'><p>Today, like yesterday, you get to pick which pirate you want to rob the next ship.</p><p>If the pirate is successful in robbing a ship, you get gold coins that look like this: </p><p><img src='run_exp/static/images/tutorial/reward.png' height='150'></p><p> If they were not successful in robbing the ship, then you will get no gold coins and you'll see a big red x like this: </p><p><img src='run_exp/static/images/tutorial/reward_no.png' height='150'></p><p><b>[Press the space bar to continue]</b></p></div>","32","","","","","","","","","","","","","","","","","","","","","","","",""
"","day_1_summary_pick","6","69997","0.0-6.0","null","run_exp/static/audio/clip_31_how_to_pick_a_pirate.m4a","null","","","","","<div class='center'><p>Also, just like yesterday, you will use the 1,2,3 keys on your keyboard to pick a pirate. Press '1' to choose red beard, '2' to choose white beard, and '3' to choose black beard . You only have 3 seconds to pick a pirate, so please make a choice quickly!</p></div>","","","","","","","","","","","","","","","","","","",""
"","html-keyboard-response","7","71357","0.0-7.0","1359","<div class='center'><p>Also, just like yesterday, you will use the 1,2,3 keys on your keyboard to pick a pirate. Press '1' to choose red beard, '2' to choose white beard, and '3' to choose black beard . You only have 3 seconds to pick a pirate, so please make a choice quickly!</p><p><b>[Press the space bar to continue]</b></p></div>","32","","","","","","","","","","","","","","","","","","","","","","","",""
"","test_phase_begin","8","95919","0.0-8.0","null","run_exp/static/audio/clip_32_final_place.m4a","null","","","","","<div class='center'><p>You’ve arrived at the final island of your journey! Unfortunately, it’s very foggy out, so you won’t be able to see it in the distance like the other islands you've visited.</p><p>You’ll still be deciding which pirate you want to rob a ship like before. However, because of the fog, you also won’t be able to see the ship.</p><p>This means you do not have to remember the ships you rob on this island.</p></p></div>","","","","","","","","","","","","","","","","","","",""
"","html-keyboard-response","9","97563","0.0-9.0","1643.2000000029802","<div class='center'><p>You’ve arrived at the final island of your journey! Unfortunately, it’s very foggy out, so you won’t be able to see it in the distance like the other islands you've visited.</p><p>You’ll still be deciding which pirate you want to rob a ship like before. However, because of the fog, you also won’t be able to see the ship.</p><p>This means you do not have to remember the ships you rob on this island.</p></p><p><b>[Press the space bar to continue]</b></p></div>","32","","","","","","","","","","","","","","","","","","","","","","","",""
"","explain_probe_1","10","107116","0.0-10.0","null","run_exp/static/audio/clip_33_recognition_1.m4a","null","","","","","<div class='center'><p> Sometimes you’ll be shown a ship, and you will be asked if you saw this ship on a past island.</p><p> Here is an example of what you will see.</p><p><img src='run_exp/static/images/tutorial/example_recog_trial.png' height='500'></p></div>","","","","","","","","","","","","","","","","","","",""
"","html-keyboard-response","11","109741","0.0-11.0","2624.5","<div class='center'><p> Sometimes you’ll be shown a ship, and you will be asked if you saw this ship on a past island.</p><p> Here is an example of what you will see.</p><p><img src='run_exp/static/images/tutorial/example_recog_trial.png' height='500'></p><p><b>[Press the space bar to continue]</b></p></div>","32","","","","","","","","","","","","","","","","","","","","","","","",""
"","explain_probe_2","12","136683","0.0-12.0","null","run_exp/static/audio/clip_34_recognition_2.m4a","null","","","","","<div class='center'><p> You will press the 5, 6, 7, 8 keys on your keyboard to respond.</p><p>If you are very sure saw the ship, press <b>5</b> on your keyboard.</p><p> If you think you  saw it before but are not sure, then press <b>6</b>.</p><p> If you think you have <b>not</b> seen it before but are not sure, then press <b>7</b>.</p><p> If you are sure you did <b>not</b> see the ship before, then press <b>8</b>.</p><p><img src='run_exp/static/images/tutorial/example_recog_trial.png' height='500'></p></div>","","","","","","","","","","","","","","","","","","",""
"","html-keyboard-response","13","138116","0.0-13.0","1432.7999999970198","<div class='center'><p> You will press the 5, 6, 7, 8 keys on your keyboard to respond.</p><p>If you are very sure saw the ship, press <b>5</b> on your keyboard.</p><p> If you think you  saw it before but are not sure, then press <b>6</b>.</p><p> If you think you have <b>not</b> seen it before but are not sure, then press <b>7</b>.</p><p> If you are sure you did <b>not</b> see the ship before, then press <b>8</b>.</p><p><img src='run_exp/static/images/tutorial/example_recog_trial.png' height='500'></p><p><b>[Press the space bar to continue]</b></p></div>","32","","","","","","","","","","","","","","","","","","","","","","","",""
"","explain_outcome","14","159786","0.0-14.0","null","run_exp/static/audio/clip_35_recognition_3.m4a","null","","","","","<div class='center'><p> If you remember correctly, then you’ll get a gold coin like this: </p><p><img src='run_exp/static/images/tutorial/reward_small.png' height='200'></p><p>If you do not remember correctly, then you'll see a red x like this: </p><p><img src='run_exp/static/images/tutorial/reward_no.png' height='200'></p><p>Importantly, when you are shown a ship, take the time to remind yourself which island you saw it on. This will help you in the next part of the study.</p></div>","","","","","","","","","","","","","","","","","","",""
"","html-keyboard-response","15","161025","0.0-15.0","1238.5","<div class='center'><p> If you remember correctly, then you’ll get a gold coin like this: </p><p><img src='run_exp/static/images/tutorial/reward_small.png' height='200'></p><p>If you do not remember correctly, then you'll see a red x like this: </p><p><img src='run_exp/static/images/tutorial/reward_no.png' height='200'></p><p>Importantly, when you are shown a ship, take the time to remind yourself which island you saw it on. This will help you in the next part of the study.</p><p><b>[Press the space bar to continue]</b></p></div>","32","","","","","","","","","","","","","","","","","","","","","","","",""
"","begin_test_phase","16","185642","0.0-16.0","null","run_exp/static/audio/clip_36_begin_final.m4a","null","","","","","<div class='center'><p>Let's go over the important points again. Your job is to: </p><p>1. Pick the pirate who is best at robbing ships and will bring you back gold coins. </p><p>2. Correctly remember whether or not you saw a ship before. If you did see the ship before, remind yourself on which island you saw the ship. </p></div>","","","","","","","","","","","","","","","","","","",""
"","html-keyboard-response","17","185696","0.0-17.0","9.299999997019768","<div class='center'><p>Let's go over the important points again. Your job is to: </p><p>1. Pick the pirate who is best at robbing ships and will bring you back gold coins. </p><p>2. Correctly remember whether or not you saw a ship before. If you did see the ship before, remind yourself on which island you saw the ship. </p><p><b>[Press the space bar to continue]</b></p></div>","32","","","","","","","","","","","","","","","","","","","","","","","",""
"","do_welcome","18","187202","0.0-18.0","null","","","","","","","","null","","","","","","","","","","","","","","","","","",""
"","do_trial","19","191382","0.0-19.0-0.0","1635.1000000014901","","","","","","","","49","0,0,0","6","blank","230","null","0.21366264484234596","0.265927584394794","0.5542240125972736","0","","","","","","","","",""
"","html-keyboard-response","20","192385","0.0-19.0-1.0","null","<p></p>","null","","","","","","","","","","","","","","","","","","","","","","","",""
"","do_trial","21","195345","0.0-20.0-0.0","404.1000000014901","","","","","","","","50","1,1,1","6","blank","231","null","0.1657090120853344","0.2971611038989628","0.5523066732296206","1","","","","","","","","",""
"","html-keyboard-response","22","196350","0.0-20.0-1.0","null","<p></p>","null","","","","","","","","","","","","","","","","","","","","","","","",""
"","do_trial","23","199360","0.0-21.0-0.0","468.1000000014901","","","","","","","","50","0,0,1","6","blank","232","null","0.08982660685842685","0.27968641534237515","0.5074667431182109","0","","","","","","","","",""
"","html-keyboard-response","24","200363","0.0-21.0-1.0","null","<p></p>","null","","","","","","","","","","","","","","","","","","","","","","","",""
"","do_trial","25","203421","0.0-22.0-0.0","514","","","","","","","","51","0,0,1","6","blank","233","null","0.15409894835897275","0.30020086835340193","0.5569802634733722","1","","","","","","","","",""
"","html-keyboard-response","26","204427","0.0-22.0-1.0","null","<p></p>","null","","","","","","","","","","","","","","","","","","","","","","","",""
"","do_trial","27","207536","0.0-23.0-0.0","566.5","","","","","","","","51","0,1,1","6","blank","234","null","0.1563484570954425","0.3042630357895033","0.6611036809512244","1","","","","","","","","",""
"","html-keyboard-response","28","208541","0.0-23.0-1.0","null","<p></p>","null","","","","","","","","","","","","","","","","","","","","","","","",""
"","do_trial","29","211632","0.0-24.0-0.0","545.7999999970198","","","","","","","","51","0,0,1","6","blank","235","null","0.07716463204572267","0.2574663002873695","0.7323524658551639","1","","","","","","","","",""
"","html-keyboard-response","30","212634","0.0-24.0-1.0","null","<p></p>","null","","","","","","","","","","","","","","","","","","","","","","","",""
"","do_trial","31","215676","0.0-25.0-0.0","502.70000000298023","","","","","","","","51","0,0,1","6","blank","236","null","0.053724224187435575","0.26271629575442373","0.6266806123484191","1","","","","","","","","",""
"","html-keyboard-response","32","216678","0.0-25.0-1.0","null","<p></p>","null","","","","","","","","","","","","","","","","","","","","","","","",""
"","do_trial","33","219709","0.0-26.0-0.0","489.6000000014901","","","","","","","","51","0,0,0","6","blank","237","null","0.09653461988415493","0.3095972996049629","0.5471317681149668","0","","","","","","","","",""
"","html-keyboard-response","34","220715","0.0-26.0-1.0","null","<p></p>","null","","","","","","","","","","","","","","","","","","","","","","","",""
"","do_trial","35","223778","0.0-27.0-0.0","519.7999999970198","","","","","","","","49","0,0,0","6","blank","238","null","0.05913860468861245","0.334082872143991","0.6721628348203618","0","","","","","","","","",""
"","html-keyboard-response","36","224782","0.0-27.0-1.0","null","<p></p>","null","","","","","","","","","","","","","","","","","","","","","","","",""
"","do_trial","37","227754","0.0-28.0-0.0","425.8999999985099","","","","","","","","50","0,1,0","6","blank","239","null","0.16022898192273272","0.17487595687210813","0.5561092044977367","1","","","","","","","","",""
"","html-keyboard-response","38","228758","0.0-28.0-1.0","null","<p></p>","null","","","","","","","","","","","","","","","","","","","","","","","",""
"","do_trial","39","231684","0.0-29.0-0.0","380.69999999552965","","","","","","","","50","0,0,1","6","blank","240","null","0.19149943080844792","0.3285487470421469","0.6185294647972447","0","","","","","","","","",""
"","html-keyboard-response","40","232688","0.0-29.0-1.0","null","<p></p>","null","","","","","","","","","","","","","","","","","","","","","","","",""
"","do_recog","41","238697","0.0-30.0-0.0","null","","","","","","","","null","","","","241","probe-85","","","","","1","[object Object]","127","3","0","","","",""
"","html-keyboard-response","42","239700","0.0-30.0-1.0","null","<p></p>","null","","","","","","","","","","","","","","","","","","","","","","","",""
"","do_trial","43","244361","0.0-31.0-0.0","2118.39999999851","","","","","","","","49","0,0,0","6","blank","242","null","0.16400198415961734","0.39688655592348443","0.6418424909213556","0","","","","","","","","",""
"","html-keyboard-response","44","245366","0.0-31.0-1.0","null","<p></p>","null","","","","","","","","","","","","","","","","","","","","","","","",""
"","do_recog","45","249743","0.0-32.0-0.0","2872","","","","","","","","56","","","","243","probe-89","","","","","1","[object Object]","40","1","0","","","",""
"","html-keyboard-response","46","250747","0.0-32.0-1.0","null","<p></p>","null","","","","","","","","","","","","","","","","","","","","","","","",""
"","do_trial","47","254897","0.0-33.0-0.0","1606.5","","","","","","","","49","0,1,0","6","blank","244","null","0.12403480978170213","0.43700840729793256","0.32673624520256667","0","","","","","","","","",""
"","html-keyboard-response","48","255903","0.0-33.0-1.0","null","<p></p>","null","","","","","","","","","","","","","","","","","","","","","","","",""
"","do_trial","49","258857","0.0-34.0-0.0","408.90000000596046","","","","","","","","51","0,0,0","6","blank","245","null","0.16261441600216717","0.4703857229668266","0.2674468325633932","0","","","","","","","","",""
"","html-keyboard-response","50","259860","0.0-34.0-1.0","null","<p></p>","null","","","","","","","","","","","","","","","","","","","","","","","",""
"","do_trial","51","262809","0.0-35.0-0.0","402.5","","","","","","","","50","1,0,0","6","blank","246","null","0.25151734452234387","0.5527427956642503","0.25956612016145325","0","","","","","","","","",""
"","html-keyboard-response","52","263814","0.0-35.0-1.0","null","<p></p>","null","","","","","","","","","","","","","","","","","","","","","","","",""
"","do_recog","53","267844","0.0-36.0-0.0","2520.2999999970198","","","","","","","","56","","","","247","probe-179","","","","","1","[object Object]","202","5","0","","","",""
"","html-keyboard-response","54","268846","0.0-36.0-1.0","null","<p></p>","null","","","","","","","","","","","","","","","","","","","","","","","",""
"","do_trial","55","272810","0.0-37.0-0.0","1416.1000000014901","","","","","","","","49","0,0,0","6","blank","248","null","0.3192412299179346","0.5357931187227548","0.14521271650061188","0","","","","","","","","",""
"","html-keyboard-response","56","273811","0.0-37.0-1.0","null","<p></p>","null","","","","","","","","","","","","","","","","","","","","","","","",""
"","do_recog","57","277571","0.0-38.0-0.0","2253.60000000149","","","","","","","","56","","","","249","probe-157","","","","","1","[object Object]","48","1","0","","","",""
"","html-keyboard-response","58","278575","0.0-38.0-1.0","null","<p></p>","null","","","","","","","","","","","","","","","","","","","","","","","",""
"","do_trial","59","282749","0.0-39.0-0.0","1625.1000000014901","","","","","","","","50","1,0,0","6","blank","250","null","0.2787732086112794","0.4450966838027496","0.1893066414527472","0","","","","","","","","",""
"","html-keyboard-response","60","283753","0.0-39.0-1.0","null","<p></p>","null","","","","","","","","","","","","","","","","","","","","","","","",""
"","do_trial","61","287011","0.0-40.0-0.0","677","","","","","","","","51","0,0,0","6","blank","251","null","0.14388937565957652","0.6499216813300338","0.10982924312463922","0","","","","","","","","",""
"","html-keyboard-response","62","288013","0.0-40.0-1.0","null","<p></p>","null","","","","","","","","","","","","","","","","","","","","","","","",""
"","do_recog","63","294027","0.0-41.0-0.0","null","","","","","","","","null","","","","252","probe-36","","","","","1","[object Object]","129","3","0","","","",""
"","html-keyboard-response","64","295032","0.0-41.0-1.0","null","<p></p>","null","","","","","","","","","","","","","","","","","","","","","","","",""
"","do_trial","65","299014","0.0-42.0-0.0","1437.3999999985099","","","","","","","","49","0,1,0","6","blank","253","null","0.22734414002979","0.6238936177053488","0.19029755885797986","0","","","","","","","","",""
"","html-keyboard-response","66","300018","0.0-42.0-1.0","null","<p></p>","null","","","","","","","","","","","","","","","","","","","","","","","",""
"","do_trial","67","303060","0.0-43.0-0.0","502.19999999552965","","","","","","","","50","0,1,0","6","blank","254","null","0.32806134370619605","0.6976874313295867","0.22068933082085884","1","","","","","","","","",""
"","html-keyboard-response","68","304064","0.0-43.0-1.0","null","<p></p>","null","","","","","","","","","","","","","","","","","","","","","","","",""
"","do_trial","69","307007","0.0-44.0-0.0","397.70000000298023","","","","","","","","50","0,0,0","6","blank","255","null","0.36789719903471474","0.6515494028857559","0.15865346697440522","0","","","","","","","","",""
"","html-keyboard-response","70","308013","0.0-44.0-1.0","null","<p></p>","null","","","","","","","","","","","","","","","","","","","","","","","",""
"","do_recog","71","312312","0.0-45.0-0.0","2790","","","","","","","","53","","","","256","probe-225","","","","","1","[object Object]","208","5","1","","","",""
"","html-keyboard-response","72","313317","0.0-45.0-1.0","null","<p></p>","null","","","","","","","","","","","","","","","","","","","","","","","",""
"","do_trial","73","317234","0.0-46.0-0.0","1374.1000000014901","","","","","","","","51","0,0,0","6","blank","257","null","0.33106007259432546","0.6632896766456233","0.12711798905597654","0","","","","","","","","",""
"","html-keyboard-response","74","318240","0.0-46.0-1.0","null","<p></p>","null","","","","","","","","","","","","","","","","","","","","","","","",""
"","do_recog","75","321647","0.0-47.0-0.0","1898","","","","","","","","56","","","","258","probe-220","","","","","1","[object Object]","165","4","0","","","",""
"","html-keyboard-response","76","322651","0.0-47.0-1.0","null","<p></p>","null","","","","","","","","","","","","","","","","","","","","","","","",""
"","do_trial","77","327614","0.0-48.0-0.0","2419.6999999955297","","","","","","","","50","1,1,0","6","blank","259","null","0.4149103606337314","0.6918758728774911","0.056263196115219856","1","","","","","","","","",""
"","html-keyboard-response","78","328618","0.0-48.0-1.0","null","<p></p>","null","","","","","","","","","","","","","","","","","","","","","","","",""
"","do_trial","79","332188","0.0-49.0-0.0","1025.1000000014901","","","","","","","","50","0,1,0","6","blank","260","null","0.44677856622816225","0.6041821872764633","0.08381475767384028","1","","","","","","","","",""
"","html-keyboard-response","80","333193","0.0-49.0-1.0","null","<p></p>","null","","","","","","","","","","","","","","","","","","","","","","","",""
"","do_trial","81","336302","0.0-50.0-0.0","561.5","","","","","","","","50","1,1,0","6","blank","261","null","0.48934078863903124","0.5538643407133309","0.0573142009150195","1","","","","","","","","",""
"","html-keyboard-response","82","337308","0.0-50.0-1.0","null","<p></p>","null","","","","","","","","","","","","","","","","","","","","","","","",""
"","do_trial","83","340391","0.0-51.0-0.0","538","","","","","","","","50","0,0,0","6","blank","262","null","0.35497560924152616","0.6008996126375974","0.1033098184304387","0","","","","","","","","",""
"","html-keyboard-response","84","341396","0.0-51.0-1.0","null","<p></p>","null","","","","","","","","","","","","","","","","","","","","","","","",""
"","do_recog","85","344892","0.0-52.0-0.0","1988.1000000014901","","","","","","","","53","","","","263","probe-52","","","","","1","[object Object]","43","1","1","","","",""
"","html-keyboard-response","86","345896","0.0-52.0-1.0","null","<p></p>","null","","","","","","","","","","","","","","","","","","","","","","","",""
"","do_trial","87","350220","0.0-53.0-0.0","1777.6999999955297","","","","","","","","51","0,0,0","6","blank","264","null","0.3014195547752526","0.5454680021623776","0.08743856786856263","0","","","","","","","","",""
"","html-keyboard-response","88","351224","0.0-53.0-1.0","null","<p></p>","null","","","","","","","","","","","","","","","","","","","","","","","",""
"","do_recog","89","354729","0.0-54.0-0.0","1998","","","","","","","","56","","","","265","probe-241","","","","","0","[object Object]","null","null","1","","","",""
"","html-keyboard-response","90","355734","0.0-54.0-1.0","null","<p></p>","null","","","","","","","","","","","","","","","","","","","","","","","",""
"","do_trial","91","359907","0.0-55.0-0.0","1626.5","","","","","","","","51","1,1,0","6","blank","266","null","0.26026209194277683","0.6440755074284857","0.05548954628549616","0","","","","","","","","",""
"","html-keyboard-response","92","360911","0.0-55.0-1.0","null","<p></p>","null","","","","","","","","","","","","","","","","","","","","","","","",""
"","do_trial","93","364545","0.0-56.0-0.0","1079.8999999985099","","","","","","","","50","1,1,0","6","blank","267","null","0.276850221857772","0.5644972447391678","0.06327289475964028","1","","","","","","","","",""
"","html-keyboard-response","94","365549","0.0-56.0-1.0","null","<p></p>","null","","","","","","","","","","","","","","","","","","","","","","","",""
"","do_trial","95","368660","0.0-57.0-0.0","566.1999999955297","","","","","","","","50","1,1,0","6","blank","268","null","0.2342041411921279","0.6969133033462126","0.1532332122350943","1","","","","","","","","",""
"","html-keyboard-response","96","369665","0.0-57.0-1.0","null","<p></p>","null","","","","","","","","","","","","","","","","","","","","","","","",""
"","break","97","371356","0.0-58.0-0.0","1690.2000000029802","<div class='center'><p>Time to take a quick break! You have 2 minutes to rest, but you can move on sooner if you'd like.</p><p> Press the <b>space bar</b> to continue.</p></div>","32","","","","","","","","","","","","","","","","","","","","","","","",""
"","do_trial","98","375115","0.0-58.0-1.0","1217.5","","","","","","","","50","0,0,0","6","blank","269","null","0.1699067086658252","0.7157794796763806","0.19624956285185363","0","","","","","","","","",""
"","html-keyboard-response","99","376119","0.0-58.0-2.0","null","<p></p>","null","","","","","","","","","","","","","","","","","","","","","","","",""
"","do_trial","100","379350","0.0-59.0-0.0","681.7000000029802","","","","","","","","49","0,0,0","6","blank","270","null","0.2924946602333034","0.6230311533253311","0.25356283007905517","0","","","","","","","","",""
"","html-keyboard-response","101","380353","0.0-59.0-1.0","null","<p></p>","null","","","","","","","","","","","","","","","","","","","","","","","",""
"","do_recog","102","384862","0.0-60.0-0.0","3000.5","","","","","","","","53","","","","271","probe-223","","","","","1","[object Object]","120","3","1","","","",""
"","html-keyboard-response","103","385866","0.0-60.0-1.0","null","<p></p>","null","","","","","","","","","","","","","","","","","","","","","","","",""
"","do_trial","104","390539","0.0-61.0-0.0","2126.60000000149","","","","","","","","51","0,0,0","6","blank","272","null","0.24443462166409088","0.4802443234600649","0.09982577673625159","0","","","","","","","","",""
"","html-keyboard-response","105","391543","0.0-61.0-1.0","null","<p></p>","null","","","","","","","","","","","","","","","","","","","","","","","",""
"","do_trial","106","394643","0.0-62.0-0.0","555.5","","","","","","","","50","0,1,0","6","blank","273","null","0.23539900659766586","0.503676657160678","0.11589265962318786","1","","","","","","","","",""
"","html-keyboard-response","107","395648","0.0-62.0-1.0","null","<p></p>","null","","","","","","","","","","","","","","","","","","","","","","","",""
"","do_trial","108","398694","0.0-63.0-0.0","506.8999999985099","","","","","","","","50","0,1,1","6","blank","274","null","0.3071869177087907","0.6893359183113043","0.17718805096740028","1","","","","","","","","",""
"","html-keyboard-response","109","399699","0.0-63.0-1.0","null","<p></p>","null","","","","","","","","","","","","","","","","","","","","","","","",""
"","do_trial","110","402928","0.0-64.0-0.0","683.8999999985099","","","","","","","","50","0,0,0","6","blank","275","null","0.3789277215005823","0.7650085192177705","0.08205353786425007","0","","","","","","","","",""
"","html-keyboard-response","111","403930","0.0-64.0-1.0","null","<p></p>","null","","","","","","","","","","","","","","","","","","","","","","","",""
"","do_trial","112","407007","0.0-65.0-0.0","530.3999999985099","","","","","","","","49","0,0,0","6","blank","276","null","0.2973086954221722","0.7076501767203738","0.11004836154897789","0","","","","","","","","",""
"","html-keyboard-response","113","408010","0.0-65.0-1.0","null","<p></p>","null","","","","","","","","","","","","","","","","","","","","","","","",""
"","do_recog","114","411504","0.0-66.0-0.0","1983.2999999970198","","","","","","","","56","","","","277","probe-236","","","","","0","[object Object]","null","null","1","","","",""
"","html-keyboard-response","115","412506","0.0-66.0-1.0","null","<p></p>","null","","","","","","","","","","","","","","","","","","","","","","","",""
"","do_trial","116","416416","0.0-67.0-0.0","1355.5","","","","","","","","51","0,0,0","6","blank","278","null","0.3670024195212843","0.7259635982819391","0.06555757983733145","0","","","","","","","","",""
"","html-keyboard-response","117","417421","0.0-67.0-1.0","null","<p></p>","null","","","","","","","","","","","","","","","","","","","","","","","",""
"","do_recog","118","421159","0.0-68.0-0.0","2230.2999999970198","","","","","","","","53","","","","279","probe-102","","","","","1","[object Object]","88","2","1","","","",""
"","html-keyboard-response","119","422164","0.0-68.0-1.0","null","<p></p>","null","","","","","","","","","","","","","","","","","","","","","","","",""
"","do_trial","120","425745","0.0-69.0-0.0","1039.3000000044703","","","","","","","","50","1,0,0","6","blank","280","null","0.24999355831213865","0.7486531509754716","0.13141394379986593","0","","","","","","","","",""
"","html-keyboard-response","121","426749","0.0-69.0-1.0","null","<p></p>","null","","","","","","","","","","","","","","","","","","","","","","","",""
"","do_trial","122","429866","0.0-70.0-0.0","566.7999999970198","","","","","","","","51","0,1,0","6","blank","281","null","0.16590274141192765","0.655979684395642","0.11603080024844209","0","","","","","","","","",""
"","html-keyboard-response","123","430870","0.0-70.0-1.0","null","<p></p>","null","","","","","","","","","","","","","","","","","","","","","","","",""
"","do_trial","124","433866","0.0-71.0-0.0","452.29999999701977","","","","","","","","49","0,0,0","6","blank","282","null","0.11579495933066915","0.5744014407772354","0.09433961806206029","0","","","","","","","","",""
"","html-keyboard-response","125","434874","0.0-71.0-1.0","null","<p></p>","null","","","","","","","","","","","","","","","","","","","","","","","",""
"","do_trial","126","437866","0.0-72.0-0.0","438.79999999701977","","","","","","","","50","1,0,1","6","blank","283","null","0.09654202897323771","0.5880733068098747","0.13164905025912682","0","","","","","","","","",""
"","html-keyboard-response","127","438870","0.0-72.0-1.0","null","<p></p>","null","","","","","","","","","","","","","","","","","","","","","","","",""
"","do_trial","128","441828","0.0-73.0-0.0","408.1000000014901","","","","","","","","51","0,1,1","6","blank","284","null","0.2766714396272764","0.6249899480452564","0.14504092035996427","1","","","","","","","","",""
"","html-keyboard-response","129","442830","0.0-73.0-1.0","null","<p></p>","null","","","","","","","","","","","","","","","","","","","","","","","",""
"","do_trial","130","446211","0.0-74.0-0.0","836.1000000014901","","","","","","","","51","1,1,0","6","blank","285","null","0.2621870707448479","0.3956746245494254","0.077334963721374","0","","","","","","","","",""
"","html-keyboard-response","131","447217","0.0-74.0-1.0","null","<p></p>","null","","","","","","","","","","","","","","","","","","","","","","","",""
"","do_recog","132","451106","0.0-75.0-0.0","2381.39999999851","","","","","","","","56","","","","286","probe-136","","","","","1","[object Object]","201","5","0","","","",""
"","html-keyboard-response","133","452110","0.0-75.0-1.0","null","<p></p>","null","","","","","","","","","","","","","","","","","","","","","","","",""
"","do_trial","134","455320","0.0-76.0-0.0","665.6999999955297","","","","","","","","49","0,0,0","6","blank","287","null","0.3525563700705577","0.5340860593091277","0.1095382239028098","0","","","","","","","","",""
"","html-keyboard-response","135","456325","0.0-76.0-1.0","null","<p></p>","null","","","","","","","","","","","","","","","","","","","","","","","",""
"","do_recog","136","459728","0.0-77.0-0.0","1895.7000000029802","","","","","","","","56","","","","288","probe-38","","","","","1","[object Object]","47","1","0","","","",""
"","html-keyboard-response","137","460734","0.0-77.0-1.0","null","<p></p>","null","","","","","","","","","","","","","","","","","","","","","","","",""
"","do_trial","138","464457","0.0-78.0-0.0","1175.3999999985099","","","","","","","","50","1,1,0","6","blank","289","null","0.3802468916909672","0.5696539545895964","0.08620385494689126","1","","","","","","","","",""
"","html-keyboard-response","139","465462","0.0-78.0-1.0","null","<p></p>","null","","","","","","","","","","","","","","","","","","","","","","","",""
"","do_recog","140","468809","0.0-79.0-0.0","1840.0999999940395","","","","","","","","53","","","","290","probe-226","","","","","1","[object Object]","49","1","1","","","",""
"","html-keyboard-response","141","469811","0.0-79.0-1.0","null","<p></p>","null","","","","","","","","","","","","","","","","","","","","","","","",""
"","do_trial","142","472984","0.0-80.0-0.0","630.6999999955297","","","","","","","","50","0,1,0","6","blank","291","null","0.30999237039125255","0.5367156115650408","0.2470239753787976","1","","","","","","","","",""
"","html-keyboard-response","143","473989","0.0-80.0-1.0","null","<p></p>","null","","","","","","","","","","","","","","","","","","","","","","","",""
"","do_recog","144","477600","0.0-81.0-0.0","2104.3000000044703","","","","","","","","56","","","","292","probe-115","","","","","1","[object Object]","207","5","0","","","",""
"","html-keyboard-response","145","478605","0.0-81.0-1.0","null","<p></p>","null","","","","","","","","","","","","","","","","","","","","","","","",""
"","do_trial","146","482162","0.0-82.0-0.0","1014.8999999985099","","","","","","","","50","0,1,0","6","blank","293","null","0.42075120851101605","0.533505054862827","0.12551901184736988","1","","","","","","","","",""
"","html-keyboard-response","147","483165","0.0-82.0-1.0","null","<p></p>","null","","","","","","","","","","","","","","","","","","","","","","","",""
"","do_recog","148","486429","0.0-83.0-0.0","1754.3000000044703","","","","","","","","56","","","","294","probe-111","","","","","1","[object Object]","169","4","0","","","",""
"","html-keyboard-response","149","487432","0.0-83.0-1.0","null","<p></p>","null","","","","","","","","","","","","","","","","","","","","","","","",""
"","do_trial","150","490695","0.0-84.0-0.0","723.5","","","","","","","","50","1,0,0","6","blank","295","null","0.350010621362499","0.5197604924856051","0.14117895933130267","0","","","","","","","","",""
"","html-keyboard-response","151","491698","0.0-84.0-1.0","null","<p></p>","null","","","","","","","","","","","","","","","","","","","","","","","",""
"","do_trial","152","495082","0.0-85.0-0.0","832.6000000014901","","","","","","","","50","0,0,0","6","blank","296","null","0.4050926390808023","0.635793223528975","0.0901466522223413","0","","","","","","","","",""
"","html-keyboard-response","153","496088","0.0-85.0-1.0","null","<p></p>","null","","","","","","","","","","","","","","","","","","","","","","","",""
"","do_trial","154","499402","0.0-86.0-0.0","771.6000000014901","","","","","","","","49","1,0,0","6","blank","297","null","0.4480484348376218","0.6726372973947484","0.13060587690796624","1","","","","","","","","",""
"","html-keyboard-response","155","500407","0.0-86.0-1.0","null","<p></p>","null","","","","","","","","","","","","","","","","","","","","","","","",""
"","do_trial","156","503445","0.0-87.0-0.0","490.1000000014901","","","","","","","","49","0,1,0","6","blank","298","null","0.37025925846487295","0.7735364572943415","0.07138683788349172","0","","","","","","","","",""
"","html-keyboard-response","157","504450","0.0-87.0-1.0","null","<p></p>","null","","","","","","","","","","","","","","","","","","","","","","","",""
"","do_trial","158","507608","0.0-88.0-0.0","613.7999999970198","","","","","","","","51","1,0,0","6","blank","299","null","0.42467866831885936","0.6230763964264066","0.11687566667445935","0","","","","","","","","",""
"","html-keyboard-response","159","508614","0.0-88.0-1.0","null","<p></p>","null","","","","","","","","","","","","","","","","","","","","","","","",""
"","do_trial","160","511935","0.0-89.0-0.0","775.5999999940395","","","","","","","","49","0,1,0","6","blank","300","null","0.3571995653638375","0.6094610592475673","0.14920931518395403","0","","","","","","","","",""
"","html-keyboard-response","161","512940","0.0-89.0-1.0","null","<p></p>","null","","","","","","","","","","","","","","","","","","","","","","","",""
"","do_recog","162","516343","0.0-90.0-0.0","1893.8999999985099","","","","","","","","56","","","","301","probe-117","","","","","1","[object Object]","126","3","0","","","",""
"","html-keyboard-response","163","517346","0.0-90.0-1.0","null","<p></p>","null","","","","","","","","","","","","","","","","","","","","","","","",""
"","do_trial","164","520903","0.0-91.0-0.0","1006.2000000029802","","","","","","","","50","1,1,0","6","blank","302","null","0.36505963543022446","0.40357210150702766","0.2221230360101872","1","","","","","","","","",""
"","html-keyboard-response","165","521907","0.0-91.0-1.0","null","<p></p>","null","","","","","","","","","","","","","","","","","","","","","","","",""
"","do_trial","166","524938","0.0-92.0-0.0","486","","","","","","","","50","0,0,0","6","blank","303","null","0.4553709525243928","0.2810343831123368","0.20049400346173893","0","","","","","","","","",""
"","html-keyboard-response","167","525944","0.0-92.0-1.0","null","<p></p>","null","","","","","","","","","","","","","","","","","","","","","","","",""
"","do_recog","168","529386","0.0-93.0-0.0","1924.6999999955297","","","","","","","","56","","","","304","probe-14","","","","","1","[object Object]","86","2","0","","","",""
"","html-keyboard-response","169","530393","0.0-93.0-1.0","null","<p></p>","null","","","","","","","","","","","","","","","","","","","","","","","",""
"","do_trial","170","534105","0.0-94.0-0.0","1162.7000000029802","","","","","","","","51","0,0,0","6","blank","305","null","0.3670619672533536","0.29732670606412115","0.07261610547889764","0","","","","","","","","",""
"","html-keyboard-response","171","535109","0.0-94.0-1.0","null","<p></p>","null","","","","","","","","","","","","","","","","","","","","","","","",""
"","do_trial","172","538399","0.0-95.0-0.0","740.8999999985099","","","","","","","","50","0,0,0","6","blank","306","null","0.40387538347438706","0.27145620970742457","0.14068600698145975","0","","","","","","","","",""
"","html-keyboard-response","173","539405","0.0-95.0-1.0","null","<p></p>","null","","","","","","","","","","","","","","","","","","","","","","","",""
"","do_recog","174","542867","0.0-96.0-0.0","1951","","","","","","","","53","","","","307","probe-125","","","","","1","[object Object]","121","3","1","","","",""
"","html-keyboard-response","175","543873","0.0-96.0-1.0","null","<p></p>","null","","","","","","","","","","","","","","","","","","","","","","","",""
"","do_trial","176","547073","0.0-97.0-0.0","649","","","","","","","","49","1,0,0","6","blank","308","null","0.5245250670290861","0.19326480744880725","0.0814390696480043","1","","","","","","","","",""
"","html-keyboard-response","177","548079","0.0-97.0-1.0","null","<p></p>","null","","","","","","","","","","","","","","","","","","","","","","","",""
"","break","178","549537","0.0-98.0-0.0","1456.6000000014901","<div class='center'><p>Time to take a quick break! You have 2 minutes to rest, but you can move on sooner if you'd like.</p><p> Press the <b>space bar</b> to continue.</p></div>","32","","","","","","","","","","","","","","","","","","","","","","","",""
"","do_trial","179","552682","0.0-98.0-1.0","597.7000000029802","","","","","","","","49","1,0,1","6","blank","309","null","0.5128509258355458","0.23628490217603973","0.1585636331374595","1","","","","","","","","",""
"","html-keyboard-response","180","553684","0.0-98.0-2.0","null","<p></p>","null","","","","","","","","","","","","","","","","","","","","","","","",""
"","do_trial","181","557038","0.0-99.0-0.0","806.7999999970198","","","","","","","","49","1,0,0","6","blank","310","null","0.5546786480526623","0.1854710279344664","0.2018464648537908","1","","","","","","","","",""
"","html-keyboard-response","182","558043","0.0-99.0-1.0","null","<p></p>","null","","","","","","","","","","","","","","","","","","","","","","","",""
"","do_trial","183","561079","0.0-100.0-0.0","489.3999999985099","","","","","","","","49","1,0,0","6","blank","311","null","0.6639465380218806","0.19119472997993114","0.1040887649617741","1","","","","","","","","",""
"","html-keyboard-response","184","562084","0.0-100.0-1.0","null","<p></p>","null","","","","","","","","","","","","","","","","","","","","","","","",""
"","do_recog","185","565294","0.0-101.0-0.0","1703.1000000014901","","","","","","","","56","","","","312","probe-61","","","","","1","[object Object]","89","2","0","","","",""
"","html-keyboard-response","186","566296","0.0-101.0-1.0","null","<p></p>","null","","","","","","","","","","","","","","","","","","","","","","","",""
"","do_trial","187","569897","0.0-102.0-0.0","1056.7999999970198","","","","","","","","50","1,1,0","6","blank","313","null","0.5133336238278742","0.15086305009522596","0.11660951193384705","1","","","","","","","","",""
"","html-keyboard-response","188","570900","0.0-102.0-1.0","null","<p></p>","null","","","","","","","","","","","","","","","","","","","","","","","",""
"","do_trial","189","574134","0.0-103.0-0.0","691.3999999985099","","","","","","","","50","0,1,0","6","blank","314","null","0.43841527787283807","0.3254077479501721","0.11730078730019149","1","","","","","","","","",""
"","html-keyboard-response","190","575138","0.0-103.0-1.0","null","<p></p>","null","","","","","","","","","","","","","","","","","","","","","","","",""
"","do_recog","191","578727","0.0-104.0-0.0","2080.60000000149","","","","","","","","53","","","","315","probe-190","","","","","1","[object Object]","45","1","1","","","",""
"","html-keyboard-response","192","579731","0.0-104.0-1.0","null","<p></p>","null","","","","","","","","","","","","","","","","","","","","","","","",""
"","do_trial","193","583376","0.0-105.0-0.0","1101","","","","","","","","50","0,1,0","6","blank","316","null","0.5528000904947072","0.21228788081412833","0.11419807905480531","1","","","","","","","","",""
"","html-keyboard-response","194","584381","0.0-105.0-1.0","null","<p></p>","null","","","","","","","","","","","","","","","","","","","","","","","",""
"","do_trial","195","587496","0.0-106.0-0.0","575.2000000029802","","","","","","","","50","0,0,0","6","blank","317","null","0.6337131399662979","0.3612735526906632","0.2212036524742608","0","","","","","","","","",""
"","html-keyboard-response","196","588501","0.0-106.0-1.0","null","<p></p>","null","","","","","","","","","","","","","","","","","","","","","","","",""
"","do_recog","197","592011","0.0-107.0-0.0","2002.2000000029802","","","","","","","","53","","","","318","probe-198","","","","","1","[object Object]","46","1","1","","","",""
"","html-keyboard-response","198","593013","0.0-107.0-1.0","null","<p></p>","null","","","","","","","","","","","","","","","","","","","","","","","",""
"","do_trial","199","596355","0.0-108.0-0.0","798.7999999970198","","","","","","","","49","1,1,0","6","blank","319","null","0.5773133982768197","0.3688589146217899","0.0967806245446219","1","","","","","","","","",""
"","html-keyboard-response","200","597360","0.0-108.0-1.0","null","<p></p>","null","","","","","","","","","","","","","","","","","","","","","","","",""
"","do_trial","201","600549","0.0-109.0-0.0","641.6000000014901","","","","","","","","49","0,0,0","6","blank","320","null","0.6553131735710979","0.2362780561985125","0.055819680274583894","0","","","","","","","","",""
"","html-keyboard-response","202","601553","0.0-109.0-1.0","null","<p></p>","null","","","","","","","","","","","","","","","","","","","","","","","",""
"","do_recog","203","605396","0.0-110.0-0.0","2335.39999999851","","","","","","","","56","","","","321","probe-134","","","","","1","[object Object]","123","3","0","","","",""
"","html-keyboard-response","204","606400","0.0-110.0-1.0","null","<p></p>","null","","","","","","","","","","","","","","","","","","","","","","","",""
"","do_trial","205","612448","0.0-111.0-0.0","null","","","","","","","","null","0,0,0","6","blank","322","null","0.5766413796532384","0.3422717928042788","0.08033434780762524","","","","","","","","","",""
"","html-keyboard-response","206","613453","0.0-111.0-1.0","null","<p></p>","null","","","","","","","","","","","","","","","","","","","","","","","",""
"","do_trial","207","617073","0.0-112.0-0.0","1077.3000000044703","","","","","","","","49","0,1,0","6","blank","323","null","0.5930282300649118","0.3308184463194977","0.0950597441373084","0","","","","","","","","",""
"","html-keyboard-response","208","618076","0.0-112.0-1.0","null","<p></p>","null","","","","","","","","","","","","","","","","","","","","","","","",""
"","do_trial","209","621319","0.0-113.0-0.0","696.1000000014901","","","","","","","","50","0,0,0","6","blank","324","null","0.5212623139756188","0.23301530822747998","0.19726367157299468","0","","","","","","","","",""
"","html-keyboard-response","210","622324","0.0-113.0-1.0","null","<p></p>","null","","","","","","","","","","","","","","","","","","","","","","","",""
"","do_trial","211","625319","0.0-114.0-0.0","449.70000000298023","","","","","","","","51","0,0,0","6","blank","325","null","0.5061692396130868","0.2942821197357181","0.18057854770212375","0","","","","","","","","",""
"","html-keyboard-response","212","626323","0.0-114.0-1.0","null","<p></p>","null","","","","","","","","","","","","","","","","","","","","","","","",""
"","do_trial","213","629318","0.0-115.0-0.0","450.80000000447035","","","","","","","","49","0,1,0","6","blank","326","null","0.46802940673133636","0.4019198366224628","0.14373839294336707","0","","","","","","","","",""
"","html-keyboard-response","214","630323","0.0-115.0-1.0","null","<p></p>","null","","","","","","","","","","","","","","","","","","","","","","","",""
"","do_recog","215","633608","0.0-116.0-0.0","1776.3000000044703","","","","","","","","56","","","","327","probe-188","","","","","1","[object Object]","164","4","0","","","",""
"","html-keyboard-response","216","634612","0.0-116.0-1.0","null","<p></p>","null","","","","","","","","","","","","","","","","","","","","","","","",""
"","do_trial","217","637863","0.0-117.0-0.0","709.2000000029802","","","","","","","","50","1,0,0","6","blank","328","null","0.6286876379455033","0.40894949963539823","0.06794970518673703","0","","","","","","","","",""
"","html-keyboard-response","218","638868","0.0-117.0-1.0","null","<p></p>","null","","","","","","","","","","","","","","","","","","","","","","","",""
"","do_trial","219","642063","0.0-118.0-0.0","637.3999999985099","","","","","","","","51","1,0,0","6","blank","329","null","0.598546177176481","0.31117588426012105","0.10235077839585056","0","","","","","","","","",""
"","html-keyboard-response","220","643068","0.0-118.0-1.0","null","<p></p>","null","","","","","","","","","","","","","","","","","","","","","","","",""
"","do_trial","221","646217","0.0-119.0-0.0","606.4000000059605","","","","","","","","49","1,0,0","6","blank","330","null","0.5845678537111986","0.25917593846191067","0.12275697160870454","1","","","","","","","","",""
"","html-keyboard-response","222","647222","0.0-119.0-1.0","null","<p></p>","null","","","","","","","","","","","","","","","","","","","","","","","",""
"","do_trial","223","650401","0.0-120.0-0.0","636.3999999985099","","","","","","","","49","1,0,0","6","blank","331","null","0.5068546385318997","0.2797015071970322","0.061342151837019805","1","","","","","","","","",""
"","html-keyboard-response","224","651406","0.0-120.0-1.0","null","<p></p>","null","","","","","","","","","","","","","","","","","","","","","","","",""
"","do_trial","225","654680","0.0-121.0-0.0","731.7000000029802","","","","","","","","49","1,0,0","6","blank","332","null","0.3939565432610615","0.08386836322475855","0.15357932100946653","1","","","","","","","","",""
"","html-keyboard-response","226","655684","0.0-121.0-1.0","null","<p></p>","null","","","","","","","","","","","","","","","","","","","","","","","",""
"","do_recog","227","659260","0.0-122.0-0.0","2071.3000000044703","","","","","","","","53","","","","333","probe-107","","","","","1","[object Object]","124","3","1","","","",""
"","html-keyboard-response","228","660264","0.0-122.0-1.0","null","<p></p>","null","","","","","","","","","","","","","","","","","","","","","","","",""
"","do_trial","229","663414","0.0-123.0-0.0","606.2000000029802","","","","","","","","50","1,1,0","6","blank","334","null","0.44847118636138794","0.16762472167834921","0.157740388241139","1","","","","","","","","",""
"","html-keyboard-response","230","664419","0.0-123.0-1.0","null","<p></p>","null","","","","","","","","","","","","","","","","","","","","","","","",""
"","do_trial","231","668184","0.0-124.0-0.0","1225.3000000044703","","","","","","","","50","1,0,0","6","blank","335","null","0.49788055351483196","0.2608880313522585","0.28039904575879737","0","","","","","","","","",""
"","html-keyboard-response","232","669190","0.0-124.0-1.0","null","<p></p>","null","","","","","","","","","","","","","","","","","","","","","","","",""
"","do_trial","233","672168","0.0-125.0-0.0","435.79999999701977","","","","","","","","51","0,0,0","6","blank","336","null","0.5872668717880214","0.32459799200077477","0.15668758692406698","0","","","","","","","","",""
"","html-keyboard-response","234","673173","0.0-125.0-1.0","null","<p></p>","null","","","","","","","","","","","","","","","","","","","","","","","",""
"","do_trial","235","676560","0.0-126.0-0.0","840.6999999955297","","","","","","","","49","1,1,1","6","blank","337","null","0.6976408165104193","0.1577052810990914","0.14868821527260992","1","","","","","","","","",""
"","html-keyboard-response","236","677563","0.0-126.0-1.0","null","<p></p>","null","","","","","","","","","","","","","","","","","","","","","","","",""
"","do_trial","237","680640","0.0-127.0-0.0","534.5","","","","","","","","49","1,1,0","6","blank","338","null","0.5528343139943673","0.18636173725170474","0.14623226684229032","1","","","","","","","","",""
"","html-keyboard-response","238","681644","0.0-127.0-1.0","null","<p></p>","null","","","","","","","","","","","","","","","","","","","","","","","",""
"","do_trial","239","684737","0.0-128.0-0.0","549.8999999985099","","","","","","","","49","0,0,0","6","blank","339","null","0.4814241986610712","0.2320227400398961","0.1262404202225866","0","","","","","","","","",""
"","html-keyboard-response","240","685743","0.0-128.0-1.0","null","<p></p>","null","","","","","","","","","","","","","","","","","","","","","","","",""
"","do_recog","241","689098","0.0-129.0-0.0","1846.5","","","","","","","","56","","","","340","probe-249","","","","","0","[object Object]","null","null","1","","","",""
"","html-keyboard-response","242","690107","0.0-129.0-1.0","null","<p></p>","null","","","","","","","","","","","","","","","","","","","","","","","",""
"","do_trial","243","693361","0.0-130.0-0.0","702.7999999970198","","","","","","","","50","1,0,1","6","blank","341","null","0.5743570848917667","0.24116096995990055","0.24154320818563713","0","","","","","","","","",""
"","html-keyboard-response","244","694363","0.0-130.0-1.0","null","<p></p>","null","","","","","","","","","","","","","","","","","","","","","","","",""
"","do_recog","245","697846","0.0-131.0-0.0","1978.7000000029802","","","","","","","","56","","","","342","probe-178","","","","","1","[object Object]","163","4","0","","","",""
"","html-keyboard-response","246","698851","0.0-131.0-1.0","null","<p></p>","null","","","","","","","","","","","","","","","","","","","","","","","",""
"","do_trial","247","702166","0.0-132.0-0.0","775.7000000029802","","","","","","","","50","1,0,0","6","blank","343","null","0.5741286248670074","0.25744209518423267","0.2759409122321208","0","","","","","","","","",""
"","html-keyboard-response","248","703169","0.0-132.0-1.0","null","<p></p>","null","","","","","","","","","","","","","","","","","","","","","","","",""
"","do_trial","249","706183","0.0-133.0-0.0","470.79999999701977","","","","","","","","51","0,0,0","6","blank","344","null","0.6268645531240193","0.30365032902888867","0.08591670762399022","0","","","","","","","","",""
"","html-keyboard-response","250","707187","0.0-133.0-1.0","null","<p></p>","null","","","","","","","","","","","","","","","","","","","","","","","",""
"","do_trial","251","710225","0.0-134.0-0.0","496.90000000596046","","","","","","","","49","1,0,1","6","blank","345","null","0.6648995310924751","0.33782577556006166","0.19735202870814966","1","","","","","","","","",""
"","html-keyboard-response","252","711228","0.0-134.0-1.0","null","<p></p>","null","","","","","","","","","","","","","","","","","","","","","","","",""
"","do_trial","253","714615","0.0-135.0-0.0","841.9000000059605","","","","","","","","49","0,0,0","6","blank","346","null","0.7212204816289185","0.3673528156538785","0.28698667373786363","0","","","","","","","","",""
"","html-keyboard-response","254","715618","0.0-135.0-1.0","null","<p></p>","null","","","","","","","","","","","","","","","","","","","","","","","",""
"","do_recog","255","718872","0.0-136.0-0.0","1747.4000000059605","","","","","","","","56","","","","347","probe-29","","","","","1","[object Object]","204","5","0","","","",""
"","html-keyboard-response","256","719876","0.0-136.0-1.0","null","<p></p>","null","","","","","","","","","","","","","","","","","","","","","","","",""
"","do_trial","257","723414","0.0-137.0-0.0","996.3000000044703","","","","","","","","50","1,0,0","6","blank","348","null","0.6893988107484136","0.25728890139746957","0.35886562766162416","0","","","","","","","","",""
"","html-keyboard-response","258","724417","0.0-137.0-1.0","null","<p></p>","null","","","","","","","","","","","","","","","","","","","","","","","",""
"","break","259","725602","0.0-138.0-0.0","1184.1000000014901","<div class='center'><p>Time to take a quick break! You have 2 minutes to rest, but you can move on sooner if you'd like.</p><p> Press the <b>space bar</b> to continue.</p></div>","32","","","","","","","","","","","","","","","","","","","","","","","",""
"","do_recog","260","729367","0.0-138.0-1.0","2260.2000000029802","","","","","","","","53","","","","349","probe-210","","","","","1","[object Object]","128","3","1","","","",""
"","html-keyboard-response","261","730373","0.0-138.0-2.0","null","<p></p>","null","","","","","","","","","","","","","","","","","","","","","","","",""
"","do_trial","262","733628","0.0-139.0-0.0","714.2000000029802","","","","","","","","50","1,0,0","6","blank","350","null","0.735679264576913","0.2590660934307878","0.3316173743370307","0","","","","","","","","",""
"","html-keyboard-response","263","734633","0.0-139.0-1.0","null","<p></p>","null","","","","","","","","","","","","","","","","","","","","","","","",""
"","do_recog","264","737831","0.0-140.0-0.0","1691.8999999985099","","","","","","","","53","","","","351","probe-164","","","","","1","[object Object]","122","3","1","","","",""
"","html-keyboard-response","265","738836","0.0-140.0-1.0","null","<p></p>","null","","","","","","","","","","","","","","","","","","","","","","","",""
"","do_trial","266","742179","0.0-141.0-0.0","798.7999999970198","","","","","","","","49","0,0,0","6","blank","352","null","0.7096757820824307","0.11793248586455665","0.3176185622778757","0","","","","","","","","",""
"","html-keyboard-response","267","743183","0.0-141.0-1.0","null","<p></p>","null","","","","","","","","","","","","","","","","","","","","","","","",""
"","do_trial","268","746327","0.0-142.0-0.0","597.5","","","","","","","","50","0,0,1","6","blank","353","null","0.3895184479576718","0.33650181375988086","0.3552377606882773","0","","","","","","","","",""
"","html-keyboard-response","269","747329","0.0-142.0-1.0","null","<p></p>","null","","","","","","","","","","","","","","","","","","","","","","","",""
"","do_recog","270","750914","0.0-143.0-0.0","2075.7999999970198","","","","","","","","53","","","","354","probe-168","","","","","1","[object Object]","160","4","1","","","",""
"","html-keyboard-response","271","751916","0.0-143.0-1.0","null","<p></p>","null","","","","","","","","","","","","","","","","","","","","","","","",""
"","do_trial","272","755606","0.0-144.0-0.0","1139.7000000029802","","","","","","","","50","0,0,1","6","blank","355","null","0.4456367515329657","0.2704071608194453","0.3918697144188107","0","","","","","","","","",""
"","html-keyboard-response","273","756610","0.0-144.0-1.0","null","<p></p>","null","","","","","","","","","","","","","","","","","","","","","","","",""
"","do_recog","274","759687","0.0-145.0-0.0","1571.2999999970198","","","","","","","","56","","","","356","probe-75","","","","","1","[object Object]","168","4","0","","","",""
"","html-keyboard-response","275","760692","0.0-145.0-1.0","null","<p></p>","null","","","","","","","","","","","","","","","","","","","","","","","",""
"","do_trial","276","764105","0.0-146.0-0.0","869","","","","","","","","50","1,0,0","6","blank","357","null","0.2061827740162225","0.28747519731376214","0.4582798073865301","0","","","","","","","","",""
"","html-keyboard-response","277","765111","0.0-146.0-1.0","null","<p></p>","null","","","","","","","","","","","","","","","","","","","","","","","",""
"","do_trial","278","768519","0.0-147.0-0.0","861.5","","","","","","","","51","0,0,1","6","blank","358","null","0.22755306731055405","0.33428999657296976","0.5461855311271312","1","","","","","","","","",""
"","html-keyboard-response","279","769521","0.0-147.0-1.0","null","<p></p>","null","","","","","","","","","","","","","","","","","","","","","","","",""
"","do_trial","280","772632","0.0-148.0-0.0","569.4000000059605","","","","","","","","51","0,0,0","6","blank","359","null","0.23737133560088805","0.33616324965725936","0.5487205267606184","0","","","","","","","","",""
"","html-keyboard-response","281","773637","0.0-148.0-1.0","null","<p></p>","null","","","","","","","","","","","","","","","","","","","","","","","",""
"","do_recog","282","777042","0.0-149.0-0.0","1897","","","","","","","","53","","","","360","probe-221","","","","","1","[object Object]","83","2","1","","","",""
"","html-keyboard-response","283","778044","0.0-149.0-1.0","null","<p></p>","null","","","","","","","","","","","","","","","","","","","","","","","",""
"","do_trial","284","781697","0.0-150.0-0.0","1107.2000000029802","","","","","","","","49","0,1,1","6","blank","361","null","0.19839887281298282","0.3986677828311629","0.7689148985694988","0","","","","","","","","",""
"","html-keyboard-response","285","782700","0.0-150.0-1.0","null","<p></p>","null","","","","","","","","","","","","","","","","","","","","","","","",""
"","do_trial","286","786060","0.0-151.0-0.0","816.6999999955297","","","","","","","","50","0,0,1","6","blank","362","null","0.16671739696049914","0.4164059196568984","0.8614462204755579","0","","","","","","","","",""
"","html-keyboard-response","287","787063","0.0-151.0-1.0","null","<p></p>","null","","","","","","","","","","","","","","","","","","","","","","","",""
"","do_trial","288","790183","0.0-152.0-0.0","576.2000000029802","","","","","","","","51","0,0,1","6","blank","363","null","0.1443560216569932","0.45165645211605926","0.7840746888811333","1","","","","","","","","",""
"","html-keyboard-response","289","791185","0.0-152.0-1.0","null","<p></p>","null","","","","","","","","","","","","","","","","","","","","","","","",""
"","do_trial","290","794268","0.0-153.0-0.0","544.5","","","","","","","","51","0,0,1","6","blank","364","null","0.07601969003186806","0.49984981263300265","0.8066336428091907","1","","","","","","","","",""
"","html-keyboard-response","291","795272","0.0-153.0-1.0","null","<p></p>","null","","","","","","","","","","","","","","","","","","","","","","","",""
"","do_trial","292","798319","0.0-154.0-0.0","499.30000000447035","","","","","","","","51","0,0,1","6","blank","365","null","0.055401116396036086","0.47056082689571177","0.7214051511152233","1","","","","","","","","",""
"","html-keyboard-response","293","799324","0.0-154.0-1.0","null","<p></p>","null","","","","","","","","","","","","","","","","","","","","","","","",""
"","do_trial","294","802439","0.0-155.0-0.0","547.3999999985099","","","","","","","","51","0,0,0","6","blank","366","null","0.1402192368431511","0.4056773784796375","0.5609002259093775","0","","","","","","","","",""
"","html-keyboard-response","295","803442","0.0-155.0-1.0","null","<p></p>","null","","","","","","","","","","","","","","","","","","","","","","","",""
"","do_recog","296","806843","0.0-156.0-0.0","1891.5","","","","","","","","56","","","","367","probe-245","","","","","0","[object Object]","null","null","1","","","",""
"","html-keyboard-response","297","807849","0.0-156.0-1.0","null","<p></p>","null","","","","","","","","","","","","","","","","","","","","","","","",""
"","do_trial","298","810888","0.0-157.0-0.0","493.79999999701977","","","","","","","","51","0,0,1","6","blank","368","null","0.2109900153001032","0.41417324986592763","0.48606086788132447","1","","","","","","","","",""
"","html-keyboard-response","299","811891","0.0-157.0-1.0","null","<p></p>","null","","","","","","","","","","","","","","","","","","","","","","","",""
"","do_trial","300","815183","0.0-158.0-0.0","744.7000000029802","","","","","","","","51","0,0,0","6","blank","369","null","0.06389822309932326","0.3771492919172388","0.6324428003289524","0","","","","","","","","",""
"","html-keyboard-response","301","816189","0.0-158.0-1.0","null","<p></p>","null","","","","","","","","","","","","","","","","","","","","","","","",""
"","do_trial","302","819186","0.0-159.0-0.0","444.59999999403954","","","","","","","","51","0,0,1","6","blank","370","null","0.12147920135107924","0.3018483854025947","0.625145551112374","1","","","","","","","","",""
"","html-keyboard-response","303","820189","0.0-159.0-1.0","null","<p></p>","null","","","","","","","","","","","","","","","","","","","","","","","",""
"","do_trial","304","823191","0.0-160.0-0.0","453.20000000298023","","","","","","","","51","0,0,1","6","blank","371","null","0.14925658827028762","0.16063238671166497","0.5476038802442074","1","","","","","","","","",""
"","html-keyboard-response","305","824193","0.0-160.0-1.0","null","<p></p>","null","","","","","","","","","","","","","","","","","","","","","","","",""
"","do_trial","306","827304","0.0-161.0-0.0","569","","","","","","","","51","0,0,0","6","blank","372","null","0.1639827218819719","0.141669550298815","0.44754774037970213","0","","","","","","","","",""
"","html-keyboard-response","307","828310","0.0-161.0-1.0","null","<p></p>","null","","","","","","","","","","","","","","","","","","","","","","","",""
"","do_trial","308","831455","0.0-162.0-0.0","600.8000000044703","","","","","","","","51","0,0,1","6","blank","373","null","0.10681747973008246","0.18065953281348832","0.3998193123664332","1","","","","","","","","",""
"","html-keyboard-response","309","832460","0.0-162.0-1.0","null","<p></p>","null","","","","","","","","","","","","","","","","","","","","","","","",""
"","do_trial","310","835448","0.0-163.0-0.0","446.1000000014901","","","","","","","","51","0,0,1","6","blank","374","null","0.09058149903640482","0.1101235044412135","0.4179067148800671","1","","","","","","","","",""
"","html-keyboard-response","311","836454","0.0-163.0-1.0","null","<p></p>","null","","","","","","","","","","","","","","","","","","","","","","","",""
"","do_recog","312","839854","0.0-164.0-0.0","1893.6000000014901","","","","","","","","56","","","","375","probe-44","","","","","1","[object Object]","205","5","0","","","",""
"","html-keyboard-response","313","840858","0.0-164.0-1.0","null","<p></p>","null","","","","","","","","","","","","","","","","","","","","","","","",""
"","do_trial","314","844022","0.0-165.0-0.0","619.6999999955297","","","","","","","","51","0,1,1","6","blank","376","null","0.1669306154414416","0.26732919037334596","0.5035239590193761","1","","","","","","","","",""
"","html-keyboard-response","315","845028","0.0-165.0-1.0","null","<p></p>","null","","","","","","","","","","","","","","","","","","","","","","","",""
"","do_trial","316","848066","0.0-166.0-0.0","486","","","","","","","","51","1,0,1","6","blank","377","null","0.19262355944306958","0.27649292463615943","0.6171622569896192","1","","","","","","","","",""
"","html-keyboard-response","317","849068","0.0-166.0-1.0","null","<p></p>","null","","","","","","","","","","","","","","","","","","","","","","","",""
"","do_recog","318","852396","0.0-167.0-0.0","1821.2999999970198","","","","","","","","53","","","","378","probe-91","","","","","1","[object Object]","41","1","1","","","",""
"","html-keyboard-response","319","853399","0.0-167.0-1.0","null","<p></p>","null","","","","","","","","","","","","","","","","","","","","","","","",""
"","do_trial","320","856370","0.0-168.0-0.0","430.20000000298023","","","","","","","","51","1,0,0","6","blank","379","null","0.13497490789865244","0.20980603811446763","0.5786010703444482","0","","","","","","","","",""
"","html-keyboard-response","321","857374","0.0-168.0-1.0","null","<p></p>","null","","","","","","","","","","","","","","","","","","","","","","","",""
"","do_recog","322","860532","0.0-169.0-0.0","1651.3999999985099","","","","","","","","56","","","","380","probe-132","","","","","1","[object Object]","167","4","0","","","",""
"","html-keyboard-response","323","861535","0.0-169.0-1.0","null","<p></p>","null","","","","","","","","","","","","","","","","","","","","","","","",""
"","do_trial","324","864668","0.0-170.0-0.0","590.1000000014901","","","","","","","","50","0,0,1","6","blank","381","null","0.19241042238759698","0.20023569046252726","0.4994464704438213","0","","","","","","","","",""
"","html-keyboard-response","325","865671","0.0-170.0-1.0","null","<p></p>","null","","","","","","","","","","","","","","","","","","","","","","","",""
"","do_trial","326","868711","0.0-171.0-0.0","493.09999999403954","","","","","","","","49","0,0,1","6","blank","382","null","0.11537200762399362","0.2277859284276244","0.5369576919994824","0","","","","","","","","",""
"","html-keyboard-response","327","869715","0.0-171.0-1.0","null","<p></p>","null","","","","","","","","","","","","","","","","","","","","","","","",""
"","do_trial","328","872772","0.0-172.0-0.0","510.1000000014901","","","","","","","","51","0,0,1","6","blank","383","null","0.22036819066125837","0.1680161008934313","0.6865277350886657","1","","","","","","","","",""
"","html-keyboard-response","329","873778","0.0-172.0-1.0","null","<p></p>","null","","","","","","","","","","","","","","","","","","","","","","","",""
"","do_trial","330","876764","0.0-173.0-0.0","441","","","","","","","","51","0,1,0","6","blank","384","null","0.07165464797235198","0.2917147094018943","0.7038493645759742","0","","","","","","","","",""
"","html-keyboard-response","331","877767","0.0-173.0-1.0","null","<p></p>","null","","","","","","","","","","","","","","","","","","","","","","","",""
"","do_trial","332","880892","0.0-174.0-0.0","582.6000000014901","","","","","","","","51","1,0,1","6","blank","385","null","0.20013889999792128","0.2164383416445658","0.8045083113498075","1","","","","","","","","",""
"","html-keyboard-response","333","881895","0.0-174.0-1.0","null","<p></p>","null","","","","","","","","","","","","","","","","","","","","","","","",""
"","do_trial","334","884956","0.0-175.0-0.0","518.5","","","","","","","","51","0,1,1","6","blank","386","null","0.13507508155383513","0.3130631439517855","0.674781927766955","1","","","","","","","","",""
"","html-keyboard-response","335","885959","0.0-175.0-1.0","null","<p></p>","null","","","","","","","","","","","","","","","","","","","","","","","",""
"","do_trial","336","889214","0.0-176.0-0.0","701.5","","","","","","","","51","0,0,1","6","blank","387","null","0.062359748196252875","0.4035218867897809","0.679731129939388","1","","","","","","","","",""
"","html-keyboard-response","337","890218","0.0-176.0-1.0","null","<p></p>","null","","","","","","","","","","","","","","","","","","","","","","","",""
"","do_recog","338","894242","0.0-177.0-0.0","2519.10000000149","","","","","","","","53","","","","388","probe-60","","","","","1","[object Object]","162","4","1","","","",""
"","html-keyboard-response","339","895247","0.0-177.0-1.0","null","<p></p>","null","","","","","","","","","","","","","","","","","","","","","","","",""
"","break","340","896679","0.0-178.0-0.0","1431.3999999985099","<div class='center'><p>Time to take a quick break! You have 2 minutes to rest, but you can move on sooner if you'd like.</p><p> Press the <b>space bar</b> to continue.</p></div>","32","","","","","","","","","","","","","","","","","","","","","","","",""
"","do_trial","341","899889","0.0-178.0-1.0","670.6999999955297","","","","","","","","51","0,1,1","6","blank","389","null","0.0922864064548704","0.2909013825307421","0.7282972551238566","1","","","","","","","","",""
"","html-keyboard-response","342","900894","0.0-178.0-2.0","null","<p></p>","null","","","","","","","","","","","","","","","","","","","","","","","",""
"","do_trial","343","904109","0.0-179.0-0.0","665.7999999970198","","","","","","","","51","0,0,1","6","blank","390","null","0.21713572671117645","0.2634660113108759","0.657867206900762","1","","","","","","","","",""
"","html-keyboard-response","344","905114","0.0-179.0-1.0","null","<p></p>","null","","","","","","","","","","","","","","","","","","","","","","","",""
"","do_recog","345","908412","0.0-180.0-0.0","1792.8999999985099","","","","","","","","53","","","","391","probe-96","","","","","1","[object Object]","125","3","1","","","",""
"","html-keyboard-response","346","909415","0.0-180.0-1.0","null","<p></p>","null","","","","","","","","","","","","","","","","","","","","","","","",""
"","do_trial","347","912588","0.0-181.0-0.0","632.2000000029802","","","","","","","","51","0,1,1","6","blank","392","null","0.1426105167101515","0.24818832317768166","0.6655362618909445","1","","","","","","","","",""
"","html-keyboard-response","348","913591","0.0-181.0-1.0","null","<p></p>","null","","","","","","","","","","","","","","","","","","","","","","","",""
"","do_trial","349","916652","0.0-182.0-0.0","511.3999999985099","","","","","","","","51","0,1,1","6","blank","393","null","0.09603871392956492","0.27514932118975","0.6238959361699566","1","","","","","","","","",""
"","html-keyboard-response","350","917655","0.0-182.0-1.0","null","<p></p>","null","","","","","","","","","","","","","","","","","","","","","","","",""
"","do_trial","351","920972","0.0-183.0-0.0","769.5","","","","","","","","51","0,1,1","6","blank","394","null","0.07979736461986066","0.353081949100028","0.6407814167437158","1","","","","","","","","",""
"","html-keyboard-response","352","921977","0.0-183.0-1.0","null","<p></p>","null","","","","","","","","","","","","","","","","","","","","","","","",""
"","do_trial","353","925123","0.0-184.0-0.0","598.8999999985099","","","","","","","","51","0,0,1","6","blank","395","null","0.05533976223755072","0.3966725613698963","0.6907112244471353","1","","","","","","","","",""
"","html-keyboard-response","354","926128","0.0-184.0-1.0","null","<p></p>","null","","","","","","","","","","","","","","","","","","","","","","","",""
"","do_recog","355","929460","0.0-185.0-0.0","1825.3999999985099","","","","","","","","56","","","","396","probe-242","","","","","0","[object Object]","null","null","1","","","",""
"","html-keyboard-response","356","930466","0.0-185.0-1.0","null","<p></p>","null","","","","","","","","","","","","","","","","","","","","","","","",""
"","do_trial","357","933810","0.0-186.0-0.0","799.6999999955297","","","","","","","","51","0,1,1","6","blank","397","null","0.12626229356924262","0.32584157049583434","0.6998578242290796","1","","","","","","","","",""
"","html-keyboard-response","358","934812","0.0-186.0-1.0","null","<p></p>","null","","","","","","","","","","","","","","","","","","","","","","","",""
"","do_recog","359","938140","0.0-187.0-0.0","1819.3999999985099","","","","","","","","56","","","","398","probe-135","","","","","1","[object Object]","81","2","0","","","",""
"","html-keyboard-response","360","939143","0.0-187.0-1.0","null","<p></p>","null","","","","","","","","","","","","","","","","","","","","","","","",""
"","do_trial","361","942274","0.0-188.0-0.0","590.8999999985099","","","","","","","","51","0,0,0","6","blank","399","null","0.09689900006284966","0.27690583317386624","0.6106179436963446","0","","","","","","","","",""
"","html-keyboard-response","362","943280","0.0-188.0-1.0","null","<p></p>","null","","","","","","","","","","","","","","","","","","","","","","","",""
"","do_recog","363","946594","0.0-189.0-0.0","1804.8999999985099","","","","","","","","56","","","","400","probe-112","","","","","1","[object Object]","200","5","0","","","",""
"","html-keyboard-response","364","947599","0.0-189.0-1.0","null","<p></p>","null","","","","","","","","","","","","","","","","","","","","","","","",""
"","do_trial","365","950777","0.0-190.0-0.0","632.2000000029802","","","","","","","","51","0,0,1","6","blank","401","null","0.2200565736463542","0.32628020603188396","0.6560268930718608","1","","","","","","","","",""
"","html-keyboard-response","366","951780","0.0-190.0-1.0","null","<p></p>","null","","","","","","","","","","","","","","","","","","","","","","","",""
"","do_trial","367","955160","0.0-191.0-0.0","839.2000000029802","","","","","","","","51","1,0,1","6","blank","402","null","0.1051165961505911","0.30169566021830724","0.7179475669978433","1","","","","","","","","",""
"","html-keyboard-response","368","956164","0.0-191.0-1.0","null","<p></p>","null","","","","","","","","","","","","","","","","","","","","","","","",""
"","do_recog","369","959472","0.0-192.0-0.0","1800.2999999970198","","","","","","","","53","","","","403","probe-69","","","","","1","[object Object]","82","2","1","","","",""
"","html-keyboard-response","370","960477","0.0-192.0-1.0","null","<p></p>","null","","","","","","","","","","","","","","","","","","","","","","","",""
"","do_trial","371","963591","0.0-193.0-0.0","571","","","","","","","","51","0,0,1","6","blank","404","null","0.08744667012865633","0.29797628643136337","0.6940701167373265","1","","","","","","","","",""
"","html-keyboard-response","372","964597","0.0-193.0-1.0","null","<p></p>","null","","","","","","","","","","","","","","","","","","","","","","","",""
"","do_trial","373","967821","0.0-194.0-0.0","682.5","","","","","","","","51","0,0,0","6","blank","405","null","0.1355430226612241","0.19982787651711725","0.4736766394542412","0","","","","","","","","",""
"","html-keyboard-response","374","968823","0.0-194.0-1.0","null","<p></p>","null","","","","","","","","","","","","","","","","","","","","","","","",""
"","do_recog","375","971970","0.0-195.0-0.0","1641","","","","","","","","53","","","","406","probe-160","","","","","1","[object Object]","42","1","1","","","",""
"","html-keyboard-response","376","972974","0.0-195.0-1.0","null","<p></p>","null","","","","","","","","","","","","","","","","","","","","","","","",""
"","do_trial","377","976109","0.0-196.0-0.0","591.5","","","","","","","","51","1,0,0","6","blank","407","null","0.24176501040418963","0.1744118608960741","0.45670309436672435","0","","","","","","","","",""
"","html-keyboard-response","378","977113","0.0-196.0-1.0","null","<p></p>","null","","","","","","","","","","","","","","","","","","","","","","","",""
"","do_trial","379","983162","0.0-197.0-0.0","null","","","","","","","","null","1,0,1","6","blank","408","null","0.44799633517561605","0.10564621021697228","0.4063888051163027","","","","","","","","","",""
"","html-keyboard-response","380","984167","0.0-197.0-1.0","null","<p></p>","null","","","","","","","","","","","","","","","","","","","","","","","",""
"","do_trial","381","987832","0.0-198.0-0.0","1118.1000000014901","","","","","","","","49","1,0,1","6","blank","409","null","0.43619293912331103","0.07782309961118092","0.39633794167352726","1","","","","","","","","",""
"","html-keyboard-response","382","988834","0.0-198.0-1.0","null","<p></p>","null","","","","","","","","","","","","","","","","","","","","","","","",""
"","do_trial","383","991948","0.0-199.0-0.0","572.7999999970198","","","","","","","","49","0,0,0","6","blank","410","null","0.5859540708630466","0.15572589898749428","0.47056636395065843","0","","","","","","","","",""
"","html-keyboard-response","384","992951","0.0-199.0-1.0","null","<p></p>","null","","","","","","","","","","","","","","","","","","","","","","","",""
"","do_trial","385","996082","0.0-200.0-0.0","586","","","","","","","","50","1,0,0","6","blank","411","null","0.6520399704699311","0.10002171323674335","0.3858208528855154","0","","","","","","","","",""
"","html-keyboard-response","386","997084","0.0-200.0-1.0","null","<p></p>","null","","","","","","","","","","","","","","","","","","","","","","","",""
"","do_trial","387","1000135","0.0-201.0-0.0","508.20000000298023","","","","","","","","51","1,1,0","6","blank","412","null","0.7000727679822947","0.1410349847414647","0.29426896702456257","0","","","","","","","","",""
"","html-keyboard-response","388","1001140","0.0-201.0-1.0","null","<p></p>","null","","","","","","","","","","","","","","","","","","","","","","","",""
"","do_trial","389","1004311","0.0-202.0-0.0","627.7000000029802","","","","","","","","49","1,0,0","6","blank","413","null","0.6646204995520755","0.1761114077688336","0.25579038790542413","1","","","","","","","","",""
"","html-keyboard-response","390","1005314","0.0-202.0-1.0","null","<p></p>","null","","","","","","","","","","","","","","","","","","","","","","","",""
"","do_recog","391","1008765","0.0-203.0-0.0","1942.1000000014901","","","","","","","","56","","","","414","probe-123","","","","","1","[object Object]","84","2","0","","","",""
"","html-keyboard-response","392","1009767","0.0-203.0-1.0","null","<p></p>","null","","","","","","","","","","","","","","","","","","","","","","","",""
"","do_trial","393","1013029","0.0-204.0-0.0","713.6000000014901","","","","","","","","49","1,0,0","6","blank","415","null","0.6772268617189362","0.1480275067282971","0.3019622858179148","1","","","","","","","","",""
"","html-keyboard-response","394","1014035","0.0-204.0-1.0","null","<p></p>","null","","","","","","","","","","","","","","","","","","","","","","","",""
"","do_trial","395","1017293","0.0-205.0-0.0","711.8999999985099","","","","","","","","49","0,0,1","6","blank","416","null","0.5278159160524224","0.11313373181551294","0.37141926520733626","0","","","","","","","","",""
"","html-keyboard-response","396","1018295","0.0-205.0-1.0","null","<p></p>","null","","","","","","","","","","","","","","","","","","","","","","","",""
"","do_trial","397","1021235","0.0-206.0-0.0","397.20000000298023","","","","","","","","51","0,0,0","6","blank","417","null","0.5050111297376103","0.06316527753285504","0.2562463258484893","0","","","","","","","","",""
"","html-keyboard-response","398","1022240","0.0-206.0-1.0","null","<p></p>","null","","","","","","","","","","","","","","","","","","","","","","","",""
"","do_trial","399","1025247","0.0-207.0-0.0","458.19999999552965","","","","","","","","51","0,0,0","6","blank","418","null","0.44535940068423485","0.05505205376385518","0.27952227347828296","0","","","","","","","","",""
"","html-keyboard-response","400","1026252","0.0-207.0-1.0","null","<p></p>","null","","","","","","","","","","","","","","","","","","","","","","","",""
"","do_trial","401","1029364","0.0-208.0-0.0","567","","","","","","","","51","0,0,0","6","blank","419","null","0.49996154265615955","0.15922632789166877","0.4405093216400847","0","","","","","","","","",""
"","html-keyboard-response","402","1030370","0.0-208.0-1.0","null","<p></p>","null","","","","","","","","","","","","","","","","","","","","","","","",""
"","do_trial","403","1033475","0.0-209.0-0.0","560.1000000014901","","","","","","","","50","1,0,1","6","blank","420","null","0.5990411498853757","0.05041762111141299","0.3227839381744148","0","","","","","","","","",""
"","html-keyboard-response","404","1034478","0.0-209.0-1.0","null","<p></p>","null","","","","","","","","","","","","","","","","","","","","","","","",""
"","do_recog","405","1037827","0.0-210.0-0.0","1842.5","","","","","","","","53","","","","421","probe-201","","","","","1","[object Object]","80","2","1","","","",""
"","html-keyboard-response","406","1038832","0.0-210.0-1.0","null","<p></p>","null","","","","","","","","","","","","","","","","","","","","","","","",""
"","do_trial","407","1041881","0.0-211.0-0.0","511.1000000014901","","","","","","","","51","1,0,1","6","blank","422","null","0.617628004013505","0.06849219784776586","0.37136497364571575","1","","","","","","","","",""
"","html-keyboard-response","408","1042887","0.0-211.0-1.0","null","<p></p>","null","","","","","","","","","","","","","","","","","","","","","","","",""
"","do_trial","409","1045906","0.0-212.0-0.0","473.8999999985099","","","","","","","","51","0,0,0","6","blank","423","null","0.534533464436059","0.12815626622557405","0.2956888526262606","0","","","","","","","","",""
"","html-keyboard-response","410","1046908","0.0-212.0-1.0","null","<p></p>","null","","","","","","","","","","","","","","","","","","","","","","","",""
"","do_trial","411","1049917","0.0-213.0-0.0","462.90000000596046","","","","","","","","51","0,0,0","6","blank","424","null","0.5168774467789282","0.05624109643955879","0.4211299627989059","0","","","","","","","","",""
"","html-keyboard-response","412","1050919","0.0-213.0-1.0","null","<p></p>","null","","","","","","","","","","","","","","","","","","","","","","","",""
"","do_trial","413","1054146","0.0-214.0-0.0","681.1000000014901","","","","","","","","49","1,0,1","6","blank","425","null","0.5125221365450716","0.1647832664402496","0.3984736283843821","1","","","","","","","","",""
"","html-keyboard-response","414","1055150","0.0-214.0-1.0","null","<p></p>","null","","","","","","","","","","","","","","","","","","","","","","","",""
"","do_recog","415","1058424","0.0-215.0-0.0","1768.8000000044703","","","","","","","","53","","","","426","probe-199","","","","","1","[object Object]","203","5","1","","","",""
"","html-keyboard-response","416","1059430","0.0-215.0-1.0","null","<p></p>","null","","","","","","","","","","","","","","","","","","","","","","","",""
"","do_trial","417","1063042","0.0-216.0-0.0","1061","","","","","","","","51","1,0,0","6","blank","427","null","0.38393055067349346","0.06339497136545122","0.3895309243622473","0","","","","","","","","",""
"","html-keyboard-response","418","1064044","0.0-216.0-1.0","null","<p></p>","null","","","","","","","","","","","","","","","","","","","","","","","",""
"","do_trial","419","1067259","0.0-217.0-0.0","671","","","","","","","","50","0,0,0","6","blank","428","null","0.4497300564801047","0.10481983848970203","0.426059990013016","0","","","","","","","","",""
"","html-keyboard-response","420","1068263","0.0-217.0-1.0","null","<p></p>","null","","","","","","","","","","","","","","","","","","","","","","","",""
"","break","421","1069581","0.0-218.0-0.0","1316.7000000029802","<div class='center'><p>Time to take a quick break! You have 2 minutes to rest, but you can move on sooner if you'd like.</p><p> Press the <b>space bar</b> to continue.</p></div>","32","","","","","","","","","","","","","","","","","","","","","","","",""
"","do_trial","422","1073026","0.0-218.0-1.0","905","","","","","","","","49","1,0,0","6","blank","429","null","0.5026117175726112","0.13532043805744132","0.4496000147435784","1","","","","","","","","",""
"","html-keyboard-response","423","1074029","0.0-218.0-2.0","null","<p></p>","null","","","","","","","","","","","","","","","","","","","","","","","",""
"","do_trial","424","1077613","0.0-219.0-0.0","1041.6000000014901","","","","","","","","49","0,1,0","6","blank","430","null","0.5513075204524901","0.13121508365420045","0.3407913926005463","0","","","","","","","","",""
"","html-keyboard-response","425","1078615","0.0-219.0-1.0","null","<p></p>","null","","","","","","","","","","","","","","","","","","","","","","","",""
"","do_trial","426","1081842","0.0-220.0-0.0","686.2999999970198","","","","","","","","51","0,0,0","6","blank","431","null","0.5795669588464682","0.13937254718330092","0.3370624317553961","0","","","","","","","","",""
"","html-keyboard-response","427","1082845","0.0-220.0-1.0","null","<p></p>","null","","","","","","","","","","","","","","","","","","","","","","","",""
"","do_trial","428","1086477","0.0-221.0-0.0","1085.5999999940395","","","","","","","","50","1,1,0","6","blank","432","null","0.5811961184948103","0.1653039728401853","0.3884782937368143","1","","","","","","","","",""
"","html-keyboard-response","429","1087480","0.0-221.0-1.0","null","<p></p>","null","","","","","","","","","","","","","","","","","","","","","","","",""
"","do_trial","430","1090932","0.0-222.0-0.0","905.5","","","","","","","","50","0,1,0","6","blank","433","null","0.4649741451531182","0.17537233150800688","0.4223230058006204","1","","","","","","","","",""
"","html-keyboard-response","431","1091936","0.0-222.0-1.0","null","<p></p>","null","","","","","","","","","","","","","","","","","","","","","","","",""
"","do_recog","432","1095133","0.0-223.0-0.0","1687.6000000014901","","","","","","","","53","","","","434","probe-129","","","","","1","[object Object]","161","4","1","","","",""
"","html-keyboard-response","433","1096135","0.0-223.0-1.0","null","<p></p>","null","","","","","","","","","","","","","","","","","","","","","","","",""
"","do_trial","434","1099564","0.0-224.0-0.0","885","","","","","","","","50","0,0,0","6","blank","435","null","0.4287753291906985","0.17115330963152903","0.4053754371564085","0","","","","","","","","",""
"","html-keyboard-response","435","1100567","0.0-224.0-1.0","null","<p></p>","null","","","","","","","","","","","","","","","","","","","","","","","",""
"","do_recog","436","1103541","0.0-225.0-0.0","1463.5","","","","","","","","53","","","","436","probe-90","","","","","1","[object Object]","166","4","1","","","",""
"","html-keyboard-response","437","1104546","0.0-225.0-1.0","null","<p></p>","null","","","","","","","","","","","","","","","","","","","","","","","",""
"","do_trial","438","1107650","0.0-226.0-0.0","560.9000000059605","","","","","","","","51","0,0,0","6","blank","437","null","0.5426306399171681","0.14140029550182592","0.3666317091380288","0","","","","","","","","",""
"","html-keyboard-response","439","1108655","0.0-226.0-1.0","null","<p></p>","null","","","","","","","","","","","","","","","","","","","","","","","",""
"","do_trial","440","1111801","0.0-227.0-0.0","600.2999999970198","","","","","","","","49","1,0,0","6","blank","438","null","0.6215190283743504","0.15481377804312607","0.23861632230257576","1","","","","","","","","",""
"","html-keyboard-response","441","1112805","0.0-227.0-1.0","null","<p></p>","null","","","","","","","","","","","","","","","","","","","","","","","",""
"","do_trial","442","1115906","0.0-228.0-0.0","556.3999999985099","","","","","","","","49","0,0,1","6","blank","439","null","0.5379971436570329","0.07003577820301757","0.29162270729576817","0","","","","","","","","",""
"","html-keyboard-response","443","1116909","0.0-228.0-1.0","null","<p></p>","null","","","","","","","","","","","","","","","","","","","","","","","",""
"","do_trial","444","1120107","0.0-229.0-0.0","649.1000000014901","","","","","","","","50","0,0,0","6","blank","440","null","0.5509177664178067","0.11118541431977538","0.20364015036419067","0","","","","","","","","",""
"","html-keyboard-response","445","1121112","0.0-229.0-1.0","null","<p></p>","null","","","","","","","","","","","","","","","","","","","","","","","",""
"","do_recog","446","1124590","0.0-230.0-0.0","1968.7999999970198","","","","","","","","56","","","","441","probe-144","","","","","1","[object Object]","87","2","0","","","",""
"","html-keyboard-response","447","1125593","0.0-230.0-1.0","null","<p></p>","null","","","","","","","","","","","","","","","","","","","","","","","",""
"","do_trial","448","1128709","0.0-231.0-0.0","557","","","","","","","","51","1,0,0","6","blank","442","null","0.6683594791631434","0.14748734642956327","0.13557276964217543","0","","","","","","","","",""
"","html-keyboard-response","449","1129715","0.0-231.0-1.0","null","<p></p>","null","","","","","","","","","","","","","","","","","","","","","","","",""
"","do_recog","450","1132762","0.0-232.0-0.0","1541.2000000029802","","","","","","","","53","","","","443","probe-21","","","","","1","[object Object]","209","5","1","","","",""
"","html-keyboard-response","451","1133767","0.0-232.0-1.0","null","<p></p>","null","","","","","","","","","","","","","","","","","","","","","","","",""
"","do_trial","452","1137221","0.0-233.0-0.0","908.8000000044703","","","","","","","","50","0,0,0","6","blank","444","null","0.6951077813350486","0.12705622721154203","0.2392573757872053","0","","","","","","","","",""
"","html-keyboard-response","453","1138226","0.0-233.0-1.0","null","<p></p>","null","","","","","","","","","","","","","","","","","","","","","","","",""
"","do_trial","454","1141407","0.0-234.0-0.0","617.4000000059605","","","","","","","","51","1,0,1","6","blank","445","null","0.6946852977418151","0.052542615885001996","0.30557416759301015","1","","","","","","","","",""
"","html-keyboard-response","455","1142411","0.0-234.0-1.0","null","<p></p>","null","","","","","","","","","","","","","","","","","","","","","","","",""
"","do_trial","456","1145586","0.0-235.0-0.0","636","","","","","","","","51","0,0,1","6","blank","446","null","0.754885691369318","0.1332700685928454","0.3555038104179712","1","","","","","","","","",""
"","html-keyboard-response","457","1146590","0.0-235.0-1.0","null","<p></p>","null","","","","","","","","","","","","","","","","","","","","","","","",""
"","do_recog","458","1149663","0.0-236.0-0.0","1563.7999999970198","","","","","","","","53","","","","447","probe-162","","","","","1","[object Object]","44","1","1","","","",""
"","html-keyboard-response","459","1150669","0.0-236.0-1.0","null","<p></p>","null","","","","","","","","","","","","","","","","","","","","","","","",""
"","do_trial","460","1153778","0.0-237.0-0.0","566.8000000044703","","","","","","","","51","1,1,0","6","blank","448","null","0.7499249468326665","0.19366212039265235","0.3022651095904334","0","","","","","","","","",""
"","html-keyboard-response","461","1154781","0.0-237.0-1.0","null","<p></p>","null","","","","","","","","","","","","","","","","","","","","","","","",""
"","do_trial","462","1157844","0.0-238.0-0.0","510.6000000014901","","","","","","","","50","1,0,0","6","blank","449","null","0.6437449331680192","0.2747537122028799","0.20853599000101866","0","","","","","","","","",""
"","html-keyboard-response","463","1158847","0.0-238.0-1.0","null","<p></p>","null","","","","","","","","","","","","","","","","","","","","","","","",""
"","do_recog","464","1164855","0.0-239.0-0.0","null","","","","","","","","null","","","","450","probe-133","","","","","1","[object Object]","85","2","0","","","",""
"","html-keyboard-response","465","1165859","0.0-239.0-1.0","null","<p></p>","null","","","","","","","","","","","","","","","","","","","","","","","",""
"","do_trial","466","1169746","0.0-240.0-0.0","1347.2999999970198","","","","","","","","50","0,0,0","6","blank","451","null","0.8125291292889364","0.1737632965370552","0.23955432224800763","0","","","","","","","","",""
"","html-keyboard-response","467","1170751","0.0-240.0-1.0","null","<p></p>","null","","","","","","","","","","","","","","","","","","","","","","","",""
"","do_trial","468","1173914","0.0-241.0-0.0","620","","","","","","","","49","1,0,0","6","blank","452","null","0.9251122779365909","0.1367120081000437","0.14835925325192947","1","","","","","","","","",""
"","html-keyboard-response","469","1174919","0.0-241.0-1.0","null","<p></p>","null","","","","","","","","","","","","","","","","","","","","","","","",""
"","do_recog","470","1178333","0.0-242.0-0.0","1904.7000000029802","","","","","","","","56","","","","453","probe-243","","","","","0","[object Object]","null","null","1","","","",""
"","html-keyboard-response","471","1179336","0.0-242.0-1.0","null","<p></p>","null","","","","","","","","","","","","","","","","","","","","","","","",""
"","do_trial","472","1182466","0.0-243.0-0.0","590.7000000029802","","","","","","","","50","1,0,0","6","blank","454","null","0.7909159293373176","0.059803967697616915","0.2806955130328134","0","","","","","","","","",""
"","html-keyboard-response","473","1183469","0.0-243.0-1.0","null","<p></p>","null","","","","","","","","","","","","","","","","","","","","","","","",""
"","do_trial","474","1186706","0.0-244.0-0.0","693.6000000014901","","","","","","","","51","1,0,0","6","blank","455","null","0.8315141267402082","0.08705569859030518","0.17921792232120873","0","","","","","","","","",""
"","html-keyboard-response","475","1187709","0.0-244.0-1.0","null","<p></p>","null","","","","","","","","","","","","","","","","","","","","","","","",""
"","do_trial","476","1190743","0.0-245.0-0.0","494.19999999552965","","","","","","","","50","1,0,0","6","blank","456","null","0.9269290012255021","0.2001669992000226","0.1820476367568406","0","","","","","","","","",""
"","html-keyboard-response","477","1191747","0.0-245.0-1.0","null","<p></p>","null","","","","","","","","","","","","","","","","","","","","","","","",""
"","do_trial","478","1195043","0.0-246.0-0.0","747.5","","","","","","","","49","0,0,0","6","blank","457","null","0.5923368075185217","0.24290494776750407","0.257495249308109","0","","","","","","","","",""
"","html-keyboard-response","479","1196049","0.0-246.0-1.0","null","<p></p>","null","","","","","","","","","","","","","","","","","","","","","","","",""
"","do_trial","480","1199340","0.0-247.0-0.0","753.6000000014901","","","","","","","","51","0,0,1","6","blank","458","null","0.37234857678834443","0.16686878811573536","0.36664416313349174","1","","","","","","","","",""
"","html-keyboard-response","481","1200344","0.0-247.0-1.0","null","<p></p>","null","","","","","","","","","","","","","","","","","","","","","","","",""
"","do_recog","482","1204135","0.0-248.0-0.0","2284.7000000029802","","","","","","","","56","","","","459","probe-231","","","","","0","[object Object]","null","null","1","","","",""
"","html-keyboard-response","483","1205139","0.0-248.0-1.0","null","<p></p>","null","","","","","","","","","","","","","","","","","","","","","","","",""
"","do_trial","484","1208234","0.0-249.0-0.0","549.2999999970198","","","","","","","","51","0,1,0","6","blank","460","null","0.1304115191274729","0.17685510344808536","0.466568004526116","0","","","","","","","","",""
"","html-keyboard-response","485","1209240","0.0-249.0-1.0","null","<p></p>","null","","","","","","","","","","","","","","","","","","","","","","","",""
"","do_trial","486","1212295","0.0-250.0-0.0","509.69999999552965","","","","","","","","49","0,1,0","6","blank","461","null","0.11168740456521332","0.28508071788584993","0.35812524319276295","0","","","","","","","","",""
"","html-keyboard-response","487","1213300","0.0-250.0-1.0","null","<p></p>","null","","","","","","","","","","","","","","","","","","","","","","","",""
"","do_trial","488","1216600","0.0-251.0-0.0","754.6000000014901","","","","","","","","50","0,0,0","6","blank","462","null","0.15533639872285204","0.2321267755052903","0.38807818361427326","0","","","","","","","","",""
"","html-keyboard-response","489","1217602","0.0-251.0-1.0","null","<p></p>","null","","","","","","","","","","","","","","","","","","","","","","","",""
"","do_recog","490","1220871","0.0-252.0-0.0","1762","","","","","","","","56","","","","463","probe-233","","","","","0","[object Object]","null","null","1","","","",""
"","html-keyboard-response","491","1221875","0.0-252.0-1.0","null","<p></p>","null","","","","","","","","","","","","","","","","","","","","","","","",""
"","do_trial","492","1225010","0.0-253.0-0.0","590.8999999985099","","","","","","","","51","0,0,0","6","blank","464","null","0.2574165044548639","0.3229944305613837","0.4270638623012687","0","","","","","","","","",""
"","html-keyboard-response","493","1226014","0.0-253.0-1.0","null","<p></p>","null","","","","","","","","","","","","","","","","","","","","","","","",""
"","do_recog","494","1229074","0.0-254.0-0.0","1551.7999999970198","","","","","","","","56","","","","465","probe-235","","","","","0","[object Object]","null","null","1","","","",""
"","html-keyboard-response","495","1230078","0.0-254.0-1.0","null","<p></p>","null","","","","","","","","","","","","","","","","","","","","","","","",""
"","do_trial","496","1233323","0.0-255.0-0.0","699.2000000029802","","","","","","","","50","0,0,0","6","blank","466","null","0.2526627492763445","0.3064251999048159","0.441496920482142","0","","","","","","","","",""
"","html-keyboard-response","497","1234327","0.0-255.0-1.0","null","<p></p>","null","","","","","","","","","","","","","","","","","","","","","","","",""
"","do_trial","498","1237400","0.0-256.0-0.0","530.7999999970198","","","","","","","","49","0,1,1","6","blank","467","null","0.08915719168389356","0.4943161933856257","0.4731531817471666","0","","","","","","","","",""
"","html-keyboard-response","499","1238402","0.0-256.0-1.0","null","<p></p>","null","","","","","","","","","","","","","","","","","","","","","","","",""
"","do_trial","500","1242083","0.0-257.0-0.0","1135.6000000014901","","","","","","","","51","0,0,1","6","blank","468","null","0.12074729447433273","0.3383132584874416","0.5144957181084563","1","","","","","","","","",""
"","html-keyboard-response","501","1243087","0.0-257.0-1.0","null","<p></p>","null","","","","","","","","","","","","","","","","","","","","","","","",""
"","break","502","1244371","0.0-258.0-0.0","1283.1999999955297","<div class='center'><p>Time to take a quick break! You have 2 minutes to rest, but you can move on sooner if you'd like.</p><p> Press the <b>space bar</b> to continue.</p></div>","32","","","","","","","","","","","","","","","","","","","","","","","",""
"","do_trial","503","1247970","0.0-258.0-1.0","1057.1000000014901","","","","","","","","51","0,0,1","6","blank","469","null","0.06302211085550324","0.27037243238240843","0.48139926617379614","1","","","","","","","","",""
"","html-keyboard-response","504","1248973","0.0-258.0-2.0","null","<p></p>","null","","","","","","","","","","","","","","","","","","","","","","","",""
"","do_trial","505","1252166","0.0-259.0-0.0","650.2000000029802","","","","","","","","51","1,0,1","6","blank","470","null","0.20986129404198067","0.2739760529617821","0.5107873783603508","1","","","","","","","","",""
"","html-keyboard-response","506","1253170","0.0-259.0-1.0","null","<p></p>","null","","","","","","","","","","","","","","","","","","","","","","","",""
"","do_recog","507","1256758","0.0-260.0-0.0","2078.60000000149","","","","","","","","53","","","","471","probe-237","","","","","0","[object Object]","null","null","0","","","",""
"","html-keyboard-response","508","1257762","0.0-260.0-1.0","null","<p></p>","null","","","","","","","","","","","","","","","","","","","","","","","",""
"","do_trial","509","1262638","0.0-261.0-0.0","2323.60000000149","","","","","","","","51","0,0,0","6","blank","472","null","0.10160717101575793","0.17616772069240078","0.5873300129177038","0","","","","","","","","",""
"","html-keyboard-response","510","1263643","0.0-261.0-1.0","null","<p></p>","null","","","","","","","","","","","","","","","","","","","","","","","",""
