"success","trial_type","trial_index","time_elapsed","internal_node_id","interactions","blur_events","focus_events","fullscreenenter_events","fullscreenexit_events","rt","stimulus","key_press","subject_id","participant_id","age","gender","prompt","response","choice_outcomes","context_n","context_img_id","trial_n","probe_img_id","pR_red","pR_white","pR_black","outcome","is_valid","image_to_show","probed_trial","probed_context","correct","probe","probed_trial_n","probed_context_n","context_im"
"true","fullscreen","0","6670","0.0-0.0","""event"",""trial"",""time""
""fullscreenenter"",""0"",""5694""
","
","
","""event"",""trial"",""time""
""fullscreenenter"",""0"",""5694""
","
","","","","","","","","","","","","","","","","","","","","","","","","","","",""
"","pavlovia","1","6680","0.0-1.0","""event"",""trial"",""time""
""fullscreenenter"",""0"",""5694""
","
","
","""event"",""trial"",""time""
""fullscreenenter"",""0"",""5694""
","
","","","","","","","","","","","","","","","","","","","","","","","","","","",""
"","welc_back","2","16559","0.0-2.0","""event"",""trial"",""time""
""fullscreenenter"",""0"",""5694""
","
","
","""event"",""trial"",""time""
""fullscreenenter"",""0"",""5694""
","
","null","run_exp/static/audio/clip_29_welcome_back.m4a","null","1033","1250","18","Female","<div class='center'><p>Welcome to day 2!</p><p> Yesterday, you were the head captain of a pirate ship. You asked your fellow pirates to rob other ships of their gold across six different islands.</p></div>","","","","","","","","","","","","","","","","","","",""
"","html-keyboard-response","3","19171","0.0-3.0","""event"",""trial"",""time""
""fullscreenenter"",""0"",""5694""
","
","
","""event"",""trial"",""time""
""fullscreenenter"",""0"",""5694""
","
","2609","<div class='center'><p>Welcome to day 2!</p><p> Yesterday, you were the head captain of a pirate ship. You asked your fellow pirates to rob other ships of their gold across six different islands.</p><p><b>[Press the space bar to continue]</b></p></div>","32","","","","","","","","","","","","","","","","","","","","","","","",""
"","day_1_summary_goal","4","36527","0.0-4.0","""event"",""trial"",""time""
""fullscreenenter"",""0"",""5694""
","
","
","""event"",""trial"",""time""
""fullscreenenter"",""0"",""5694""
","
","null","run_exp/static/audio/clip_30_goal_of_game.m4a","null","","","","","<div class='center'><p>Today, like yesterday, you get to pick which pirate you want to rob the next ship.</p><p>If the pirate is successful in robbing a ship, you get gold coins that look like this: </p><p><img src='run_exp/static/images/tutorial/reward.png' height='150'></p><p> If they were not successful in robbing the ship, then you will get no gold coins and you'll see a big red x like this: </p><p><img src='run_exp/static/images/tutorial/reward_no.png' height='150'></p></div>","","","","","","","","","","","","","","","","","","",""
"","html-keyboard-response","5","38434","0.0-5.0","""event"",""trial"",""time""
""fullscreenenter"",""0"",""5694""
","
","
","""event"",""trial"",""time""
""fullscreenenter"",""0"",""5694""
","
","1903.5","<div class='center'><p>Today, like yesterday, you get to pick which pirate you want to rob the next ship.</p><p>If the pirate is successful in robbing a ship, you get gold coins that look like this: </p><p><img src='run_exp/static/images/tutorial/reward.png' height='150'></p><p> If they were not successful in robbing the ship, then you will get no gold coins and you'll see a big red x like this: </p><p><img src='run_exp/static/images/tutorial/reward_no.png' height='150'></p><p><b>[Press the space bar to continue]</b></p></div>","32","","","","","","","","","","","","","","","","","","","","","","","",""
"","day_1_summary_pick","6","53245","0.0-6.0","""event"",""trial"",""time""
""fullscreenenter"",""0"",""5694""
","
","
","""event"",""trial"",""time""
""fullscreenenter"",""0"",""5694""
","
","null","run_exp/static/audio/clip_31_how_to_pick_a_pirate.m4a","null","","","","","<div class='center'><p>Also, just like yesterday, you will use the 1,2,3 keys on your keyboard to pick a pirate. Press '1' to choose red beard, '2' to choose white beard, and '3' to choose black beard . You only have 3 seconds to pick a pirate, so please make a choice quickly!</p></div>","","","","","","","","","","","","","","","","","","",""
"","html-keyboard-response","7","120289","0.0-7.0","""event"",""trial"",""time""
""fullscreenenter"",""0"",""5694""
","
","
","""event"",""trial"",""time""
""fullscreenenter"",""0"",""5694""
","
","67042.10000000149","<div class='center'><p>Also, just like yesterday, you will use the 1,2,3 keys on your keyboard to pick a pirate. Press '1' to choose red beard, '2' to choose white beard, and '3' to choose black beard . You only have 3 seconds to pick a pirate, so please make a choice quickly!</p><p><b>[Press the space bar to continue]</b></p></div>","32","","","","","","","","","","","","","","","","","","","","","","","",""
"","test_phase_begin","8","150686","0.0-8.0","""event"",""trial"",""time""
""fullscreenenter"",""0"",""5694""
","
","
","""event"",""trial"",""time""
""fullscreenenter"",""0"",""5694""
","
","null","run_exp/static/audio/clip_32_final_place.m4a","null","","","","","<div class='center'><p>You’ve arrived at the final island of your journey! Unfortunately, it’s very foggy out, so you won’t be able to see it in the distance like the other islands you've visited.</p><p>You’ll still be deciding which pirate you want to rob a ship like before. However, because of the fog, you also won’t be able to see the ship.</p><p>This means you do not have to remember the ships you rob on this island.</p><p>Unlike yesterday, you won't be visiting multiple islands today. You will stay on this island for the entire game. This game will last ~30 minutes.</p></div>","","","","","","","","","","","","","","","","","","",""
"","html-keyboard-response","9","152205","0.0-9.0","""event"",""trial"",""time""
""fullscreenenter"",""0"",""5694""
","
","
","""event"",""trial"",""time""
""fullscreenenter"",""0"",""5694""
","
","1516.300000000745","<div class='center'><p>You’ve arrived at the final island of your journey! Unfortunately, it’s very foggy out, so you won’t be able to see it in the distance like the other islands you've visited.</p><p>You’ll still be deciding which pirate you want to rob a ship like before. However, because of the fog, you also won’t be able to see the ship.</p><p>This means you do not have to remember the ships you rob on this island.</p><p>Unlike yesterday, you won't be visiting multiple islands today. You will stay on this island for the entire game. This game will last ~30 minutes.</p><p><b>[Press the space bar to continue]</b></p></div>","32","","","","","","","","","","","","","","","","","","","","","","","",""
"","explain_probe_1","10","160067","0.0-10.0","""event"",""trial"",""time""
""fullscreenenter"",""0"",""5694""
","
","
","""event"",""trial"",""time""
""fullscreenenter"",""0"",""5694""
","
","null","run_exp/static/audio/clip_33_recognition_1.m4a","null","","","","","<div class='center'><p> Sometimes you’ll be shown a ship, and you will be asked if you saw this ship on a past island.</p><p> Here is an example of what you will see.</p><p><img src='run_exp/static/images/tutorial/example_recog_trial.png' height='500'></p></div>","","","","","","","","","","","","","","","","","","",""
"","html-keyboard-response","11","161829","0.0-11.0","""event"",""trial"",""time""
""fullscreenenter"",""0"",""5694""
","
","
","""event"",""trial"",""time""
""fullscreenenter"",""0"",""5694""
","
","1758.7000000029802","<div class='center'><p> Sometimes you’ll be shown a ship, and you will be asked if you saw this ship on a past island.</p><p> Here is an example of what you will see.</p><p><img src='run_exp/static/images/tutorial/example_recog_trial.png' height='500'></p><p><b>[Press the space bar to continue]</b></p></div>","32","","","","","","","","","","","","","","","","","","","","","","","",""
"","explain_probe_2","12","183751","0.0-12.0","""event"",""trial"",""time""
""fullscreenenter"",""0"",""5694""
","
","
","""event"",""trial"",""time""
""fullscreenenter"",""0"",""5694""
","
","null","run_exp/static/audio/clip_34_recognition_2.m4a","null","","","","","<div class='center'><p> You will press the 5, 6, 7, 8 keys on your keyboard to respond.</p><p>If you are sure you saw the ship, press <b>5</b> on your keyboard.</p><p> If you think you saw it before but aren't sure, then press <b>6</b>.</p><p> If you think you have <b>not</b> seen it before but aren't sure, then press <b>7</b>.</p><p> If you are sure you did <b>not</b> see the ship before, then press <b>8</b>.</p><p><img src='run_exp/static/images/tutorial/example_recog_trial.png' height='500'></p></div>","","","","","","","","","","","","","","","","","","",""
"","html-keyboard-response","13","184353","0.0-13.0","""event"",""trial"",""time""
""fullscreenenter"",""0"",""5694""
","
","
","""event"",""trial"",""time""
""fullscreenenter"",""0"",""5694""
","
","599.3000000007451","<div class='center'><p> You will press the 5, 6, 7, 8 keys on your keyboard to respond.</p><p>If you are sure you saw the ship, press <b>5</b> on your keyboard.</p><p> If you think you saw it before but aren't sure, then press <b>6</b>.</p><p> If you think you have <b>not</b> seen it before but aren't sure, then press <b>7</b>.</p><p> If you are sure you did <b>not</b> see the ship before, then press <b>8</b>.</p><p><img src='run_exp/static/images/tutorial/example_recog_trial.png' height='500'></p><p><b>[Press the space bar to continue]</b></p></div>","32","","","","","","","","","","","","","","","","","","","","","","","",""
"","explain_outcome","14","201677","0.0-14.0","""event"",""trial"",""time""
""fullscreenenter"",""0"",""5694""
","
","
","""event"",""trial"",""time""
""fullscreenenter"",""0"",""5694""
","
","null","run_exp/static/audio/clip_35_recognition_3.m4a","null","","","","","<div class='center'><p> If you remember correctly, then you’ll get a gold coin like this: </p><p><img src='run_exp/static/images/tutorial/reward_small.png' height='200'></p><p>If you do not remember correctly, then you'll see a red x like this: </p><p><img src='run_exp/static/images/tutorial/reward_no.png' height='200'></p><p>Importantly, when you are shown a ship, take the time to remind yourself which island you saw it on. This will help you in the next part of the study.</p></div>","","","","","","","","","","","","","","","","","","",""
"","html-keyboard-response","15","202208","0.0-15.0","""event"",""trial"",""time""
""fullscreenenter"",""0"",""5694""
","
","
","""event"",""trial"",""time""
""fullscreenenter"",""0"",""5694""
","
","527.6999999992549","<div class='center'><p> If you remember correctly, then you’ll get a gold coin like this: </p><p><img src='run_exp/static/images/tutorial/reward_small.png' height='200'></p><p>If you do not remember correctly, then you'll see a red x like this: </p><p><img src='run_exp/static/images/tutorial/reward_no.png' height='200'></p><p>Importantly, when you are shown a ship, take the time to remind yourself which island you saw it on. This will help you in the next part of the study.</p><p><b>[Press the space bar to continue]</b></p></div>","32","","","","","","","","","","","","","","","","","","","","","","","",""
"","begin_test_phase","16","218118","0.0-16.0","""event"",""trial"",""time""
""fullscreenenter"",""0"",""5694""
","
","
","""event"",""trial"",""time""
""fullscreenenter"",""0"",""5694""
","
","null","run_exp/static/audio/clip_36_begin_final.m4a","null","","","","","<div class='center'><p>Let's go over the important points again. Your job is to: </p><p>1. Pick the pirate who is best at robbing ships and will bring you back gold coins. </p><p>2. Correctly remember whether or not you saw a ship before. If you did see the ship before, remind yourself on which island you saw it. </p></div>","","","","","","","","","","","","","","","","","","",""
"","html-keyboard-response","17","219265","0.0-17.0","""event"",""trial"",""time""
""fullscreenenter"",""0"",""5694""
","
","
","""event"",""trial"",""time""
""fullscreenenter"",""0"",""5694""
","
","1053","<div class='center'><p>Let's go over the important points again. Your job is to: </p><p>1. Pick the pirate who is best at robbing ships and will bring you back gold coins. </p><p>2. Correctly remember whether or not you saw a ship before. If you did see the ship before, remind yourself on which island you saw it. </p><p><b>[Press the space bar to continue]</b></p></div>","32","","","","","","","","","","","","","","","","","","","","","","","",""
"","do_welcome","18","223275","0.0-18.0","""event"",""trial"",""time""
""fullscreenenter"",""0"",""5694""
","
","
","""event"",""trial"",""time""
""fullscreenenter"",""0"",""5694""
","
","null","","","","","","","","null","","","","","","","","","","","","","","","","","",""
"","do_trial","19","227186","0.0-19.0-0.0","""event"",""trial"",""time""
""fullscreenenter"",""0"",""5694""
","
","
","""event"",""trial"",""time""
""fullscreenenter"",""0"",""5694""
","
","1342.9000000022352","","","","","","","","50","0,0,1","6","blank","230","null","0.31549510768196826","0.5902993095260823","0.17207808652604478","0","","","","","","","","",""
"","html-keyboard-response","20","228190","0.0-19.0-1.0","""event"",""trial"",""time""
""fullscreenenter"",""0"",""5694""
","
","
","""event"",""trial"",""time""
""fullscreenenter"",""0"",""5694""
","
","null","<p></p>","null","","","","","","","","","","","","","","","","","","","","","","","",""
"","do_trial","21","231046","0.0-20.0-0.0","""event"",""trial"",""time""
""fullscreenenter"",""0"",""5694""
","
","
","""event"",""trial"",""time""
""fullscreenenter"",""0"",""5694""
","
","290.6000000014901","","","","","","","","49","1,0,0","6","blank","231","null","0.30678127020000284","0.5066708963283169","0.05042953184654699","1","","","","","","","","",""
"","html-keyboard-response","22","232049","0.0-20.0-1.0","""event"",""trial"",""time""
""fullscreenenter"",""0"",""5694""
","
","
","""event"",""trial"",""time""
""fullscreenenter"",""0"",""5694""
","
","null","<p></p>","null","","","","","","","","","","","","","","","","","","","","","","","",""
"","do_trial","23","234822","0.0-21.0-0.0","""event"",""trial"",""time""
""fullscreenenter"",""0"",""5694""
","
","
","""event"",""trial"",""time""
""fullscreenenter"",""0"",""5694""
","
","209.89999999850988","","","","","","","","49","0,0,0","6","blank","232","null","0.2938898618664019","0.5705342816521654","0.10087534788036831","0","","","","","","","","",""
"","html-keyboard-response","24","235825","0.0-21.0-1.0","""event"",""trial"",""time""
""fullscreenenter"",""0"",""5694""
","
","
","""event"",""trial"",""time""
""fullscreenenter"",""0"",""5694""
","
","null","<p></p>","null","","","","","","","","","","","","","","","","","","","","","","","",""
"","do_trial","25","238547","0.0-22.0-0.0","""event"",""trial"",""time""
""fullscreenenter"",""0"",""5694""
","
","
","""event"",""trial"",""time""
""fullscreenenter"",""0"",""5694""
","
","158.10000000149012","","","","","","","","51","1,1,0","6","blank","233","null","0.3954319471254182","0.5471298954446424","0.0503201167092247","0","","","","","","","","",""
"","html-keyboard-response","26","239550","0.0-22.0-1.0","""event"",""trial"",""time""
""fullscreenenter"",""0"",""5694""
","
","
","""event"",""trial"",""time""
""fullscreenenter"",""0"",""5694""
","
","null","<p></p>","null","","","","","","","","","","","","","","","","","","","","","","","",""
"","do_trial","27","242232","0.0-23.0-0.0","""event"",""trial"",""time""
""fullscreenenter"",""0"",""5694""
","
","
","""event"",""trial"",""time""
""fullscreenenter"",""0"",""5694""
","
","119.5","","","","","","","","51","0,1,0","6","blank","234","null","0.34584401907384565","0.5675136058874143","0.13376861463427933","0","","","","","","","","",""
"","html-keyboard-response","28","243235","0.0-23.0-1.0","""event"",""trial"",""time""
""fullscreenenter"",""0"",""5694""
","
","
","""event"",""trial"",""time""
""fullscreenenter"",""0"",""5694""
","
","null","<p></p>","null","","","","","","","","","","","","","","","","","","","","","","","",""
"","do_trial","29","246021","0.0-24.0-0.0","""event"",""trial"",""time""
""fullscreenenter"",""0"",""5694""
","
","
","""event"",""trial"",""time""
""fullscreenenter"",""0"",""5694""
","
","222","","","","","","","","50","0,1,0","6","blank","235","null","0.2706878226055329","0.588068795764279","0.1494314359123796","1","","","","","","","","",""
"","html-keyboard-response","30","247024","0.0-24.0-1.0","""event"",""trial"",""time""
""fullscreenenter"",""0"",""5694""
","
","
","""event"",""trial"",""time""
""fullscreenenter"",""0"",""5694""
","
","null","<p></p>","null","","","","","","","","","","","","","","","","","","","","","","","",""
"","do_trial","31","249871","0.0-25.0-0.0","""event"",""trial"",""time""
""fullscreenenter"",""0"",""5694""
","
","
","""event"",""trial"",""time""
""fullscreenenter"",""0"",""5694""
","
","276.69999999925494","","","","","","","","50","0,1,0","6","blank","236","null","0.14555335783511342","0.7004423521372256","0.1002850392611167","1","","","","","","","","",""
"","html-keyboard-response","32","250873","0.0-25.0-1.0","""event"",""trial"",""time""
""fullscreenenter"",""0"",""5694""
","
","
","""event"",""trial"",""time""
""fullscreenenter"",""0"",""5694""
","
","null","<p></p>","null","","","","","","","","","","","","","","","","","","","","","","","",""
"","do_trial","33","253546","0.0-26.0-0.0","""event"",""trial"",""time""
""fullscreenenter"",""0"",""5694""
","
","
","""event"",""trial"",""time""
""fullscreenenter"",""0"",""5694""
","
","109.90000000223517","","","","","","","","50","0,1,0","6","blank","237","null","0.189022624610026","0.6372550656728662","0.1509027187513791","1","","","","","","","","",""
"","html-keyboard-response","34","254549","0.0-26.0-1.0","""event"",""trial"",""time""
""fullscreenenter"",""0"",""5694""
","
","
","""event"",""trial"",""time""
""fullscreenenter"",""0"",""5694""
","
","null","<p></p>","null","","","","","","","","","","","","","","","","","","","","","","","",""
"","do_trial","35","257403","0.0-27.0-0.0","""event"",""trial"",""time""
""fullscreenenter"",""0"",""5694""
","
","
","""event"",""trial"",""time""
""fullscreenenter"",""0"",""5694""
","
","288.4000000022352","","","","","","","","50","0,1,0","6","blank","238","null","0.14822719392319259","0.5924145999484536","0.18338473432711885","1","","","","","","","","",""
"","html-keyboard-response","36","258406","0.0-27.0-1.0","""event"",""trial"",""time""
""fullscreenenter"",""0"",""5694""
","
","
","""event"",""trial"",""time""
""fullscreenenter"",""0"",""5694""
","
","null","<p></p>","null","","","","","","","","","","","","","","","","","","","","","","","",""
"","do_trial","37","261227","0.0-28.0-0.0","""event"",""trial"",""time""
""fullscreenenter"",""0"",""5694""
","
","
","""event"",""trial"",""time""
""fullscreenenter"",""0"",""5694""
","
","256.30000000074506","","","","","","","","50","1,1,0","6","blank","239","null","0.24235343143841293","0.5220132380533308","0.05628132164560661","1","","","","","","","","",""
"","html-keyboard-response","38","262230","0.0-28.0-1.0","""event"",""trial"",""time""
""fullscreenenter"",""0"",""5694""
","
","
","""event"",""trial"",""time""
""fullscreenenter"",""0"",""5694""
","
","null","<p></p>","null","","","","","","","","","","","","","","","","","","","","","","","",""
"","do_trial","39","264837","0.0-29.0-0.0","""event"",""trial"",""time""
""fullscreenenter"",""0"",""5694""
","
","
","""event"",""trial"",""time""
""fullscreenenter"",""0"",""5694""
","
","43","","","","","","","","50","0,1,0","6","blank","240","null","0.23791061757430051","0.5700693511721759","0.15390282945361436","1","","","","","","","","",""
"","html-keyboard-response","40","265840","0.0-29.0-1.0","""event"",""trial"",""time""
""fullscreenenter"",""0"",""5694""
","
","
","""event"",""trial"",""time""
""fullscreenenter"",""0"",""5694""
","
","null","<p></p>","null","","","","","","","","","","","","","","","","","","","","","","","",""
"","do_trial","41","268799","0.0-30.0-0.0","""event"",""trial"",""time""
""fullscreenenter"",""0"",""5694""
","
","
","""event"",""trial"",""time""
""fullscreenenter"",""0"",""5694""
","
","390.1000000014901","","","","","","","","50","1,1,0","6","blank","241","null","0.12776145379163714","0.6735191945200799","0.15965724183883795","1","","","","","","","","",""
"","html-keyboard-response","42","269801","0.0-30.0-1.0","""event"",""trial"",""time""
""fullscreenenter"",""0"",""5694""
","
","
","""event"",""trial"",""time""
""fullscreenenter"",""0"",""5694""
","
","null","<p></p>","null","","","","","","","","","","","","","","","","","","","","","","","",""
"","do_trial","43","272368","0.0-31.0-0.0","""event"",""trial"",""time""
""fullscreenenter"",""0"",""5694""
","
","
","""event"",""trial"",""time""
""fullscreenenter"",""0"",""5694""
","
","0.29999999701976776","","","","","","","","50","0,0,0","6","blank","242","null","0.13583657404016575","0.31046625233610964","0.3934358597125503","0","","","","","","","","",""
"","html-keyboard-response","44","273370","0.0-31.0-1.0","""event"",""trial"",""time""
""fullscreenenter"",""0"",""5694""
","
","
","""event"",""trial"",""time""
""fullscreenenter"",""0"",""5694""
","
","null","<p></p>","null","","","","","","","","","","","","","","","","","","","","","","","",""
"","do_recog","45","279382","0.0-32.0-0.0","""event"",""trial"",""time""
""fullscreenenter"",""0"",""5694""
","
","
","""event"",""trial"",""time""
""fullscreenenter"",""0"",""5694""
","
","null","","","","","","","","null","","","","243","probe-33","","","","","1","[object Object]","117","2","0","","","",""
"","html-keyboard-response","46","280385","0.0-32.0-1.0","""event"",""trial"",""time""
""fullscreenenter"",""0"",""5694""
","
","
","""event"",""trial"",""time""
""fullscreenenter"",""0"",""5694""
","
","null","<p></p>","null","","","","","","","","","","","","","","","","","","","","","","","",""
"","do_trial","47","284557","0.0-33.0-0.0","""event"",""trial"",""time""
""fullscreenenter"",""0"",""5694""
","
","
","""event"",""trial"",""time""
""fullscreenenter"",""0"",""5694""
","
","1608","","","","","","","","49","0,1,0","6","blank","244","null","0.14570124542621885","0.3052384772834481","0.453523918934283","0","","","","","","","","",""
"","html-keyboard-response","48","285560","0.0-33.0-1.0","""event"",""trial"",""time""
""fullscreenenter"",""0"",""5694""
","
","
","""event"",""trial"",""time""
""fullscreenenter"",""0"",""5694""
","
","null","<p></p>","null","","","","","","","","","","","","","","","","","","","","","","","",""
"","do_recog","49","289197","0.0-34.0-0.0","""event"",""trial"",""time""
""fullscreenenter"",""0"",""5694""
","
","
","""event"",""trial"",""time""
""fullscreenenter"",""0"",""5694""
","
","2126.39999999851","","","","","","","","53","","","","245","probe-89","","","","","1","[object Object]","198","4","1","","","",""
"","html-keyboard-response","50","290200","0.0-34.0-1.0","""event"",""trial"",""time""
""fullscreenenter"",""0"",""5694""
","
","
","""event"",""trial"",""time""
""fullscreenenter"",""0"",""5694""
","
","null","<p></p>","null","","","","","","","","","","","","","","","","","","","","","","","",""
"","do_trial","51","293626","0.0-35.0-0.0","""event"",""trial"",""time""
""fullscreenenter"",""0"",""5694""
","
","
","""event"",""trial"",""time""
""fullscreenenter"",""0"",""5694""
","
","861.4000000022352","","","","","","","","49","0,0,1","6","blank","246","null","0.09013452575633281","0.2346991797585944","0.412529528807021","0","","","","","","","","",""
"","html-keyboard-response","52","294629","0.0-35.0-1.0","""event"",""trial"",""time""
""fullscreenenter"",""0"",""5694""
","
","
","""event"",""trial"",""time""
""fullscreenenter"",""0"",""5694""
","
","null","<p></p>","null","","","","","","","","","","","","","","","","","","","","","","","",""
"","do_trial","53","297733","0.0-36.0-0.0","""event"",""trial"",""time""
""fullscreenenter"",""0"",""5694""
","
","
","""event"",""trial"",""time""
""fullscreenenter"",""0"",""5694""
","
","541.6000000014901","","","","","","","","51","0,1,1","6","blank","247","null","0.1902306043792435","0.3064491386937693","0.5391550765032472","1","","","","","","","","",""
"","html-keyboard-response","54","298736","0.0-36.0-1.0","""event"",""trial"",""time""
""fullscreenenter"",""0"",""5694""
","
","
","""event"",""trial"",""time""
""fullscreenenter"",""0"",""5694""
","
","null","<p></p>","null","","","","","","","","","","","","","","","","","","","","","","","",""
"","do_trial","55","301891","0.0-37.0-0.0","""event"",""trial"",""time""
""fullscreenenter"",""0"",""5694""
","
","
","""event"",""trial"",""time""
""fullscreenenter"",""0"",""5694""
","
","591.5","","","","","","","","50","0,0,1","6","blank","248","null","0.09589970302521982","0.3376146186106532","0.521925632611024","0","","","","","","","","",""
"","html-keyboard-response","56","302894","0.0-37.0-1.0","""event"",""trial"",""time""
""fullscreenenter"",""0"",""5694""
","
","
","""event"",""trial"",""time""
""fullscreenenter"",""0"",""5694""
","
","null","<p></p>","null","","","","","","","","","","","","","","","","","","","","","","","",""
"","do_trial","57","305881","0.0-38.0-0.0","""event"",""trial"",""time""
""fullscreenenter"",""0"",""5694""
","
","
","""event"",""trial"",""time""
""fullscreenenter"",""0"",""5694""
","
","424.6000000014901","","","","","","","","49","0,0,1","6","blank","249","null","0.0652252792665975","0.3502046910607683","0.5237548096987227","0","","","","","","","","",""
"","html-keyboard-response","58","306884","0.0-38.0-1.0","""event"",""trial"",""time""
""fullscreenenter"",""0"",""5694""
","
","
","""event"",""trial"",""time""
""fullscreenenter"",""0"",""5694""
","
","null","<p></p>","null","","","","","","","","","","","","","","","","","","","","","","","",""
"","do_trial","59","310044","0.0-39.0-0.0","""event"",""trial"",""time""
""fullscreenenter"",""0"",""5694""
","
","
","""event"",""trial"",""time""
""fullscreenenter"",""0"",""5694""
","
","597.3000000007451","","","","","","","","51","0,0,0","6","blank","250","null","0.05613633701805396","0.45114366118573757","0.510378061563743","0","","","","","","","","",""
"","html-keyboard-response","60","311046","0.0-39.0-1.0","""event"",""trial"",""time""
""fullscreenenter"",""0"",""5694""
","
","
","""event"",""trial"",""time""
""fullscreenenter"",""0"",""5694""
","
","null","<p></p>","null","","","","","","","","","","","","","","","","","","","","","","","",""
"","do_trial","61","313970","0.0-40.0-0.0","""event"",""trial"",""time""
""fullscreenenter"",""0"",""5694""
","
","
","""event"",""trial"",""time""
""fullscreenenter"",""0"",""5694""
","
","354.70000000298023","","","","","","","","49","0,0,0","6","blank","251","null","0.07269668531837538","0.46874120620823106","0.5242053279627717","0","","","","","","","","",""
"","html-keyboard-response","62","314973","0.0-40.0-1.0","""event"",""trial"",""time""
""fullscreenenter"",""0"",""5694""
","
","
","""event"",""trial"",""time""
""fullscreenenter"",""0"",""5694""
","
","null","<p></p>","null","","","","","","","","","","","","","","","","","","","","","","","",""
"","do_recog","63","317860","0.0-41.0-0.0","""event"",""trial"",""time""
""fullscreenenter"",""0"",""5694""
","
","
","""event"",""trial"",""time""
""fullscreenenter"",""0"",""5694""
","
","1377.5","","","","","","","","53","","","","252","probe-45","","","","","1","[object Object]","190","4","1","","","",""
"","html-keyboard-response","64","318863","0.0-41.0-1.0","""event"",""trial"",""time""
""fullscreenenter"",""0"",""5694""
","
","
","""event"",""trial"",""time""
""fullscreenenter"",""0"",""5694""
","
","null","<p></p>","null","","","","","","","","","","","","","","","","","","","","","","","",""
"","do_trial","65","322125","0.0-42.0-0.0","""event"",""trial"",""time""
""fullscreenenter"",""0"",""5694""
","
","
","""event"",""trial"",""time""
""fullscreenenter"",""0"",""5694""
","
","699.1999999992549","","","","","","","","50","0,0,0","6","blank","253","null","0.05928834884619045","0.4785111534520742","0.5378783917967013","0","","","","","","","","",""
"","html-keyboard-response","66","323127","0.0-42.0-1.0","""event"",""trial"",""time""
""fullscreenenter"",""0"",""5694""
","
","
","""event"",""trial"",""time""
""fullscreenenter"",""0"",""5694""
","
","null","<p></p>","null","","","","","","","","","","","","","","","","","","","","","","","",""
"","do_trial","67","325772","0.0-43.0-0.0","""event"",""trial"",""time""
""fullscreenenter"",""0"",""5694""
","
","
","""event"",""trial"",""time""
""fullscreenenter"",""0"",""5694""
","
","81.5","","","","","","","","51","0,1,1","6","blank","254","null","0.08465488993072327","0.44659313064300366","0.3557201883292129","1","","","","","","","","",""
"","html-keyboard-response","68","326775","0.0-43.0-1.0","""event"",""trial"",""time""
""fullscreenenter"",""0"",""5694""
","
","
","""event"",""trial"",""time""
""fullscreenenter"",""0"",""5694""
","
","null","<p></p>","null","","","","","","","","","","","","","","","","","","","","","","","",""
"","do_recog","69","329943","0.0-44.0-0.0","""event"",""trial"",""time""
""fullscreenenter"",""0"",""5694""
","
","
","""event"",""trial"",""time""
""fullscreenenter"",""0"",""5694""
","
","1659.5","","","","","","","","56","","","","255","probe-66","","","","","1","[object Object]","155","3","0","","","",""
"","html-keyboard-response","70","330946","0.0-44.0-1.0","""event"",""trial"",""time""
""fullscreenenter"",""0"",""5694""
","
","
","""event"",""trial"",""time""
""fullscreenenter"",""0"",""5694""
","
","null","<p></p>","null","","","","","","","","","","","","","","","","","","","","","","","",""
"","do_trial","71","335321","0.0-45.0-0.0","""event"",""trial"",""time""
""fullscreenenter"",""0"",""5694""
","
","
","""event"",""trial"",""time""
""fullscreenenter"",""0"",""5694""
","
","1809.5999999977648","","","","","","","","50","0,0,0","6","blank","256","null","0.10384749122788389","0.307076856090524","0.3242424013628668","0","","","","","","","","",""
"","html-keyboard-response","72","336325","0.0-45.0-1.0","""event"",""trial"",""time""
""fullscreenenter"",""0"",""5694""
","
","
","""event"",""trial"",""time""
""fullscreenenter"",""0"",""5694""
","
","null","<p></p>","null","","","","","","","","","","","","","","","","","","","","","","","",""
"","do_trial","73","339220","0.0-46.0-0.0","""event"",""trial"",""time""
""fullscreenenter"",""0"",""5694""
","
","
","""event"",""trial"",""time""
""fullscreenenter"",""0"",""5694""
","
","329.80000000074506","","","","","","","","49","0,0,1","6","blank","257","null","0.0731666422351729","0.3234724654696855","0.5237355295394697","0","","","","","","","","",""
"","html-keyboard-response","74","340222","0.0-46.0-1.0","""event"",""trial"",""time""
""fullscreenenter"",""0"",""5694""
","
","
","""event"",""trial"",""time""
""fullscreenenter"",""0"",""5694""
","
","null","<p></p>","null","","","","","","","","","","","","","","","","","","","","","","","",""
"","do_trial","75","343017","0.0-47.0-0.0","""event"",""trial"",""time""
""fullscreenenter"",""0"",""5694""
","
","
","""event"",""trial"",""time""
""fullscreenenter"",""0"",""5694""
","
","225.5","","","","","","","","50","0,0,1","6","blank","258","null","0.054215350973312586","0.3482379606402046","0.4755412801506212","0","","","","","","","","",""
"","html-keyboard-response","76","344020","0.0-47.0-1.0","""event"",""trial"",""time""
""fullscreenenter"",""0"",""5694""
","
","
","""event"",""trial"",""time""
""fullscreenenter"",""0"",""5694""
","
","null","<p></p>","null","","","","","","","","","","","","","","","","","","","","","","","",""
"","do_trial","77","346751","0.0-48.0-0.0","""event"",""trial"",""time""
""fullscreenenter"",""0"",""5694""
","
","
","""event"",""trial"",""time""
""fullscreenenter"",""0"",""5694""
","
","166.70000000298023","","","","","","","","51","1,1,0","6","blank","259","null","0.130195163067278","0.3705315814573868","0.47464206406820536","0","","","","","","","","",""
"","html-keyboard-response","78","347753","0.0-48.0-1.0","""event"",""trial"",""time""
""fullscreenenter"",""0"",""5694""
","
","
","""event"",""trial"",""time""
""fullscreenenter"",""0"",""5694""
","
","null","<p></p>","null","","","","","","","","","","","","","","","","","","","","","","","",""
"","do_recog","79","350810","0.0-49.0-0.0","""event"",""trial"",""time""
""fullscreenenter"",""0"",""5694""
","
","
","""event"",""trial"",""time""
""fullscreenenter"",""0"",""5694""
","
","1545.9000000022352","","","","","","","","56","","","","260","probe-128","","","","","1","[object Object]","38","0","0","","","",""
"","html-keyboard-response","80","351813","0.0-49.0-1.0","""event"",""trial"",""time""
""fullscreenenter"",""0"",""5694""
","
","
","""event"",""trial"",""time""
""fullscreenenter"",""0"",""5694""
","
","null","<p></p>","null","","","","","","","","","","","","","","","","","","","","","","","",""
"","do_trial","81","355290","0.0-50.0-0.0","""event"",""trial"",""time""
""fullscreenenter"",""0"",""5694""
","
","
","""event"",""trial"",""time""
""fullscreenenter"",""0"",""5694""
","
","911.7000000029802","","","","","","","","50","0,0,0","6","blank","261","null","0.16582160426511397","0.2555909424687232","0.4835386892795623","0","","","","","","","","",""
"","html-keyboard-response","82","356292","0.0-50.0-1.0","""event"",""trial"",""time""
""fullscreenenter"",""0"",""5694""
","
","
","""event"",""trial"",""time""
""fullscreenenter"",""0"",""5694""
","
","null","<p></p>","null","","","","","","","","","","","","","","","","","","","","","","","",""
"","do_trial","83","359143","0.0-51.0-0.0","""event"",""trial"",""time""
""fullscreenenter"",""0"",""5694""
","
","
","""event"",""trial"",""time""
""fullscreenenter"",""0"",""5694""
","
","287.5","","","","","","","","49","0,0,1","6","blank","262","null","0.237354364270464","0.22819511110912225","0.4324206312300383","0","","","","","","","","",""
"","html-keyboard-response","84","360145","0.0-51.0-1.0","""event"",""trial"",""time""
""fullscreenenter"",""0"",""5694""
","
","
","""event"",""trial"",""time""
""fullscreenenter"",""0"",""5694""
","
","null","<p></p>","null","","","","","","","","","","","","","","","","","","","","","","","",""
"","do_recog","85","363315","0.0-52.0-0.0","""event"",""trial"",""time""
""fullscreenenter"",""0"",""5694""
","
","
","""event"",""trial"",""time""
""fullscreenenter"",""0"",""5694""
","
","1659.9000000022352","","","","","","","","56","","","","263","probe-101","","","","","1","[object Object]","152","3","0","","","",""
"","html-keyboard-response","86","364318","0.0-52.0-1.0","""event"",""trial"",""time""
""fullscreenenter"",""0"",""5694""
","
","
","""event"",""trial"",""time""
""fullscreenenter"",""0"",""5694""
","
","null","<p></p>","null","","","","","","","","","","","","","","","","","","","","","","","",""
"","do_trial","87","367423","0.0-53.0-0.0","""event"",""trial"",""time""
""fullscreenenter"",""0"",""5694""
","
","
","""event"",""trial"",""time""
""fullscreenenter"",""0"",""5694""
","
","540.2000000029802","","","","","","","","50","0,0,0","6","blank","264","null","0.08172101855412858","0.17580850216160593","0.41837626563796465","0","","","","","","","","",""
"","html-keyboard-response","88","368425","0.0-53.0-1.0","""event"",""trial"",""time""
""fullscreenenter"",""0"",""5694""
","
","
","""event"",""trial"",""time""
""fullscreenenter"",""0"",""5694""
","
","null","<p></p>","null","","","","","","","","","","","","","","","","","","","","","","","",""
"","do_trial","89","371289","0.0-54.0-0.0","""event"",""trial"",""time""
""fullscreenenter"",""0"",""5694""
","
","
","""event"",""trial"",""time""
""fullscreenenter"",""0"",""5694""
","
","298.79999999701977","","","","","","","","49","0,0,1","6","blank","265","null","0.22503718990852817","0.3350841485100567","0.4223239881954692","0","","","","","","","","",""
"","html-keyboard-response","90","372292","0.0-54.0-1.0","""event"",""trial"",""time""
""fullscreenenter"",""0"",""5694""
","
","
","""event"",""trial"",""time""
""fullscreenenter"",""0"",""5694""
","
","null","<p></p>","null","","","","","","","","","","","","","","","","","","","","","","","",""
"","do_trial","91","375070","0.0-55.0-0.0","""event"",""trial"",""time""
""fullscreenenter"",""0"",""5694""
","
","
","""event"",""trial"",""time""
""fullscreenenter"",""0"",""5694""
","
","213.40000000223517","","","","","","","","50","0,0,0","6","blank","266","null","0.2435116239507899","0.20919769600295218","0.48058641598102947","0","","","","","","","","",""
"","html-keyboard-response","92","376072","0.0-55.0-1.0","""event"",""trial"",""time""
""fullscreenenter"",""0"",""5694""
","
","
","""event"",""trial"",""time""
""fullscreenenter"",""0"",""5694""
","
","null","<p></p>","null","","","","","","","","","","","","","","","","","","","","","","","",""
"","do_recog","93","379459","0.0-56.0-0.0","""event"",""trial"",""time""
""fullscreenenter"",""0"",""5694""
","
","
","""event"",""trial"",""time""
""fullscreenenter"",""0"",""5694""
","
","1877.8999999985099","","","","","","","","55","","","","267","probe-102","","","","","1","[object Object]","151","3","0","","","",""
"","html-keyboard-response","94","380462","0.0-56.0-1.0","""event"",""trial"",""time""
""fullscreenenter"",""0"",""5694""
","
","
","""event"",""trial"",""time""
""fullscreenenter"",""0"",""5694""
","
","null","<p></p>","null","","","","","","","","","","","","","","","","","","","","","","","",""
"","do_trial","95","383887","0.0-57.0-0.0","""event"",""trial"",""time""
""fullscreenenter"",""0"",""5694""
","
","
","""event"",""trial"",""time""
""fullscreenenter"",""0"",""5694""
","
","859.5999999977648","","","","","","","","50","0,0,1","6","blank","268","null","0.19183281057242824","0.11688698548457226","0.5035542990081383","0","","","","","","","","",""
"","html-keyboard-response","96","384889","0.0-57.0-1.0","""event"",""trial"",""time""
""fullscreenenter"",""0"",""5694""
","
","
","""event"",""trial"",""time""
""fullscreenenter"",""0"",""5694""
","
","null","<p></p>","null","","","","","","","","","","","","","","","","","","","","","","","",""
"","break","97","409685","0.0-58.0-0.0","""event"",""trial"",""time""
""fullscreenenter"",""0"",""5694""
","
","
","""event"",""trial"",""time""
""fullscreenenter"",""0"",""5694""
","
","24794","<div class='center'><p>Time to take a quick break! You have 2 minutes to rest, but you can move on sooner if you'd like.</p><p> Press the <b>space bar</b> to continue.</p></div>","32","","","","","","","","","","","","","","","","","","","","","","","",""
"","do_recog","98","413544","0.0-58.0-1.0","""event"",""trial"",""time""
""fullscreenenter"",""0"",""5694""
","
","
","""event"",""trial"",""time""
""fullscreenenter"",""0"",""5694""
","
","2348.300000000745","","","","","","","","56","","","","269","probe-247","","","","","0","[object Object]","null","null","1","","","",""
"","html-keyboard-response","99","414547","0.0-58.0-2.0","""event"",""trial"",""time""
""fullscreenenter"",""0"",""5694""
","
","
","""event"",""trial"",""time""
""fullscreenenter"",""0"",""5694""
","
","null","<p></p>","null","","","","","","","","","","","","","","","","","","","","","","","",""
"","do_trial","100","417813","0.0-59.0-0.0","""event"",""trial"",""time""
""fullscreenenter"",""0"",""5694""
","
","
","""event"",""trial"",""time""
""fullscreenenter"",""0"",""5694""
","
","701.6999999992549","","","","","","","","49","1,0,1","6","blank","270","null","0.2861178516445449","0.14116081722034443","0.633149190667727","1","","","","","","","","",""
"","html-keyboard-response","101","418816","0.0-59.0-1.0","""event"",""trial"",""time""
""fullscreenenter"",""0"",""5694""
","
","
","""event"",""trial"",""time""
""fullscreenenter"",""0"",""5694""
","
","null","<p></p>","null","","","","","","","","","","","","","","","","","","","","","","","",""
"","do_recog","102","422011","0.0-60.0-0.0","""event"",""trial"",""time""
""fullscreenenter"",""0"",""5694""
","
","
","""event"",""trial"",""time""
""fullscreenenter"",""0"",""5694""
","
","1684","","","","","","","","53","","","","271","probe-42","","","","","1","[object Object]","118","2","1","","","",""
"","html-keyboard-response","103","423014","0.0-60.0-1.0","""event"",""trial"",""time""
""fullscreenenter"",""0"",""5694""
","
","
","""event"",""trial"",""time""
""fullscreenenter"",""0"",""5694""
","
","null","<p></p>","null","","","","","","","","","","","","","","","","","","","","","","","",""
"","do_trial","104","426619","0.0-61.0-0.0","""event"",""trial"",""time""
""fullscreenenter"",""0"",""5694""
","
","
","""event"",""trial"",""time""
""fullscreenenter"",""0"",""5694""
","
","1041.0999999977648","","","","","","","","49","0,0,0","6","blank","272","null","0.35649724798434285","0.06605537580644129","0.6630685448977185","0","","","","","","","","",""
"","html-keyboard-response","105","427621","0.0-61.0-1.0","""event"",""trial"",""time""
""fullscreenenter"",""0"",""5694""
","
","
","""event"",""trial"",""time""
""fullscreenenter"",""0"",""5694""
","
","null","<p></p>","null","","","","","","","","","","","","","","","","","","","","","","","",""
"","do_recog","106","430683","0.0-62.0-0.0","""event"",""trial"",""time""
""fullscreenenter"",""0"",""5694""
","
","
","""event"",""trial"",""time""
""fullscreenenter"",""0"",""5694""
","
","1551.199999999255","","","","","","","","56","","","","273","probe-69","","","","","1","[object Object]","195","4","0","","","",""
"","html-keyboard-response","107","431686","0.0-62.0-1.0","""event"",""trial"",""time""
""fullscreenenter"",""0"",""5694""
","
","
","""event"",""trial"",""time""
""fullscreenenter"",""0"",""5694""
","
","null","<p></p>","null","","","","","","","","","","","","","","","","","","","","","","","",""
"","do_trial","108","435176","0.0-63.0-0.0","""event"",""trial"",""time""
""fullscreenenter"",""0"",""5694""
","
","
","""event"",""trial"",""time""
""fullscreenenter"",""0"",""5694""
","
","927","","","","","","","","50","0,1,1","6","blank","274","null","0.25989996398725196","0.22593428340768082","0.6923167125422302","1","","","","","","","","",""
"","html-keyboard-response","109","436178","0.0-63.0-1.0","""event"",""trial"",""time""
""fullscreenenter"",""0"",""5694""
","
","
","""event"",""trial"",""time""
""fullscreenenter"",""0"",""5694""
","
","null","<p></p>","null","","","","","","","","","","","","","","","","","","","","","","","",""
"","do_recog","110","439264","0.0-64.0-0.0","""event"",""trial"",""time""
""fullscreenenter"",""0"",""5694""
","
","
","""event"",""trial"",""time""
""fullscreenenter"",""0"",""5694""
","
","1575","","","","","","","","56","","","","275","probe-154","","","","","1","[object Object]","111","2","0","","","",""
"","html-keyboard-response","111","440266","0.0-64.0-1.0","""event"",""trial"",""time""
""fullscreenenter"",""0"",""5694""
","
","
","""event"",""trial"",""time""
""fullscreenenter"",""0"",""5694""
","
","null","<p></p>","null","","","","","","","","","","","","","","","","","","","","","","","",""
"","do_trial","112","443989","0.0-65.0-0.0","""event"",""trial"",""time""
""fullscreenenter"",""0"",""5694""
","
","
","""event"",""trial"",""time""
""fullscreenenter"",""0"",""5694""
","
","1159.1000000014901","","","","","","","","49","0,0,0","6","blank","276","null","0.27334642151916105","0.30466882841567594","0.6053041380716573","0","","","","","","","","",""
"","html-keyboard-response","113","444991","0.0-65.0-1.0","""event"",""trial"",""time""
""fullscreenenter"",""0"",""5694""
","
","
","""event"",""trial"",""time""
""fullscreenenter"",""0"",""5694""
","
","null","<p></p>","null","","","","","","","","","","","","","","","","","","","","","","","",""
"","do_recog","114","448119","0.0-66.0-0.0","""event"",""trial"",""time""
""fullscreenenter"",""0"",""5694""
","
","
","""event"",""trial"",""time""
""fullscreenenter"",""0"",""5694""
","
","1617.3999999985099","","","","","","","","53","","","","277","probe-79","","","","","1","[object Object]","32","0","1","","","",""
"","html-keyboard-response","115","449122","0.0-66.0-1.0","""event"",""trial"",""time""
""fullscreenenter"",""0"",""5694""
","
","
","""event"",""trial"",""time""
""fullscreenenter"",""0"",""5694""
","
","null","<p></p>","null","","","","","","","","","","","","","","","","","","","","","","","",""
"","do_trial","116","452625","0.0-67.0-0.0","""event"",""trial"",""time""
""fullscreenenter"",""0"",""5694""
","
","
","""event"",""trial"",""time""
""fullscreenenter"",""0"",""5694""
","
","940.5999999977648","","","","","","","","50","1,0,0","6","blank","278","null","0.34918602562363577","0.36490146357124814","0.5339138659708711","0","","","","","","","","",""
"","html-keyboard-response","117","453628","0.0-67.0-1.0","""event"",""trial"",""time""
""fullscreenenter"",""0"",""5694""
","
","
","""event"",""trial"",""time""
""fullscreenenter"",""0"",""5694""
","
","null","<p></p>","null","","","","","","","","","","","","","","","","","","","","","","","",""
"","do_trial","118","457108","0.0-68.0-0.0","""event"",""trial"",""time""
""fullscreenenter"",""0"",""5694""
","
","
","""event"",""trial"",""time""
""fullscreenenter"",""0"",""5694""
","
","917.2000000029802","","","","","","","","49","0,0,0","6","blank","279","null","0.3346079032401101","0.43500503636882665","0.6109444029679175","0","","","","","","","","",""
"","html-keyboard-response","119","458110","0.0-68.0-1.0","""event"",""trial"",""time""
""fullscreenenter"",""0"",""5694""
","
","
","""event"",""trial"",""time""
""fullscreenenter"",""0"",""5694""
","
","null","<p></p>","null","","","","","","","","","","","","","","","","","","","","","","","",""
"","do_trial","120","461121","0.0-69.0-0.0","""event"",""trial"",""time""
""fullscreenenter"",""0"",""5694""
","
","
","""event"",""trial"",""time""
""fullscreenenter"",""0"",""5694""
","
","448.8999999985099","","","","","","","","51","0,0,1","6","blank","280","null","0.2459156843388227","0.4359173289673726","0.6119816275305907","1","","","","","","","","",""
"","html-keyboard-response","121","462123","0.0-69.0-1.0","""event"",""trial"",""time""
""fullscreenenter"",""0"",""5694""
","
","
","""event"",""trial"",""time""
""fullscreenenter"",""0"",""5694""
","
","null","<p></p>","null","","","","","","","","","","","","","","","","","","","","","","","",""
"","do_trial","122","465588","0.0-70.0-0.0","""event"",""trial"",""time""
""fullscreenenter"",""0"",""5694""
","
","
","""event"",""trial"",""time""
""fullscreenenter"",""0"",""5694""
","
","900","","","","","","","","51","0,0,0","6","blank","281","null","0.18259793978932035","0.3598396676507486","0.5389851201292684","0","","","","","","","","",""
"","html-keyboard-response","123","466591","0.0-70.0-1.0","""event"",""trial"",""time""
""fullscreenenter"",""0"",""5694""
","
","
","""event"",""trial"",""time""
""fullscreenenter"",""0"",""5694""
","
","null","<p></p>","null","","","","","","","","","","","","","","","","","","","","","","","",""
"","do_trial","124","469473","0.0-71.0-0.0","""event"",""trial"",""time""
""fullscreenenter"",""0"",""5694""
","
","
","""event"",""trial"",""time""
""fullscreenenter"",""0"",""5694""
","
","319.5","","","","","","","","50","1,0,1","6","blank","282","null","0.20099119392873555","0.27923799028287394","0.6475446494891413","0","","","","","","","","",""
"","html-keyboard-response","125","470476","0.0-71.0-1.0","""event"",""trial"",""time""
""fullscreenenter"",""0"",""5694""
","
","
","""event"",""trial"",""time""
""fullscreenenter"",""0"",""5694""
","
","null","<p></p>","null","","","","","","","","","","","","","","","","","","","","","","","",""
"","do_recog","126","473334","0.0-72.0-0.0","""event"",""trial"",""time""
""fullscreenenter"",""0"",""5694""
","
","
","""event"",""trial"",""time""
""fullscreenenter"",""0"",""5694""
","
","1348.1000000014901","","","","","","","","53","","","","283","probe-58","","","","","1","[object Object]","70","1","1","","","",""
"","html-keyboard-response","127","474337","0.0-72.0-1.0","""event"",""trial"",""time""
""fullscreenenter"",""0"",""5694""
","
","
","""event"",""trial"",""time""
""fullscreenenter"",""0"",""5694""
","
","null","<p></p>","null","","","","","","","","","","","","","","","","","","","","","","","",""
"","do_trial","128","477861","0.0-73.0-0.0","""event"",""trial"",""time""
""fullscreenenter"",""0"",""5694""
","
","
","""event"",""trial"",""time""
""fullscreenenter"",""0"",""5694""
","
","960.6999999992549","","","","","","","","49","0,0,0","6","blank","284","null","0.18358181907719406","0.31206058931450814","0.6013435409740268","0","","","","","","","","",""
"","html-keyboard-response","129","478864","0.0-73.0-1.0","""event"",""trial"",""time""
""fullscreenenter"",""0"",""5694""
","
","
","""event"",""trial"",""time""
""fullscreenenter"",""0"",""5694""
","
","null","<p></p>","null","","","","","","","","","","","","","","","","","","","","","","","",""
"","do_trial","130","482287","0.0-74.0-0.0","""event"",""trial"",""time""
""fullscreenenter"",""0"",""5694""
","
","
","""event"",""trial"",""time""
""fullscreenenter"",""0"",""5694""
","
","858.4000000022352","","","","","","","","50","0,1,0","6","blank","285","null","0.07482193909692109","0.3312053938075639","0.5962798313220755","1","","","","","","","","",""
"","html-keyboard-response","131","483289","0.0-74.0-1.0","""event"",""trial"",""time""
""fullscreenenter"",""0"",""5694""
","
","
","""event"",""trial"",""time""
""fullscreenenter"",""0"",""5694""
","
","null","<p></p>","null","","","","","","","","","","","","","","","","","","","","","","","",""
"","do_trial","132","486727","0.0-75.0-0.0","""event"",""trial"",""time""
""fullscreenenter"",""0"",""5694""
","
","
","""event"",""trial"",""time""
""fullscreenenter"",""0"",""5694""
","
","873.6000000014901","","","","","","","","50","0,1,1","6","blank","286","null","0.09617006368765095","0.39514330774630013","0.7377511226389747","1","","","","","","","","",""
"","html-keyboard-response","133","487730","0.0-75.0-1.0","""event"",""trial"",""time""
""fullscreenenter"",""0"",""5694""
","
","
","""event"",""trial"",""time""
""fullscreenenter"",""0"",""5694""
","
","null","<p></p>","null","","","","","","","","","","","","","","","","","","","","","","","",""
"","do_trial","134","490913","0.0-76.0-0.0","""event"",""trial"",""time""
""fullscreenenter"",""0"",""5694""
","
","
","""event"",""trial"",""time""
""fullscreenenter"",""0"",""5694""
","
","618.6999999992549","","","","","","","","50","0,0,1","6","blank","287","null","0.12783880205417608","0.33804331774774904","0.7676519236745927","0","","","","","","","","",""
"","html-keyboard-response","135","491916","0.0-76.0-1.0","""event"",""trial"",""time""
""fullscreenenter"",""0"",""5694""
","
","
","""event"",""trial"",""time""
""fullscreenenter"",""0"",""5694""
","
","null","<p></p>","null","","","","","","","","","","","","","","","","","","","","","","","",""
"","do_trial","136","494830","0.0-77.0-0.0","""event"",""trial"",""time""
""fullscreenenter"",""0"",""5694""
","
","
","""event"",""trial"",""time""
""fullscreenenter"",""0"",""5694""
","
","350.1000000014901","","","","","","","","49","0,0,1","6","blank","288","null","0.23113310297945674","0.3784054703231769","0.6962493124434432","0","","","","","","","","",""
"","html-keyboard-response","137","495832","0.0-77.0-1.0","""event"",""trial"",""time""
""fullscreenenter"",""0"",""5694""
","
","
","""event"",""trial"",""time""
""fullscreenenter"",""0"",""5694""
","
","null","<p></p>","null","","","","","","","","","","","","","","","","","","","","","","","",""
"","do_recog","138","498925","0.0-78.0-0.0","""event"",""trial"",""time""
""fullscreenenter"",""0"",""5694""
","
","
","""event"",""trial"",""time""
""fullscreenenter"",""0"",""5694""
","
","1585.699999999255","","","","","","","","53","","","","289","probe-94","","","","","1","[object Object]","73","1","1","","","",""
"","html-keyboard-response","139","499928","0.0-78.0-1.0","""event"",""trial"",""time""
""fullscreenenter"",""0"",""5694""
","
","
","""event"",""trial"",""time""
""fullscreenenter"",""0"",""5694""
","
","null","<p></p>","null","","","","","","","","","","","","","","","","","","","","","","","",""
"","do_trial","140","503942","0.0-79.0-0.0","""event"",""trial"",""time""
""fullscreenenter"",""0"",""5694""
","
","
","""event"",""trial"",""time""
""fullscreenenter"",""0"",""5694""
","
","1448.3999999985099","","","","","","","","51","0,0,1","6","blank","290","null","0.16425745226520583","0.3499139825148083","0.6950669448100991","1","","","","","","","","",""
"","html-keyboard-response","141","504944","0.0-79.0-1.0","""event"",""trial"",""time""
""fullscreenenter"",""0"",""5694""
","
","
","""event"",""trial"",""time""
""fullscreenenter"",""0"",""5694""
","
","null","<p></p>","null","","","","","","","","","","","","","","","","","","","","","","","",""
"","do_trial","142","508334","0.0-80.0-0.0","""event"",""trial"",""time""
""fullscreenenter"",""0"",""5694""
","
","
","""event"",""trial"",""time""
""fullscreenenter"",""0"",""5694""
","
","826.5","","","","","","","","51","1,1,0","6","blank","291","null","0.14812702958610022","0.2767928463597149","0.5563965580735447","0","","","","","","","","",""
"","html-keyboard-response","143","509337","0.0-80.0-1.0","""event"",""trial"",""time""
""fullscreenenter"",""0"",""5694""
","
","
","""event"",""trial"",""time""
""fullscreenenter"",""0"",""5694""
","
","null","<p></p>","null","","","","","","","","","","","","","","","","","","","","","","","",""
"","do_trial","144","512558","0.0-81.0-0.0","""event"",""trial"",""time""
""fullscreenenter"",""0"",""5694""
","
","
","""event"",""trial"",""time""
""fullscreenenter"",""0"",""5694""
","
","656.6000000014901","","","","","","","","50","0,0,0","6","blank","292","null","0.1790497478651632","0.2757544584512313","0.5963719003638914","0","","","","","","","","",""
"","html-keyboard-response","145","513561","0.0-81.0-1.0","""event"",""trial"",""time""
""fullscreenenter"",""0"",""5694""
","
","
","""event"",""trial"",""time""
""fullscreenenter"",""0"",""5694""
","
","null","<p></p>","null","","","","","","","","","","","","","","","","","","","","","","","",""
"","do_trial","146","516554","0.0-82.0-0.0","""event"",""trial"",""time""
""fullscreenenter"",""0"",""5694""
","
","
","""event"",""trial"",""time""
""fullscreenenter"",""0"",""5694""
","
","429.69999999925494","","","","","","","","49","1,0,1","6","blank","293","null","0.1858164004481778","0.1771953389694867","0.6643127445524736","1","","","","","","","","",""
"","html-keyboard-response","147","517556","0.0-82.0-1.0","""event"",""trial"",""time""
""fullscreenenter"",""0"",""5694""
","
","
","""event"",""trial"",""time""
""fullscreenenter"",""0"",""5694""
","
","null","<p></p>","null","","","","","","","","","","","","","","","","","","","","","","","",""
"","do_trial","148","520948","0.0-83.0-0.0","""event"",""trial"",""time""
""fullscreenenter"",""0"",""5694""
","
","
","""event"",""trial"",""time""
""fullscreenenter"",""0"",""5694""
","
","826.3999999985099","","","","","","","","49","0,0,1","6","blank","294","null","0.1923604081466808","0.052320294322897726","0.6690532595419465","0","","","","","","","","",""
"","html-keyboard-response","149","521951","0.0-83.0-1.0","""event"",""trial"",""time""
""fullscreenenter"",""0"",""5694""
","
","
","""event"",""trial"",""time""
""fullscreenenter"",""0"",""5694""
","
","null","<p></p>","null","","","","","","","","","","","","","","","","","","","","","","","",""
"","do_recog","150","524880","0.0-84.0-0.0","""event"",""trial"",""time""
""fullscreenenter"",""0"",""5694""
","
","
","""event"",""trial"",""time""
""fullscreenenter"",""0"",""5694""
","
","1420.300000000745","","","","","","","","56","","","","295","probe-250","","","","","0","[object Object]","null","null","1","","","",""
"","html-keyboard-response","151","525883","0.0-84.0-1.0","""event"",""trial"",""time""
""fullscreenenter"",""0"",""5694""
","
","
","""event"",""trial"",""time""
""fullscreenenter"",""0"",""5694""
","
","null","<p></p>","null","","","","","","","","","","","","","","","","","","","","","","","",""
"","do_trial","152","529500","0.0-85.0-0.0","""event"",""trial"",""time""
""fullscreenenter"",""0"",""5694""
","
","
","""event"",""trial"",""time""
""fullscreenenter"",""0"",""5694""
","
","1053.699999999255","","","","","","","","51","1,1,1","6","blank","296","null","0.1290985731573955","0.13284962837692704","0.7473262613918829","1","","","","","","","","",""
"","html-keyboard-response","153","530503","0.0-85.0-1.0","""event"",""trial"",""time""
""fullscreenenter"",""0"",""5694""
","
","
","""event"",""trial"",""time""
""fullscreenenter"",""0"",""5694""
","
","null","<p></p>","null","","","","","","","","","","","","","","","","","","","","","","","",""
"","do_trial","154","533951","0.0-86.0-0.0","""event"",""trial"",""time""
""fullscreenenter"",""0"",""5694""
","
","
","""event"",""trial"",""time""
""fullscreenenter"",""0"",""5694""
","
","885.0999999977648","","","","","","","","51","0,1,1","6","blank","297","null","0.20749719955210247","0.3324807701590131","0.5412387850424478","1","","","","","","","","",""
"","html-keyboard-response","155","534954","0.0-86.0-1.0","""event"",""trial"",""time""
""fullscreenenter"",""0"",""5694""
","
","
","""event"",""trial"",""time""
""fullscreenenter"",""0"",""5694""
","
","null","<p></p>","null","","","","","","","","","","","","","","","","","","","","","","","",""
"","do_trial","156","538274","0.0-87.0-0.0","""event"",""trial"",""time""
""fullscreenenter"",""0"",""5694""
","
","
","""event"",""trial"",""time""
""fullscreenenter"",""0"",""5694""
","
","757.1999999992549","","","","","","","","51","1,1,0","6","blank","298","null","0.18233597265123005","0.6208241982740432","0.26232857525719694","0","","","","","","","","",""
"","html-keyboard-response","157","539279","0.0-87.0-1.0","""event"",""trial"",""time""
""fullscreenenter"",""0"",""5694""
","
","
","""event"",""trial"",""time""
""fullscreenenter"",""0"",""5694""
","
","null","<p></p>","null","","","","","","","","","","","","","","","","","","","","","","","",""
"","do_trial","158","542479","0.0-88.0-0.0","""event"",""trial"",""time""
""fullscreenenter"",""0"",""5694""
","
","
","""event"",""trial"",""time""
""fullscreenenter"",""0"",""5694""
","
","634.3000000007451","","","","","","","","50","1,1,0","6","blank","299","null","0.26977416192767284","0.56844348841858","0.2594003047803016","1","","","","","","","","",""
"","html-keyboard-response","159","543482","0.0-88.0-1.0","""event"",""trial"",""time""
""fullscreenenter"",""0"",""5694""
","
","
","""event"",""trial"",""time""
""fullscreenenter"",""0"",""5694""
","
","null","<p></p>","null","","","","","","","","","","","","","","","","","","","","","","","",""
"","do_recog","160","546428","0.0-89.0-0.0","""event"",""trial"",""time""
""fullscreenenter"",""0"",""5694""
","
","
","""event"",""trial"",""time""
""fullscreenenter"",""0"",""5694""
","
","1437.800000000745","","","","","","","","56","","","","300","probe-107","","","","","1","[object Object]","74","1","0","","","",""
"","html-keyboard-response","161","547431","0.0-89.0-1.0","""event"",""trial"",""time""
""fullscreenenter"",""0"",""5694""
","
","
","""event"",""trial"",""time""
""fullscreenenter"",""0"",""5694""
","
","null","<p></p>","null","","","","","","","","","","","","","","","","","","","","","","","",""
"","do_trial","162","550990","0.0-90.0-0.0","""event"",""trial"",""time""
""fullscreenenter"",""0"",""5694""
","
","
","""event"",""trial"",""time""
""fullscreenenter"",""0"",""5694""
","
","993.6999999992549","","","","","","","","50","0,1,1","6","blank","301","null","0.1429810610437028","0.5746809294506449","0.3323832146072631","1","","","","","","","","",""
"","html-keyboard-response","163","551993","0.0-90.0-1.0","""event"",""trial"",""time""
""fullscreenenter"",""0"",""5694""
","
","
","""event"",""trial"",""time""
""fullscreenenter"",""0"",""5694""
","
","null","<p></p>","null","","","","","","","","","","","","","","","","","","","","","","","",""
"","do_trial","164","555355","0.0-91.0-0.0","""event"",""trial"",""time""
""fullscreenenter"",""0"",""5694""
","
","
","""event"",""trial"",""time""
""fullscreenenter"",""0"",""5694""
","
","796.8999999985099","","","","","","","","50","0,0,0","6","blank","302","null","0.16555961922214082","0.44789986131613574","0.17034940021512276","0","","","","","","","","",""
"","html-keyboard-response","165","556358","0.0-91.0-1.0","""event"",""trial"",""time""
""fullscreenenter"",""0"",""5694""
","
","
","""event"",""trial"",""time""
""fullscreenenter"",""0"",""5694""
","
","null","<p></p>","null","","","","","","","","","","","","","","","","","","","","","","","",""
"","do_trial","166","559245","0.0-92.0-0.0","""event"",""trial"",""time""
""fullscreenenter"",""0"",""5694""
","
","
","""event"",""trial"",""time""
""fullscreenenter"",""0"",""5694""
","
","322.5","","","","","","","","49","1,1,0","6","blank","303","null","0.09054184009727644","0.5245239507974601","0.11492026071026822","1","","","","","","","","",""
"","html-keyboard-response","167","560248","0.0-92.0-1.0","""event"",""trial"",""time""
""fullscreenenter"",""0"",""5694""
","
","
","""event"",""trial"",""time""
""fullscreenenter"",""0"",""5694""
","
","null","<p></p>","null","","","","","","","","","","","","","","","","","","","","","","","",""
"","do_trial","168","563095","0.0-93.0-0.0","""event"",""trial"",""time""
""fullscreenenter"",""0"",""5694""
","
","
","""event"",""trial"",""time""
""fullscreenenter"",""0"",""5694""
","
","283.3999999985099","","","","","","","","49","0,1,0","6","blank","304","null","0.19556632549181038","0.5383857987701289","0.07777991952663715","0","","","","","","","","",""
"","html-keyboard-response","169","564098","0.0-93.0-1.0","""event"",""trial"",""time""
""fullscreenenter"",""0"",""5694""
","
","
","""event"",""trial"",""time""
""fullscreenenter"",""0"",""5694""
","
","null","<p></p>","null","","","","","","","","","","","","","","","","","","","","","","","",""
"","do_trial","170","567563","0.0-94.0-0.0","""event"",""trial"",""time""
""fullscreenenter"",""0"",""5694""
","
","
","""event"",""trial"",""time""
""fullscreenenter"",""0"",""5694""
","
","902.6999999992549","","","","","","","","50","0,1,0","6","blank","305","null","0.1418557652324237","0.6495689739941142","0.09625112703505309","1","","","","","","","","",""
"","html-keyboard-response","171","568566","0.0-94.0-1.0","""event"",""trial"",""time""
""fullscreenenter"",""0"",""5694""
","
","
","""event"",""trial"",""time""
""fullscreenenter"",""0"",""5694""
","
","null","<p></p>","null","","","","","","","","","","","","","","","","","","","","","","","",""
"","do_trial","172","571831","0.0-95.0-0.0","""event"",""trial"",""time""
""fullscreenenter"",""0"",""5694""
","
","
","""event"",""trial"",""time""
""fullscreenenter"",""0"",""5694""
","
","702.5","","","","","","","","50","1,1,0","6","blank","306","null","0.34743691346597516","0.579427996825184","0.06460506231549906","1","","","","","","","","",""
"","html-keyboard-response","173","572834","0.0-95.0-1.0","""event"",""trial"",""time""
""fullscreenenter"",""0"",""5694""
","
","
","""event"",""trial"",""time""
""fullscreenenter"",""0"",""5694""
","
","null","<p></p>","null","","","","","","","","","","","","","","","","","","","","","","","",""
"","do_trial","174","576391","0.0-96.0-0.0","""event"",""trial"",""time""
""fullscreenenter"",""0"",""5694""
","
","
","""event"",""trial"",""time""
""fullscreenenter"",""0"",""5694""
","
","993.1999999992549","","","","","","","","50","0,0,1","6","blank","307","null","0.3915360883376135","0.6869693009200293","0.05722990627774846","0","","","","","","","","",""
"","html-keyboard-response","175","577394","0.0-96.0-1.0","""event"",""trial"",""time""
""fullscreenenter"",""0"",""5694""
","
","
","""event"",""trial"",""time""
""fullscreenenter"",""0"",""5694""
","
","null","<p></p>","null","","","","","","","","","","","","","","","","","","","","","","","",""
"","do_recog","176","580494","0.0-97.0-0.0","""event"",""trial"",""time""
""fullscreenenter"",""0"",""5694""
","
","
","""event"",""trial"",""time""
""fullscreenenter"",""0"",""5694""
","
","1588.5999999977648","","","","","","","","56","","","","308","probe-186","","","","","1","[object Object]","115","2","0","","","",""
"","html-keyboard-response","177","581497","0.0-97.0-1.0","""event"",""trial"",""time""
""fullscreenenter"",""0"",""5694""
","
","
","""event"",""trial"",""time""
""fullscreenenter"",""0"",""5694""
","
","null","<p></p>","null","","","","","","","","","","","","","","","","","","","","","","","",""
"","break","178","657886","0.0-98.0-0.0","""event"",""trial"",""time""
""fullscreenenter"",""0"",""5694""
","
","
","""event"",""trial"",""time""
""fullscreenenter"",""0"",""5694""
","
","76387.19999999925","<div class='center'><p>Time to take a quick break! You have 2 minutes to rest, but you can move on sooner if you'd like.</p><p> Press the <b>space bar</b> to continue.</p></div>","32","","","","","","","","","","","","","","","","","","","","","","","",""
"","do_trial","179","661619","0.0-98.0-1.0","""event"",""trial"",""time""
""fullscreenenter"",""0"",""5694""
","
","
","""event"",""trial"",""time""
""fullscreenenter"",""0"",""5694""
","
","1170.199999999255","","","","","","","","50","1,0,0","6","blank","309","null","0.2889175638221212","0.7208835990173031","0.05889953393526502","0","","","","","","","","",""
"","html-keyboard-response","180","662622","0.0-98.0-2.0","""event"",""trial"",""time""
""fullscreenenter"",""0"",""5694""
","
","
","""event"",""trial"",""time""
""fullscreenenter"",""0"",""5694""
","
","null","<p></p>","null","","","","","","","","","","","","","","","","","","","","","","","",""
"","do_recog","181","665701","0.0-99.0-0.0","""event"",""trial"",""time""
""fullscreenenter"",""0"",""5694""
","
","
","""event"",""trial"",""time""
""fullscreenenter"",""0"",""5694""
","
","1568.699999999255","","","","","","","","53","","","","310","probe-227","","","","","1","[object Object]","119","2","1","","","",""
"","html-keyboard-response","182","666704","0.0-99.0-1.0","""event"",""trial"",""time""
""fullscreenenter"",""0"",""5694""
","
","
","""event"",""trial"",""time""
""fullscreenenter"",""0"",""5694""
","
","null","<p></p>","null","","","","","","","","","","","","","","","","","","","","","","","",""
"","do_trial","183","670045","0.0-100.0-0.0","""event"",""trial"",""time""
""fullscreenenter"",""0"",""5694""
","
","
","""event"",""trial"",""time""
""fullscreenenter"",""0"",""5694""
","
","777.0999999977648","","","","","","","","49","1,1,0","6","blank","311","null","0.29721381530468693","0.735165760702791","0.05213928176183087","1","","","","","","","","",""
"","html-keyboard-response","184","671048","0.0-100.0-1.0","""event"",""trial"",""time""
""fullscreenenter"",""0"",""5694""
","
","
","""event"",""trial"",""time""
""fullscreenenter"",""0"",""5694""
","
","null","<p></p>","null","","","","","","","","","","","","","","","","","","","","","","","",""
"","do_recog","185","673964","0.0-101.0-0.0","""event"",""trial"",""time""
""fullscreenenter"",""0"",""5694""
","
","
","""event"",""trial"",""time""
""fullscreenenter"",""0"",""5694""
","
","1406.6000000014901","","","","","","","","56","","","","312","probe-04","","","","","1","[object Object]","112","2","0","","","",""
"","html-keyboard-response","186","674967","0.0-101.0-1.0","""event"",""trial"",""time""
""fullscreenenter"",""0"",""5694""
","
","
","""event"",""trial"",""time""
""fullscreenenter"",""0"",""5694""
","
","null","<p></p>","null","","","","","","","","","","","","","","","","","","","","","","","",""
"","do_trial","187","678683","0.0-102.0-0.0","""event"",""trial"",""time""
""fullscreenenter"",""0"",""5694""
","
","
","""event"",""trial"",""time""
""fullscreenenter"",""0"",""5694""
","
","1151.199999999255","","","","","","","","51","1,0,0","6","blank","313","null","0.5044680485083495","0.7610875274782464","0.1282994787616255","0","","","","","","","","",""
"","html-keyboard-response","188","679685","0.0-102.0-1.0","""event"",""trial"",""time""
""fullscreenenter"",""0"",""5694""
","
","
","""event"",""trial"",""time""
""fullscreenenter"",""0"",""5694""
","
","null","<p></p>","null","","","","","","","","","","","","","","","","","","","","","","","",""
"","do_trial","189","683073","0.0-103.0-0.0","""event"",""trial"",""time""
""fullscreenenter"",""0"",""5694""
","
","
","""event"",""trial"",""time""
""fullscreenenter"",""0"",""5694""
","
","823","","","","","","","","50","0,0,0","6","blank","314","null","0.4333446455576748","0.7210008173129465","0.16035673738794184","0","","","","","","","","",""
"","html-keyboard-response","190","684076","0.0-103.0-1.0","""event"",""trial"",""time""
""fullscreenenter"",""0"",""5694""
","
","
","""event"",""trial"",""time""
""fullscreenenter"",""0"",""5694""
","
","null","<p></p>","null","","","","","","","","","","","","","","","","","","","","","","","",""
"","do_trial","191","687518","0.0-104.0-0.0","""event"",""trial"",""time""
""fullscreenenter"",""0"",""5694""
","
","
","""event"",""trial"",""time""
""fullscreenenter"",""0"",""5694""
","
","878.5999999977648","","","","","","","","49","1,1,0","6","blank","315","null","0.3881073294206708","0.644791755875581","0.24229157956730746","1","","","","","","","","",""
"","html-keyboard-response","192","688521","0.0-104.0-1.0","""event"",""trial"",""time""
""fullscreenenter"",""0"",""5694""
","
","
","""event"",""trial"",""time""
""fullscreenenter"",""0"",""5694""
","
","null","<p></p>","null","","","","","","","","","","","","","","","","","","","","","","","",""
"","do_trial","193","691960","0.0-105.0-0.0","""event"",""trial"",""time""
""fullscreenenter"",""0"",""5694""
","
","
","""event"",""trial"",""time""
""fullscreenenter"",""0"",""5694""
","
","876.3999999985099","","","","","","","","49","0,1,0","6","blank","316","null","0.27728033052576084","0.6101334205690537","0.1913469916516368","0","","","","","","","","",""
"","html-keyboard-response","194","692963","0.0-105.0-1.0","""event"",""trial"",""time""
""fullscreenenter"",""0"",""5694""
","
","
","""event"",""trial"",""time""
""fullscreenenter"",""0"",""5694""
","
","null","<p></p>","null","","","","","","","","","","","","","","","","","","","","","","","",""
"","do_trial","195","695801","0.0-106.0-0.0","""event"",""trial"",""time""
""fullscreenenter"",""0"",""5694""
","
","
","""event"",""trial"",""time""
""fullscreenenter"",""0"",""5694""
","
","273.29999999701977","","","","","","","","50","1,0,0","6","blank","317","null","0.28247115318382066","0.45050990695961224","0.1113863116540536","0","","","","","","","","",""
"","html-keyboard-response","196","696804","0.0-106.0-1.0","""event"",""trial"",""time""
""fullscreenenter"",""0"",""5694""
","
","
","""event"",""trial"",""time""
""fullscreenenter"",""0"",""5694""
","
","null","<p></p>","null","","","","","","","","","","","","","","","","","","","","","","","",""
"","do_trial","197","700110","0.0-107.0-0.0","""event"",""trial"",""time""
""fullscreenenter"",""0"",""5694""
","
","
","""event"",""trial"",""time""
""fullscreenenter"",""0"",""5694""
","
","740.5","","","","","","","","51","0,1,0","6","blank","318","null","0.24975126049664123","0.5924493617602455","0.07607685537635522","0","","","","","","","","",""
"","html-keyboard-response","198","701112","0.0-107.0-1.0","""event"",""trial"",""time""
""fullscreenenter"",""0"",""5694""
","
","
","""event"",""trial"",""time""
""fullscreenenter"",""0"",""5694""
","
","null","<p></p>","null","","","","","","","","","","","","","","","","","","","","","","","",""
"","do_recog","199","703967","0.0-108.0-0.0","""event"",""trial"",""time""
""fullscreenenter"",""0"",""5694""
","
","
","""event"",""trial"",""time""
""fullscreenenter"",""0"",""5694""
","
","1344.300000000745","","","","","","","","56","","","","319","probe-122","","","","","1","[object Object]","154","3","0","","","",""
"","html-keyboard-response","200","704970","0.0-108.0-1.0","""event"",""trial"",""time""
""fullscreenenter"",""0"",""5694""
","
","
","""event"",""trial"",""time""
""fullscreenenter"",""0"",""5694""
","
","null","<p></p>","null","","","","","","","","","","","","","","","","","","","","","","","",""
"","do_trial","201","709066","0.0-109.0-0.0","""event"",""trial"",""time""
""fullscreenenter"",""0"",""5694""
","
","
","""event"",""trial"",""time""
""fullscreenenter"",""0"",""5694""
","
","1532.6000000014901","","","","","","","","50","0,0,0","6","blank","320","null","0.5527284864548168","0.5306682308101148","0.13833468864708728","0","","","","","","","","",""
"","html-keyboard-response","202","710068","0.0-109.0-1.0","""event"",""trial"",""time""
""fullscreenenter"",""0"",""5694""
","
","
","""event"",""trial"",""time""
""fullscreenenter"",""0"",""5694""
","
","null","<p></p>","null","","","","","","","","","","","","","","","","","","","","","","","",""
"","do_recog","203","713080","0.0-110.0-0.0","""event"",""trial"",""time""
""fullscreenenter"",""0"",""5694""
","
","
","""event"",""trial"",""time""
""fullscreenenter"",""0"",""5694""
","
","1500.4000000022352","","","","","","","","56","","","","321","probe-62","","","","","1","[object Object]","37","0","0","","","",""
"","html-keyboard-response","204","714084","0.0-110.0-1.0","""event"",""trial"",""time""
""fullscreenenter"",""0"",""5694""
","
","
","""event"",""trial"",""time""
""fullscreenenter"",""0"",""5694""
","
","null","<p></p>","null","","","","","","","","","","","","","","","","","","","","","","","",""
"","do_trial","205","717889","0.0-111.0-0.0","""event"",""trial"",""time""
""fullscreenenter"",""0"",""5694""
","
","
","""event"",""trial"",""time""
""fullscreenenter"",""0"",""5694""
","
","1239","","","","","","","","50","0,1,0","6","blank","322","null","0.5825126185166214","0.6809929836326319","0.15029413537179234","1","","","","","","","","",""
"","html-keyboard-response","206","718892","0.0-111.0-1.0","""event"",""trial"",""time""
""fullscreenenter"",""0"",""5694""
","
","
","""event"",""trial"",""time""
""fullscreenenter"",""0"",""5694""
","
","null","<p></p>","null","","","","","","","","","","","","","","","","","","","","","","","",""
"","do_trial","207","722408","0.0-112.0-0.0","""event"",""trial"",""time""
""fullscreenenter"",""0"",""5694""
","
","
","""event"",""trial"",""time""
""fullscreenenter"",""0"",""5694""
","
","949.8999999985099","","","","","","","","49","0,1,0","6","blank","323","null","0.5312341676477373","0.5988950301607109","0.20924214880152242","0","","","","","","","","",""
"","html-keyboard-response","208","723411","0.0-112.0-1.0","""event"",""trial"",""time""
""fullscreenenter"",""0"",""5694""
","
","
","""event"",""trial"",""time""
""fullscreenenter"",""0"",""5694""
","
","null","<p></p>","null","","","","","","","","","","","","","","","","","","","","","","","",""
"","do_trial","209","726703","0.0-113.0-0.0","""event"",""trial"",""time""
""fullscreenenter"",""0"",""5694""
","
","
","""event"",""trial"",""time""
""fullscreenenter"",""0"",""5694""
","
","727.1999999992549","","","","","","","","50","0,0,0","6","blank","324","null","0.3856924710324608","0.6885061995176196","0.1870843465345091","0","","","","","","","","",""
"","html-keyboard-response","210","727706","0.0-113.0-1.0","""event"",""trial"",""time""
""fullscreenenter"",""0"",""5694""
","
","
","""event"",""trial"",""time""
""fullscreenenter"",""0"",""5694""
","
","null","<p></p>","null","","","","","","","","","","","","","","","","","","","","","","","",""
"","do_trial","211","730699","0.0-114.0-0.0","""event"",""trial"",""time""
""fullscreenenter"",""0"",""5694""
","
","
","""event"",""trial"",""time""
""fullscreenenter"",""0"",""5694""
","
","428.19999999925494","","","","","","","","51","1,0,0","6","blank","325","null","0.4079649492357521","0.5407543037768546","0.14015281023068787","0","","","","","","","","",""
"","html-keyboard-response","212","731702","0.0-114.0-1.0","""event"",""trial"",""time""
""fullscreenenter"",""0"",""5694""
","
","
","""event"",""trial"",""time""
""fullscreenenter"",""0"",""5694""
","
","null","<p></p>","null","","","","","","","","","","","","","","","","","","","","","","","",""
"","do_trial","213","735173","0.0-115.0-0.0","""event"",""trial"",""time""
""fullscreenenter"",""0"",""5694""
","
","
","""event"",""trial"",""time""
""fullscreenenter"",""0"",""5694""
","
","906.5999999977648","","","","","","","","49","0,1,0","6","blank","326","null","0.35802873150081377","0.7126047937481306","0.10963046230850043","0","","","","","","","","",""
"","html-keyboard-response","214","736176","0.0-115.0-1.0","""event"",""trial"",""time""
""fullscreenenter"",""0"",""5694""
","
","
","""event"",""trial"",""time""
""fullscreenenter"",""0"",""5694""
","
","null","<p></p>","null","","","","","","","","","","","","","","","","","","","","","","","",""
"","do_trial","215","739468","0.0-116.0-0.0","""event"",""trial"",""time""
""fullscreenenter"",""0"",""5694""
","
","
","""event"",""trial"",""time""
""fullscreenenter"",""0"",""5694""
","
","727","","","","","","","","50","0,0,0","6","blank","327","null","0.246043829490663","0.6566986858960084","0.09295704339898071","0","","","","","","","","",""
"","html-keyboard-response","216","740470","0.0-116.0-1.0","""event"",""trial"",""time""
""fullscreenenter"",""0"",""5694""
","
","
","""event"",""trial"",""time""
""fullscreenenter"",""0"",""5694""
","
","null","<p></p>","null","","","","","","","","","","","","","","","","","","","","","","","",""
"","do_recog","217","743550","0.0-117.0-0.0","""event"",""trial"",""time""
""fullscreenenter"",""0"",""5694""
","
","
","""event"",""trial"",""time""
""fullscreenenter"",""0"",""5694""
","
","1569.5","","","","","","","","53","","","","328","probe-198","","","","","1","[object Object]","196","4","1","","","",""
"","html-keyboard-response","218","744553","0.0-117.0-1.0","""event"",""trial"",""time""
""fullscreenenter"",""0"",""5694""
","
","
","""event"",""trial"",""time""
""fullscreenenter"",""0"",""5694""
","
","null","<p></p>","null","","","","","","","","","","","","","","","","","","","","","","","",""
"","do_trial","219","748031","0.0-118.0-0.0","""event"",""trial"",""time""
""fullscreenenter"",""0"",""5694""
","
","
","""event"",""trial"",""time""
""fullscreenenter"",""0"",""5694""
","
","913.8000000007451","","","","","","","","51","0,1,0","6","blank","329","null","0.21675805678497184","0.5926149268307207","0.10819030410555297","0","","","","","","","","",""
"","html-keyboard-response","220","749034","0.0-118.0-1.0","""event"",""trial"",""time""
""fullscreenenter"",""0"",""5694""
","
","
","""event"",""trial"",""time""
""fullscreenenter"",""0"",""5694""
","
","null","<p></p>","null","","","","","","","","","","","","","","","","","","","","","","","",""
"","do_recog","221","751976","0.0-119.0-0.0","""event"",""trial"",""time""
""fullscreenenter"",""0"",""5694""
","
","
","""event"",""trial"",""time""
""fullscreenenter"",""0"",""5694""
","
","1432.8999999985099","","","","","","","","53","","","","330","probe-180","","","","","1","[object Object]","30","0","1","","","",""
"","html-keyboard-response","222","752979","0.0-119.0-1.0","""event"",""trial"",""time""
""fullscreenenter"",""0"",""5694""
","
","
","""event"",""trial"",""time""
""fullscreenenter"",""0"",""5694""
","
","null","<p></p>","null","","","","","","","","","","","","","","","","","","","","","","","",""
"","do_trial","223","756386","0.0-120.0-0.0","""event"",""trial"",""time""
""fullscreenenter"",""0"",""5694""
","
","
","""event"",""trial"",""time""
""fullscreenenter"",""0"",""5694""
","
","842.4000000022352","","","","","","","","49","0,1,0","6","blank","331","null","0.2057602973409005","0.5992600413124823","0.11006530886378674","0","","","","","","","","",""
"","html-keyboard-response","224","757389","0.0-120.0-1.0","""event"",""trial"",""time""
""fullscreenenter"",""0"",""5694""
","
","
","""event"",""trial"",""time""
""fullscreenenter"",""0"",""5694""
","
","null","<p></p>","null","","","","","","","","","","","","","","","","","","","","","","","",""
"","do_trial","225","760327","0.0-121.0-0.0","""event"",""trial"",""time""
""fullscreenenter"",""0"",""5694""
","
","
","""event"",""trial"",""time""
""fullscreenenter"",""0"",""5694""
","
","373.9000000022352","","","","","","","","50","1,1,0","6","blank","332","null","0.2729034398170287","0.5843881838655961","0.10376979024800533","1","","","","","","","","",""
"","html-keyboard-response","226","761330","0.0-121.0-1.0","""event"",""trial"",""time""
""fullscreenenter"",""0"",""5694""
","
","
","""event"",""trial"",""time""
""fullscreenenter"",""0"",""5694""
","
","null","<p></p>","null","","","","","","","","","","","","","","","","","","","","","","","",""
"","do_trial","227","764184","0.0-122.0-0.0","""event"",""trial"",""time""
""fullscreenenter"",""0"",""5694""
","
","
","""event"",""trial"",""time""
""fullscreenenter"",""0"",""5694""
","
","289.1000000014901","","","","","","","","50","0,1,0","6","blank","333","null","0.30823396476307746","0.563302255456725","0.1633837903546323","1","","","","","","","","",""
"","html-keyboard-response","228","765187","0.0-122.0-1.0","""event"",""trial"",""time""
""fullscreenenter"",""0"",""5694""
","
","
","""event"",""trial"",""time""
""fullscreenenter"",""0"",""5694""
","
","null","<p></p>","null","","","","","","","","","","","","","","","","","","","","","","","",""
"","do_trial","229","768236","0.0-123.0-0.0","""event"",""trial"",""time""
""fullscreenenter"",""0"",""5694""
","
","
","""event"",""trial"",""time""
""fullscreenenter"",""0"",""5694""
","
","483.5999999977648","","","","","","","","50","0,1,0","6","blank","334","null","0.16062403824181384","0.6167942301775882","0.26985977113841325","1","","","","","","","","",""
"","html-keyboard-response","230","769238","0.0-123.0-1.0","""event"",""trial"",""time""
""fullscreenenter"",""0"",""5694""
","
","
","""event"",""trial"",""time""
""fullscreenenter"",""0"",""5694""
","
","null","<p></p>","null","","","","","","","","","","","","","","","","","","","","","","","",""
"","do_trial","231","772407","0.0-124.0-0.0","""event"",""trial"",""time""
""fullscreenenter"",""0"",""5694""
","
","
","""event"",""trial"",""time""
""fullscreenenter"",""0"",""5694""
","
","605.7000000029802","","","","","","","","50","0,1,0","6","blank","335","null","0.20123997745919306","0.6345082409832845","0.20131725959323496","1","","","","","","","","",""
"","html-keyboard-response","232","773409","0.0-124.0-1.0","""event"",""trial"",""time""
""fullscreenenter"",""0"",""5694""
","
","
","""event"",""trial"",""time""
""fullscreenenter"",""0"",""5694""
","
","null","<p></p>","null","","","","","","","","","","","","","","","","","","","","","","","",""
"","do_recog","233","776551","0.0-125.0-0.0","""event"",""trial"",""time""
""fullscreenenter"",""0"",""5694""
","
","
","""event"",""trial"",""time""
""fullscreenenter"",""0"",""5694""
","
","1631.5","","","","","","","","53","","","","336","probe-238","","","","","0","[object Object]","null","null","0","","","",""
"","html-keyboard-response","234","777553","0.0-125.0-1.0","""event"",""trial"",""time""
""fullscreenenter"",""0"",""5694""
","
","
","""event"",""trial"",""time""
""fullscreenenter"",""0"",""5694""
","
","null","<p></p>","null","","","","","","","","","","","","","","","","","","","","","","","",""
"","do_trial","235","781031","0.0-126.0-0.0","""event"",""trial"",""time""
""fullscreenenter"",""0"",""5694""
","
","
","""event"",""trial"",""time""
""fullscreenenter"",""0"",""5694""
","
","912.6999999992549","","","","","","","","49","1,0,0","6","blank","337","null","0.17580227523178013","0.5911814809149614","0.07743985658880624","1","","","","","","","","",""
"","html-keyboard-response","236","782033","0.0-126.0-1.0","""event"",""trial"",""time""
""fullscreenenter"",""0"",""5694""
","
","
","""event"",""trial"",""time""
""fullscreenenter"",""0"",""5694""
","
","null","<p></p>","null","","","","","","","","","","","","","","","","","","","","","","","",""
"","do_trial","237","786107","0.0-127.0-0.0","""event"",""trial"",""time""
""fullscreenenter"",""0"",""5694""
","
","
","""event"",""trial"",""time""
""fullscreenenter"",""0"",""5694""
","
","1511.199999999255","","","","","","","","49","0,0,0","6","blank","338","null","0.17712983220857595","0.5510873907545384","0.11029100650551389","0","","","","","","","","",""
"","html-keyboard-response","238","787109","0.0-127.0-1.0","""event"",""trial"",""time""
""fullscreenenter"",""0"",""5694""
","
","
","""event"",""trial"",""time""
""fullscreenenter"",""0"",""5694""
","
","null","<p></p>","null","","","","","","","","","","","","","","","","","","","","","","","",""
"","do_recog","239","789979","0.0-128.0-0.0","""event"",""trial"",""time""
""fullscreenenter"",""0"",""5694""
","
","
","""event"",""trial"",""time""
""fullscreenenter"",""0"",""5694""
","
","1359.2999999970198","","","","","","","","56","","","","339","probe-160","","","","","1","[object Object]","156","3","0","","","",""
"","html-keyboard-response","240","790982","0.0-128.0-1.0","""event"",""trial"",""time""
""fullscreenenter"",""0"",""5694""
","
","
","""event"",""trial"",""time""
""fullscreenenter"",""0"",""5694""
","
","null","<p></p>","null","","","","","","","","","","","","","","","","","","","","","","","",""
"","do_trial","241","794685","0.0-129.0-0.0","""event"",""trial"",""time""
""fullscreenenter"",""0"",""5694""
","
","
","""event"",""trial"",""time""
""fullscreenenter"",""0"",""5694""
","
","1141.5999999977648","","","","","","","","50","1,0,0","6","blank","340","null","0.17192604070072598","0.687847974274463","0.07695525691613089","0","","","","","","","","",""
"","html-keyboard-response","242","795689","0.0-129.0-1.0","""event"",""trial"",""time""
""fullscreenenter"",""0"",""5694""
","
","
","""event"",""trial"",""time""
""fullscreenenter"",""0"",""5694""
","
","null","<p></p>","null","","","","","","","","","","","","","","","","","","","","","","","",""
"","do_trial","243","798596","0.0-130.0-0.0","""event"",""trial"",""time""
""fullscreenenter"",""0"",""5694""
","
","
","""event"",""trial"",""time""
""fullscreenenter"",""0"",""5694""
","
","332.80000000074506","","","","","","","","51","0,1,0","6","blank","341","null","0.14375837207141348","0.5424593719780215","0.12097598317284775","0","","","","","","","","",""
"","html-keyboard-response","244","799598","0.0-130.0-1.0","""event"",""trial"",""time""
""fullscreenenter"",""0"",""5694""
","
","
","""event"",""trial"",""time""
""fullscreenenter"",""0"",""5694""
","
","null","<p></p>","null","","","","","","","","","","","","","","","","","","","","","","","",""
"","do_trial","245","802937","0.0-131.0-0.0","""event"",""trial"",""time""
""fullscreenenter"",""0"",""5694""
","
","
","""event"",""trial"",""time""
""fullscreenenter"",""0"",""5694""
","
","776.5999999977648","","","","","","","","49","0,1,0","6","blank","342","null","0.2757079478947242","0.671379478565709","0.08918573669186584","0","","","","","","","","",""
"","html-keyboard-response","246","803939","0.0-131.0-1.0","""event"",""trial"",""time""
""fullscreenenter"",""0"",""5694""
","
","
","""event"",""trial"",""time""
""fullscreenenter"",""0"",""5694""
","
","null","<p></p>","null","","","","","","","","","","","","","","","","","","","","","","","",""
"","do_trial","247","806805","0.0-132.0-0.0","""event"",""trial"",""time""
""fullscreenenter"",""0"",""5694""
","
","
","""event"",""trial"",""time""
""fullscreenenter"",""0"",""5694""
","
","301.4000000022352","","","","","","","","50","0,1,0","6","blank","343","null","0.25377873349096314","0.7610339386918081","0.16652604332555906","1","","","","","","","","",""
"","html-keyboard-response","248","807808","0.0-132.0-1.0","""event"",""trial"",""time""
""fullscreenenter"",""0"",""5694""
","
","
","""event"",""trial"",""time""
""fullscreenenter"",""0"",""5694""
","
","null","<p></p>","null","","","","","","","","","","","","","","","","","","","","","","","",""
"","do_trial","249","810740","0.0-133.0-0.0","""event"",""trial"",""time""
""fullscreenenter"",""0"",""5694""
","
","
","""event"",""trial"",""time""
""fullscreenenter"",""0"",""5694""
","
","366.69999999925494","","","","","","","","50","0,1,0","6","blank","344","null","0.2603942378198717","0.7621586213808772","0.2948939517583633","1","","","","","","","","",""
"","html-keyboard-response","250","811742","0.0-133.0-1.0","""event"",""trial"",""time""
""fullscreenenter"",""0"",""5694""
","
","
","""event"",""trial"",""time""
""fullscreenenter"",""0"",""5694""
","
","null","<p></p>","null","","","","","","","","","","","","","","","","","","","","","","","",""
"","do_trial","251","814985","0.0-134.0-0.0","""event"",""trial"",""time""
""fullscreenenter"",""0"",""5694""
","
","
","""event"",""trial"",""time""
""fullscreenenter"",""0"",""5694""
","
","679.6999999992549","","","","","","","","50","0,0,0","6","blank","345","null","0.30775735692341727","0.6424696580851185","0.16346532396984578","0","","","","","","","","",""
"","html-keyboard-response","252","815987","0.0-134.0-1.0","""event"",""trial"",""time""
""fullscreenenter"",""0"",""5694""
","
","
","""event"",""trial"",""time""
""fullscreenenter"",""0"",""5694""
","
","null","<p></p>","null","","","","","","","","","","","","","","","","","","","","","","","",""
"","do_trial","253","818885","0.0-135.0-0.0","""event"",""trial"",""time""
""fullscreenenter"",""0"",""5694""
","
","
","""event"",""trial"",""time""
""fullscreenenter"",""0"",""5694""
","
","332.5","","","","","","","","51","0,1,0","6","blank","346","null","0.21010748305884844","0.557308541345866","0.09255617974866319","0","","","","","","","","",""
"","html-keyboard-response","254","819888","0.0-135.0-1.0","""event"",""trial"",""time""
""fullscreenenter"",""0"",""5694""
","
","
","""event"",""trial"",""time""
""fullscreenenter"",""0"",""5694""
","
","null","<p></p>","null","","","","","","","","","","","","","","","","","","","","","","","",""
"","do_recog","255","822930","0.0-136.0-0.0","""event"",""trial"",""time""
""fullscreenenter"",""0"",""5694""
","
","
","""event"",""trial"",""time""
""fullscreenenter"",""0"",""5694""
","
","1533","","","","","","","","56","","","","347","probe-243","","","","","0","[object Object]","null","null","1","","","",""
"","html-keyboard-response","256","823932","0.0-136.0-1.0","""event"",""trial"",""time""
""fullscreenenter"",""0"",""5694""
","
","
","""event"",""trial"",""time""
""fullscreenenter"",""0"",""5694""
","
","null","<p></p>","null","","","","","","","","","","","","","","","","","","","","","","","",""
"","do_trial","257","827805","0.0-137.0-0.0","""event"",""trial"",""time""
""fullscreenenter"",""0"",""5694""
","
","
","""event"",""trial"",""time""
""fullscreenenter"",""0"",""5694""
","
","1308","","","","","","","","50","0,0,0","6","blank","348","null","0.21012894427086462","0.3856295190796138","0.3745521953035923","0","","","","","","","","",""
"","html-keyboard-response","258","828807","0.0-137.0-1.0","""event"",""trial"",""time""
""fullscreenenter"",""0"",""5694""
","
","
","""event"",""trial"",""time""
""fullscreenenter"",""0"",""5694""
","
","null","<p></p>","null","","","","","","","","","","","","","","","","","","","","","","","",""
"","break","259","948810","0.0-138.0-0.0","""event"",""trial"",""time""
""fullscreenenter"",""0"",""5694""
","
","
","""event"",""trial"",""time""
""fullscreenenter"",""0"",""5694""
","
","null","<div class='center'><p>Time to take a quick break! You have 2 minutes to rest, but you can move on sooner if you'd like.</p><p> Press the <b>space bar</b> to continue.</p></div>","null","","","","","","","","","","","","","","","","","","","","","","","",""
"","do_recog","260","953100","0.0-138.0-1.0","""event"",""trial"",""time""
""fullscreenenter"",""0"",""5694""
","
","
","""event"",""trial"",""time""
""fullscreenenter"",""0"",""5694""
","
","2780","","","","","","","","56","","","","349","probe-132","","","","","1","[object Object]","113","2","0","","","",""
"","html-keyboard-response","261","954102","0.0-138.0-2.0","""event"",""trial"",""time""
""fullscreenenter"",""0"",""5694""
","
","
","""event"",""trial"",""time""
""fullscreenenter"",""0"",""5694""
","
","null","<p></p>","null","","","","","","","","","","","","","","","","","","","","","","","",""
"","do_trial","262","957451","0.0-139.0-0.0","""event"",""trial"",""time""
""fullscreenenter"",""0"",""5694""
","
","
","""event"",""trial"",""time""
""fullscreenenter"",""0"",""5694""
","
","782.6000000014901","","","","","","","","50","0,0,1","6","blank","350","null","0.10181668328007941","0.4184249457482698","0.5044267330159781","0","","","","","","","","",""
"","html-keyboard-response","263","958453","0.0-139.0-1.0","""event"",""trial"",""time""
""fullscreenenter"",""0"",""5694""
","
","
","""event"",""trial"",""time""
""fullscreenenter"",""0"",""5694""
","
","null","<p></p>","null","","","","","","","","","","","","","","","","","","","","","","","",""
"","do_trial","264","961786","0.0-140.0-0.0","""event"",""trial"",""time""
""fullscreenenter"",""0"",""5694""
","
","
","""event"",""trial"",""time""
""fullscreenenter"",""0"",""5694""
","
","766.4000000022352","","","","","","","","49","0,0,1","6","blank","351","null","0.2074640129859105","0.2934738523236243","0.5054518029151401","0","","","","","","","","",""
"","html-keyboard-response","265","962788","0.0-140.0-1.0","""event"",""trial"",""time""
""fullscreenenter"",""0"",""5694""
","
","
","""event"",""trial"",""time""
""fullscreenenter"",""0"",""5694""
","
","null","<p></p>","null","","","","","","","","","","","","","","","","","","","","","","","",""
"","do_recog","266","965599","0.0-141.0-0.0","""event"",""trial"",""time""
""fullscreenenter"",""0"",""5694""
","
","
","""event"",""trial"",""time""
""fullscreenenter"",""0"",""5694""
","
","1298.800000000745","","","","","","","","53","","","","352","probe-158","","","","","1","[object Object]","71","1","1","","","",""
"","html-keyboard-response","267","966601","0.0-141.0-1.0","""event"",""trial"",""time""
""fullscreenenter"",""0"",""5694""
","
","
","""event"",""trial"",""time""
""fullscreenenter"",""0"",""5694""
","
","null","<p></p>","null","","","","","","","","","","","","","","","","","","","","","","","",""
"","do_trial","268","969975","0.0-142.0-0.0","""event"",""trial"",""time""
""fullscreenenter"",""0"",""5694""
","
","
","""event"",""trial"",""time""
""fullscreenenter"",""0"",""5694""
","
","809.4000000022352","","","","","","","","49","0,0,0","6","blank","353","null","0.259469103909409","0.23391289170968677","0.4899877331623619","0","","","","","","","","",""
"","html-keyboard-response","269","970977","0.0-142.0-1.0","""event"",""trial"",""time""
""fullscreenenter"",""0"",""5694""
","
","
","""event"",""trial"",""time""
""fullscreenenter"",""0"",""5694""
","
","null","<p></p>","null","","","","","","","","","","","","","","","","","","","","","","","",""
"","do_trial","270","973895","0.0-143.0-0.0","""event"",""trial"",""time""
""fullscreenenter"",""0"",""5694""
","
","
","""event"",""trial"",""time""
""fullscreenenter"",""0"",""5694""
","
","351","","","","","","","","51","1,0,0","6","blank","354","null","0.19647776540117615","0.4239919579741038","0.48592396224531104","0","","","","","","","","",""
"","html-keyboard-response","271","974898","0.0-143.0-1.0","""event"",""trial"",""time""
""fullscreenenter"",""0"",""5694""
","
","
","""event"",""trial"",""time""
""fullscreenenter"",""0"",""5694""
","
","null","<p></p>","null","","","","","","","","","","","","","","","","","","","","","","","",""
"","do_trial","272","977796","0.0-144.0-0.0","""event"",""trial"",""time""
""fullscreenenter"",""0"",""5694""
","
","
","""event"",""trial"",""time""
""fullscreenenter"",""0"",""5694""
","
","332.9000000022352","","","","","","","","50","0,0,1","6","blank","355","null","0.12014723497682997","0.25538252692723046","0.4226481154335828","0","","","","","","","","",""
"","html-keyboard-response","273","978798","0.0-144.0-1.0","""event"",""trial"",""time""
""fullscreenenter"",""0"",""5694""
","
","
","""event"",""trial"",""time""
""fullscreenenter"",""0"",""5694""
","
","null","<p></p>","null","","","","","","","","","","","","","","","","","","","","","","","",""
"","do_recog","274","981985","0.0-145.0-0.0","""event"",""trial"",""time""
""fullscreenenter"",""0"",""5694""
","
","
","""event"",""trial"",""time""
""fullscreenenter"",""0"",""5694""
","
","1676.699999999255","","","","","","","","56","","","","356","probe-179","","","","","1","[object Object]","197","4","0","","","",""
"","html-keyboard-response","275","982988","0.0-145.0-1.0","""event"",""trial"",""time""
""fullscreenenter"",""0"",""5694""
","
","
","""event"",""trial"",""time""
""fullscreenenter"",""0"",""5694""
","
","null","<p></p>","null","","","","","","","","","","","","","","","","","","","","","","","",""
"","do_trial","276","986184","0.0-146.0-0.0","""event"",""trial"",""time""
""fullscreenenter"",""0"",""5694""
","
","
","""event"",""trial"",""time""
""fullscreenenter"",""0"",""5694""
","
","631.9000000022352","","","","","","","","50","0,0,1","6","blank","357","null","0.16356005822316025","0.3277077958379339","0.49762684256213036","0","","","","","","","","",""
"","html-keyboard-response","277","987186","0.0-146.0-1.0","""event"",""trial"",""time""
""fullscreenenter"",""0"",""5694""
","
","
","""event"",""trial"",""time""
""fullscreenenter"",""0"",""5694""
","
