"success","trial_type","trial_index","time_elapsed","internal_node_id","interactions","blur_events","focus_events","fullscreenenter_events","fullscreenexit_events","rt","stimulus","key_press","subject_id","participant_id","age","gender","prompt","response","choice_outcomes","context_n","context_img_id","trial_n","probe_img_id","pR_red","pR_white","pR_black","outcome","is_valid","image_to_show","probed_trial","probed_context","correct","probe","probed_trial_n","probed_context_n","context_im"
"true","fullscreen","0","3399","0.0-0.0","""event"",""trial"",""time""
""fullscreenenter"",""0"",""2405""
","
","
","""event"",""trial"",""time""
""fullscreenenter"",""0"",""2405""
","
","","","","","","","","","","","","","","","","","","","","","","","","","","",""
"","pavlovia","1","3402","0.0-1.0","""event"",""trial"",""time""
""fullscreenenter"",""0"",""2405""
","
","
","""event"",""trial"",""time""
""fullscreenenter"",""0"",""2405""
","
","","","","","","","","","","","","","","","","","","","","","","","","","","",""
"","welc_back","2","13225","0.0-2.0","""event"",""trial"",""time""
""fullscreenenter"",""0"",""2405""
","
","
","""event"",""trial"",""time""
""fullscreenenter"",""0"",""2405""
","
","null","run_exp/static/audio/clip_29_welcome_back.m4a","null","1743","1811","20","Male","<div class='center'><p>Welcome to day 2!</p><p> Yesterday, you were the head captain of a pirate ship. You asked your fellow pirates to rob other ships of their gold across six different islands.</p></div>","","","","","","","","","","","","","","","","","","",""
"","html-keyboard-response","3","15663","0.0-3.0","""event"",""trial"",""time""
""fullscreenenter"",""0"",""2405""
","
","
","""event"",""trial"",""time""
""fullscreenenter"",""0"",""2405""
","
","2437.100000023842","<div class='center'><p>Welcome to day 2!</p><p> Yesterday, you were the head captain of a pirate ship. You asked your fellow pirates to rob other ships of their gold across six different islands.</p><p><b>[Press the space bar to continue]</b></p></div>","32","","","","","","","","","","","","","","","","","","","","","","","",""
"","day_1_summary_goal","4","32915","0.0-4.0","""event"",""trial"",""time""
""fullscreenenter"",""0"",""2405""
","
","
","""event"",""trial"",""time""
""fullscreenenter"",""0"",""2405""
","
","null","run_exp/static/audio/clip_30_goal_of_game.m4a","null","","","","","<div class='center'><p>Today, like yesterday, you get to pick which pirate you want to rob the next ship.</p><p>If the pirate is successful in robbing a ship, you get gold coins that look like this: </p><p><img src='run_exp/static/images/tutorial/reward.png' height='150'></p><p> If they were not successful in robbing the ship, then you will get no gold coins and you'll see a big red x like this: </p><p><img src='run_exp/static/images/tutorial/reward_no.png' height='150'></p></div>","","","","","","","","","","","","","","","","","","",""
"","html-keyboard-response","5","38172","0.0-5.0","""event"",""trial"",""time""
""fullscreenenter"",""0"",""2405""
","
","
","""event"",""trial"",""time""
""fullscreenenter"",""0"",""2405""
","
","5255.600000023842","<div class='center'><p>Today, like yesterday, you get to pick which pirate you want to rob the next ship.</p><p>If the pirate is successful in robbing a ship, you get gold coins that look like this: </p><p><img src='run_exp/static/images/tutorial/reward.png' height='150'></p><p> If they were not successful in robbing the ship, then you will get no gold coins and you'll see a big red x like this: </p><p><img src='run_exp/static/images/tutorial/reward_no.png' height='150'></p><p><b>[Press the space bar to continue]</b></p></div>","32","","","","","","","","","","","","","","","","","","","","","","","",""
"","day_1_summary_pick","6","52908","0.0-6.0","""event"",""trial"",""time""
""fullscreenenter"",""0"",""2405""
","
","
","""event"",""trial"",""time""
""fullscreenenter"",""0"",""2405""
","
","null","run_exp/static/audio/clip_31_how_to_pick_a_pirate.m4a","null","","","","","<div class='center'><p>Also, just like yesterday, you will use the 1,2,3 keys on your keyboard to pick a pirate. Press '1' to choose red beard, '2' to choose white beard, and '3' to choose black beard . You only have 3 seconds to pick a pirate, so please make a choice quickly!</p></div>","","","","","","","","","","","","","","","","","","",""
"","html-keyboard-response","7","54250","0.0-7.0","""event"",""trial"",""time""
""fullscreenenter"",""0"",""2405""
","
","
","""event"",""trial"",""time""
""fullscreenenter"",""0"",""2405""
","
","1340.6000000238419","<div class='center'><p>Also, just like yesterday, you will use the 1,2,3 keys on your keyboard to pick a pirate. Press '1' to choose red beard, '2' to choose white beard, and '3' to choose black beard . You only have 3 seconds to pick a pirate, so please make a choice quickly!</p><p><b>[Press the space bar to continue]</b></p></div>","32","","","","","","","","","","","","","","","","","","","","","","","",""
"","test_phase_begin","8","84673","0.0-8.0","""event"",""trial"",""time""
""fullscreenenter"",""0"",""2405""
","
","
","""event"",""trial"",""time""
""fullscreenenter"",""0"",""2405""
","
","null","run_exp/static/audio/clip_32_final_place.m4a","null","","","","","<div class='center'><p>You’ve arrived at the final island of your journey! Unfortunately, it’s very foggy out, so you won’t be able to see it in the distance like the other islands you've visited.</p><p>You’ll still be deciding which pirate you want to rob a ship like before. However, because of the fog, you also won’t be able to see the ship.</p><p>This means you do not have to remember the ships you rob on this island.</p><p>Unlike yesterday, you won't be visiting multiple islands today. You will stay on this island for the entire game. This game will last ~30 minutes.</p></div>","","","","","","","","","","","","","","","","","","",""
"","html-keyboard-response","9","87962","0.0-9.0","""event"",""trial"",""time""
""fullscreenenter"",""0"",""2405""
","
","
","""event"",""trial"",""time""
""fullscreenenter"",""0"",""2405""
","
","3288","<div class='center'><p>You’ve arrived at the final island of your journey! Unfortunately, it’s very foggy out, so you won’t be able to see it in the distance like the other islands you've visited.</p><p>You’ll still be deciding which pirate you want to rob a ship like before. However, because of the fog, you also won’t be able to see the ship.</p><p>This means you do not have to remember the ships you rob on this island.</p><p>Unlike yesterday, you won't be visiting multiple islands today. You will stay on this island for the entire game. This game will last ~30 minutes.</p><p><b>[Press the space bar to continue]</b></p></div>","32","","","","","","","","","","","","","","","","","","","","","","","",""
"","explain_probe_1","10","95726","0.0-10.0","""event"",""trial"",""time""
""fullscreenenter"",""0"",""2405""
","
","
","""event"",""trial"",""time""
""fullscreenenter"",""0"",""2405""
","
","null","run_exp/static/audio/clip_33_recognition_1.m4a","null","","","","","<div class='center'><p> Sometimes you’ll be shown a ship, and you will be asked if you saw this ship on a past island.</p><p> Here is an example of what you will see.</p><p><img src='run_exp/static/images/tutorial/example_recog_trial.png' height='500'></p></div>","","","","","","","","","","","","","","","","","","",""
"","html-keyboard-response","11","98069","0.0-11.0","""event"",""trial"",""time""
""fullscreenenter"",""0"",""2405""
","
","
","""event"",""trial"",""time""
""fullscreenenter"",""0"",""2405""
","
","2341.600000023842","<div class='center'><p> Sometimes you’ll be shown a ship, and you will be asked if you saw this ship on a past island.</p><p> Here is an example of what you will see.</p><p><img src='run_exp/static/images/tutorial/example_recog_trial.png' height='500'></p><p><b>[Press the space bar to continue]</b></p></div>","32","","","","","","","","","","","","","","","","","","","","","","","",""
"","explain_probe_2","12","119829","0.0-12.0","""event"",""trial"",""time""
""fullscreenenter"",""0"",""2405""
","
","
","""event"",""trial"",""time""
""fullscreenenter"",""0"",""2405""
","
","null","run_exp/static/audio/clip_34_recognition_2.m4a","null","","","","","<div class='center'><p> You will press the 5, 6, 7, 8 keys on your keyboard to respond.</p><p>If you are sure you saw the ship, press <b>5</b> on your keyboard.</p><p> If you think you saw it before but aren't sure, then press <b>6</b>.</p><p> If you think you have <b>not</b> seen it before but aren't sure, then press <b>7</b>.</p><p> If you are sure you did <b>not</b> see the ship before, then press <b>8</b>.</p><p><img src='run_exp/static/images/tutorial/example_recog_trial.png' height='500'></p></div>","","","","","","","","","","","","","","","","","","",""
"","html-keyboard-response","13","121785","0.0-13.0","""event"",""trial"",""time""
""fullscreenenter"",""0"",""2405""
","
","
","""event"",""trial"",""time""
""fullscreenenter"",""0"",""2405""
","
","1955.0999999046326","<div class='center'><p> You will press the 5, 6, 7, 8 keys on your keyboard to respond.</p><p>If you are sure you saw the ship, press <b>5</b> on your keyboard.</p><p> If you think you saw it before but aren't sure, then press <b>6</b>.</p><p> If you think you have <b>not</b> seen it before but aren't sure, then press <b>7</b>.</p><p> If you are sure you did <b>not</b> see the ship before, then press <b>8</b>.</p><p><img src='run_exp/static/images/tutorial/example_recog_trial.png' height='500'></p><p><b>[Press the space bar to continue]</b></p></div>","32","","","","","","","","","","","","","","","","","","","","","","","",""
"","explain_outcome","14","139032","0.0-14.0","""event"",""trial"",""time""
""fullscreenenter"",""0"",""2405""
","
","
","""event"",""trial"",""time""
""fullscreenenter"",""0"",""2405""
","
","null","run_exp/static/audio/clip_35_recognition_3.m4a","null","","","","","<div class='center'><p> If you remember correctly, then you’ll get a gold coin like this: </p><p><img src='run_exp/static/images/tutorial/reward_small.png' height='200'></p><p>If you do not remember correctly, then you'll see a red x like this: </p><p><img src='run_exp/static/images/tutorial/reward_no.png' height='200'></p><p>Importantly, when you are shown a ship, take the time to remind yourself which island you saw it on. This will help you in the next part of the study.</p></div>","","","","","","","","","","","","","","","","","","",""
"","html-keyboard-response","15","140246","0.0-15.0","""event"",""trial"",""time""
""fullscreenenter"",""0"",""2405""
","
","
","""event"",""trial"",""time""
""fullscreenenter"",""0"",""2405""
","
","1212.8000000715256","<div class='center'><p> If you remember correctly, then you’ll get a gold coin like this: </p><p><img src='run_exp/static/images/tutorial/reward_small.png' height='200'></p><p>If you do not remember correctly, then you'll see a red x like this: </p><p><img src='run_exp/static/images/tutorial/reward_no.png' height='200'></p><p>Importantly, when you are shown a ship, take the time to remind yourself which island you saw it on. This will help you in the next part of the study.</p><p><b>[Press the space bar to continue]</b></p></div>","32","","","","","","","","","","","","","","","","","","","","","","","",""
"","begin_test_phase","16","156099","0.0-16.0","""event"",""trial"",""time""
""fullscreenenter"",""0"",""2405""
","
","
","""event"",""trial"",""time""
""fullscreenenter"",""0"",""2405""
","
","null","run_exp/static/audio/clip_36_begin_final.m4a","null","","","","","<div class='center'><p>Let's go over the important points again. Your job is to: </p><p>1. Pick the pirate who is best at robbing ships and will bring you back gold coins. </p><p>2. Correctly remember whether or not you saw a ship before. If you did see the ship before, remind yourself on which island you saw it. </p></div>","","","","","","","","","","","","","","","","","","",""
"","html-keyboard-response","17","159068","0.0-17.0","""event"",""trial"",""time""
""fullscreenenter"",""0"",""2405""
","
","
","""event"",""trial"",""time""
""fullscreenenter"",""0"",""2405""
","
","2901.2000000476837","<div class='center'><p>Let's go over the important points again. Your job is to: </p><p>1. Pick the pirate who is best at robbing ships and will bring you back gold coins. </p><p>2. Correctly remember whether or not you saw a ship before. If you did see the ship before, remind yourself on which island you saw it. </p><p><b>[Press the space bar to continue]</b></p></div>","32","","","","","","","","","","","","","","","","","","","","","","","",""
"","do_welcome","18","163079","0.0-18.0","""event"",""trial"",""time""
""fullscreenenter"",""0"",""2405""
","
","
","""event"",""trial"",""time""
""fullscreenenter"",""0"",""2405""
","
","null","","","","","","","","null","","","","","","","","","","","","","","","","","",""
"","do_trial","19","169124","0.0-19.0-0.0","""event"",""trial"",""time""
""fullscreenenter"",""0"",""2405""
","
","
","""event"",""trial"",""time""
""fullscreenenter"",""0"",""2405""
","
","null","","","","","","","","null","1,0,0","6","blank","230","null","0.6772664493533663","0.23414891387183964","0.1597081006554322","","","","","","","","","",""
"","html-keyboard-response","20","170129","0.0-19.0-1.0","""event"",""trial"",""time""
""fullscreenenter"",""0"",""2405""
","
","
","""event"",""trial"",""time""
""fullscreenenter"",""0"",""2405""
","
","null","<p></p>","null","","","","","","","","","","","","","","","","","","","","","","","",""
"","do_trial","21","176172","0.0-20.0-0.0","""event"",""trial"",""time""
""fullscreenenter"",""0"",""2405""
","
","
","""event"",""trial"",""time""
""fullscreenenter"",""0"",""2405""
","
","null","","","","","","","","null","0,1,0","6","blank","231","null","0.5322515207430627","0.21785209451954546","0.12937022197783002","","","","","","","","","",""
"","html-keyboard-response","22","177177","0.0-20.0-1.0","""event"",""trial"",""time""
""fullscreenenter"",""0"",""2405""
","
","
","""event"",""trial"",""time""
""fullscreenenter"",""0"",""2405""
","
","null","<p></p>","null","","","","","","","","","","","","","","","","","","","","","","","",""
"","do_trial","23","179860","0.0-21.0-0.0","""event"",""trial"",""time""
""fullscreenenter"",""0"",""2405""
","
","
","""event"",""trial"",""time""
""fullscreenenter"",""0"",""2405""
","
","142.20000004768372","","","","","","","","50","1,0,0","6","blank","232","null","0.49062627461466696","0.20878678053148608","0.24138977608065404","0","","","","","","","","",""
"","html-keyboard-response","24","180863","0.0-21.0-1.0","""event"",""trial"",""time""
""fullscreenenter"",""0"",""2405""
","
","
","""event"",""trial"",""time""
""fullscreenenter"",""0"",""2405""
","
","null","<p></p>","null","","","","","","","","","","","","","","","","","","","","","","","",""
"","do_trial","25","183505","0.0-22.0-0.0","""event"",""trial"",""time""
""fullscreenenter"",""0"",""2405""
","
","
","""event"",""trial"",""time""
""fullscreenenter"",""0"",""2405""
","
","100.5","","","","","","","","50","1,1,1","6","blank","233","null","0.5997181841858181","0.1436812875562202","0.290938876554812","1","","","","","","","","",""
"","html-keyboard-response","26","184511","0.0-22.0-1.0","""event"",""trial"",""time""
""fullscreenenter"",""0"",""2405""
","
","
","""event"",""trial"",""time""
""fullscreenenter"",""0"",""2405""
","
","null","<p></p>","null","","","","","","","","","","","","","","","","","","","","","","","",""
"","do_trial","27","187445","0.0-23.0-0.0","""event"",""trial"",""time""
""fullscreenenter"",""0"",""2405""
","
","
","""event"",""trial"",""time""
""fullscreenenter"",""0"",""2405""
","
","391.7000000476837","","","","","","","","49","0,0,0","6","blank","234","null","0.6566672667934543","0.26386964287598347","0.222654510223529","0","","","","","","","","",""
"","html-keyboard-response","28","188447","0.0-23.0-1.0","""event"",""trial"",""time""
""fullscreenenter"",""0"",""2405""
","
","
","""event"",""trial"",""time""
""fullscreenenter"",""0"",""2405""
","
","null","<p></p>","null","","","","","","","","","","","","","","","","","","","","","","","",""
"","do_trial","29","191022","0.0-24.0-0.0","""event"",""trial"",""time""
""fullscreenenter"",""0"",""2405""
","
","
","""event"",""trial"",""time""
""fullscreenenter"",""0"",""2405""
","
","34.10000002384186","","","","","","","","50","0,1,0","6","blank","235","null","0.6819582278920534","0.23153965396223825","0.14211120696745433","1","","","","","","","","",""
"","html-keyboard-response","30","192024","0.0-24.0-1.0","""event"",""trial"",""time""
""fullscreenenter"",""0"",""2405""
","
","
","""event"",""trial"",""time""
""fullscreenenter"",""0"",""2405""
","
","null","<p></p>","null","","","","","","","","","","","","","","","","","","","","","","","",""
"","do_trial","31","194569","0.0-25.0-0.0","""event"",""trial"",""time""
""fullscreenenter"",""0"",""2405""
","
","
","""event"",""trial"",""time""
""fullscreenenter"",""0"",""2405""
","
","0.19999992847442627","","","","","","","","49","1,0,0","6","blank","236","null","0.7815372988110657","0.22532257401464756","0.2479228721193845","1","","","","","","","","",""
"","html-keyboard-response","32","195572","0.0-25.0-1.0","""event"",""trial"",""time""
""fullscreenenter"",""0"",""2405""
","
","
","""event"",""trial"",""time""
""fullscreenenter"",""0"",""2405""
","
","null","<p></p>","null","","","","","","","","","","","","","","","","","","","","","","","",""
"","do_trial","33","198211","0.0-26.0-0.0","""event"",""trial"",""time""
""fullscreenenter"",""0"",""2405""
","
","
","""event"",""trial"",""time""
""fullscreenenter"",""0"",""2405""
","
","98.60000002384186","","","","","","","","49","1,0,0","6","blank","237","null","0.6975135206257688","0.1526336856312214","0.3325735365397675","1","","","","","","","","",""
"","html-keyboard-response","34","199215","0.0-26.0-1.0","""event"",""trial"",""time""
""fullscreenenter"",""0"",""2405""
","
","
","""event"",""trial"",""time""
""fullscreenenter"",""0"",""2405""
","
","null","<p></p>","null","","","","","","","","","","","","","","","","","","","","","","","",""
"","do_trial","35","201859","0.0-27.0-0.0","""event"",""trial"",""time""
""fullscreenenter"",""0"",""2405""
","
","
","""event"",""trial"",""time""
""fullscreenenter"",""0"",""2405""
","
","100.60000002384186","","","","","","","","49","1,1,1","6","blank","238","null","0.6144841769658097","0.14860637690350662","0.46173893420735723","1","","","","","","","","",""
"","html-keyboard-response","36","202864","0.0-27.0-1.0","""event"",""trial"",""time""
""fullscreenenter"",""0"",""2405""
","
","
","""event"",""trial"",""time""
""fullscreenenter"",""0"",""2405""
","
","null","<p></p>","null","","","","","","","","","","","","","","","","","","","","","","","",""
"","do_trial","37","205481","0.0-28.0-0.0","""event"",""trial"",""time""
""fullscreenenter"",""0"",""2405""
","
","
","""event"",""trial"",""time""
""fullscreenenter"",""0"",""2405""
","
","71.60000002384186","","","","","","","","49","1,0,0","6","blank","239","null","0.5074608368286276","0.06645173837098789","0.43418767316089113","1","","","","","","","","",""
"","html-keyboard-response","38","206485","0.0-28.0-1.0","""event"",""trial"",""time""
""fullscreenenter"",""0"",""2405""
","
","
","""event"",""trial"",""time""
""fullscreenenter"",""0"",""2405""
","
","null","<p></p>","null","","","","","","","","","","","","","","","","","","","","","","","",""
"","do_trial","39","209177","0.0-29.0-0.0","""event"",""trial"",""time""
""fullscreenenter"",""0"",""2405""
","
","
","""event"",""trial"",""time""
""fullscreenenter"",""0"",""2405""
","
","151.5","","","","","","","","49","0,0,0","6","blank","240","null","0.47324407117378636","0.08648419967481118","0.49231532123022337","0","","","","","","","","",""
"","html-keyboard-response","40","210182","0.0-29.0-1.0","""event"",""trial"",""time""
""fullscreenenter"",""0"",""2405""
","
","
","""event"",""trial"",""time""
""fullscreenenter"",""0"",""2405""
","
","null","<p></p>","null","","","","","","","","","","","","","","","","","","","","","","","",""
"","do_recog","41","216190","0.0-30.0-0.0","""event"",""trial"",""time""
""fullscreenenter"",""0"",""2405""
","
","
","""event"",""trial"",""time""
""fullscreenenter"",""0"",""2405""
","
","null","","","","","","","","null","","","","241","probe-200","","","","","1","[object Object]","118","2","0","","","",""
"","html-keyboard-response","42","217195","0.0-30.0-1.0","""event"",""trial"",""time""
""fullscreenenter"",""0"",""2405""
","
","
","""event"",""trial"",""time""
""fullscreenenter"",""0"",""2405""
","
","null","<p></p>","null","","","","","","","","","","","","","","","","","","","","","","","",""
"","do_trial","43","219833","0.0-31.0-0.0","""event"",""trial"",""time""
""fullscreenenter"",""0"",""2405""
","
","
","""event"",""trial"",""time""
""fullscreenenter"",""0"",""2405""
","
","98.80000007152557","","","","","","","","51","1,0,0","6","blank","242","null","0.407164952174477","0.058353535471637796","0.4606956280067525","0","","","","","","","","",""
"","html-keyboard-response","44","220838","0.0-31.0-1.0","""event"",""trial"",""time""
""fullscreenenter"",""0"",""2405""
","
","
","""event"",""trial"",""time""
""fullscreenenter"",""0"",""2405""
","
","null","<p></p>","null","","","","","","","","","","","","","","","","","","","","","","","",""
"","do_trial","45","223380","0.0-32.0-0.0","""event"",""trial"",""time""
""fullscreenenter"",""0"",""2405""
","
","
","""event"",""trial"",""time""
""fullscreenenter"",""0"",""2405""
","
","0.10000002384185791","","","","","","","","51","0,0,1","6","blank","243","null","0.30403014979865095","0.09534353852686969","0.47571080600300136","1","","","","","","","","",""
"","html-keyboard-response","46","224384","0.0-32.0-1.0","""event"",""trial"",""time""
""fullscreenenter"",""0"",""2405""
","
","
","""event"",""trial"",""time""
""fullscreenenter"",""0"",""2405""
","
","null","<p></p>","null","","","","","","","","","","","","","","","","","","","","","","","",""
"","do_trial","47","227336","0.0-33.0-0.0","""event"",""trial"",""time""
""fullscreenenter"",""0"",""2405""
","
","
","""event"",""trial"",""time""
""fullscreenenter"",""0"",""2405""
","
","412.8000000715256","","","","","","","","50","0,0,1","6","blank","244","null","0.3177711343325486","0.10578075562118557","0.4379356407737003","0","","","","","","","","",""
"","html-keyboard-response","48","228340","0.0-33.0-1.0","""event"",""trial"",""time""
""fullscreenenter"",""0"",""2405""
","
","
","""event"",""trial"",""time""
""fullscreenenter"",""0"",""2405""
","
","null","<p></p>","null","","","","","","","","","","","","","","","","","","","","","","","",""
"","do_trial","49","230884","0.0-34.0-0.0","""event"",""trial"",""time""
""fullscreenenter"",""0"",""2405""
","
","
","""event"",""trial"",""time""
""fullscreenenter"",""0"",""2405""
","
","0.20000004768371582","","","","","","","","51","0,0,1","6","blank","245","null","0.3269703821151988","0.12858869218875935","0.40319096507030083","1","","","","","","","","",""
"","html-keyboard-response","50","231889","0.0-34.0-1.0","""event"",""trial"",""time""
""fullscreenenter"",""0"",""2405""
","
","
","""event"",""trial"",""time""
""fullscreenenter"",""0"",""2405""
","
","null","<p></p>","null","","","","","","","","","","","","","","","","","","","","","","","",""
"","do_trial","51","234501","0.0-35.0-0.0","""event"",""trial"",""time""
""fullscreenenter"",""0"",""2405""
","
","
","""event"",""trial"",""time""
""fullscreenenter"",""0"",""2405""
","
","72.69999992847443","","","","","","","","51","0,1,1","6","blank","246","null","0.3429432729760597","0.17022509606785988","0.478817392218309","1","","","","","","","","",""
"","html-keyboard-response","52","235504","0.0-35.0-1.0","""event"",""trial"",""time""
""fullscreenenter"",""0"",""2405""
","
","
","""event"",""trial"",""time""
""fullscreenenter"",""0"",""2405""
","
","null","<p></p>","null","","","","","","","","","","","","","","","","","","","","","","","",""
"","do_trial","53","238169","0.0-36.0-0.0","""event"",""trial"",""time""
""fullscreenenter"",""0"",""2405""
","
","
","""event"",""trial"",""time""
""fullscreenenter"",""0"",""2405""
","
","125.10000002384186","","","","","","","","51","0,1,1","6","blank","247","null","0.3325405249652395","0.14919786945961308","0.4239185836585404","1","","","","","","","","",""
"","html-keyboard-response","54","239174","0.0-36.0-1.0","""event"",""trial"",""time""
""fullscreenenter"",""0"",""2405""
","
","
","""event"",""trial"",""time""
""fullscreenenter"",""0"",""2405""
","
","null","<p></p>","null","","","","","","","","","","","","","","","","","","","","","","","",""
"","do_trial","55","241809","0.0-37.0-0.0","""event"",""trial"",""time""
""fullscreenenter"",""0"",""2405""
","
","
","""event"",""trial"",""time""
""fullscreenenter"",""0"",""2405""
","
","93.29999995231628","","","","","","","","51","1,0,0","6","blank","248","null","0.3143703545630098","0.22164923014530874","0.5005194839648869","0","","","","","","","","",""
"","html-keyboard-response","56","242812","0.0-37.0-1.0","""event"",""trial"",""time""
""fullscreenenter"",""0"",""2405""
","
","
","""event"",""trial"",""time""
""fullscreenenter"",""0"",""2405""
","
","null","<p></p>","null","","","","","","","","","","","","","","","","","","","","","","","",""
"","do_recog","57","244619","0.0-38.0-0.0","""event"",""trial"",""time""
""fullscreenenter"",""0"",""2405""
","
","
","""event"",""trial"",""time""
""fullscreenenter"",""0"",""2405""
","
","301.2999999523163","","","","","","","","53","","","","249","probe-36","","","","","1","[object Object]","158","3","1","","","",""
"","html-keyboard-response","58","245623","0.0-38.0-1.0","""event"",""trial"",""time""
""fullscreenenter"",""0"",""2405""
","
","
","""event"",""trial"",""time""
""fullscreenenter"",""0"",""2405""
","
","null","<p></p>","null","","","","","","","","","","","","","","","","","","","","","","","",""
"","do_trial","59","248167","0.0-39.0-0.0","""event"",""trial"",""time""
""fullscreenenter"",""0"",""2405""
","
","
","""event"",""trial"",""time""
""fullscreenenter"",""0"",""2405""
","
","0.09999990463256836","","","","","","","","49","0,0,1","6","blank","250","null","0.38343529260448583","0.06367341333492402","0.563314812643376","0","","","","","","","","",""
"","html-keyboard-response","60","249169","0.0-39.0-1.0","""event"",""trial"",""time""
""fullscreenenter"",""0"",""2405""
","
","
","""event"",""trial"",""time""
""fullscreenenter"",""0"",""2405""
","
","null","<p></p>","null","","","","","","","","","","","","","","","","","","","","","","","",""
"","do_trial","61","251737","0.0-40.0-0.0","""event"",""trial"",""time""
""fullscreenenter"",""0"",""2405""
","
","
","""event"",""trial"",""time""
""fullscreenenter"",""0"",""2405""
","
","28.300000071525574","","","","","","","","51","1,0,1","6","blank","251","null","0.33090348389048496","0.19348797204195906","0.6467620844549555","1","","","","","","","","",""
"","html-keyboard-response","62","252738","0.0-40.0-1.0","""event"",""trial"",""time""
""fullscreenenter"",""0"",""2405""
","
","
","""event"",""trial"",""time""
""fullscreenenter"",""0"",""2405""
","
","null","<p></p>","null","","","","","","","","","","","","","","","","","","","","","","","",""
"","do_trial","63","255562","0.0-41.0-0.0","""event"",""trial"",""time""
""fullscreenenter"",""0"",""2405""
","
","
","""event"",""trial"",""time""
""fullscreenenter"",""0"",""2405""
","
","287.89999997615814","","","","","","","","51","0,0,0","6","blank","252","null","0.31688804792427727","0.16830451401220317","0.7038944435917435","0","","","","","","","","",""
"","html-keyboard-response","64","256567","0.0-41.0-1.0","""event"",""trial"",""time""
""fullscreenenter"",""0"",""2405""
","
","
","""event"",""trial"",""time""
""fullscreenenter"",""0"",""2405""
","
","null","<p></p>","null","","","","","","","","","","","","","","","","","","","","","","","",""
"","do_trial","65","259245","0.0-42.0-0.0","""event"",""trial"",""time""
""fullscreenenter"",""0"",""2405""
","
","
","""event"",""trial"",""time""
""fullscreenenter"",""0"",""2405""
","
","134.10000002384186","","","","","","","","51","0,0,1","6","blank","253","null","0.23246627236633366","0.058321516936112414","0.680405732867178","1","","","","","","","","",""
"","html-keyboard-response","66","260247","0.0-42.0-1.0","""event"",""trial"",""time""
""fullscreenenter"",""0"",""2405""
","
","
","""event"",""trial"",""time""
""fullscreenenter"",""0"",""2405""
","
","null","<p></p>","null","","","","","","","","","","","","","","","","","","","","","","","",""
"","do_trial","67","263090","0.0-43.0-0.0","""event"",""trial"",""time""
""fullscreenenter"",""0"",""2405""
","
","
","""event"",""trial"",""time""
""fullscreenenter"",""0"",""2405""
","
","302.7999999523163","","","","","","","","51","1,0,1","6","blank","254","null","0.22633825259099383","0.2181606038456448","0.5594613609365731","1","","","","","","","","",""
"","html-keyboard-response","68","264093","0.0-43.0-1.0","""event"",""trial"",""time""
""fullscreenenter"",""0"",""2405""
","
","
","""event"",""trial"",""time""
""fullscreenenter"",""0"",""2405""
","
","null","<p></p>","null","","","","","","","","","","","","","","","","","","","","","","","",""
"","do_recog","69","265720","0.0-44.0-0.0","""event"",""trial"",""time""
""fullscreenenter"",""0"",""2405""
","
","
","""event"",""trial"",""time""
""fullscreenenter"",""0"",""2405""
","
","121.30000007152557","","","","","","","","53","","","","255","probe-89","","","","","1","[object Object]","71","1","1","","","",""
"","html-keyboard-response","70","266722","0.0-44.0-1.0","""event"",""trial"",""time""
""fullscreenenter"",""0"",""2405""
","
","
","""event"",""trial"",""time""
""fullscreenenter"",""0"",""2405""
","
","null","<p></p>","null","","","","","","","","","","","","","","","","","","","","","","","",""
"","do_trial","71","269878","0.0-45.0-0.0","""event"",""trial"",""time""
""fullscreenenter"",""0"",""2405""
","
","
","""event"",""trial"",""time""
""fullscreenenter"",""0"",""2405""
","
","241.60000002384186","","","","","","","","51","0,0,1","6","blank","256","null","0.24272742538796543","0.13859879105668996","0.624518131820576","1","","","","","","","","",""
"","html-keyboard-response","72","271771","0.0-45.0-1.0","""event"",""trial"",""time""
""fullscreenenter"",""0"",""2405""
","
","
","""event"",""trial"",""time""
""fullscreenenter"",""0"",""2405""
","
","null","<p></p>","null","","","","","","","","","","","","","","","","","","","","","","","",""
"","do_trial","73","277817","0.0-46.0-0.0","""event"",""trial"",""time""
""fullscreenenter"",""0"",""2405""
","
","
","""event"",""trial"",""time""
""fullscreenenter"",""0"",""2405""
","
","null","","","","","","","","null","1,0,1","6","blank","257","null","0.28489672727700066","0.17651864406109727","0.705201711924756","","","","","","","","","",""
"","html-keyboard-response","74","278819","0.0-46.0-1.0","""event"",""trial"",""time""
""fullscreenenter"",""0"",""2405""
""blur"",""75"",""279968""
""focus"",""75"",""279973""
","""event"",""trial"",""time""
""blur"",""75"",""279968""
","""event"",""trial"",""time""
""focus"",""75"",""279973""
","""event"",""trial"",""time""
""fullscreenenter"",""0"",""2405""
","
","null","<p></p>","null","","","","","","","","","","","","","","","","","","","","","","","",""
"","do_trial","75","281471","0.0-47.0-0.0","""event"",""trial"",""time""
""fullscreenenter"",""0"",""2405""
""blur"",""75"",""279968""
""focus"",""75"",""279973""
","""event"",""trial"",""time""
""blur"",""75"",""279968""
","""event"",""trial"",""time""
""focus"",""75"",""279973""
","""event"",""trial"",""time""
""fullscreenenter"",""0"",""2405""
","
","109.89999997615814","","","","","","","","50","0,0,1","6","blank","258","null","0.35451970187458437","0.1430641686817841","0.7275180003249919","0","","","","","","","","",""
"","html-keyboard-response","76","282472","0.0-47.0-1.0","""event"",""trial"",""time""
""fullscreenenter"",""0"",""2405""
""blur"",""75"",""279968""
""focus"",""75"",""279973""
","""event"",""trial"",""time""
""blur"",""75"",""279968""
","""event"",""trial"",""time""
""focus"",""75"",""279973""
","""event"",""trial"",""time""
""fullscreenenter"",""0"",""2405""
","
","null","<p></p>","null","","","","","","","","","","","","","","","","","","","","","","","",""
"","do_recog","77","288483","0.0-48.0-0.0","""event"",""trial"",""time""
""fullscreenenter"",""0"",""2405""
""blur"",""75"",""279968""
""focus"",""75"",""279973""
","""event"",""trial"",""time""
""blur"",""75"",""279968""
","""event"",""trial"",""time""
""focus"",""75"",""279973""
","""event"",""trial"",""time""
""fullscreenenter"",""0"",""2405""
","
","null","","","","","","","","null","","","","259","probe-168","","","","","1","[object Object]","114","2","0","","","",""
"","html-keyboard-response","78","289487","0.0-48.0-1.0","""event"",""trial"",""time""
""fullscreenenter"",""0"",""2405""
""blur"",""75"",""279968""
""focus"",""75"",""279973""
","""event"",""trial"",""time""
""blur"",""75"",""279968""
","""event"",""trial"",""time""
""focus"",""75"",""279973""
","""event"",""trial"",""time""
""fullscreenenter"",""0"",""2405""
","
","null","<p></p>","null","","","","","","","","","","","","","","","","","","","","","","","",""
"","do_trial","79","292354","0.0-49.0-0.0","""event"",""trial"",""time""
""fullscreenenter"",""0"",""2405""
""blur"",""75"",""279968""
""focus"",""75"",""279973""
","""event"",""trial"",""time""
""blur"",""75"",""279968""
","""event"",""trial"",""time""
""focus"",""75"",""279973""
","""event"",""trial"",""time""
""fullscreenenter"",""0"",""2405""
","
","323.09999990463257","","","","","","","","51","1,0,1","6","blank","260","null","0.33487505288569686","0.12015496970874022","0.7426006614503315","1","","","","","","","","",""
"","html-keyboard-response","80","293356","0.0-49.0-1.0","""event"",""trial"",""time""
""fullscreenenter"",""0"",""2405""
""blur"",""75"",""279968""
""focus"",""75"",""279973""
","""event"",""trial"",""time""
""blur"",""75"",""279968""
","""event"",""trial"",""time""
""focus"",""75"",""279973""
","""event"",""trial"",""time""
""fullscreenenter"",""0"",""2405""
","
","null","<p></p>","null","","","","","","","","","","","","","","","","","","","","","","","",""
"","do_trial","81","296030","0.0-50.0-0.0","""event"",""trial"",""time""
""fullscreenenter"",""0"",""2405""
""blur"",""75"",""279968""
""focus"",""75"",""279973""
","""event"",""trial"",""time""
""blur"",""75"",""279968""
","""event"",""trial"",""time""
""focus"",""75"",""279973""
","""event"",""trial"",""time""
""fullscreenenter"",""0"",""2405""
","
","132.79999995231628","","","","","","","","50","0,0,0","6","blank","261","null","0.34915135036445977","0.13303613153846924","0.6479820879979856","0","","","","","","","","",""
"","html-keyboard-response","82","297036","0.0-50.0-1.0","""event"",""trial"",""time""
""fullscreenenter"",""0"",""2405""
""blur"",""75"",""279968""
""focus"",""75"",""279973""
","""event"",""trial"",""time""
""blur"",""75"",""279968""
","""event"",""trial"",""time""
""focus"",""75"",""279973""
","""event"",""trial"",""time""
""fullscreenenter"",""0"",""2405""
","
","null","<p></p>","null","","","","","","","","","","","","","","","","","","","","","","","",""
"","do_trial","83","299578","0.0-51.0-0.0","""event"",""trial"",""time""
""fullscreenenter"",""0"",""2405""
""blur"",""75"",""279968""
""focus"",""75"",""279973""
","""event"",""trial"",""time""
""blur"",""75"",""279968""
","""event"",""trial"",""time""
""focus"",""75"",""279973""
","""event"",""trial"",""time""
""fullscreenenter"",""0"",""2405""
","
","0.20000004768371582","","","","","","","","50","0,0,1","6","blank","262","null","0.28485972290928874","0.14110508984794462","0.7916001318483566","0","","","","","","","","",""
"","html-keyboard-response","84","300583","0.0-51.0-1.0","""event"",""trial"",""time""
""fullscreenenter"",""0"",""2405""
""blur"",""75"",""279968""
""focus"",""75"",""279973""
","""event"",""trial"",""time""
""blur"",""75"",""279968""
","""event"",""trial"",""time""
""focus"",""75"",""279973""
","""event"",""trial"",""time""
""fullscreenenter"",""0"",""2405""
","
","null","<p></p>","null","","","","","","","","","","","","","","","","","","","","","","","",""
"","do_trial","85","303130","0.0-52.0-0.0","""event"",""trial"",""time""
""fullscreenenter"",""0"",""2405""
""blur"",""75"",""279968""
""focus"",""75"",""279973""
","""event"",""trial"",""time""
""blur"",""75"",""279968""
","""event"",""trial"",""time""
""focus"",""75"",""279973""
","""event"",""trial"",""time""
""fullscreenenter"",""0"",""2405""
","
","0.09999990463256836","","","","","","","","51","1,0,1","6","blank","263","null","0.31908643388771374","0.1462602587675619","0.7077180743348191","1","","","","","","","","",""
"","html-keyboard-response","86","304135","0.0-52.0-1.0","""event"",""trial"",""time""
""fullscreenenter"",""0"",""2405""
""blur"",""75"",""279968""
""focus"",""75"",""279973""
","""event"",""trial"",""time""
""blur"",""75"",""279968""
","""event"",""trial"",""time""
""focus"",""75"",""279973""
","""event"",""trial"",""time""
""fullscreenenter"",""0"",""2405""
","
","null","<p></p>","null","","","","","","","","","","","","","","","","","","","","","","","",""
"","do_recog","87","307866","0.0-53.0-0.0","""event"",""trial"",""time""
""fullscreenenter"",""0"",""2405""
""blur"",""75"",""279968""
""focus"",""75"",""279973""
","""event"",""trial"",""time""
""blur"",""75"",""279968""
","""event"",""trial"",""time""
""focus"",""75"",""279973""
","""event"",""trial"",""time""
""fullscreenenter"",""0"",""2405""
","
","2225.899999976158","","","","","","","","53","","","","264","probe-62","","","","","1","[object Object]","193","4","1","","","",""
"","html-keyboard-response","88","308868","0.0-53.0-1.0","""event"",""trial"",""time""
""fullscreenenter"",""0"",""2405""
""blur"",""75"",""279968""
""focus"",""75"",""279973""
","""event"",""trial"",""time""
""blur"",""75"",""279968""
","""event"",""trial"",""time""
""focus"",""75"",""279973""
","""event"",""trial"",""time""
""fullscreenenter"",""0"",""2405""
","
","null","<p></p>","null","","","","","","","","","","","","","","","","","","","","","","","",""
"","do_trial","89","311915","0.0-54.0-0.0","""event"",""trial"",""time""
""fullscreenenter"",""0"",""2405""
""blur"",""75"",""279968""
""focus"",""75"",""279973""
","""event"",""trial"",""time""
""blur"",""75"",""279968""
","""event"",""trial"",""time""
""focus"",""75"",""279973""
","""event"",""trial"",""time""
""fullscreenenter"",""0"",""2405""
","
","506.2999999523163","","","","","","","","51","0,0,0","6","blank","265","null","0.24853681229762434","0.08489837748666539","0.5370088905971667","0","","","","","","","","",""
"","html-keyboard-response","90","312919","0.0-54.0-1.0","""event"",""trial"",""time""
""fullscreenenter"",""0"",""2405""
""blur"",""75"",""279968""
""focus"",""75"",""279973""
","""event"",""trial"",""time""
""blur"",""75"",""279968""
","""event"",""trial"",""time""
""focus"",""75"",""279973""
","""event"",""trial"",""time""
""fullscreenenter"",""0"",""2405""
","
","null","<p></p>","null","","","","","","","","","","","","","","","","","","","","","","","",""
"","do_trial","91","315469","0.0-55.0-0.0","""event"",""trial"",""time""
""fullscreenenter"",""0"",""2405""
""blur"",""75"",""279968""
""focus"",""75"",""279973""
","""event"",""trial"",""time""
""blur"",""75"",""279968""
","""event"",""trial"",""time""
""focus"",""75"",""279973""
","""event"",""trial"",""time""
""fullscreenenter"",""0"",""2405""
","
","8.900000095367432","","","","","","","","51","1,0,1","6","blank","266","null","0.32266875326087985","0.12422264791390479","0.5233865631242235","1","","","","","","","","",""
"","html-keyboard-response","92","316473","0.0-55.0-1.0","""event"",""trial"",""time""
""fullscreenenter"",""0"",""2405""
""blur"",""75"",""279968""
""focus"",""75"",""279973""
""fullscreenexit"",""93"",""318720""
","""event"",""trial"",""time""
""blur"",""75"",""279968""
","""event"",""trial"",""time""
""focus"",""75"",""279973""
","""event"",""trial"",""time""
""fullscreenenter"",""0"",""2405""
","""event"",""trial"",""time""
""fullscreenexit"",""93"",""318720""
","null","<p></p>","null","","","","","","","","","","","","","","","","","","","","","","","",""
"","do_trial","93","319014","0.0-56.0-0.0","""event"",""trial"",""time""
""fullscreenenter"",""0"",""2405""
""blur"",""75"",""279968""
""focus"",""75"",""279973""
""fullscreenexit"",""93"",""318720""
","""event"",""trial"",""time""
""blur"",""75"",""279968""
","""event"",""trial"",""time""
""focus"",""75"",""279973""
","""event"",""trial"",""time""
""fullscreenenter"",""0"",""2405""
","""event"",""trial"",""time""
""fullscreenexit"",""93"",""318720""
","0.09999990463256836","","","","","","","","51","0,0,0","6","blank","267","null","0.38322623378852","0.20004976916234068","0.609698516536586","0","","","","","","","","",""
"","html-keyboard-response","94","320017","0.0-56.0-1.0","""event"",""trial"",""time""
""fullscreenenter"",""0"",""2405""
""blur"",""75"",""279968""
""focus"",""75"",""279973""
""fullscreenexit"",""93"",""318720""
","""event"",""trial"",""time""
""blur"",""75"",""279968""
","""event"",""trial"",""time""
""focus"",""75"",""279973""
","""event"",""trial"",""time""
""fullscreenenter"",""0"",""2405""
","""event"",""trial"",""time""
""fullscreenexit"",""93"",""318720""
","null","<p></p>","null","","","","","","","","","","","","","","","","","","","","","","","",""
"","do_trial","95","326110","0.0-57.0-0.0","""event"",""trial"",""time""
""fullscreenenter"",""0"",""2405""
""blur"",""75"",""279968""
""focus"",""75"",""279973""
""fullscreenexit"",""93"",""318720""
","""event"",""trial"",""time""
""blur"",""75"",""279968""
","""event"",""trial"",""time""
""focus"",""75"",""279973""
","""event"",""trial"",""time""
""fullscreenenter"",""0"",""2405""
","""event"",""trial"",""time""
""fullscreenexit"",""93"",""318720""
","null","","","","","","","","null","1,0,1","6","blank","268","null","0.43161271634065435","0.14200667942278217","0.6429761650745316","","","","","","","","","",""
"","html-keyboard-response","96","327111","0.0-57.0-1.0","""event"",""trial"",""time""
""fullscreenenter"",""0"",""2405""
""blur"",""75"",""279968""
""focus"",""75"",""279973""
""fullscreenexit"",""93"",""318720""
","""event"",""trial"",""time""
""blur"",""75"",""279968""
","""event"",""trial"",""time""
""focus"",""75"",""279973""
","""event"",""trial"",""time""
""fullscreenenter"",""0"",""2405""
","""event"",""trial"",""time""
""fullscreenexit"",""93"",""318720""
","null","<p></p>","null","","","","","","","","","","","","","","","","","","","","","","","",""
"","break","97","328742","0.0-58.0-0.0","""event"",""trial"",""time""
""fullscreenenter"",""0"",""2405""
""blur"",""75"",""279968""
""focus"",""75"",""279973""
""fullscreenexit"",""93"",""318720""
","""event"",""trial"",""time""
""blur"",""75"",""279968""
","""event"",""trial"",""time""
""focus"",""75"",""279973""
","""event"",""trial"",""time""
""fullscreenenter"",""0"",""2405""
","""event"",""trial"",""time""
""fullscreenexit"",""93"",""318720""
","1629.6999999284744","<div class='center'><p>Time to take a quick break! You have 2 minutes to rest, but you can move on sooner if you'd like.</p><p> Press the <b>space bar</b> to continue.</p></div>","32","","","","","","","","","","","","","","","","","","","","","","","",""
"","do_trial","98","332315","0.0-58.0-1.0","""event"",""trial"",""time""
""fullscreenenter"",""0"",""2405""
""blur"",""75"",""279968""
""focus"",""75"",""279973""
""fullscreenexit"",""93"",""318720""
","""event"",""trial"",""time""
""blur"",""75"",""279968""
","""event"",""trial"",""time""
""focus"",""75"",""279973""
","""event"",""trial"",""time""
""fullscreenenter"",""0"",""2405""
","""event"",""trial"",""time""
""fullscreenexit"",""93"",""318720""
","1032","","","","","","","","49","0,0,0","6","blank","269","null","0.4396444992980956","0.05012097439258927","0.644231988769816","0","","","","","","","","",""
"","html-keyboard-response","99","333319","0.0-58.0-2.0","""event"",""trial"",""time""
""fullscreenenter"",""0"",""2405""
""blur"",""75"",""279968""
""focus"",""75"",""279973""
""fullscreenexit"",""93"",""318720""
","""event"",""trial"",""time""
""blur"",""75"",""279968""
","""event"",""trial"",""time""
""focus"",""75"",""279973""
","""event"",""trial"",""time""
""fullscreenenter"",""0"",""2405""
","""event"",""trial"",""time""
""fullscreenexit"",""93"",""318720""
","null","<p></p>","null","","","","","","","","","","","","","","","","","","","","","","","",""
"","do_recog","100","335376","0.0-59.0-0.0","""event"",""trial"",""time""
""fullscreenenter"",""0"",""2405""
""blur"",""75"",""279968""
""focus"",""75"",""279973""
""fullscreenexit"",""93"",""318720""
","""event"",""trial"",""time""
""blur"",""75"",""279968""
","""event"",""trial"",""time""
""focus"",""75"",""279973""
","""event"",""trial"",""time""
""fullscreenenter"",""0"",""2405""
","""event"",""trial"",""time""
""fullscreenexit"",""93"",""318720""
","548.7000000476837","","","","","","","","53","","","","270","probe-199","","","","","1","[object Object]","156","3","1","","","",""
"","html-keyboard-response","101","336379","0.0-59.0-1.0","""event"",""trial"",""time""
""fullscreenenter"",""0"",""2405""
""blur"",""75"",""279968""
""focus"",""75"",""279973""
""fullscreenexit"",""93"",""318720""
","""event"",""trial"",""time""
""blur"",""75"",""279968""
","""event"",""trial"",""time""
""focus"",""75"",""279973""
","""event"",""trial"",""time""
""fullscreenenter"",""0"",""2405""
","""event"",""trial"",""time""
""fullscreenexit"",""93"",""318720""
","null","<p></p>","null","","","","","","","","","","","","","","","","","","","","","","","",""
"","do_trial","102","339144","0.0-60.0-0.0","""event"",""trial"",""time""
""fullscreenenter"",""0"",""2405""
""blur"",""75"",""279968""
""focus"",""75"",""279973""
""fullscreenexit"",""93"",""318720""
","""event"",""trial"",""time""
""blur"",""75"",""279968""
","""event"",""trial"",""time""
""focus"",""75"",""279973""
","""event"",""trial"",""time""
""fullscreenenter"",""0"",""2405""
","""event"",""trial"",""time""
""fullscreenexit"",""93"",""318720""
","223","","","","","","","","49","0,0,0","6","blank","271","null","0.38294249624622867","0.07347395365485229","0.7786773130595616","0","","","","","","","","",""
"","html-keyboard-response","103","340151","0.0-60.0-1.0","""event"",""trial"",""time""
""fullscreenenter"",""0"",""2405""
""blur"",""75"",""279968""
""focus"",""75"",""279973""
""fullscreenexit"",""93"",""318720""
","""event"",""trial"",""time""
""blur"",""75"",""279968""
","""event"",""trial"",""time""
""focus"",""75"",""279973""
","""event"",""trial"",""time""
""fullscreenenter"",""0"",""2405""
","""event"",""trial"",""time""
""fullscreenexit"",""93"",""318720""
","null","<p></p>","null","","","","","","","","","","","","","","","","","","","","","","","",""
"","do_trial","104","342692","0.0-61.0-0.0","""event"",""trial"",""time""
""fullscreenenter"",""0"",""2405""
""blur"",""75"",""279968""
""focus"",""75"",""279973""
""fullscreenexit"",""93"",""318720""
","""event"",""trial"",""time""
""blur"",""75"",""279968""
","""event"",""trial"",""time""
""focus"",""75"",""279973""
","""event"",""trial"",""time""
""fullscreenenter"",""0"",""2405""
","""event"",""trial"",""time""
""fullscreenexit"",""93"",""318720""
","0.10000002384185791","","","","","","","","50","1,0,1","6","blank","272","null","0.22814560017245428","0.07358549178063219","0.7069064578729671","0","","","","","","","","",""
"","html-keyboard-response","105","343696","0.0-61.0-1.0","""event"",""trial"",""time""
""fullscreenenter"",""0"",""2405""
""blur"",""75"",""279968""
""focus"",""75"",""279973""
""fullscreenexit"",""93"",""318720""
","""event"",""trial"",""time""
""blur"",""75"",""279968""
","""event"",""trial"",""time""
""focus"",""75"",""279973""
","""event"",""trial"",""time""
""fullscreenenter"",""0"",""2405""
","""event"",""trial"",""time""
""fullscreenexit"",""93"",""318720""
","null","<p></p>","null","","","","","","","","","","","","","","","","","","","","","","","",""
"","do_trial","106","346261","0.0-62.0-0.0","""event"",""trial"",""time""
""fullscreenenter"",""0"",""2405""
""blur"",""75"",""279968""
""focus"",""75"",""279973""
""fullscreenexit"",""93"",""318720""
","""event"",""trial"",""time""
""blur"",""75"",""279968""
","""event"",""trial"",""time""
""focus"",""75"",""279973""
","""event"",""trial"",""time""
""fullscreenenter"",""0"",""2405""
","""event"",""trial"",""time""
""fullscreenexit"",""93"",""318720""
","25.799999952316284","","","","","","","","50","1,0,0","6","blank","273","null","0.19997754036634455","0.0655752107601673","0.6542203193570393","0","","","","","","","","",""
"","html-keyboard-response","107","347266","0.0-62.0-1.0","""event"",""trial"",""time""
""fullscreenenter"",""0"",""2405""
""blur"",""75"",""279968""
""focus"",""75"",""279973""
""fullscreenexit"",""93"",""318720""
","""event"",""trial"",""time""
""blur"",""75"",""279968""
","""event"",""trial"",""time""
""focus"",""75"",""279973""
","""event"",""trial"",""time""
""fullscreenenter"",""0"",""2405""
","""event"",""trial"",""time""
""fullscreenexit"",""93"",""318720""
","null","<p></p>","null","","","","","","","","","","","","","","","","","","","","","","","",""
"","do_recog","108","349098","0.0-63.0-0.0","""event"",""trial"",""time""
""fullscreenenter"",""0"",""2405""
""blur"",""75"",""279968""
""focus"",""75"",""279973""
""fullscreenexit"",""93"",""318720""
","""event"",""trial"",""time""
""blur"",""75"",""279968""
","""event"",""trial"",""time""
""focus"",""75"",""279973""
","""event"",""trial"",""time""
""fullscreenenter"",""0"",""2405""
","""event"",""trial"",""time""
""fullscreenexit"",""93"",""318720""
","325.5","","","","","","","","53","","","","274","probe-236","","","","","0","[object Object]","null","null","0","","","",""
"","html-keyboard-response","109","350100","0.0-63.0-1.0","""event"",""trial"",""time""
""fullscreenenter"",""0"",""2405""
""blur"",""75"",""279968""
""focus"",""75"",""279973""
""fullscreenexit"",""93"",""318720""
","""event"",""trial"",""time""
""blur"",""75"",""279968""
","""event"",""trial"",""time""
""focus"",""75"",""279973""
","""event"",""trial"",""time""
""fullscreenenter"",""0"",""2405""
","""event"",""trial"",""time""
""fullscreenexit"",""93"",""318720""
","null","<p></p>","null","","","","","","","","","","","","","","","","","","","","","","","",""
"","do_trial","110","352878","0.0-64.0-0.0","""event"",""trial"",""time""
""fullscreenenter"",""0"",""2405""
""blur"",""75"",""279968""
""focus"",""75"",""279973""
""fullscreenexit"",""93"",""318720""
","""event"",""trial"",""time""
""blur"",""75"",""279968""
","""event"",""trial"",""time""
""focus"",""75"",""279973""
","""event"",""trial"",""time""
""fullscreenenter"",""0"",""2405""
","""event"",""trial"",""time""
""fullscreenexit"",""93"",""318720""
","236","","","","","","","","51","1,0,1","6","blank","275","null","0.346885764724522","0.13497899723702453","0.6726670463052651","1","","","","","","","","",""
"","html-keyboard-response","111","353882","0.0-64.0-1.0","""event"",""trial"",""time""
""fullscreenenter"",""0"",""2405""
""blur"",""75"",""279968""
""focus"",""75"",""279973""
""fullscreenexit"",""93"",""318720""
","""event"",""trial"",""time""
""blur"",""75"",""279968""
","""event"",""trial"",""time""
""focus"",""75"",""279973""
","""event"",""trial"",""time""
""fullscreenenter"",""0"",""2405""
","""event"",""trial"",""time""
""fullscreenexit"",""93"",""318720""
","null","<p></p>","null","","","","","","","","","","","","","","","","","","","","","","","",""
"","do_recog","112","359890","0.0-65.0-0.0","""event"",""trial"",""time""
""fullscreenenter"",""0"",""2405""
""blur"",""75"",""279968""
""focus"",""75"",""279973""
""fullscreenexit"",""93"",""318720""
","""event"",""trial"",""time""
""blur"",""75"",""279968""
","""event"",""trial"",""time""
""focus"",""75"",""279973""
","""event"",""trial"",""time""
""fullscreenenter"",""0"",""2405""
","""event"",""trial"",""time""
""fullscreenexit"",""93"",""318720""
","null","","","","","","","","null","","","","276","probe-145","","","","","1","[object Object]","197","4","0","","","",""
"","html-keyboard-response","113","360894","0.0-65.0-1.0","""event"",""trial"",""time""
""fullscreenenter"",""0"",""2405""
""blur"",""75"",""279968""
""focus"",""75"",""279973""
""fullscreenexit"",""93"",""318720""
","""event"",""trial"",""time""
""blur"",""75"",""279968""
","""event"",""trial"",""time""
""focus"",""75"",""279973""
","""event"",""trial"",""time""
""fullscreenenter"",""0"",""2405""
","""event"",""trial"",""time""
""fullscreenexit"",""93"",""318720""
","null","<p></p>","null","","","","","","","","","","","","","","","","","","","","","","","",""
"","do_trial","114","364297","0.0-66.0-0.0","""event"",""trial"",""time""
""fullscreenenter"",""0"",""2405""
""blur"",""75"",""279968""
""focus"",""75"",""279973""
""fullscreenexit"",""93"",""318720""
","""event"",""trial"",""time""
""blur"",""75"",""279968""
","""event"",""trial"",""time""
""focus"",""75"",""279973""
","""event"",""trial"",""time""
""fullscreenenter"",""0"",""2405""
","""event"",""trial"",""time""
""fullscreenexit"",""93"",""318720""
","864","","","","","","","","51","1,0,1","6","blank","277","null","0.44571156800402434","0.10495317943476998","0.6436580585433249","1","","","","","","","","",""
"","html-keyboard-response","115","365299","0.0-66.0-1.0","""event"",""trial"",""time""
""fullscreenenter"",""0"",""2405""
""blur"",""75"",""279968""
""focus"",""75"",""279973""
""fullscreenexit"",""93"",""318720""
","""event"",""trial"",""time""
""blur"",""75"",""279968""
","""event"",""trial"",""time""
""focus"",""75"",""279973""
","""event"",""trial"",""time""
""fullscreenenter"",""0"",""2405""
","""event"",""trial"",""time""
""fullscreenexit"",""93"",""318720""
","null","<p></p>","null","","","","","","","","","","","","","","","","","","","","","","","",""
"","do_trial","116","367840","0.0-67.0-0.0","""event"",""trial"",""time""
""fullscreenenter"",""0"",""2405""
""blur"",""75"",""279968""
""focus"",""75"",""279973""
""fullscreenexit"",""93"",""318720""
","""event"",""trial"",""time""
""blur"",""75"",""279968""
","""event"",""trial"",""time""
""focus"",""75"",""279973""
","""event"",""trial"",""time""
""fullscreenenter"",""0"",""2405""
","""event"",""trial"",""time""
""fullscreenexit"",""93"",""318720""
","0.10000002384185791","","","","","","","","50","0,0,0","6","blank","278","null","0.3776440341014257","0.12423965893108427","0.6244625845665853","0","","","","","","","","",""
"","html-keyboard-response","117","368844","0.0-67.0-1.0","""event"",""trial"",""time""
""fullscreenenter"",""0"",""2405""
""blur"",""75"",""279968""
""focus"",""75"",""279973""
""fullscreenexit"",""93"",""318720""
","""event"",""trial"",""time""
""blur"",""75"",""279968""
","""event"",""trial"",""time""
""focus"",""75"",""279973""
","""event"",""trial"",""time""
""fullscreenenter"",""0"",""2405""
","""event"",""trial"",""time""
""fullscreenexit"",""93"",""318720""
","null","<p></p>","null","","","","","","","","","","","","","","","","","","","","","","","",""
"","do_trial","118","371387","0.0-68.0-0.0","""event"",""trial"",""time""
""fullscreenenter"",""0"",""2405""
""blur"",""75"",""279968""
""focus"",""75"",""279973""
""fullscreenexit"",""93"",""318720""
","""event"",""trial"",""time""
""blur"",""75"",""279968""
","""event"",""trial"",""time""
""focus"",""75"",""279973""
","""event"",""trial"",""time""
""fullscreenenter"",""0"",""2405""
","""event"",""trial"",""time""
""fullscreenexit"",""93"",""318720""
","0.19999992847442627","","","","","","","","51","1,0,1","6","blank","279","null","0.44288265856315107","0.12188111702642289","0.7348950655237978","1","","","","","","","","",""
"","html-keyboard-response","119","372389","0.0-68.0-1.0","""event"",""trial"",""time""
""fullscreenenter"",""0"",""2405""
""blur"",""75"",""279968""
""focus"",""75"",""279973""
""fullscreenexit"",""93"",""318720""
","""event"",""trial"",""time""
""blur"",""75"",""279968""
","""event"",""trial"",""time""
""focus"",""75"",""279973""
","""event"",""trial"",""time""
""fullscreenenter"",""0"",""2405""
","""event"",""trial"",""time""
""fullscreenexit"",""93"",""318720""
","null","<p></p>","null","","","","","","","","","","","","","","","","","","","","","","","",""
"","do_trial","120","375064","0.0-69.0-0.0","""event"",""trial"",""time""
""fullscreenenter"",""0"",""2405""
""blur"",""75"",""279968""
""focus"",""75"",""279973""
""fullscreenexit"",""93"",""318720""
","""event"",""trial"",""time""
""blur"",""75"",""279968""
","""event"",""trial"",""time""
""focus"",""75"",""279973""
","""event"",""trial"",""time""
""fullscreenenter"",""0"",""2405""
","""event"",""trial"",""time""
""fullscreenexit"",""93"",""318720""
","134.10000002384186","","","","","","","","51","1,0,0","6","blank","280","null","0.4947690010847473","0.10963546092211743","0.7342763549766262","0","","","","","","","","",""
"","html-keyboard-response","121","376067","0.0-69.0-1.0","""event"",""trial"",""time""
""fullscreenenter"",""0"",""2405""
""blur"",""75"",""279968""
""focus"",""75"",""279973""
""fullscreenexit"",""93"",""318720""
","""event"",""trial"",""time""
""blur"",""75"",""279968""
","""event"",""trial"",""time""
""focus"",""75"",""279973""
","""event"",""trial"",""time""
""fullscreenenter"",""0"",""2405""
","""event"",""trial"",""time""
""fullscreenexit"",""93"",""318720""
","null","<p></p>","null","","","","","","","","","","","","","","","","","","","","","","","",""
"","do_trial","122","378697","0.0-70.0-0.0","""event"",""trial"",""time""
""fullscreenenter"",""0"",""2405""
""blur"",""75"",""279968""
""focus"",""75"",""279973""
""fullscreenexit"",""93"",""318720""
","""event"",""trial"",""time""
""blur"",""75"",""279968""
","""event"",""trial"",""time""
""focus"",""75"",""279973""
","""event"",""trial"",""time""
""fullscreenenter"",""0"",""2405""
","""event"",""trial"",""time""
""fullscreenexit"",""93"",""318720""
","85.39999997615814","","","","","","","","50","0,0,1","6","blank","281","null","0.3579212831023908","0.06677453614163743","0.8137729524104717","0","","","","","","","","",""
"","html-keyboard-response","123","379703","0.0-70.0-1.0","""event"",""trial"",""time""
""fullscreenenter"",""0"",""2405""
""blur"",""75"",""279968""
""focus"",""75"",""279973""
""fullscreenexit"",""93"",""318720""
","""event"",""trial"",""time""
""blur"",""75"",""279968""
","""event"",""trial"",""time""
""focus"",""75"",""279973""
","""event"",""trial"",""time""
""fullscreenenter"",""0"",""2405""
","""event"",""trial"",""time""
""fullscreenexit"",""93"",""318720""
","null","<p></p>","null","","","","","","","","","","","","","","","","","","","","","","","",""
"","do_recog","124","382467","0.0-71.0-0.0","""event"",""trial"",""time""
""fullscreenenter"",""0"",""2405""
""blur"",""75"",""279968""
""focus"",""75"",""279973""
""fullscreenexit"",""93"",""318720""
","""event"",""trial"",""time""
""blur"",""75"",""279968""
","""event"",""trial"",""time""
""focus"",""75"",""279973""
","""event"",""trial"",""time""
""fullscreenenter"",""0"",""2405""
","""event"",""trial"",""time""
""fullscreenexit"",""93"",""318720""
","1257.4000000953674","","","","","","","","53","","","","282","probe-217","","","","","1","[object Object]","77","1","1","","","",""
"","html-keyboard-response","125","383471","0.0-71.0-1.0","""event"",""trial"",""time""
""fullscreenenter"",""0"",""2405""
""blur"",""75"",""279968""
""focus"",""75"",""279973""
""fullscreenexit"",""93"",""318720""
","""event"",""trial"",""time""
""blur"",""75"",""279968""
","""event"",""trial"",""time""
""focus"",""75"",""279973""
","""event"",""trial"",""time""
""fullscreenenter"",""0"",""2405""
","""event"",""trial"",""time""
""fullscreenexit"",""93"",""318720""
","null","<p></p>","null","","","","","","","","","","","","","","","","","","","","","","","",""
"","do_trial","126","386215","0.0-72.0-0.0","""event"",""trial"",""time""
""fullscreenenter"",""0"",""2405""
""blur"",""75"",""279968""
""focus"",""75"",""279973""
""fullscreenexit"",""93"",""318720""
","""event"",""trial"",""time""
""blur"",""75"",""279968""
","""event"",""trial"",""time""
""focus"",""75"",""279973""
","""event"",""trial"",""time""
""fullscreenenter"",""0"",""2405""
","""event"",""trial"",""time""
""fullscreenexit"",""93"",""318720""
","198.79999995231628","","","","","","","","51","0,0,1","6","blank","283","null","0.4086017968932526","0.10661717988925004","0.8393647236558078","1","","","","","","","","",""
"","html-keyboard-response","127","387220","0.0-72.0-1.0","""event"",""trial"",""time""
""fullscreenenter"",""0"",""2405""
""blur"",""75"",""279968""
""focus"",""75"",""279973""
""fullscreenexit"",""93"",""318720""
","""event"",""trial"",""time""
""blur"",""75"",""279968""
","""event"",""trial"",""time""
""focus"",""75"",""279973""
","""event"",""trial"",""time""
""fullscreenenter"",""0"",""2405""
","""event"",""trial"",""time""
""fullscreenexit"",""93"",""318720""
","null","<p></p>","null","","","","","","","","","","","","","","","","","","","","","","","",""
"","do_trial","128","389823","0.0-73.0-0.0","""event"",""trial"",""time""
""fullscreenenter"",""0"",""2405""
""blur"",""75"",""279968""
""focus"",""75"",""279973""
""fullscreenexit"",""93"",""318720""
","""event"",""trial"",""time""
""blur"",""75"",""279968""
","""event"",""trial"",""time""
""focus"",""75"",""279973""
","""event"",""trial"",""time""
""fullscreenenter"",""0"",""2405""
","""event"",""trial"",""time""
""fullscreenexit"",""93"",""318720""
","63.60000002384186","","","","","","","","51","0,1,1","6","blank","284","null","0.3025686332210979","0.20114153765157397","0.8284186846034194","1","","","","","","","","",""
"","html-keyboard-response","129","390827","0.0-73.0-1.0","""event"",""trial"",""time""
""fullscreenenter"",""0"",""2405""
""blur"",""75"",""279968""
""focus"",""75"",""279973""
""fullscreenexit"",""93"",""318720""
","""event"",""trial"",""time""
""blur"",""75"",""279968""
","""event"",""trial"",""time""
""focus"",""75"",""279973""
","""event"",""trial"",""time""
""fullscreenenter"",""0"",""2405""
","""event"",""trial"",""time""
""fullscreenexit"",""93"",""318720""
","null","<p></p>","null","","","","","","","","","","","","","","","","","","","","","","","",""
"","do_recog","130","392480","0.0-74.0-0.0","""event"",""trial"",""time""
""fullscreenenter"",""0"",""2405""
""blur"",""75"",""279968""
""focus"",""75"",""279973""
""fullscreenexit"",""93"",""318720""
","""event"",""trial"",""time""
""blur"",""75"",""279968""
","""event"",""trial"",""time""
""focus"",""75"",""279973""
","""event"",""trial"",""time""
""fullscreenenter"",""0"",""2405""
","""event"",""trial"",""time""
""fullscreenexit"",""93"",""318720""
","145.30000007152557","","","","","","","","53","","","","285","probe-184","","","","","1","[object Object]","195","4","1","","","",""
"","html-keyboard-response","131","393485","0.0-74.0-1.0","""event"",""trial"",""time""
""fullscreenenter"",""0"",""2405""
""blur"",""75"",""279968""
""focus"",""75"",""279973""
""fullscreenexit"",""93"",""318720""
","""event"",""trial"",""time""
""blur"",""75"",""279968""
","""event"",""trial"",""time""
""focus"",""75"",""279973""
","""event"",""trial"",""time""
""fullscreenenter"",""0"",""2405""
","""event"",""trial"",""time""
""fullscreenexit"",""93"",""318720""
","null","<p></p>","null","","","","","","","","","","","","","","","","","","","","","","","",""
"","do_trial","132","396030","0.0-75.0-0.0","""event"",""trial"",""time""
""fullscreenenter"",""0"",""2405""
""blur"",""75"",""279968""
""focus"",""75"",""279973""
""fullscreenexit"",""93"",""318720""
","""event"",""trial"",""time""
""blur"",""75"",""279968""
","""event"",""trial"",""time""
""focus"",""75"",""279973""
","""event"",""trial"",""time""
""fullscreenenter"",""0"",""2405""
","""event"",""trial"",""time""
""fullscreenexit"",""93"",""318720""
","0.10000002384185791","","","","","","","","50","0,0,0","6","blank","286","null","0.30633115254497584","0.18224629132211745","0.922032398878923","0","","","","","","","","",""
"","html-keyboard-response","133","397033","0.0-75.0-1.0","""event"",""trial"",""time""
""fullscreenenter"",""0"",""2405""
""blur"",""75"",""279968""
""focus"",""75"",""279973""
""fullscreenexit"",""93"",""318720""
","""event"",""trial"",""time""
""blur"",""75"",""279968""
","""event"",""trial"",""time""
""focus"",""75"",""279973""
","""event"",""trial"",""time""
""fullscreenenter"",""0"",""2405""
","""event"",""trial"",""time""
""fullscreenexit"",""93"",""318720""
","null","<p></p>","null","","","","","","","","","","","","","","","","","","","","","","","",""
"","do_recog","134","398568","0.0-76.0-0.0","""event"",""trial"",""time""
""fullscreenenter"",""0"",""2405""
""blur"",""75"",""279968""
""focus"",""75"",""279973""
""fullscreenexit"",""93"",""318720""
","""event"",""trial"",""time""
""blur"",""75"",""279968""
","""event"",""trial"",""time""
""focus"",""75"",""279973""
","""event"",""trial"",""time""
""fullscreenenter"",""0"",""2405""
","""event"",""trial"",""time""
""fullscreenexit"",""93"",""318720""
","27.100000023841858","","","","","","","","53","","","","287","probe-166","","","","","1","[object Object]","198","4","1","","","",""
"","html-keyboard-response","135","399571","0.0-76.0-1.0","""event"",""trial"",""time""
""fullscreenenter"",""0"",""2405""
""blur"",""75"",""279968""
""focus"",""75"",""279973""
""fullscreenexit"",""93"",""318720""
","""event"",""trial"",""time""
""blur"",""75"",""279968""
","""event"",""trial"",""time""
""focus"",""75"",""279973""
","""event"",""trial"",""time""
""fullscreenenter"",""0"",""2405""
","""event"",""trial"",""time""
""fullscreenexit"",""93"",""318720""
","null","<p></p>","null","","","","","","","","","","","","","","","","","","","","","","","",""
"","do_trial","136","403323","0.0-77.0-0.0","""event"",""trial"",""time""
""fullscreenenter"",""0"",""2405""
""blur"",""75"",""279968""
""focus"",""75"",""279973""
""fullscreenexit"",""93"",""318720""
","""event"",""trial"",""time""
""blur"",""75"",""279968""
","""event"",""trial"",""time""
""focus"",""75"",""279973""
","""event"",""trial"",""time""
""fullscreenenter"",""0"",""2405""
","""event"",""trial"",""time""
""fullscreenexit"",""93"",""318720""
","1212.4000000953674","","","","","","","","51","1,0,1","6","blank","288","null","0.305196764525878","0.23709346634705433","0.750044286276212","1","","","","","","","","",""
"","html-keyboard-response","137","404324","0.0-77.0-1.0","""event"",""trial"",""time""
""fullscreenenter"",""0"",""2405""
""blur"",""75"",""279968""
""focus"",""75"",""279973""
""fullscreenexit"",""93"",""318720""
","""event"",""trial"",""time""
""blur"",""75"",""279968""
","""event"",""trial"",""time""
""focus"",""75"",""279973""
","""event"",""trial"",""time""
""fullscreenenter"",""0"",""2405""
","""event"",""trial"",""time""
""fullscreenexit"",""93"",""318720""
","null","<p></p>","null","","","","","","","","","","","","","","","","","","","","","","","",""
"","do_recog","138","407533","0.0-78.0-0.0","""event"",""trial"",""time""
""fullscreenenter"",""0"",""2405""
""blur"",""75"",""279968""
""focus"",""75"",""279973""
""fullscreenexit"",""93"",""318720""
","""event"",""trial"",""time""
""blur"",""75"",""279968""
","""event"",""trial"",""time""
""focus"",""75"",""279973""
","""event"",""trial"",""time""
""fullscreenenter"",""0"",""2405""
","""event"",""trial"",""time""
""fullscreenexit"",""93"",""318720""
","1701.7999999523163","","","","","","","","53","","","","289","probe-126","","","","","1","[object Object]","36","0","1","","","",""
"","html-keyboard-response","139","408537","0.0-78.0-1.0","""event"",""trial"",""time""
""fullscreenenter"",""0"",""2405""
""blur"",""75"",""279968""
""focus"",""75"",""279973""
""fullscreenexit"",""93"",""318720""
","""event"",""trial"",""time""
""blur"",""75"",""279968""
","""event"",""trial"",""time""
""focus"",""75"",""279973""
","""event"",""trial"",""time""
""fullscreenenter"",""0"",""2405""
","""event"",""trial"",""time""
""fullscreenexit"",""93"",""318720""
","null","<p></p>","null","","","","","","","","","","","","","","","","","","","","","","","",""
"","do_trial","140","411164","0.0-79.0-0.0","""event"",""trial"",""time""
""fullscreenenter"",""0"",""2405""
""blur"",""75"",""279968""
""focus"",""75"",""279973""
""fullscreenexit"",""93"",""318720""
","""event"",""trial"",""time""
""blur"",""75"",""279968""
","""event"",""trial"",""time""
""focus"",""75"",""279973""
","""event"",""trial"",""time""
""fullscreenenter"",""0"",""2405""
","""event"",""trial"",""time""
""fullscreenexit"",""93"",""318720""
","87","","","","","","","","51","1,1,1","6","blank","290","null","0.240200557001001","0.2502202722334802","0.7288997931191977","1","","","","","","","","",""
"","html-keyboard-response","141","412166","0.0-79.0-1.0","""event"",""trial"",""time""
""fullscreenenter"",""0"",""2405""
""blur"",""75"",""279968""
""focus"",""75"",""279973""
""fullscreenexit"",""93"",""318720""
","""event"",""trial"",""time""
""blur"",""75"",""279968""
","""event"",""trial"",""time""
""focus"",""75"",""279973""
","""event"",""trial"",""time""
""fullscreenenter"",""0"",""2405""
","""event"",""trial"",""time""
""fullscreenexit"",""93"",""318720""
","null","<p></p>","null","","","","","","","","","","","","","","","","","","","","","","","",""
"","do_trial","142","415137","0.0-80.0-0.0","""event"",""trial"",""time""
""fullscreenenter"",""0"",""2405""
""blur"",""75"",""279968""
""focus"",""75"",""279973""
""fullscreenexit"",""93"",""318720""
","""event"",""trial"",""time""
""blur"",""75"",""279968""
","""event"",""trial"",""time""
""focus"",""75"",""279973""
","""event"",""trial"",""time""
""fullscreenenter"",""0"",""2405""
","""event"",""trial"",""time""
""fullscreenexit"",""93"",""318720""
","429.10000002384186","","","","","","","","51","0,0,1","6","blank","291","null","0.16420542219414264","0.18437479141313276","0.6956248926789356","1","","","","","","","","",""
"","html-keyboard-response","143","416141","0.0-80.0-1.0","""event"",""trial"",""time""
""fullscreenenter"",""0"",""2405""
""blur"",""75"",""279968""
""focus"",""75"",""279973""
""fullscreenexit"",""93"",""318720""
","""event"",""trial"",""time""
""blur"",""75"",""279968""
","""event"",""trial"",""time""
""focus"",""75"",""279973""
","""event"",""trial"",""time""
""fullscreenenter"",""0"",""2405""
","""event"",""trial"",""time""
""fullscreenexit"",""93"",""318720""
","null","<p></p>","null","","","","","","","","","","","","","","","","","","","","","","","",""
"","do_trial","144","419008","0.0-81.0-0.0","""event"",""trial"",""time""
""fullscreenenter"",""0"",""2405""
""blur"",""75"",""279968""
""focus"",""75"",""279973""
""fullscreenexit"",""93"",""318720""
","""event"",""trial"",""time""
""blur"",""75"",""279968""
","""event"",""trial"",""time""
""focus"",""75"",""279973""
","""event"",""trial"",""time""
""fullscreenenter"",""0"",""2405""
","""event"",""trial"",""time""
""fullscreenexit"",""93"",""318720""
","322.89999997615814","","","","","","","","51","0,0,1","6","blank","292","null","0.21908066115874975","0.08577829964322023","0.6081515467146396","1","","","","","","","","",""
"","html-keyboard-response","145","420012","0.0-81.0-1.0","""event"",""trial"",""time""
""fullscreenenter"",""0"",""2405""
""blur"",""75"",""279968""
""focus"",""75"",""279973""
""fullscreenexit"",""93"",""318720""
","""event"",""trial"",""time""
""blur"",""75"",""279968""
","""event"",""trial"",""time""
""focus"",""75"",""279973""
","""event"",""trial"",""time""
""fullscreenenter"",""0"",""2405""
","""event"",""trial"",""time""
""fullscreenexit"",""93"",""318720""
","null","<p></p>","null","","","","","","","","","","","","","","","","","","","","","","","",""
"","do_trial","146","423189","0.0-82.0-0.0","""event"",""trial"",""time""
""fullscreenenter"",""0"",""2405""
""blur"",""75"",""279968""
""focus"",""75"",""279973""
""fullscreenexit"",""93"",""318720""
","""event"",""trial"",""time""
""blur"",""75"",""279968""
","""event"",""trial"",""time""
""focus"",""75"",""279973""
","""event"",""trial"",""time""
""fullscreenenter"",""0"",""2405""
","""event"",""trial"",""time""
""fullscreenexit"",""93"",""318720""
","637.3000000715256","","","","","","","","51","0,0,0","6","blank","293","null","0.14465957959447145","0.052867713028601146","0.682740047710935","0","","","","","","","","",""
"","html-keyboard-response","147","424194","0.0-82.0-1.0","""event"",""trial"",""time""
""fullscreenenter"",""0"",""2405""
""blur"",""75"",""279968""
""focus"",""75"",""279973""
""fullscreenexit"",""93"",""318720""
","""event"",""trial"",""time""
""blur"",""75"",""279968""
","""event"",""trial"",""time""
""focus"",""75"",""279973""
","""event"",""trial"",""time""
""fullscreenenter"",""0"",""2405""
","""event"",""trial"",""time""
""fullscreenexit"",""93"",""318720""
","null","<p></p>","null","","","","","","","","","","","","","","","","","","","","","","","",""
"","do_trial","148","427300","0.0-83.0-0.0","""event"",""trial"",""time""
""fullscreenenter"",""0"",""2405""
""blur"",""75"",""279968""
""focus"",""75"",""279973""
""fullscreenexit"",""93"",""318720""
","""event"",""trial"",""time""
""blur"",""75"",""279968""
","""event"",""trial"",""time""
""focus"",""75"",""279973""
","""event"",""trial"",""time""
""fullscreenenter"",""0"",""2405""
","""event"",""trial"",""time""
""fullscreenexit"",""93"",""318720""
","564","","","","","","","","51","0,0,1","6","blank","294","null","0.25428858306919977","0.18057481440563355","0.4869101646305352","1","","","","","","","","",""
"","html-keyboard-response","149","428305","0.0-83.0-1.0","""event"",""trial"",""time""
""fullscreenenter"",""0"",""2405""
""blur"",""75"",""279968""
""focus"",""75"",""279973""
""fullscreenexit"",""93"",""318720""
","""event"",""trial"",""time""
""blur"",""75"",""279968""
","""event"",""trial"",""time""
""focus"",""75"",""279973""
","""event"",""trial"",""time""
""fullscreenenter"",""0"",""2405""
","""event"",""trial"",""time""
""fullscreenexit"",""93"",""318720""
","null","<p></p>","null","","","","","","","","","","","","","","","","","","","","","","","",""
"","do_trial","150","431132","0.0-84.0-0.0","""event"",""trial"",""time""
""fullscreenenter"",""0"",""2405""
""blur"",""75"",""279968""
""focus"",""75"",""279973""
""fullscreenexit"",""93"",""318720""
","""event"",""trial"",""time""
""blur"",""75"",""279968""
","""event"",""trial"",""time""
""focus"",""75"",""279973""
","""event"",""trial"",""time""
""fullscreenenter"",""0"",""2405""
","""event"",""trial"",""time""
""fullscreenexit"",""93"",""318720""
","288","","","","","","","","51","0,0,1","6","blank","295","null","0.31632761373363383","0.3728017480471621","0.3007236327916049","1","","","","","","","","",""
"","html-keyboard-response","151","432136","0.0-84.0-1.0","""event"",""trial"",""time""
""fullscreenenter"",""0"",""2405""
""blur"",""75"",""279968""
""focus"",""75"",""279973""
""fullscreenexit"",""93"",""318720""
","""event"",""trial"",""time""
""blur"",""75"",""279968""
","""event"",""trial"",""time""
""focus"",""75"",""279973""
","""event"",""trial"",""time""
""fullscreenenter"",""0"",""2405""
","""event"",""trial"",""time""
""fullscreenexit"",""93"",""318720""
","null","<p></p>","null","","","","","","","","","","","","","","","","","","","","","","","",""
"","do_recog","152","433689","0.0-85.0-0.0","""event"",""trial"",""time""
""fullscreenenter"",""0"",""2405""
""blur"",""75"",""279968""
""focus"",""75"",""279973""
""fullscreenexit"",""93"",""318720""
","""event"",""trial"",""time""
""blur"",""75"",""279968""
","""event"",""trial"",""time""
""focus"",""75"",""279973""
","""event"",""trial"",""time""
""fullscreenenter"",""0"",""2405""
","""event"",""trial"",""time""
""fullscreenexit"",""93"",""318720""
","44.5","","","","","","","","53","","","","296","probe-233","","","","","0","[object Object]","null","null","0","","","",""
"","html-keyboard-response","153","434693","0.0-85.0-1.0","""event"",""trial"",""time""
""fullscreenenter"",""0"",""2405""
""blur"",""75"",""279968""
""focus"",""75"",""279973""
""fullscreenexit"",""93"",""318720""
","""event"",""trial"",""time""
""blur"",""75"",""279968""
","""event"",""trial"",""time""
""focus"",""75"",""279973""
","""event"",""trial"",""time""
""fullscreenenter"",""0"",""2405""
","""event"",""trial"",""time""
""fullscreenexit"",""93"",""318720""
","null","<p></p>","null","","","","","","","","","","","","","","","","","","","","","","","",""
"","do_trial","154","437237","0.0-86.0-0.0","""event"",""trial"",""time""
""fullscreenenter"",""0"",""2405""
""blur"",""75"",""279968""
""focus"",""75"",""279973""
""fullscreenexit"",""93"",""318720""
","""event"",""trial"",""time""
""blur"",""75"",""279968""
","""event"",""trial"",""time""
""focus"",""75"",""279973""
","""event"",""trial"",""time""
""fullscreenenter"",""0"",""2405""
","""event"",""trial"",""time""
""fullscreenexit"",""93"",""318720""
","0.10000002384185791","","","","","","","","51","0,0,0","6","blank","297","null","0.09965683965462495","0.40798811060528634","0.24738377877360168","0","","","","","","","","",""
"","html-keyboard-response","155","438238","0.0-86.0-1.0","""event"",""trial"",""time""
""fullscreenenter"",""0"",""2405""
""blur"",""75"",""279968""
""focus"",""75"",""279973""
""fullscreenexit"",""93"",""318720""
","""event"",""trial"",""time""
""blur"",""75"",""279968""
","""event"",""trial"",""time""
""focus"",""75"",""279973""
","""event"",""trial"",""time""
""fullscreenenter"",""0"",""2405""
","""event"",""trial"",""time""
""fullscreenexit"",""93"",""318720""
","null","<p></p>","null","","","","","","","","","","","","","","","","","","","","","","","",""
"","do_recog","156","440105","0.0-87.0-0.0","""event"",""trial"",""time""
""fullscreenenter"",""0"",""2405""
""blur"",""75"",""279968""
""focus"",""75"",""279973""
""fullscreenexit"",""93"",""318720""
","""event"",""trial"",""time""
""blur"",""75"",""279968""
","""event"",""trial"",""time""
""focus"",""75"",""279973""
","""event"",""trial"",""time""
""fullscreenenter"",""0"",""2405""
","""event"",""trial"",""time""
""fullscreenexit"",""93"",""318720""
","359","","","","","","","","53","","","","298","probe-127","","","","","1","[object Object]","159","3","1","","","",""
"","html-keyboard-response","157","441108","0.0-87.0-1.0","""event"",""trial"",""time""
""fullscreenenter"",""0"",""2405""
""blur"",""75"",""279968""
""focus"",""75"",""279973""
""fullscreenexit"",""93"",""318720""
","""event"",""trial"",""time""
""blur"",""75"",""279968""
","""event"",""trial"",""time""
""focus"",""75"",""279973""
","""event"",""trial"",""time""
""fullscreenenter"",""0"",""2405""
","""event"",""trial"",""time""
""fullscreenexit"",""93"",""318720""
","null","<p></p>","null","","","","","","","","","","","","","","","","","","","","","","","",""
"","do_trial","158","447158","0.0-88.0-0.0","""event"",""trial"",""time""
""fullscreenenter"",""0"",""2405""
""blur"",""75"",""279968""
""focus"",""75"",""279973""
""fullscreenexit"",""93"",""318720""
","""event"",""trial"",""time""
""blur"",""75"",""279968""
","""event"",""trial"",""time""
""focus"",""75"",""279973""
","""event"",""trial"",""time""
""fullscreenenter"",""0"",""2405""
","""event"",""trial"",""time""
""fullscreenexit"",""93"",""318720""
","null","","","","","","","","null","0,0,0","6","blank","299","null","0.13644526897000506","0.5097629325054291","0.33125411909459745","","","","","","","","","",""
"","html-keyboard-response","159","448164","0.0-88.0-1.0","""event"",""trial"",""time""
""fullscreenenter"",""0"",""2405""
""blur"",""75"",""279968""
""focus"",""75"",""279973""
""fullscreenexit"",""93"",""318720""
","""event"",""trial"",""time""
""blur"",""75"",""279968""
","""event"",""trial"",""time""
""focus"",""75"",""279973""
","""event"",""trial"",""time""
""fullscreenenter"",""0"",""2405""
","""event"",""trial"",""time""
""fullscreenexit"",""93"",""318720""
","null","<p></p>","null","","","","","","","","","","","","","","","","","","","","","","","",""
"","do_trial","160","454212","0.0-89.0-0.0","""event"",""trial"",""time""
""fullscreenenter"",""0"",""2405""
""blur"",""75"",""279968""
""focus"",""75"",""279973""
""fullscreenexit"",""93"",""318720""
","""event"",""trial"",""time""
""blur"",""75"",""279968""
","""event"",""trial"",""time""
""focus"",""75"",""279973""
","""event"",""trial"",""time""
""fullscreenenter"",""0"",""2405""
","""event"",""trial"",""time""
""fullscreenexit"",""93"",""318720""
","null","","","","","","","","null","0,0,1","6","blank","300","null","0.08148496890927254","0.5246699544278534","0.2656233060132046","","","","","","","","","",""
"","html-keyboard-response","161","455215","0.0-89.0-1.0","""event"",""trial"",""time""
""fullscreenenter"",""0"",""2405""
""blur"",""75"",""279968""
""focus"",""75"",""279973""
""fullscreenexit"",""93"",""318720""
","""event"",""trial"",""time""
""blur"",""75"",""279968""
","""event"",""trial"",""time""
""focus"",""75"",""279973""
","""event"",""trial"",""time""
""fullscreenenter"",""0"",""2405""
","""event"",""trial"",""time""
""fullscreenexit"",""93"",""318720""
","null","<p></p>","null","","","","","","","","","","","","","","","","","","","","","","","",""
"","do_trial","162","459765","0.0-90.0-0.0","""event"",""trial"",""time""
""fullscreenenter"",""0"",""2405""
""blur"",""75"",""279968""
""focus"",""75"",""279973""
""fullscreenexit"",""93"",""318720""
","""event"",""trial"",""time""
""blur"",""75"",""279968""
","""event"",""trial"",""time""
""focus"",""75"",""279973""
","""event"",""trial"",""time""
""fullscreenenter"",""0"",""2405""
","""event"",""trial"",""time""
""fullscreenexit"",""93"",""318720""
","2008.6999999284744","","","","","","","","51","0,1,0","6","blank","301","null","0.1668728574025347","0.45843191071068945","0.3702340065950387","0","","","","","","","","",""
"","html-keyboard-response","163","460768","0.0-90.0-1.0","""event"",""trial"",""time""
""fullscreenenter"",""0"",""2405""
""blur"",""75"",""279968""
""focus"",""75"",""279973""
""fullscreenexit"",""93"",""318720""
","""event"",""trial"",""time""
""blur"",""75"",""279968""
","""event"",""trial"",""time""
""focus"",""75"",""279973""
","""event"",""trial"",""time""
""fullscreenenter"",""0"",""2405""
","""event"",""trial"",""time""
""fullscreenexit"",""93"",""318720""
","null","<p></p>","null","","","","","","","","","","","","","","","","","","","","","","","",""
"","do_trial","164","463636","0.0-91.0-0.0","""event"",""trial"",""time""
""fullscreenenter"",""0"",""2405""
""blur"",""75"",""279968""
""focus"",""75"",""279973""
""fullscreenexit"",""93"",""318720""
","""event"",""trial"",""time""
""blur"",""75"",""279968""
","""event"",""trial"",""time""
""focus"",""75"",""279973""
","""event"",""trial"",""time""
""fullscreenenter"",""0"",""2405""
","""event"",""trial"",""time""
""fullscreenexit"",""93"",""318720""
","326","","","","","","","","51","0,1,0","6","blank","302","null","0.20001291627846343","0.5188283393295147","0.23611889935865382","0","","","","","","","","",""
"","html-keyboard-response","165","464638","0.0-91.0-1.0","""event"",""trial"",""time""
""fullscreenenter"",""0"",""2405""
""blur"",""75"",""279968""
""focus"",""75"",""279973""
""fullscreenexit"",""93"",""318720""
","""event"",""trial"",""time""
""blur"",""75"",""279968""
","""event"",""trial"",""time""
""focus"",""75"",""279973""
","""event"",""trial"",""time""
""fullscreenenter"",""0"",""2405""
","""event"",""trial"",""time""
""fullscreenexit"",""93"",""318720""
","null","<p></p>","null","","","","","","","","","","","","","","","","","","","","","","","",""
"","do_trial","166","467226","0.0-92.0-0.0","""event"",""trial"",""time""
""fullscreenenter"",""0"",""2405""
""blur"",""75"",""279968""
""focus"",""75"",""279973""
""fullscreenexit"",""93"",""318720""
","""event"",""trial"",""time""
""blur"",""75"",""279968""
","""event"",""trial"",""time""
""focus"",""75"",""279973""
","""event"",""trial"",""time""
""fullscreenenter"",""0"",""2405""
","""event"",""trial"",""time""
""fullscreenexit"",""93"",""318720""
","42.300000071525574","","","","","","","","51","0,0,0","6","blank","303","null","0.12273861568686265","0.4367253664727718","0.22841997505856526","0","","","","","","","","",""
"","html-keyboard-response","167","468231","0.0-92.0-1.0","""event"",""trial"",""time""
""fullscreenenter"",""0"",""2405""
""blur"",""75"",""279968""
""focus"",""75"",""279973""
""fullscreenexit"",""93"",""318720""
","""event"",""trial"",""time""
""blur"",""75"",""279968""
","""event"",""trial"",""time""
""focus"",""75"",""279973""
","""event"",""trial"",""time""
""fullscreenenter"",""0"",""2405""
","""event"",""trial"",""time""
""fullscreenexit"",""93"",""318720""
","null","<p></p>","null","","","","","","","","","","","","","","","","","","","","","","","",""
"","do_recog","168","469759","0.0-93.0-0.0","""event"",""trial"",""time""
""fullscreenenter"",""0"",""2405""
""blur"",""75"",""279968""
""focus"",""75"",""279973""
""fullscreenexit"",""93"",""318720""
","""event"",""trial"",""time""
""blur"",""75"",""279968""
","""event"",""trial"",""time""
""focus"",""75"",""279973""
","""event"",""trial"",""time""
""fullscreenenter"",""0"",""2405""
","""event"",""trial"",""time""
""fullscreenexit"",""93"",""318720""
","20.09999990463257","","","","","","","","53","","","","304","probe-16","","","","","1","[object Object]","74","1","1","","","",""
"","html-keyboard-response","169","470762","0.0-93.0-1.0","""event"",""trial"",""time""
""fullscreenenter"",""0"",""2405""
""blur"",""75"",""279968""
""focus"",""75"",""279973""
""fullscreenexit"",""93"",""318720""
","""event"",""trial"",""time""
""blur"",""75"",""279968""
","""event"",""trial"",""time""
""focus"",""75"",""279973""
","""event"",""trial"",""time""
""fullscreenenter"",""0"",""2405""
","""event"",""trial"",""time""
""fullscreenexit"",""93"",""318720""
","null","<p></p>","null","","","","","","","","","","","","","","","","","","","","","","","",""
"","do_trial","170","476806","0.0-94.0-0.0","""event"",""trial"",""time""
""fullscreenenter"",""0"",""2405""
""blur"",""75"",""279968""
""focus"",""75"",""279973""
""fullscreenexit"",""93"",""318720""
","""event"",""trial"",""time""
""blur"",""75"",""279968""
","""event"",""trial"",""time""
""focus"",""75"",""279973""
","""event"",""trial"",""time""
""fullscreenenter"",""0"",""2405""
","""event"",""trial"",""time""
""fullscreenexit"",""93"",""318720""
","null","","","","","","","","null","0,1,0","6","blank","305","null","0.05991453589838283","0.614428958962778","0.32501575572545455","","","","","","","","","",""
"","html-keyboard-response","171","477810","0.0-94.0-1.0","""event"",""trial"",""time""
""fullscreenenter"",""0"",""2405""
""blur"",""75"",""279968""
""focus"",""75"",""279973""
""fullscreenexit"",""93"",""318720""
","""event"",""trial"",""time""
""blur"",""75"",""279968""
","""event"",""trial"",""time""
""focus"",""75"",""279973""
","""event"",""trial"",""time""
""fullscreenenter"",""0"",""2405""
","""event"",""trial"",""time""
""fullscreenexit"",""93"",""318720""
","null","<p></p>","null","","","","","","","","","","","","","","","","","","","","","","","",""
"","do_recog","172","479346","0.0-95.0-0.0","""event"",""trial"",""time""
""fullscreenenter"",""0"",""2405""
""blur"",""75"",""279968""
""focus"",""75"",""279973""
""fullscreenexit"",""93"",""318720""
","""event"",""trial"",""time""
""blur"",""75"",""279968""
","""event"",""trial"",""time""
""focus"",""75"",""279973""
","""event"",""trial"",""time""
""fullscreenenter"",""0"",""2405""
","""event"",""trial"",""time""
""fullscreenexit"",""93"",""318720""
","28.799999952316284","","","","","","","","54","","","","306","probe-225","","","","","1","[object Object]","191","4","1","","","",""
"","html-keyboard-response","173","480348","0.0-95.0-1.0","""event"",""trial"",""time""
""fullscreenenter"",""0"",""2405""
""blur"",""75"",""279968""
""focus"",""75"",""279973""
""fullscreenexit"",""93"",""318720""
","""event"",""trial"",""time""
""blur"",""75"",""279968""
","""event"",""trial"",""time""
""focus"",""75"",""279973""
","""event"",""trial"",""time""
""fullscreenenter"",""0"",""2405""
","""event"",""trial"",""time""
""fullscreenexit"",""93"",""318720""
","null","<p></p>","null","","","","","","","","","","","","","","","","","","","","","","","",""
"","do_trial","174","485071","0.0-96.0-0.0","""event"",""trial"",""time""
""fullscreenenter"",""0"",""2405""
""blur"",""75"",""279968""
""focus"",""75"",""279973""
""fullscreenexit"",""93"",""318720""
","""event"",""trial"",""time""
""blur"",""75"",""279968""
","""event"",""trial"",""time""
""focus"",""75"",""279973""
","""event"",""trial"",""time""
""fullscreenenter"",""0"",""2405""
","""event"",""trial"",""time""
""fullscreenexit"",""93"",""318720""
","2178.399999976158","","","","","","","","51","0,0,0","6","blank","307","null","0.099494419309507","0.6028105704474056","0.276701314995518","0","","","","","","","","",""
"","html-keyboard-response","175","486075","0.0-96.0-1.0","""event"",""trial"",""time""
""fullscreenenter"",""0"",""2405""
""blur"",""75"",""279968""
""focus"",""75"",""279973""
""fullscreenexit"",""93"",""318720""
","""event"",""trial"",""time""
""blur"",""75"",""279968""
","""event"",""trial"",""time""
""focus"",""75"",""279973""
","""event"",""trial"",""time""
""fullscreenenter"",""0"",""2405""
","""event"",""trial"",""time""
""fullscreenexit"",""93"",""318720""
","null","<p></p>","null","","","","","","","","","","","","","","","","","","","","","","","",""
"","do_trial","176","488637","0.0-97.0-0.0","""event"",""trial"",""time""
""fullscreenenter"",""0"",""2405""
""blur"",""75"",""279968""
""focus"",""75"",""279973""
""fullscreenexit"",""93"",""318720""
","""event"",""trial"",""time""
""blur"",""75"",""279968""
","""event"",""trial"",""time""
""focus"",""75"",""279973""
","""event"",""trial"",""time""
""fullscreenenter"",""0"",""2405""
","""event"",""trial"",""time""
""fullscreenexit"",""93"",""318720""
","20.699999928474426","","","","","","","","51","0,1,0","6","blank","308","null","0.1064376084539115","0.6123251114294617","0.1334664745599413","0","","","","","","","","",""
"","html-keyboard-response","177","489639","0.0-97.0-1.0","""event"",""trial"",""time""
""fullscreenenter"",""0"",""2405""
""blur"",""75"",""279968""
""focus"",""75"",""279973""
""fullscreenexit"",""93"",""318720""
","""event"",""trial"",""time""
""blur"",""75"",""279968""
","""event"",""trial"",""time""
""focus"",""75"",""279973""
","""event"",""trial"",""time""
""fullscreenenter"",""0"",""2405""
","""event"",""trial"",""time""
""fullscreenexit"",""93"",""318720""
","null","<p></p>","null","","","","","","","","","","","","","","","","","","","","","","","",""
"","break","178","493502","0.0-98.0-0.0","""event"",""trial"",""time""
""fullscreenenter"",""0"",""2405""
""blur"",""75"",""279968""
""focus"",""75"",""279973""
""fullscreenexit"",""93"",""318720""
","""event"",""trial"",""time""
""blur"",""75"",""279968""
","""event"",""trial"",""time""
""focus"",""75"",""279973""
","""event"",""trial"",""time""
""fullscreenenter"",""0"",""2405""
","""event"",""trial"",""time""
""fullscreenexit"",""93"",""318720""
","3861.8000000715256","<div class='center'><p>Time to take a quick break! You have 2 minutes to rest, but you can move on sooner if you'd like.</p><p> Press the <b>space bar</b> to continue.</p></div>","32","","","","","","","","","","","","","","","","","","","","","","","",""
"","do_trial","179","499544","0.0-98.0-1.0","""event"",""trial"",""time""
""fullscreenenter"",""0"",""2405""
""blur"",""75"",""279968""
""focus"",""75"",""279973""
""fullscreenexit"",""93"",""318720""
","""event"",""trial"",""time""
""blur"",""75"",""279968""
","""event"",""trial"",""time""
""focus"",""75"",""279973""
","""event"",""trial"",""time""
""fullscreenenter"",""0"",""2405""
","""event"",""trial"",""time""
""fullscreenexit"",""93"",""318720""
","null","","","","","","","","null","0,1,0","6","blank","309","null","0.1645919851898725","0.523529551204931","0.1939763870639937","","","","","","","","","",""
"","html-keyboard-response","180","500548","0.0-98.0-2.0","""event"",""trial"",""time""
""fullscreenenter"",""0"",""2405""
""blur"",""75"",""279968""
""focus"",""75"",""279973""
""fullscreenexit"",""93"",""318720""
","""event"",""trial"",""time""
""blur"",""75"",""279968""
","""event"",""trial"",""time""
""focus"",""75"",""279973""
","""event"",""trial"",""time""
""fullscreenenter"",""0"",""2405""
","""event"",""trial"",""time""
""fullscreenexit"",""93"",""318720""
","null","<p></p>","null","","","","","","","","","","","","","","","","","","","","","","","",""
"","do_trial","181","503169","0.0-99.0-0.0","""event"",""trial"",""time""
""fullscreenenter"",""0"",""2405""
""blur"",""75"",""279968""
""focus"",""75"",""279973""
""fullscreenexit"",""93"",""318720""
","""event"",""trial"",""time""
""blur"",""75"",""279968""
","""event"",""trial"",""time""
""focus"",""75"",""279973""
","""event"",""trial"",""time""
""fullscreenenter"",""0"",""2405""
","""event"",""trial"",""time""
""fullscreenexit"",""93"",""318720""
","81","","","","","","","","50","0,0,0","6","blank","310","null","0.07080711287851087","0.5504705482661945","0.2901219872494291","0","","","","","","","","",""
"","html-keyboard-response","182","504170","0.0-99.0-1.0","""event"",""trial"",""time""
""fullscreenenter"",""0"",""2405""
""blur"",""75"",""279968""
""focus"",""75"",""279973""
""fullscreenexit"",""93"",""318720""
","""event"",""trial"",""time""
""blur"",""75"",""279968""
","""event"",""trial"",""time""
""focus"",""75"",""279973""
","""event"",""trial"",""time""
""fullscreenenter"",""0"",""2405""
","""event"",""trial"",""time""
""fullscreenexit"",""93"",""318720""
","null","<p></p>","null","","","","","","","","","","","","","","","","","","","","","","","",""
"","do_trial","183","506914","0.0-100.0-0.0","""event"",""trial"",""time""
""fullscreenenter"",""0"",""2405""
""blur"",""75"",""279968""
""focus"",""75"",""279973""
""fullscreenexit"",""93"",""318720""
","""event"",""trial"",""time""
""blur"",""75"",""279968""
","""event"",""trial"",""time""
""focus"",""75"",""279973""
","""event"",""trial"",""time""
""fullscreenenter"",""0"",""2405""
","""event"",""trial"",""time""
""fullscreenexit"",""93"",""318720""
","207.89999997615814","","","","","","","","51","0,0,0","6","blank","311","null","0.17367928412402364","0.5939687871129467","0.31268088080277195","0","","","","","","","","",""
"","html-keyboard-response","184","507917","0.0-100.0-1.0","""event"",""trial"",""time""
""fullscreenenter"",""0"",""2405""
""blur"",""75"",""279968""
""focus"",""75"",""279973""
""fullscreenexit"",""93"",""318720""
","""event"",""trial"",""time""
""blur"",""75"",""279968""
","""event"",""trial"",""time""
""focus"",""75"",""279973""
","""event"",""trial"",""time""
""fullscreenenter"",""0"",""2405""
","""event"",""trial"",""time""
""fullscreenexit"",""93"",""318720""
","null","<p></p>","null","","","","","","","","","","","","","","","","","","","","","","","",""
"","do_recog","185","510618","0.0-101.0-0.0","""event"",""trial"",""time""
""fullscreenenter"",""0"",""2405""
""blur"",""75"",""279968""
""focus"",""75"",""279973""
""fullscreenexit"",""93"",""318720""
","""event"",""trial"",""time""
""blur"",""75"",""279968""
","""event"",""trial"",""time""
""focus"",""75"",""279973""
","""event"",""trial"",""time""
""fullscreenenter"",""0"",""2405""
","""event"",""trial"",""time""
""fullscreenexit"",""93"",""318720""
","1191.7999999523163","","","","","","","","53","","","","312","probe-246","","","","","0","[object Object]","null","null","0","","","",""
"","html-keyboard-response","186","511622","0.0-101.0-1.0","""event"",""trial"",""time""
""fullscreenenter"",""0"",""2405""
""blur"",""75"",""279968""
""focus"",""75"",""279973""
""fullscreenexit"",""93"",""318720""
","""event"",""trial"",""time""
""blur"",""75"",""279968""
","""event"",""trial"",""time""
""focus"",""75"",""279973""
","""event"",""trial"",""time""
""fullscreenenter"",""0"",""2405""
","""event"",""trial"",""time""
""fullscreenexit"",""93"",""318720""
","null","<p></p>","null","","","","","","","","","","","","","","","","","","","","","","","",""
"","do_trial","187","514242","0.0-102.0-0.0","""event"",""trial"",""time""
""fullscreenenter"",""0"",""2405""
""blur"",""75"",""279968""
""focus"",""75"",""279973""
""fullscreenexit"",""93"",""318720""
","""event"",""trial"",""time""
""blur"",""75"",""279968""
","""event"",""trial"",""time""
""focus"",""75"",""279973""
","""event"",""trial"",""time""
""fullscreenenter"",""0"",""2405""
","""event"",""trial"",""time""
""fullscreenexit"",""93"",""318720""
","76.5","","","","","","","","49","0,1,1","6","blank","313","null","0.12206317728005475","0.6022829511560022","0.34383610711161916","0","","","","","","","","",""
"","html-keyboard-response","188","515247","0.0-102.0-1.0","""event"",""trial"",""time""
""fullscreenenter"",""0"",""2405""
""blur"",""75"",""279968""
""focus"",""75"",""279973""
""fullscreenexit"",""93"",""318720""
","""event"",""trial"",""time""
""blur"",""75"",""279968""
","""event"",""trial"",""time""
""focus"",""75"",""279973""
","""event"",""trial"",""time""
""fullscreenenter"",""0"",""2405""
","""event"",""trial"",""time""
""fullscreenexit"",""93"",""318720""
","null","<p></p>","null","","","","","","","","","","","","","","","","","","","","","","","",""
"","do_recog","189","517267","0.0-103.0-0.0","""event"",""trial"",""time""
""fullscreenenter"",""0"",""2405""
""blur"",""75"",""279968""
""focus"",""75"",""279973""
""fullscreenexit"",""93"",""318720""
