"success","trial_type","trial_index","time_elapsed","internal_node_id","interactions","blur_events","focus_events","fullscreenenter_events","fullscreenexit_events","rt","stimulus","key_press","subject_id","participant_id","age","gender","prompt","response","choice_outcomes","context_n","context_img_id","trial_n","probe_img_id","pR_red","pR_white","pR_black","outcome","is_valid","image_to_show","probed_trial","probed_context","correct","probe","probed_trial_n","probed_context_n","context_im"
"true","fullscreen","0","3825","0.0-0.0","""event"",""trial"",""time""
""fullscreenenter"",""0"",""2905""
","
","
","""event"",""trial"",""time""
""fullscreenenter"",""0"",""2905""
","
","","","","","","","","","","","","","","","","","","","","","","","","","","",""
"","pavlovia","1","3832","0.0-1.0","""event"",""trial"",""time""
""fullscreenenter"",""0"",""2905""
","
","
","""event"",""trial"",""time""
""fullscreenenter"",""0"",""2905""
","
","","","","","","","","","","","","","","","","","","","","","","","","","","",""
"","welc_back","2","13669","0.0-2.0","""event"",""trial"",""time""
""fullscreenenter"",""0"",""2905""
","
","
","""event"",""trial"",""time""
""fullscreenenter"",""0"",""2905""
","
","null","run_exp/static/audio/clip_29_welcome_back.m4a","null","565","659","13","Male","<div class='center'><p>Welcome to day 2!</p><p> Yesterday, you were the head captain of a pirate ship. You asked your fellow pirates to rob other ships of their gold across six different islands.</p></div>","","","","","","","","","","","","","","","","","","",""
"","html-keyboard-response","3","14758","0.0-3.0","""event"",""trial"",""time""
""fullscreenenter"",""0"",""2905""
","
","
","""event"",""trial"",""time""
""fullscreenenter"",""0"",""2905""
","
","1086.8999999985099","<div class='center'><p>Welcome to day 2!</p><p> Yesterday, you were the head captain of a pirate ship. You asked your fellow pirates to rob other ships of their gold across six different islands.</p><p><b>[Press the space bar to continue]</b></p></div>","32","","","","","","","","","","","","","","","","","","","","","","","",""
"","day_1_summary_goal","4","31989","0.0-4.0","""event"",""trial"",""time""
""fullscreenenter"",""0"",""2905""
","
","
","""event"",""trial"",""time""
""fullscreenenter"",""0"",""2905""
","
","null","run_exp/static/audio/clip_30_goal_of_game.m4a","null","","","","","<div class='center'><p>Today, like yesterday, you get to pick which pirate you want to rob the next ship.</p><p>If the pirate is successful in robbing a ship, you get gold coins that look like this: </p><p><img src='run_exp/static/images/tutorial/reward.png' height='150'></p><p> If they were not successful in robbing the ship, then you will get no gold coins and you'll see a big red x like this: </p><p><img src='run_exp/static/images/tutorial/reward_no.png' height='150'></p></div>","","","","","","","","","","","","","","","","","","",""
"","html-keyboard-response","5","32324","0.0-5.0","""event"",""trial"",""time""
""fullscreenenter"",""0"",""2905""
","
","
","""event"",""trial"",""time""
""fullscreenenter"",""0"",""2905""
","
","332.79999999701977","<div class='center'><p>Today, like yesterday, you get to pick which pirate you want to rob the next ship.</p><p>If the pirate is successful in robbing a ship, you get gold coins that look like this: </p><p><img src='run_exp/static/images/tutorial/reward.png' height='150'></p><p> If they were not successful in robbing the ship, then you will get no gold coins and you'll see a big red x like this: </p><p><img src='run_exp/static/images/tutorial/reward_no.png' height='150'></p><p><b>[Press the space bar to continue]</b></p></div>","32","","","","","","","","","","","","","","","","","","","","","","","",""
"","day_1_summary_pick","6","47037","0.0-6.0","""event"",""trial"",""time""
""fullscreenenter"",""0"",""2905""
","
","
","""event"",""trial"",""time""
""fullscreenenter"",""0"",""2905""
","
","null","run_exp/static/audio/clip_31_how_to_pick_a_pirate.m4a","null","","","","","<div class='center'><p>Also, just like yesterday, you will use the 1,2,3 keys on your keyboard to pick a pirate. Press '1' to choose red beard, '2' to choose white beard, and '3' to choose black beard . You only have 3 seconds to pick a pirate, so please make a choice quickly!</p></div>","","","","","","","","","","","","","","","","","","",""
"","html-keyboard-response","7","48205","0.0-7.0","""event"",""trial"",""time""
""fullscreenenter"",""0"",""2905""
","
","
","""event"",""trial"",""time""
""fullscreenenter"",""0"",""2905""
","
","1167.3000000044703","<div class='center'><p>Also, just like yesterday, you will use the 1,2,3 keys on your keyboard to pick a pirate. Press '1' to choose red beard, '2' to choose white beard, and '3' to choose black beard . You only have 3 seconds to pick a pirate, so please make a choice quickly!</p><p><b>[Press the space bar to continue]</b></p></div>","32","","","","","","","","","","","","","","","","","","","","","","","",""
"","test_phase_begin","8","78616","0.0-8.0","""event"",""trial"",""time""
""fullscreenenter"",""0"",""2905""
","
","
","""event"",""trial"",""time""
""fullscreenenter"",""0"",""2905""
","
","null","run_exp/static/audio/clip_32_final_place.m4a","null","","","","","<div class='center'><p>You’ve arrived at the final island of your journey! Unfortunately, it’s very foggy out, so you won’t be able to see it in the distance like the other islands you've visited.</p><p>You’ll still be deciding which pirate you want to rob a ship like before. However, because of the fog, you also won’t be able to see the ship.</p><p>This means you do not have to remember the ships you rob on this island.</p><p>Unlike yesterday, you won't be visiting multiple islands today. You will stay on this island for the entire game. This game will last ~30 minutes.</p></div>","","","","","","","","","","","","","","","","","","",""
"","html-keyboard-response","9","78994","0.0-9.0","""event"",""trial"",""time""
""fullscreenenter"",""0"",""2905""
","
","
","""event"",""trial"",""time""
""fullscreenenter"",""0"",""2905""
","
","376.69999999552965","<div class='center'><p>You’ve arrived at the final island of your journey! Unfortunately, it’s very foggy out, so you won’t be able to see it in the distance like the other islands you've visited.</p><p>You’ll still be deciding which pirate you want to rob a ship like before. However, because of the fog, you also won’t be able to see the ship.</p><p>This means you do not have to remember the ships you rob on this island.</p><p>Unlike yesterday, you won't be visiting multiple islands today. You will stay on this island for the entire game. This game will last ~30 minutes.</p><p><b>[Press the space bar to continue]</b></p></div>","32","","","","","","","","","","","","","","","","","","","","","","","",""
"","explain_probe_1","10","86721","0.0-10.0","""event"",""trial"",""time""
""fullscreenenter"",""0"",""2905""
","
","
","""event"",""trial"",""time""
""fullscreenenter"",""0"",""2905""
","
","null","run_exp/static/audio/clip_33_recognition_1.m4a","null","","","","","<div class='center'><p> Sometimes you’ll be shown a ship, and you will be asked if you saw this ship on a past island.</p><p> Here is an example of what you will see.</p><p><img src='run_exp/static/images/tutorial/example_recog_trial.png' height='500'></p></div>","","","","","","","","","","","","","","","","","","",""
"","html-keyboard-response","11","87649","0.0-11.0","""event"",""trial"",""time""
""fullscreenenter"",""0"",""2905""
","
","
","""event"",""trial"",""time""
""fullscreenenter"",""0"",""2905""
","
","926.2000000029802","<div class='center'><p> Sometimes you’ll be shown a ship, and you will be asked if you saw this ship on a past island.</p><p> Here is an example of what you will see.</p><p><img src='run_exp/static/images/tutorial/example_recog_trial.png' height='500'></p><p><b>[Press the space bar to continue]</b></p></div>","32","","","","","","","","","","","","","","","","","","","","","","","",""
"","explain_probe_2","12","109361","0.0-12.0","""event"",""trial"",""time""
""fullscreenenter"",""0"",""2905""
","
","
","""event"",""trial"",""time""
""fullscreenenter"",""0"",""2905""
","
","null","run_exp/static/audio/clip_34_recognition_2.m4a","null","","","","","<div class='center'><p> You will press the 5, 6, 7, 8 keys on your keyboard to respond.</p><p>If you are sure you saw the ship, press <b>5</b> on your keyboard.</p><p> If you think you saw it before but aren't sure, then press <b>6</b>.</p><p> If you think you have <b>not</b> seen it before but aren't sure, then press <b>7</b>.</p><p> If you are sure you did <b>not</b> see the ship before, then press <b>8</b>.</p><p><img src='run_exp/static/images/tutorial/example_recog_trial.png' height='500'></p></div>","","","","","","","","","","","","","","","","","","",""
"","html-keyboard-response","13","110038","0.0-13.0","""event"",""trial"",""time""
""fullscreenenter"",""0"",""2905""
","
","
","""event"",""trial"",""time""
""fullscreenenter"",""0"",""2905""
","
","676.2999999970198","<div class='center'><p> You will press the 5, 6, 7, 8 keys on your keyboard to respond.</p><p>If you are sure you saw the ship, press <b>5</b> on your keyboard.</p><p> If you think you saw it before but aren't sure, then press <b>6</b>.</p><p> If you think you have <b>not</b> seen it before but aren't sure, then press <b>7</b>.</p><p> If you are sure you did <b>not</b> see the ship before, then press <b>8</b>.</p><p><img src='run_exp/static/images/tutorial/example_recog_trial.png' height='500'></p><p><b>[Press the space bar to continue]</b></p></div>","32","","","","","","","","","","","","","","","","","","","","","","","",""
"","explain_outcome","14","127264","0.0-14.0","""event"",""trial"",""time""
""fullscreenenter"",""0"",""2905""
","
","
","""event"",""trial"",""time""
""fullscreenenter"",""0"",""2905""
","
","null","run_exp/static/audio/clip_35_recognition_3.m4a","null","","","","","<div class='center'><p> If you remember correctly, then you’ll get a gold coin like this: </p><p><img src='run_exp/static/images/tutorial/reward_small.png' height='200'></p><p>If you do not remember correctly, then you'll see a red x like this: </p><p><img src='run_exp/static/images/tutorial/reward_no.png' height='200'></p><p>Importantly, when you are shown a ship, take the time to remind yourself which island you saw it on. This will help you in the next part of the study.</p></div>","","","","","","","","","","","","","","","","","","",""
"","html-keyboard-response","15","127832","0.0-15.0","""event"",""trial"",""time""
""fullscreenenter"",""0"",""2905""
","
","
","""event"",""trial"",""time""
""fullscreenenter"",""0"",""2905""
","
","566.4000000059605","<div class='center'><p> If you remember correctly, then you’ll get a gold coin like this: </p><p><img src='run_exp/static/images/tutorial/reward_small.png' height='200'></p><p>If you do not remember correctly, then you'll see a red x like this: </p><p><img src='run_exp/static/images/tutorial/reward_no.png' height='200'></p><p>Importantly, when you are shown a ship, take the time to remind yourself which island you saw it on. This will help you in the next part of the study.</p><p><b>[Press the space bar to continue]</b></p></div>","32","","","","","","","","","","","","","","","","","","","","","","","",""
"","begin_test_phase","16","143658","0.0-16.0","""event"",""trial"",""time""
""fullscreenenter"",""0"",""2905""
","
","
","""event"",""trial"",""time""
""fullscreenenter"",""0"",""2905""
","
","null","run_exp/static/audio/clip_36_begin_final.m4a","null","","","","","<div class='center'><p>Let's go over the important points again. Your job is to: </p><p>1. Pick the pirate who is best at robbing ships and will bring you back gold coins. </p><p>2. Correctly remember whether or not you saw a ship before. If you did see the ship before, remind yourself on which island you saw it. </p></div>","","","","","","","","","","","","","","","","","","",""
"","html-keyboard-response","17","144963","0.0-17.0","""event"",""trial"",""time""
""fullscreenenter"",""0"",""2905""
","
","
","""event"",""trial"",""time""
""fullscreenenter"",""0"",""2905""
","
","1244.5","<div class='center'><p>Let's go over the important points again. Your job is to: </p><p>1. Pick the pirate who is best at robbing ships and will bring you back gold coins. </p><p>2. Correctly remember whether or not you saw a ship before. If you did see the ship before, remind yourself on which island you saw it. </p><p><b>[Press the space bar to continue]</b></p></div>","32","","","","","","","","","","","","","","","","","","","","","","","",""
"","do_welcome","18","148993","0.0-18.0","""event"",""trial"",""time""
""fullscreenenter"",""0"",""2905""
","
","
","""event"",""trial"",""time""
""fullscreenenter"",""0"",""2905""
","
","null","","","","","","","","null","","","","","","","","","","","","","","","","","",""
"","do_trial","19","153112","0.0-19.0-0.0","""event"",""trial"",""time""
""fullscreenenter"",""0"",""2905""
","
","
","""event"",""trial"",""time""
""fullscreenenter"",""0"",""2905""
","
","1558.3999999985099","","","","","","","","49","0,0,1","6","blank","230","null","0.34344733388799","0.20861997062137264","0.5120577939650078","0","","","","","","","","",""
"","html-keyboard-response","20","154118","0.0-19.0-1.0","""event"",""trial"",""time""
""fullscreenenter"",""0"",""2905""
","
","
","""event"",""trial"",""time""
""fullscreenenter"",""0"",""2905""
","
","null","<p></p>","null","","","","","","","","","","","","","","","","","","","","","","","",""
"","do_trial","21","157473","0.0-20.0-0.0","""event"",""trial"",""time""
""fullscreenenter"",""0"",""2905""
","
","
","""event"",""trial"",""time""
""fullscreenenter"",""0"",""2905""
","
","799","","","","","","","","50","1,0,0","6","blank","231","null","0.29752204436498647","0.1482890461552397","0.4369404805952328","0","","","","","","","","",""
"","html-keyboard-response","22","158475","0.0-20.0-1.0","""event"",""trial"",""time""
""fullscreenenter"",""0"",""2905""
","
","
","""event"",""trial"",""time""
""fullscreenenter"",""0"",""2905""
","
","null","<p></p>","null","","","","","","","","","","","","","","","","","","","","","","","",""
"","do_trial","23","161316","0.0-21.0-0.0","""event"",""trial"",""time""
""fullscreenenter"",""0"",""2905""
","
","
","""event"",""trial"",""time""
""fullscreenenter"",""0"",""2905""
","
","292.70000000298023","","","","","","","","51","0,0,0","6","blank","232","null","0.5248543396250887","0.06591293881746337","0.4370746588322315","0","","","","","","","","",""
"","html-keyboard-response","24","162319","0.0-21.0-1.0","""event"",""trial"",""time""
""fullscreenenter"",""0"",""2905""
","
","
","""event"",""trial"",""time""
""fullscreenenter"",""0"",""2905""
","
","null","<p></p>","null","","","","","","","","","","","","","","","","","","","","","","","",""
"","do_trial","25","165157","0.0-22.0-0.0","""event"",""trial"",""time""
""fullscreenenter"",""0"",""2905""
","
","
","""event"",""trial"",""time""
""fullscreenenter"",""0"",""2905""
","
","286.19999999552965","","","","","","","","49","1,0,0","6","blank","233","null","0.3893437589479442","0.07429996985861471","0.5640795072520988","1","","","","","","","","",""
"","html-keyboard-response","26","166162","0.0-22.0-1.0","""event"",""trial"",""time""
""fullscreenenter"",""0"",""2905""
","
","
","""event"",""trial"",""time""
""fullscreenenter"",""0"",""2905""
","
","null","<p></p>","null","","","","","","","","","","","","","","","","","","","","","","","",""
"","do_trial","27","169288","0.0-23.0-0.0","""event"",""trial"",""time""
""fullscreenenter"",""0"",""2905""
","
","
","""event"",""trial"",""time""
""fullscreenenter"",""0"",""2905""
","
","572","","","","","","","","49","1,0,1","6","blank","234","null","0.3685844133318164","0.09333719101647564","0.5560569078247343","1","","","","","","","","",""
"","html-keyboard-response","28","170293","0.0-23.0-1.0","""event"",""trial"",""time""
""fullscreenenter"",""0"",""2905""
","
","
","""event"",""trial"",""time""
""fullscreenenter"",""0"",""2905""
","
","null","<p></p>","null","","","","","","","","","","","","","","","","","","","","","","","",""
"","do_trial","29","173175","0.0-24.0-0.0","""event"",""trial"",""time""
""fullscreenenter"",""0"",""2905""
","
","
","""event"",""trial"",""time""
""fullscreenenter"",""0"",""2905""
","
","332","","","","","","","","49","1,0,1","6","blank","235","null","0.25308642105759926","0.06754785154123609","0.6390717334287619","1","","","","","","","","",""
"","html-keyboard-response","30","174180","0.0-24.0-1.0","""event"",""trial"",""time""
""fullscreenenter"",""0"",""2905""
","
","
","""event"",""trial"",""time""
""fullscreenenter"",""0"",""2905""
","
","null","<p></p>","null","","","","","","","","","","","","","","","","","","","","","","","",""
"","do_trial","31","177028","0.0-25.0-0.0","""event"",""trial"",""time""
""fullscreenenter"",""0"",""2905""
","
","
","""event"",""trial"",""time""
""fullscreenenter"",""0"",""2905""
","
","297.5","","","","","","","","49","0,0,1","6","blank","236","null","0.24425921214728608","0.1479491050525146","0.5659671282403126","0","","","","","","","","",""
"","html-keyboard-response","32","178030","0.0-25.0-1.0","""event"",""trial"",""time""
""fullscreenenter"",""0"",""2905""
","
","
","""event"",""trial"",""time""
""fullscreenenter"",""0"",""2905""
","
","null","<p></p>","null","","","","","","","","","","","","","","","","","","","","","","","",""
"","do_trial","33","180578","0.0-26.0-0.0","""event"",""trial"",""time""
""fullscreenenter"",""0"",""2905""
","
","
","""event"",""trial"",""time""
""fullscreenenter"",""0"",""2905""
","
","0.20000000298023224","","","","","","","","49","0,0,1","6","blank","237","null","0.23214198217072313","0.10762431431184194","0.6681246846615281","0","","","","","","","","",""
"","html-keyboard-response","34","181580","0.0-26.0-1.0","""event"",""trial"",""time""
""fullscreenenter"",""0"",""2905""
","
","
","""event"",""trial"",""time""
""fullscreenenter"",""0"",""2905""
","
","null","<p></p>","null","","","","","","","","","","","","","","","","","","","","","","","",""
"","do_trial","35","184511","0.0-27.0-0.0","""event"",""trial"",""time""
""fullscreenenter"",""0"",""2905""
","
","
","""event"",""trial"",""time""
""fullscreenenter"",""0"",""2905""
","
","378.1000000014901","","","","","","","","49","0,0,1","6","blank","238","null","0.32639117109817295","0.08513494986853205","0.7969381552724335","0","","","","","","","","",""
"","html-keyboard-response","36","185517","0.0-27.0-1.0","""event"",""trial"",""time""
""fullscreenenter"",""0"",""2905""
","
","
","""event"",""trial"",""time""
""fullscreenenter"",""0"",""2905""
","
","null","<p></p>","null","","","","","","","","","","","","","","","","","","","","","","","",""
"","do_trial","37","188360","0.0-28.0-0.0","""event"",""trial"",""time""
""fullscreenenter"",""0"",""2905""
","
","
","""event"",""trial"",""time""
""fullscreenenter"",""0"",""2905""
","
","289.6000000014901","","","","","","","","51","1,0,1","6","blank","239","null","0.4622212109666943","0.1051486676547913","0.6946918319413198","1","","","","","","","","",""
"","html-keyboard-response","38","189366","0.0-28.0-1.0","""event"",""trial"",""time""
""fullscreenenter"",""0"",""2905""
","
","
","""event"",""trial"",""time""
""fullscreenenter"",""0"",""2905""
","
","null","<p></p>","null","","","","","","","","","","","","","","","","","","","","","","","",""
"","do_trial","39","192245","0.0-29.0-0.0","""event"",""trial"",""time""
""fullscreenenter"",""0"",""2905""
","
","
","""event"",""trial"",""time""
""fullscreenenter"",""0"",""2905""
","
","331.40000000596046","","","","","","","","51","0,0,1","6","blank","240","null","0.5028205566164978","0.0720065517025099","0.7032542370837913","1","","","","","","","","",""
"","html-keyboard-response","40","193250","0.0-29.0-1.0","""event"",""trial"",""time""
""fullscreenenter"",""0"",""2905""
","
","
","""event"",""trial"",""time""
""fullscreenenter"",""0"",""2905""
","
","null","<p></p>","null","","","","","","","","","","","","","","","","","","","","","","","",""
"","do_recog","41","199262","0.0-30.0-0.0","""event"",""trial"",""time""
""fullscreenenter"",""0"",""2905""
","
","
","""event"",""trial"",""time""
""fullscreenenter"",""0"",""2905""
","
","null","","","","","","","","null","","","","241","probe-69","","","","","1","[object Object]","159","3","0","","","",""
"","html-keyboard-response","42","200267","0.0-30.0-1.0","""event"",""trial"",""time""
""fullscreenenter"",""0"",""2905""
","
","
","""event"",""trial"",""time""
""fullscreenenter"",""0"",""2905""
","
","null","<p></p>","null","","","","","","","","","","","","","","","","","","","","","","","",""
"","do_trial","43","203791","0.0-31.0-0.0","""event"",""trial"",""time""
""fullscreenenter"",""0"",""2905""
","
","
","""event"",""trial"",""time""
""fullscreenenter"",""0"",""2905""
","
","973.1000000014901","","","","","","","","51","1,1,1","6","blank","242","null","0.5510966662320417","0.07632989271053825","0.6780895397069884","1","","","","","","","","",""
"","html-keyboard-response","44","204797","0.0-31.0-1.0","""event"",""trial"",""time""
""fullscreenenter"",""0"",""2905""
","
","
","""event"",""trial"",""time""
""fullscreenenter"",""0"",""2905""
","
","null","<p></p>","null","","","","","","","","","","","","","","","","","","","","","","","",""
"","do_trial","45","207779","0.0-32.0-0.0","""event"",""trial"",""time""
""fullscreenenter"",""0"",""2905""
","
","
","""event"",""trial"",""time""
""fullscreenenter"",""0"",""2905""
","
","425.6000000014901","","","","","","","","51","1,0,1","6","blank","243","null","0.4630066797609387","0.08058108891464824","0.5705555000521886","1","","","","","","","","",""
"","html-keyboard-response","46","208785","0.0-32.0-1.0","""event"",""trial"",""time""
""fullscreenenter"",""0"",""2905""
","
","
","""event"",""trial"",""time""
""fullscreenenter"",""0"",""2905""
","
","null","<p></p>","null","","","","","","","","","","","","","","","","","","","","","","","",""
"","do_trial","47","212021","0.0-33.0-0.0","""event"",""trial"",""time""
""fullscreenenter"",""0"",""2905""
","
","
","""event"",""trial"",""time""
""fullscreenenter"",""0"",""2905""
","
","681.6999999955297","","","","","","","","51","1,0,1","6","blank","244","null","0.5456246039766608","0.12186687468053745","0.36125134983203494","1","","","","","","","","",""
"","html-keyboard-response","48","213026","0.0-33.0-1.0","""event"",""trial"",""time""
""fullscreenenter"",""0"",""2905""
","
","
","""event"",""trial"",""time""
""fullscreenenter"",""0"",""2905""
","
","null","<p></p>","null","","","","","","","","","","","","","","","","","","","","","","","",""
"","do_trial","49","216043","0.0-34.0-0.0","""event"",""trial"",""time""
""fullscreenenter"",""0"",""2905""
","
","
","""event"",""trial"",""time""
""fullscreenenter"",""0"",""2905""
","
","466.80000000447035","","","","","","","","51","1,0,1","6","blank","245","null","0.5650235367531276","0.1007847164557398","0.3505860343252533","1","","","","","","","","",""
"","html-keyboard-response","50","217045","0.0-34.0-1.0","""event"",""trial"",""time""
""fullscreenenter"",""0"",""2905""
","
","
","""event"",""trial"",""time""
""fullscreenenter"",""0"",""2905""
","
","null","<p></p>","null","","","","","","","","","","","","","","","","","","","","","","","",""
"","do_recog","51","220597","0.0-35.0-0.0","""event"",""trial"",""time""
""fullscreenenter"",""0"",""2905""
","
","
","""event"",""trial"",""time""
""fullscreenenter"",""0"",""2905""
","
","2041","","","","","","","","54","","","","246","probe-176","","","","","1","[object Object]","150","3","1","","","",""
"","html-keyboard-response","52","221598","0.0-35.0-1.0","""event"",""trial"",""time""
""fullscreenenter"",""0"",""2905""
","
","
","""event"",""trial"",""time""
""fullscreenenter"",""0"",""2905""
","
","null","<p></p>","null","","","","","","","","","","","","","","","","","","","","","","","",""
"","do_trial","53","224841","0.0-36.0-0.0","""event"",""trial"",""time""
""fullscreenenter"",""0"",""2905""
","
","
","""event"",""trial"",""time""
""fullscreenenter"",""0"",""2905""
","
","690.6999999955297","","","","","","","","51","1,0,0","6","blank","247","null","0.5917966242030965","0.10030134950376997","0.2591382270217444","0","","","","","","","","",""
"","html-keyboard-response","54","225847","0.0-36.0-1.0","""event"",""trial"",""time""
""fullscreenenter"",""0"",""2905""
","
","
","""event"",""trial"",""time""
""fullscreenenter"",""0"",""2905""
","
","null","<p></p>","null","","","","","","","","","","","","","","","","","","","","","","","",""
"","do_trial","55","228720","0.0-37.0-0.0","""event"",""trial"",""time""
""fullscreenenter"",""0"",""2905""
","
","
","""event"",""trial"",""time""
""fullscreenenter"",""0"",""2905""
","
","319.1000000014901","","","","","","","","50","1,0,0","6","blank","248","null","0.5255221525943565","0.13218144861592745","0.2585566109501473","0","","","","","","","","",""
"","html-keyboard-response","56","229723","0.0-37.0-1.0","""event"",""trial"",""time""
""fullscreenenter"",""0"",""2905""
","
","
","""event"",""trial"",""time""
""fullscreenenter"",""0"",""2905""
","
","null","<p></p>","null","","","","","","","","","","","","","","","","","","","","","","","",""
"","do_trial","57","232633","0.0-38.0-0.0","""event"",""trial"",""time""
""fullscreenenter"",""0"",""2905""
","
","
","""event"",""trial"",""time""
""fullscreenenter"",""0"",""2905""
","
","362.19999999552965","","","","","","","","51","1,0,0","6","blank","249","null","0.5766260999235024","0.0993523259847044","0.2508015694169599","0","","","","","","","","",""
"","html-keyboard-response","58","233638","0.0-38.0-1.0","""event"",""trial"",""time""
""fullscreenenter"",""0"",""2905""
","
","
","""event"",""trial"",""time""
""fullscreenenter"",""0"",""2905""
","
","null","<p></p>","null","","","","","","","","","","","","","","","","","","","","","","","",""
"","do_trial","59","236472","0.0-39.0-0.0","""event"",""trial"",""time""
""fullscreenenter"",""0"",""2905""
","
","
","""event"",""trial"",""time""
""fullscreenenter"",""0"",""2905""
","
","280.30000000447035","","","","","","","","51","0,0,0","6","blank","250","null","0.6704515924083602","0.07530268677950376","0.17131767405656967","0","","","","","","","","",""
"","html-keyboard-response","60","237478","0.0-39.0-1.0","""event"",""trial"",""time""
""fullscreenenter"",""0"",""2905""
","
","
","""event"",""trial"",""time""
""fullscreenenter"",""0"",""2905""
","
","null","<p></p>","null","","","","","","","","","","","","","","","","","","","","","","","",""
"","do_trial","61","240042","0.0-40.0-0.0","""event"",""trial"",""time""
""fullscreenenter"",""0"",""2905""
","
","
","""event"",""trial"",""time""
""fullscreenenter"",""0"",""2905""
","
","14.799999997019768","","","","","","","","49","1,0,0","6","blank","251","null","0.6939032469794119","0.0732379369466518","0.20659740850122166","1","","","","","","","","",""
"","html-keyboard-response","62","241046","0.0-40.0-1.0","""event"",""trial"",""time""
""fullscreenenter"",""0"",""2905""
","
","
","""event"",""trial"",""time""
""fullscreenenter"",""0"",""2905""
","
","null","<p></p>","null","","","","","","","","","","","","","","","","","","","","","","","",""
"","do_trial","63","244092","0.0-41.0-0.0","""event"",""trial"",""time""
""fullscreenenter"",""0"",""2905""
","
","
","""event"",""trial"",""time""
""fullscreenenter"",""0"",""2905""
","
","491.5","","","","","","","","49","1,0,0","6","blank","252","null","0.8037520713803811","0.27415806180087765","0.3120078199462323","1","","","","","","","","",""
"","html-keyboard-response","64","245095","0.0-41.0-1.0","""event"",""trial"",""time""
""fullscreenenter"",""0"",""2905""
","
","
","""event"",""trial"",""time""
""fullscreenenter"",""0"",""2905""
","
","null","<p></p>","null","","","","","","","","","","","","","","","","","","","","","","","",""
"","do_recog","65","248844","0.0-42.0-0.0","""event"",""trial"",""time""
""fullscreenenter"",""0"",""2905""
","
","
","""event"",""trial"",""time""
""fullscreenenter"",""0"",""2905""
","
","2236.5","","","","","","","","55","","","","253","probe-241","","","","","0","[object Object]","null","null","1","","","",""
"","html-keyboard-response","66","249849","0.0-42.0-1.0","""event"",""trial"",""time""
""fullscreenenter"",""0"",""2905""
","
","
","""event"",""trial"",""time""
""fullscreenenter"",""0"",""2905""
","
","null","<p></p>","null","","","","","","","","","","","","","","","","","","","","","","","",""
"","do_trial","67","252958","0.0-43.0-0.0","""event"",""trial"",""time""
""fullscreenenter"",""0"",""2905""
","
","
","""event"",""trial"",""time""
""fullscreenenter"",""0"",""2905""
","
","564.2000000029802","","","","","","","","49","1,0,0","6","blank","254","null","0.7581171860013523","0.13109233793121697","0.4504455906038585","1","","","","","","","","",""
"","html-keyboard-response","68","253964","0.0-43.0-1.0","""event"",""trial"",""time""
""fullscreenenter"",""0"",""2905""
","
","
","""event"",""trial"",""time""
""fullscreenenter"",""0"",""2905""
","
","null","<p></p>","null","","","","","","","","","","","","","","","","","","","","","","","",""
"","do_trial","69","256864","0.0-44.0-0.0","""event"",""trial"",""time""
""fullscreenenter"",""0"",""2905""
","
","
","""event"",""trial"",""time""
""fullscreenenter"",""0"",""2905""
","
","345.79999999701977","","","","","","","","49","1,0,0","6","blank","255","null","0.6571221537273668","0.1492371082147804","0.32337553234920313","1","","","","","","","","",""
"","html-keyboard-response","70","257868","0.0-44.0-1.0","""event"",""trial"",""time""
""fullscreenenter"",""0"",""2905""
","
","
","""event"",""trial"",""time""
""fullscreenenter"",""0"",""2905""
","
","null","<p></p>","null","","","","","","","","","","","","","","","","","","","","","","","",""
"","do_trial","71","260765","0.0-45.0-0.0","""event"",""trial"",""time""
""fullscreenenter"",""0"",""2905""
","
","
","""event"",""trial"",""time""
""fullscreenenter"",""0"",""2905""
","
","347.5","","","","","","","","49","1,0,0","6","blank","256","null","0.8161742321506767","0.09223612406717865","0.3356436551685072","1","","","","","","","","",""
"","html-keyboard-response","72","261770","0.0-45.0-1.0","""event"",""trial"",""time""
""fullscreenenter"",""0"",""2905""
","
","
","""event"",""trial"",""time""
""fullscreenenter"",""0"",""2905""
","
","null","<p></p>","null","","","","","","","","","","","","","","","","","","","","","","","",""
"","do_trial","73","264776","0.0-46.0-0.0","""event"",""trial"",""time""
""fullscreenenter"",""0"",""2905""
","
","
","""event"",""trial"",""time""
""fullscreenenter"",""0"",""2905""
","
","452.59999999403954","","","","","","","","49","1,0,0","6","blank","257","null","0.643191447293064","0.12737403544200734","0.3474797985714578","1","","","","","","","","",""
"","html-keyboard-response","74","265781","0.0-46.0-1.0","""event"",""trial"",""time""
""fullscreenenter"",""0"",""2905""
","
","
","""event"",""trial"",""time""
""fullscreenenter"",""0"",""2905""
","
","null","<p></p>","null","","","","","","","","","","","","","","","","","","","","","","","",""
"","do_recog","75","270052","0.0-47.0-0.0","""event"",""trial"",""time""
""fullscreenenter"",""0"",""2905""
","
","
","""event"",""trial"",""time""
""fullscreenenter"",""0"",""2905""
","
","2761.5","","","","","","","","53","","","","258","probe-50","","","","","1","[object Object]","113","2","1","","","",""
"","html-keyboard-response","76","271057","0.0-47.0-1.0","""event"",""trial"",""time""
""fullscreenenter"",""0"",""2905""
","
","
","""event"",""trial"",""time""
""fullscreenenter"",""0"",""2905""
","
","null","<p></p>","null","","","","","","","","","","","","","","","","","","","","","","","",""
"","do_trial","77","274249","0.0-48.0-0.0","""event"",""trial"",""time""
""fullscreenenter"",""0"",""2905""
","
","
","""event"",""trial"",""time""
""fullscreenenter"",""0"",""2905""
","
","639.7000000029802","","","","","","","","49","1,1,0","6","blank","259","null","0.46232685409635565","0.17908997448660338","0.26616650022251637","1","","","","","","","","",""
"","html-keyboard-response","78","275254","0.0-48.0-1.0","""event"",""trial"",""time""
""fullscreenenter"",""0"",""2905""
","
","
","""event"",""trial"",""time""
""fullscreenenter"",""0"",""2905""
","
","null","<p></p>","null","","","","","","","","","","","","","","","","","","","","","","","",""
"","do_trial","79","278338","0.0-49.0-0.0","""event"",""trial"",""time""
""fullscreenenter"",""0"",""2905""
","
","
","""event"",""trial"",""time""
""fullscreenenter"",""0"",""2905""
","
","533.7999999970198","","","","","","","","49","0,0,0","6","blank","260","null","0.4945912843894539","0.09094299349305277","0.2315012674446589","0","","","","","","","","",""
"","html-keyboard-response","80","279343","0.0-49.0-1.0","""event"",""trial"",""time""
""fullscreenenter"",""0"",""2905""
","
","
","""event"",""trial"",""time""
""fullscreenenter"",""0"",""2905""
","
","null","<p></p>","null","","","","","","","","","","","","","","","","","","","","","","","",""
"","do_recog","81","282740","0.0-50.0-0.0","""event"",""trial"",""time""
""fullscreenenter"",""0"",""2905""
","
","
","""event"",""trial"",""time""
""fullscreenenter"",""0"",""2905""
","
","1888.6999999955297","","","","","","","","56","","","","261","probe-255","","","","","0","[object Object]","null","null","1","","","",""
"","html-keyboard-response","82","283745","0.0-50.0-1.0","""event"",""trial"",""time""
""fullscreenenter"",""0"",""2905""
","
","
","""event"",""trial"",""time""
""fullscreenenter"",""0"",""2905""
","
","null","<p></p>","null","","","","","","","","","","","","","","","","","","","","","","","",""
"","do_trial","83","287150","0.0-51.0-0.0","""event"",""trial"",""time""
""fullscreenenter"",""0"",""2905""
","
","
","""event"",""trial"",""time""
""fullscreenenter"",""0"",""2905""
","
","854.7999999970198","","","","","","","","50","1,0,1","6","blank","262","null","0.5788682333800541","0.06349857076782268","0.28709039616757426","0","","","","","","","","",""
"","html-keyboard-response","84","288156","0.0-51.0-1.0","""event"",""trial"",""time""
""fullscreenenter"",""0"",""2905""
","
","
","""event"",""trial"",""time""
""fullscreenenter"",""0"",""2905""
","
","null","<p></p>","null","","","","","","","","","","","","","","","","","","","","","","","",""
"","do_recog","85","291263","0.0-52.0-0.0","""event"",""trial"",""time""
""fullscreenenter"",""0"",""2905""
","
","
","""event"",""trial"",""time""
""fullscreenenter"",""0"",""2905""
","
","1594.2000000029802","","","","","","","","53","","","","263","probe-79","","","","","1","[object Object]","194","4","1","","","",""
"","html-keyboard-response","86","292268","0.0-52.0-1.0","""event"",""trial"",""time""
""fullscreenenter"",""0"",""2905""
","
","
","""event"",""trial"",""time""
""fullscreenenter"",""0"",""2905""
","
","null","<p></p>","null","","","","","","","","","","","","","","","","","","","","","","","",""
"","do_trial","87","295519","0.0-53.0-0.0","""event"",""trial"",""time""
""fullscreenenter"",""0"",""2905""
","
","
","""event"",""trial"",""time""
""fullscreenenter"",""0"",""2905""
","
","698.4000000059605","","","","","","","","51","1,0,1","6","blank","264","null","0.7124043462474673","0.05043547916785583","0.3649138875118085","1","","","","","","","","",""
"","html-keyboard-response","88","296523","0.0-53.0-1.0","""event"",""trial"",""time""
""fullscreenenter"",""0"",""2905""
","
","
","""event"",""trial"",""time""
""fullscreenenter"",""0"",""2905""
","
","null","<p></p>","null","","","","","","","","","","","","","","","","","","","","","","","",""
"","do_trial","89","299535","0.0-54.0-0.0","""event"",""trial"",""time""
""fullscreenenter"",""0"",""2905""
","
","
","""event"",""trial"",""time""
""fullscreenenter"",""0"",""2905""
","
","462.80000000447035","","","","","","","","51","1,0,0","6","blank","265","null","0.6585643721038396","0.11237727376937812","0.31435748640026745","0","","","","","","","","",""
"","html-keyboard-response","90","300540","0.0-54.0-1.0","""event"",""trial"",""time""
""fullscreenenter"",""0"",""2905""
","
","
","""event"",""trial"",""time""
""fullscreenenter"",""0"",""2905""
","
","null","<p></p>","null","","","","","","","","","","","","","","","","","","","","","","","",""
"","do_trial","91","303434","0.0-55.0-0.0","""event"",""trial"",""time""
""fullscreenenter"",""0"",""2905""
","
","
","""event"",""trial"",""time""
""fullscreenenter"",""0"",""2905""
","
","342.19999999552965","","","","","","","","49","0,1,0","6","blank","266","null","0.7029735933931103","0.09239599825351638","0.3553529867726094","0","","","","","","","","",""
"","html-keyboard-response","92","304440","0.0-55.0-1.0","""event"",""trial"",""time""
""fullscreenenter"",""0"",""2905""
","
","
","""event"",""trial"",""time""
""fullscreenenter"",""0"",""2905""
","
","null","<p></p>","null","","","","","","","","","","","","","","","","","","","","","","","",""
"","do_trial","93","307293","0.0-56.0-0.0","""event"",""trial"",""time""
""fullscreenenter"",""0"",""2905""
","
","
","""event"",""trial"",""time""
""fullscreenenter"",""0"",""2905""
","
","299.59999999403954","","","","","","","","50","1,0,0","6","blank","267","null","0.6965117636435307","0.07108018201992537","0.3928199391835424","0","","","","","","","","",""
"","html-keyboard-response","94","308298","0.0-56.0-1.0","""event"",""trial"",""time""
""fullscreenenter"",""0"",""2905""
","
","
","""event"",""trial"",""time""
""fullscreenenter"",""0"",""2905""
","
","null","<p></p>","null","","","","","","","","","","","","","","","","","","","","","","","",""
"","do_trial","95","311148","0.0-57.0-0.0","""event"",""trial"",""time""
""fullscreenenter"",""0"",""2905""
","
","
","""event"",""trial"",""time""
""fullscreenenter"",""0"",""2905""
","
","295.8999999985099","","","","","","","","51","0,0,0","6","blank","268","null","0.6582188446024602","0.07946526659118829","0.37334866813768464","0","","","","","","","","",""
"","html-keyboard-response","96","312153","0.0-57.0-1.0","""event"",""trial"",""time""
""fullscreenenter"",""0"",""2905""
","
","
","""event"",""trial"",""time""
""fullscreenenter"",""0"",""2905""
","
","null","<p></p>","null","","","","","","","","","","","","","","","","","","","","","","","",""
"","break","97","315796","0.0-58.0-0.0","""event"",""trial"",""time""
""fullscreenenter"",""0"",""2905""
","
","
","""event"",""trial"",""time""
""fullscreenenter"",""0"",""2905""
","
","3640.89999999851","<div class='center'><p>Time to take a quick break! You have 2 minutes to rest, but you can move on sooner if you'd like.</p><p> Press the <b>space bar</b> to continue.</p></div>","32","","","","","","","","","","","","","","","","","","","","","","","",""
"","do_trial","98","319887","0.0-58.0-1.0","""event"",""trial"",""time""
""fullscreenenter"",""0"",""2905""
","
","
","""event"",""trial"",""time""
""fullscreenenter"",""0"",""2905""
","
","1544.6999999955297","","","","","","","","51","1,0,0","6","blank","269","null","0.6099134820709489","0.11688139552262321","0.3322285571914371","0","","","","","","","","",""
"","html-keyboard-response","99","320889","0.0-58.0-2.0","""event"",""trial"",""time""
""fullscreenenter"",""0"",""2905""
","
","
","""event"",""trial"",""time""
""fullscreenenter"",""0"",""2905""
","
","null","<p></p>","null","","","","","","","","","","","","","","","","","","","","","","","",""
"","do_recog","100","324112","0.0-59.0-0.0","""event"",""trial"",""time""
""fullscreenenter"",""0"",""2905""
","
","
","""event"",""trial"",""time""
""fullscreenenter"",""0"",""2905""
","
","1712","","","","","","","","53","","","","270","probe-180","","","","","1","[object Object]","39","0","1","","","",""
"","html-keyboard-response","101","325117","0.0-59.0-1.0","""event"",""trial"",""time""
""fullscreenenter"",""0"",""2905""
","
","
","""event"",""trial"",""time""
""fullscreenenter"",""0"",""2905""
","
","null","<p></p>","null","","","","","","","","","","","","","","","","","","","","","","","",""
"","do_trial","102","328351","0.0-60.0-0.0","""event"",""trial"",""time""
""fullscreenenter"",""0"",""2905""
","
","
","""event"",""trial"",""time""
""fullscreenenter"",""0"",""2905""
","
","685.2000000029802","","","","","","","","50","0,0,1","6","blank","271","null","0.6655564427916117","0.11195642042151666","0.21640894157736207","0","","","","","","","","",""
"","html-keyboard-response","103","329357","0.0-60.0-1.0","""event"",""trial"",""time""
""fullscreenenter"",""0"",""2905""
","
","
","""event"",""trial"",""time""
""fullscreenenter"",""0"",""2905""
","
","null","<p></p>","null","","","","","","","","","","","","","","","","","","","","","","","",""
"","do_trial","104","332227","0.0-61.0-0.0","""event"",""trial"",""time""
""fullscreenenter"",""0"",""2905""
","
","
","""event"",""trial"",""time""
""fullscreenenter"",""0"",""2905""
","
","315.30000000447035","","","","","","","","50","1,0,0","6","blank","272","null","0.5657836711417986","0.2124080053586809","0.10948377817634444","0","","","","","","","","",""
"","html-keyboard-response","105","333233","0.0-61.0-1.0","""event"",""trial"",""time""
""fullscreenenter"",""0"",""2905""
","
","
","""event"",""trial"",""time""
""fullscreenenter"",""0"",""2905""
","
","null","<p></p>","null","","","","","","","","","","","","","","","","","","","","","","","",""
"","do_trial","106","336245","0.0-62.0-0.0","""event"",""trial"",""time""
""fullscreenenter"",""0"",""2905""
","
","
","""event"",""trial"",""time""
""fullscreenenter"",""0"",""2905""
","
","461","","","","","","","","49","1,0,0","6","blank","273","null","0.7130641688038449","0.1488450109076556","0.19225453024119404","1","","","","","","","","",""
"","html-keyboard-response","107","337250","0.0-62.0-1.0","""event"",""trial"",""time""
""fullscreenenter"",""0"",""2905""
","
","
","""event"",""trial"",""time""
""fullscreenenter"",""0"",""2905""
","
","null","<p></p>","null","","","","","","","","","","","","","","","","","","","","","","","",""
"","do_trial","108","340152","0.0-63.0-0.0","""event"",""trial"",""time""
""fullscreenenter"",""0"",""2905""
","
","
","""event"",""trial"",""time""
""fullscreenenter"",""0"",""2905""
","
","350.70000000298023","","","","","","","","49","0,1,1","6","blank","274","null","0.48409003719837496","0.12363836386799877","0.15685306270660468","0","","","","","","","","",""
"","html-keyboard-response","109","341156","0.0-63.0-1.0","""event"",""trial"",""time""
""fullscreenenter"",""0"",""2905""
","
","
","""event"",""trial"",""time""
""fullscreenenter"",""0"",""2905""
","
","null","<p></p>","null","","","","","","","","","","","","","","","","","","","","","","","",""
"","do_recog","110","345419","0.0-64.0-0.0","""event"",""trial"",""time""
""fullscreenenter"",""0"",""2905""
","
","
","""event"",""trial"",""time""
""fullscreenenter"",""0"",""2905""
","
","2751","","","","","","","","55","","","","275","probe-249","","","","","0","[object Object]","null","null","1","","","",""
"","html-keyboard-response","111","346422","0.0-64.0-1.0","""event"",""trial"",""time""
""fullscreenenter"",""0"",""2905""
","
","
","""event"",""trial"",""time""
""fullscreenenter"",""0"",""2905""
","
","null","<p></p>","null","","","","","","","","","","","","","","","","","","","","","","","",""
"","do_trial","112","349569","0.0-65.0-0.0","""event"",""trial"",""time""
""fullscreenenter"",""0"",""2905""
","
","
","""event"",""trial"",""time""
""fullscreenenter"",""0"",""2905""
","
","593","","","","","","","","51","0,0,1","6","blank","276","null","0.5507452991898037","0.116846289317536","0.22192703521276078","1","","","","","","","","",""
"","html-keyboard-response","113","350575","0.0-65.0-1.0","""event"",""trial"",""time""
""fullscreenenter"",""0"",""2905""
","
","
","""event"",""trial"",""time""
""fullscreenenter"",""0"",""2905""
","
","null","<p></p>","null","","","","","","","","","","","","","","","","","","","","","","","",""
"","do_recog","114","354570","0.0-66.0-0.0","""event"",""trial"",""time""
""fullscreenenter"",""0"",""2905""
","
","
","""event"",""trial"",""time""
""fullscreenenter"",""0"",""2905""
","
","2485","","","","","","","","56","","","","277","probe-242","","","","","0","[object Object]","null","null","1","","","",""
"","html-keyboard-response","115","355575","0.0-66.0-1.0","""event"",""trial"",""time""
""fullscreenenter"",""0"",""2905""
","
","
","""event"",""trial"",""time""
""fullscreenenter"",""0"",""2905""
","
","null","<p></p>","null","","","","","","","","","","","","","","","","","","","","","","","",""
"","do_trial","116","358781","0.0-67.0-0.0","""event"",""trial"",""time""
""fullscreenenter"",""0"",""2905""
","
","
","""event"",""trial"",""time""
""fullscreenenter"",""0"",""2905""
","
","653.1999999955297","","","","","","","","51","0,0,1","6","blank","278","null","0.5765427494238643","0.22730322867760144","0.1566800147634618","1","","","","","","","","",""
"","html-keyboard-response","117","359786","0.0-67.0-1.0","""event"",""trial"",""time""
""fullscreenenter"",""0"",""2905""
","
","
","""event"",""trial"",""time""
""fullscreenenter"",""0"",""2905""
","
","null","<p></p>","null","","","","","","","","","","","","","","","","","","","","","","","",""
"","do_trial","118","362878","0.0-68.0-0.0","""event"",""trial"",""time""
""fullscreenenter"",""0"",""2905""
","
","
","""event"",""trial"",""time""
""fullscreenenter"",""0"",""2905""
","
","536.3999999985099","","","","","","","","51","1,0,0","6","blank","279","null","0.600498851188341","0.20990468075909482","0.2591207449145453","0","","","","","","","","",""
"","html-keyboard-response","119","363883","0.0-68.0-1.0","""event"",""trial"",""time""
""fullscreenenter"",""0"",""2905""
","
","
","""event"",""trial"",""time""
""fullscreenenter"",""0"",""2905""
","
","null","<p></p>","null","","","","","","","","","","","","","","","","","","","","","","","",""
"","do_trial","120","366809","0.0-69.0-0.0","""event"",""trial"",""time""
""fullscreenenter"",""0"",""2905""
","
","
","""event"",""trial"",""time""
""fullscreenenter"",""0"",""2905""
","
","371.70000000298023","","","","","","","","51","1,0,0","6","blank","280","null","0.6902410732879894","0.16782954174711429","0.14316659668128393","0","","","","","","","","",""
"","html-keyboard-response","121","367814","0.0-69.0-1.0","""event"",""trial"",""time""
""fullscreenenter"",""0"",""2905""
","
","
","""event"",""trial"",""time""
""fullscreenenter"",""0"",""2905""
","
","null","<p></p>","null","","","","","","","","","","","","","","","","","","","","","","","",""
"","do_recog","122","371698","0.0-70.0-0.0","""event"",""trial"",""time""
""fullscreenenter"",""0"",""2905""
","
","
","""event"",""trial"",""time""
""fullscreenenter"",""0"",""2905""
","
","2375.60000000149","","","","","","","","55","","","","281","probe-178","","","","","1","[object Object]","191","4","0","","","",""
"","html-keyboard-response","123","372703","0.0-70.0-1.0","""event"",""trial"",""time""
""fullscreenenter"",""0"",""2905""
","
","
","""event"",""trial"",""time""
""fullscreenenter"",""0"",""2905""
","
","null","<p></p>","null","","","","","","","","","","","","","","","","","","","","","","","",""
"","do_trial","124","376540","0.0-71.0-0.0","""event"",""trial"",""time""
""fullscreenenter"",""0"",""2905""
","
","
","""event"",""trial"",""time""
""fullscreenenter"",""0"",""2905""
","
","1285.7999999970198","","","","","","","","49","1,0,0","6","blank","282","null","0.7052454946727637","0.19711960963261826","0.10582028047558925","1","","","","","","","","",""
"","html-keyboard-response","125","377545","0.0-71.0-1.0","""event"",""trial"",""time""
""fullscreenenter"",""0"",""2905""
","
","
","""event"",""trial"",""time""
""fullscreenenter"",""0"",""2905""
","
","null","<p></p>","null","","","","","","","","","","","","","","","","","","","","","","","",""
"","do_trial","126","380903","0.0-72.0-0.0","""event"",""trial"",""time""
""fullscreenenter"",""0"",""2905""
","
","
","""event"",""trial"",""time""
""fullscreenenter"",""0"",""2905""
","
","802.4000000059605","","","","","","","","49","1,0,1","6","blank","283","null","0.5536498927368879","0.22812315736441988","0.12720284884387026","1","","","","","","","","",""
"","html-keyboard-response","127","381908","0.0-72.0-1.0","""event"",""trial"",""time""
""fullscreenenter"",""0"",""2905""
","
","
","""event"",""trial"",""time""
""fullscreenenter"",""0"",""2905""
","
","null","<p></p>","null","","","","","","","","","","","","","","","","","","","","","","","",""
"","do_trial","128","385057","0.0-73.0-0.0","""event"",""trial"",""time""
""fullscreenenter"",""0"",""2905""
","
","
","""event"",""trial"",""time""
""fullscreenenter"",""0"",""2905""
","
","599.7999999970198","","","","","","","","49","1,1,0","6","blank","284","null","0.5975966174598204","0.3065513742307264","0.09474879579241564","1","","","","","","","","",""
"","html-keyboard-response","129","386061","0.0-73.0-1.0","""event"",""trial"",""time""
""fullscreenenter"",""0"",""2905""
","
","
","""event"",""trial"",""time""
""fullscreenenter"",""0"",""2905""
","
","null","<p></p>","null","","","","","","","","","","","","","","","","","","","","","","","",""
"","do_trial","130","389314","0.0-74.0-0.0","""event"",""trial"",""time""
""fullscreenenter"",""0"",""2905""
","
","
","""event"",""trial"",""time""
""fullscreenenter"",""0"",""2905""
","
","700.2000000029802","","","","","","","","49","1,0,0","6","blank","285","null","0.6338535447373019","0.09239282290581637","0.0557160731483034","1","","","","","","","","",""
"","html-keyboard-response","131","390317","0.0-74.0-1.0","""event"",""trial"",""time""
""fullscreenenter"",""0"",""2905""
","
","
","""event"",""trial"",""time""
""fullscreenenter"",""0"",""2905""
","
","null","<p></p>","null","","","","","","","","","","","","","","","","","","","","","","","",""
"","do_trial","132","393365","0.0-75.0-0.0","""event"",""trial"",""time""
""fullscreenenter"",""0"",""2905""
","
","
","""event"",""trial"",""time""
""fullscreenenter"",""0"",""2905""
","
","493.70000000298023","","","","","","","","49","1,0,0","6","blank","286","null","0.7088264441069723","0.1379220238477503","0.19102558605225325","1","","","","","","","","",""
"","html-keyboard-response","133","394370","0.0-75.0-1.0","""event"",""trial"",""time""
""fullscreenenter"",""0"",""2905""
","
","
","""event"",""trial"",""time""
""fullscreenenter"",""0"",""2905""
","
","null","<p></p>","null","","","","","","","","","","","","","","","","","","","","","","","",""
"","do_trial","134","397406","0.0-76.0-0.0","""event"",""trial"",""time""
""fullscreenenter"",""0"",""2905""
","
","
","""event"",""trial"",""time""
""fullscreenenter"",""0"",""2905""
","
","483.29999999701977","","","","","","","","49","1,1,0","6","blank","287","null","0.6409145761040393","0.1808480218404582","0.3632442537305772","1","","","","","","","","",""
"","html-keyboard-response","135","398411","0.0-76.0-1.0","""event"",""trial"",""time""
""fullscreenenter"",""0"",""2905""
","
","
","""event"",""trial"",""time""
""fullscreenenter"",""0"",""2905""
","
","null","<p></p>","null","","","","","","","","","","","","","","","","","","","","","","","",""
"","do_trial","136","401344","0.0-77.0-0.0","""event"",""trial"",""time""
""fullscreenenter"",""0"",""2905""
","
","
","""event"",""trial"",""time""
""fullscreenenter"",""0"",""2905""
","
","379.69999999552965","","","","","","","","49","1,0,0","6","blank","288","null","0.7053384565178535","0.07922128932296359","0.29467407182197325","1","","","","","","","","",""
"","html-keyboard-response","137","402351","0.0-77.0-1.0","""event"",""trial"",""time""
""fullscreenenter"",""0"",""2905""
","
","
","""event"",""trial"",""time""
""fullscreenenter"",""0"",""2905""
","
","null","<p></p>","null","","","","","","","","","","","","","","","","","","","","","","","",""
"","do_recog","138","405596","0.0-78.0-0.0","""event"",""trial"",""time""
""fullscreenenter"",""0"",""2905""
","
","
","""event"",""trial"",""time""
""fullscreenenter"",""0"",""2905""
","
","1736.1000000014901","","","","","","","","53","","","","289","probe-83","","","","","1","[object Object]","31","0","1","","","",""
"","html-keyboard-response","139","406601","0.0-78.0-1.0","""event"",""trial"",""time""
""fullscreenenter"",""0"",""2905""
","
","
","""event"",""trial"",""time""
""fullscreenenter"",""0"",""2905""
","
","null","<p></p>","null","","","","","","","","","","","","","","","","","","","","","","","",""
"","do_trial","140","409640","0.0-79.0-0.0","""event"",""trial"",""time""
""fullscreenenter"",""0"",""2905""
","
","
","""event"",""trial"",""time""
""fullscreenenter"",""0"",""2905""
","
","484","","","","","","","","49","1,0,0","6","blank","290","null","0.650242975605206","0.15277312132936835","0.32088276695144274","1","","","","","","","","",""
"","html-keyboard-response","141","410645","0.0-79.0-1.0","""event"",""trial"",""time""
""fullscreenenter"",""0"",""2905""
","
","
","""event"",""trial"",""time""
""fullscreenenter"",""0"",""2905""
","
","null","<p></p>","null","","","","","","","","","","","","","","","","","","","","","","","",""
"","do_trial","142","413577","0.0-80.0-0.0","""event"",""trial"",""time""
""fullscreenenter"",""0"",""2905""
","
","
","""event"",""trial"",""time""
""fullscreenenter"",""0"",""2905""
","
","384.20000000298023","","","","","","","","49","0,0,0","6","blank","291","null","0.7092334259517179","0.11258059473361329","0.5141010694602748","0","","","","","","","","",""
"","html-keyboard-response","143","414582","0.0-80.0-1.0","""event"",""trial"",""time""
""fullscreenenter"",""0"",""2905""
","
","
","""event"",""trial"",""time""
""fullscreenenter"",""0"",""2905""
","
","null","<p></p>","null","","","","","","","","","","","","","","","","","","","","","","","",""
"","do_trial","144","417568","0.0-81.0-0.0","""event"",""trial"",""time""
""fullscreenenter"",""0"",""2905""
","
","
","""event"",""trial"",""time""
""fullscreenenter"",""0"",""2905""
","
","435.5","","","","","","","","51","1,0,1","6","blank","292","null","0.576976738656618","0.25185738353807713","0.6118309832037125","1","","","","","","","","",""
"","html-keyboard-response","145","418571","0.0-81.0-1.0","""event"",""trial"",""time""
""fullscreenenter"",""0"",""2905""
","
","
","""event"",""trial"",""time""
""fullscreenenter"",""0"",""2905""
","
","null","<p></p>","null","","","","","","","","","","","","","","","","","","","","","","","",""
"","do_recog","146","422056","0.0-82.0-0.0","""event"",""trial"",""time""
""fullscreenenter"",""0"",""2905""
","
","
","""event"",""trial"",""time""
""fullscreenenter"",""0"",""2905""
","
","1976.8999999985099","","","","","","","","56","","","","293","probe-89","","","","","1","[object Object]","72","1","0","","","",""
"","html-keyboard-response","147","423061","0.0-82.0-1.0","""event"",""trial"",""time""
""fullscreenenter"",""0"",""2905""
","
","
","""event"",""trial"",""time""
""fullscreenenter"",""0"",""2905""
","
","null","<p></p>","null","","","","","","","","","","","","","","","","","","","","","","","",""
"","do_trial","148","425990","0.0-83.0-0.0","""event"",""trial"",""time""
""fullscreenenter"",""0"",""2905""
","
","
","""event"",""trial"",""time""
""fullscreenenter"",""0"",""2905""
","
","377","","","","","","","","51","0,0,1","6","blank","294","null","0.42868988724067614","0.2004575443338376","0.6298656340290079","1","","","","","","","","",""
"","html-keyboard-response","149","426995","0.0-83.0-1.0","""event"",""trial"",""time""
""fullscreenenter"",""0"",""2905""
","
","
","""event"",""trial"",""time""
""fullscreenenter"",""0"",""2905""
","
","null","<p></p>","null","","","","","","","","","","","","","","","","","","","","","","","",""
"","do_recog","150","430442","0.0-84.0-0.0","""event"",""trial"",""time""
""fullscreenenter"",""0"",""2905""
","
","
","""event"",""trial"",""time""
""fullscreenenter"",""0"",""2905""
","
","1937.3999999985099","","","","","","","","54","","","","295","probe-41","","","","","1","[object Object]","197","4","1","","","",""
"","html-keyboard-response","151","431448","0.0-84.0-1.0","""event"",""trial"",""time""
""fullscreenenter"",""0"",""2905""
","
","
","""event"",""trial"",""time""
""fullscreenenter"",""0"",""2905""
","
","null","<p></p>","null","","","","","","","","","","","","","","","","","","","","","","","",""
"","do_trial","152","434614","0.0-85.0-0.0","""event"",""trial"",""time""
""fullscreenenter"",""0"",""2905""
","
","
","""event"",""trial"",""time""
""fullscreenenter"",""0"",""2905""
","
","612.5","","","","","","","","51","0,0,1","6","blank","296","null","0.37527093698074543","0.27665406368698015","0.5372438733638698","1","","","","","","","","",""
"","html-keyboard-response","153","435620","0.0-85.0-1.0","""event"",""trial"",""time""
""fullscreenenter"",""0"",""2905""
","
","
","""event"",""trial"",""time""
""fullscreenenter"",""0"",""2905""
","
","null","<p></p>","null","","","","","","","","","","","","","","","","","","","","","","","",""
"","do_trial","154","438778","0.0-86.0-0.0","""event"",""trial"",""time""
""fullscreenenter"",""0"",""2905""
","
","
","""event"",""trial"",""time""
""fullscreenenter"",""0"",""2905""
","
","604.8999999985099","","","","","","","","51","0,0,0","6","blank","297","null","0.23868057992133992","0.25593188145963247","0.477647396009278","0","","","","","","","","",""
"","html-keyboard-response","155","439784","0.0-86.0-1.0","""event"",""trial"",""time""
""fullscreenenter"",""0"",""2905""
","
","
","""event"",""trial"",""time""
""fullscreenenter"",""0"",""2905""
","
","null","<p></p>","null","","","","","","","","","","","","","","","","","","","","","","","",""
"","do_trial","156","442351","0.0-87.0-0.0","""event"",""trial"",""time""
""fullscreenenter"",""0"",""2905""
","
","
","""event"",""trial"",""time""
""fullscreenenter"",""0"",""2905""
","
","18.299999997019768","","","","","","","","50","1,0,1","6","blank","298","null","0.19945783665754305","0.2459343230900052","0.6441386170622801","0","","","","","","","","",""
"","html-keyboard-response","157","443355","0.0-87.0-1.0","""event"",""trial"",""time""
""fullscreenenter"",""0"",""2905""
","
","
","""event"",""trial"",""time""
""fullscreenenter"",""0"",""2905""
","
","null","<p></p>","null","","","","","","","","","","","","","","","","","","","","","","","",""
"","do_trial","158","445970","0.0-88.0-0.0","""event"",""trial"",""time""
""fullscreenenter"",""0"",""2905""
","
","
","""event"",""trial"",""time""
""fullscreenenter"",""0"",""2905""
","
","63.399999998509884","","","","","","","","51","0,0,0","6","blank","299","null","0.18475236892892588","0.24785689458602395","0.5593511148236645","0","","","","","","","","",""
"","html-keyboard-response","159","446975","0.0-88.0-1.0","""event"",""trial"",""time""
""fullscreenenter"",""0"",""2905""
","
","
","""event"",""trial"",""time""
""fullscreenenter"",""0"",""2905""
","
","null","<p></p>","null","","","","","","","","","","","","","","","","","","","","","","","",""
"","do_trial","160","449824","0.0-89.0-0.0","""event"",""trial"",""time""
""fullscreenenter"",""0"",""2905""
","
","
","""event"",""trial"",""time""
""fullscreenenter"",""0"",""2905""
","
","295.8999999985099","","","","","","","","49","0,0,1","6","blank","300","null","0.280422910276669","0.27305016154118894","0.6132421389160906","0","","","","","","","","",""
"","html-keyboard-response","161","450829","0.0-89.0-1.0","""event"",""trial"",""time""
""fullscreenenter"",""0"",""2905""
","
","
","""event"",""trial"",""time""
""fullscreenenter"",""0"",""2905""
","
","null","<p></p>","null","","","","","","","","","","","","","","","","","","","","","","","",""
"","do_trial","162","453692","0.0-90.0-0.0","""event"",""trial"",""time""
""fullscreenenter"",""0"",""2905""
","
","
","""event"",""trial"",""time""
""fullscreenenter"",""0"",""2905""
","
","307.79999999701977","","","","","","","","49","0,0,1","6","blank","301","null","0.2785440559091208","0.31783498646942016","0.5728036843874911","0","","","","","","","","",""
"","html-keyboard-response","163","454696","0.0-90.0-1.0","""event"",""trial"",""time""
""fullscreenenter"",""0"",""2905""
","
","
","""event"",""trial"",""time""
""fullscreenenter"",""0"",""2905""
","
","null","<p></p>","null","","","","","","","","","","","","","","","","","","","","","","","",""
"","do_recog","164","458622","0.0-91.0-0.0","""event"",""trial"",""time""
""fullscreenenter"",""0"",""2905""
","
","
","""event"",""trial"",""time""
""fullscreenenter"",""0"",""2905""
","
","2414.7000000029802","","","","","","","","55","","","","302","probe-92","","","","","1","[object Object]","115","2","0","","","",""
"","html-keyboard-response","165","459627","0.0-91.0-1.0","""event"",""trial"",""time""
""fullscreenenter"",""0"",""2905""
","
","
","""event"",""trial"",""time""
""fullscreenenter"",""0"",""2905""
","
","null","<p></p>","null","","","","","","","","","","","","","","","","","","","","","","","",""
"","do_trial","166","462620","0.0-92.0-0.0","""event"",""trial"",""time""
""fullscreenenter"",""0"",""2905""
","
","
","""event"",""trial"",""time""
""fullscreenenter"",""0"",""2905""
","
","439.40000000596046","","","","","","","","50","0,0,1","6","blank","303","null","0.1544304063935418","0.18442215505188728","0.5667713949058493","0","","","","","","","","",""
"","html-keyboard-response","167","463625","0.0-92.0-1.0","""event"",""trial"",""time""
""fullscreenenter"",""0"",""2905""
","
","
","""event"",""trial"",""time""
""fullscreenenter"",""0"",""2905""
","
","null","<p></p>","null","","","","","","","","","","","","","","","","","","","","","","","",""
"","do_trial","168","466190","0.0-93.0-0.0","""event"",""trial"",""time""
""fullscreenenter"",""0"",""2905""
","
","
","""event"",""trial"",""time""
""fullscreenenter"",""0"",""2905""
","
","12.699999995529652","","","","","","","","50","1,0,1","6","blank","304","null","0.06892156893989485","0.1548289349971751","0.6638330718735411","0","","","","","","","","",""
"","html-keyboard-response","169","467194","0.0-93.0-1.0","""event"",""trial"",""time""
""fullscreenenter"",""0"",""2905""
","
","
","""event"",""trial"",""time""
""fullscreenenter"",""0"",""2905""
","
","null","<p></p>","null","","","","","","","","","","","","","","","","","","","","","","","",""
"","do_trial","170","469751","0.0-94.0-0.0","""event"",""trial"",""time""
""fullscreenenter"",""0"",""2905""
","
","
","""event"",""trial"",""time""
""fullscreenenter"",""0"",""2905""
","
","6.300000004470348","","","","","","","","51","0,0,0","6","blank","305","null","0.13026670563672055","0.2605151367089614","0.5817037649274182","0","","","","","","","","",""
"","html-keyboard-response","171","470757","0.0-94.0-1.0","""event"",""trial"",""time""
""fullscreenenter"",""0"",""2905""
","
","
","""event"",""trial"",""time""
""fullscreenenter"",""0"",""2905""
","
","null","<p></p>","null","","","","","","","","","","","","","","","","","","","","","","","",""
"","do_trial","172","473698","0.0-95.0-0.0","""event"",""trial"",""time""
""fullscreenenter"",""0"",""2905""
","
","
","""event"",""trial"",""time""
""fullscreenenter"",""0"",""2905""
","
","391.5","","","","","","","","51","1,0,0","6","blank","306","null","0.1599074224226063","0.24373497376768619","0.5763385988635742","0","","","","","","","","",""
"","html-keyboard-response","173","474703","0.0-95.0-1.0","""event"",""trial"",""time""
""fullscreenenter"",""0"",""2905""
","
","
","""event"",""trial"",""time""
""fullscreenenter"",""0"",""2905""
","
","null","<p></p>","null","","","","","","","","","","","","","","","","","","","","","","","",""
"","do_trial","174","477548","0.0-96.0-0.0","""event"",""trial"",""time""
""fullscreenenter"",""0"",""2905""
","
","
","""event"",""trial"",""time""
""fullscreenenter"",""0"",""2905""
","
","294.3999999985099","","","","","","","","50","1,0,0","6","blank","307","null","0.09320030901370639","0.2602460574664939","0.6215802997237642","0","","","","","","","","",""
"","html-keyboard-response","175","478554","0.0-96.0-1.0","""event"",""trial"",""time""
""fullscreenenter"",""0"",""2905""
","
","
","""event"",""trial"",""time""
""fullscreenenter"",""0"",""2905""
","
","null","<p></p>","null","","","","","","","","","","","","","","","","","","","","","","","",""
"","do_recog","176","482982","0.0-97.0-0.0","""event"",""trial"",""time""
""fullscreenenter"",""0"",""2905""
","
","
","""event"",""trial"",""time""
""fullscreenenter"",""0"",""2905""
","
","2916.39999999851","","","","","","","","55","","","","308","probe-76","","","","","1","[object Object]","118","2","0","","","",""
"","html-keyboard-response","177","483987","0.0-97.0-1.0","""event"",""trial"",""time""
""fullscreenenter"",""0"",""2905""
","
","
","""event"",""trial"",""time""
""fullscreenenter"",""0"",""2905""
","
","null","<p></p>","null","","","","","","","","","","","","","","","","","","","","","","","",""
"","break","178","487667","0.0-98.0-0.0","""event"",""trial"",""time""
""fullscreenenter"",""0"",""2905""
","
","
","""event"",""trial"",""time""
""fullscreenenter"",""0"",""2905""
","
","3678.2000000029802","<div class='center'><p>Time to take a quick break! You have 2 minutes to rest, but you can move on sooner if you'd like.</p><p> Press the <b>space bar</b> to continue.</p></div>","32","","","","","","","","","","","","","","","","","","","","","","","",""
"","do_trial","179","490825","0.0-98.0-1.0","""event"",""trial"",""time""
""fullscreenenter"",""0"",""2905""
","
","
","""event"",""trial"",""time""
""fullscreenenter"",""0"",""2905""
","
","609.6999999955297","","","","","","","","49","0,1,1","6","blank","309","null","0.2350463710889951","0.31681682907596204","0.5312751822639175","0","","","","","","","","",""
"","html-keyboard-response","180","491831","0.0-98.0-2.0","""event"",""trial"",""time""
""fullscreenenter"",""0"",""2905""
","
","
","""event"",""trial"",""time""
""fullscreenenter"",""0"",""2905""
","
","null","<p></p>","null","","","","","","","","","","","","","","","","","","","","","","","",""
"","do_recog","181","495343","0.0-99.0-0.0","""event"",""trial"",""time""
""fullscreenenter"",""0"",""2905""
","
","
","""event"",""trial"",""time""
""fullscreenenter"",""0"",""2905""
","
","1999.5","","","","","","","","55","","","","310","probe-98","","","","","1","[object Object]","155","3","0","","","",""
"","html-keyboard-response","182","496349","0.0-99.0-1.0","""event"",""trial"",""time""
""fullscreenenter"",""0"",""2905""
","
","
","""event"",""trial"",""time""
""fullscreenenter"",""0"",""2905""
","
","null","<p></p>","null","","","","","","","","","","","","","","","","","","","","","","","",""
"","do_trial","183","499461","0.0-100.0-0.0","""event"",""trial"",""time""
""fullscreenenter"",""0"",""2905""
","
","
","""event"",""trial"",""time""
""fullscreenenter"",""0"",""2905""
","
","561.8000000044703","","","","","","","","49","0,0,1","6","blank","311","null","0.14346666694583227","0.35359835189979644","0.6715044770265746","0","","","","","","","","",""
"","html-keyboard-response","184","500467","0.0-100.0-1.0","""event"",""trial"",""time""
""fullscreenenter"",""0"",""2905""
","
","
","""event"",""trial"",""time""
""fullscreenenter"",""0"",""2905""
","
","null","<p></p>","null","","","","","","","","","","","","","","","","","","","","","","","",""
"","do_recog","185","503824","0.0-101.0-0.0","""event"",""trial"",""time""
""fullscreenenter"",""0"",""2905""
","
","
","""event"",""trial"",""time""
""fullscreenenter"",""0"",""2905""
","
","1849.1000000014901","","","","","","","","53","","","","312","probe-150","","","","","1","[object Object]","74","1","1","","","",""
"","html-keyboard-response","186","504826","0.0-101.0-1.0","""event"",""trial"",""time""
""fullscreenenter"",""0"",""2905""
","
","
","""event"",""trial"",""time""
""fullscreenenter"",""0"",""2905""
","
","null","<p></p>","null","","","","","","","","","","","","","","","","","","","","","","","",""
"","do_trial","187","508247","0.0-102.0-0.0","""event"",""trial"",""time""
""fullscreenenter"",""0"",""2905""
","
","
","""event"",""trial"",""time""
""fullscreenenter"",""0"",""2905""
","
","867.6000000014901","","","","","","","","50","0,0,1","6","blank","313","null","0.2233580063213121","0.20104640742020569","0.736860657268674","0","","","","","","","","",""
"","html-keyboard-response","188","509251","0.0-102.0-1.0","""event"",""trial"",""time""
""fullscreenenter"",""0"",""2905""
","
","
","""event"",""trial"",""time""
""fullscreenenter"",""0"",""2905""
","
","null","<p></p>","null","","","","","","","","","","","","","","","","","","","","","","","",""
"","do_recog","189","513169","0.0-103.0-0.0","""event"",""trial"",""time""
""fullscreenenter"",""0"",""2905""
","
","
","""event"",""trial"",""time""
""fullscreenenter"",""0"",""2905""
","
","2408.2999999970198","","","","","","","","56","","","","314","probe-244","","","","","0","[object Object]","null","null","1","","","",""
"","html-keyboard-response","190","514174","0.0-103.0-1.0","""event"",""trial"",""time""
""fullscreenenter"",""0"",""2905""
","
","
","""event"",""trial"",""time""
""fullscreenenter"",""0"",""2905""
","
","null","<p></p>","null","","","","","","","","","","","","","","","","","","","","","","","",""
"","do_trial","191","517070","0.0-104.0-0.0","""event"",""trial"",""time""
""fullscreenenter"",""0"",""2905""
","
","
","""event"",""trial"",""time""
""fullscreenenter"",""0"",""2905""
","
","344.69999999552965","","","","","","","","51","0,1,1","6","blank","315","null","0.3119563259539934","0.1622465097136502","0.8164182245863627","1","","","","","","","","",""
"","html-keyboard-response","192","518074","0.0-104.0-1.0","""event"",""trial"",""time""
""fullscreenenter"",""0"",""2905""
","
","
","""event"",""trial"",""time""
""fullscreenenter"",""0"",""2905""
","
","null","<p></p>","null","","","","","","","","","","","","","","","","","","","","","","","",""
"","do_trial","193","521079","0.0-105.0-0.0","""event"",""trial"",""time""
""fullscreenenter"",""0"",""2905""
","
","
","""event"",""trial"",""time""
""fullscreenenter"",""0"",""2905""
","
","455.79999999701977","","","","","","","","51","1,0,1","6","blank","316","null","0.2802421755384114","0.26071139312870645","0.5679899730355554","1","","","","","","","","",""
"","html-keyboard-response","194","522085","0.0-105.0-1.0","""event"",""trial"",""time""
""fullscreenenter"",""0"",""2905""
","
","
","""event"",""trial"",""time""
""fullscreenenter"",""0"",""2905""
","
","null","<p></p>","null","","","","","","","","","","","","","","","","","","","","","","","",""
"","do_trial","195","524945","0.0-106.0-0.0","""event"",""trial"",""time""
""fullscreenenter"",""0"",""2905""
","
","
","""event"",""trial"",""time""
""fullscreenenter"",""0"",""2905""
","
","310.3999999985099","","","","","","","","51","0,1,1","6","blank","317","null","0.21052713260183445","0.33395981510961875","0.5081896297648564","1","","","","","","","","",""
"","html-keyboard-response","196","525950","0.0-106.0-1.0","""event"",""trial"",""time""
""fullscreenenter"",""0"",""2905""
","
","
","""event"",""trial"",""time""
""fullscreenenter"",""0"",""2905""
","
","null","<p></p>","null","","","","","","","","","","","","","","","","","","","","","","","",""
"","do_trial","197","528878","0.0-107.0-0.0","""event"",""trial"",""time""
""fullscreenenter"",""0"",""2905""
","
","
","""event"",""trial"",""time""
""fullscreenenter"",""0"",""2905""
","
","380.6000000014901","","","","","","","","51","0,0,0","6","blank","318","null","0.056024408352685295","0.39065241608664136","0.6138103334892557","0","","","","","","","","",""
"","html-keyboard-response","198","529884","0.0-107.0-1.0","""event"",""trial"",""time""
""fullscreenenter"",""0"",""2905""
","
","
","""event"",""trial"",""time""
""fullscreenenter"",""0"",""2905""
","
","null","<p></p>","null","","","","","","","","","","","","","","","","","","","","","","","",""
"","do_recog","199","532854","0.0-108.0-0.0","""event"",""trial"",""time""
""fullscreenenter"",""0"",""2905""
","
","
","""event"",""trial"",""time""
""fullscreenenter"",""0"",""2905""
","
","1461.2000000029802","","","","","","","","56","","","","319","probe-44","","","","","1","[object Object]","110","2","0","","","",""
"","html-keyboard-response","200","533859","0.0-108.0-1.0","""event"",""trial"",""time""
""fullscreenenter"",""0"",""2905""
","
","
","""event"",""trial"",""time""
""fullscreenenter"",""0"",""2905""
","
","null","<p></p>","null","","","","","","","","","","","","","","","","","","","","","","","",""
"","do_trial","201","537206","0.0-109.0-0.0","""event"",""trial"",""time""
""fullscreenenter"",""0"",""2905""
","
","
","""event"",""trial"",""time""
""fullscreenenter"",""0"",""2905""
","
","794","","","","","","","","51","0,0,1","6","blank","320","null","0.11314674100321413","0.4460508399761542","0.6722548002297909","1","","","","","","","","",""
"","html-keyboard-response","202","538211","0.0-109.0-1.0","""event"",""trial"",""time""
""fullscreenenter"",""0"",""2905""
","
","
","""event"",""trial"",""time""
""fullscreenenter"",""0"",""2905""
","
","null","<p></p>","null","","","","","","","","","","","","","","","","","","","","","","","",""
"","do_trial","203","541306","0.0-110.0-0.0","""event"",""trial"",""time""
""fullscreenenter"",""0"",""2905""
","
","
","""event"",""trial"",""time""
""fullscreenenter"",""0"",""2905""
","
","544.1999999955297","","","","","","","","51","0,1,0","6","blank","321","null","0.20428821148406925","0.27850493871385645","0.7125810706880519","0","","","","","","","","",""
"","html-keyboard-response","204","542312","0.0-110.0-1.0","""event"",""trial"",""time""
""fullscreenenter"",""0"",""2905""
","
","
","""event"",""trial"",""time""
""fullscreenenter"",""0"",""2905""
","
","null","<p></p>","null","","","","","","","","","","","","","","","","","","","","","","","",""
"","do_trial","205","545463","0.0-111.0-0.0","""event"",""trial"",""time""
""fullscreenenter"",""0"",""2905""
","
","
","""event"",""trial"",""time""
""fullscreenenter"",""0"",""2905""
","
","601.1000000014901","","","","","","","","49","0,1,0","6","blank","322","null","0.10830513972754355","0.2810096084031755","0.5930606114669781","0","","","","","","","","",""
"","html-keyboard-response","206","546468","0.0-111.0-1.0","""event"",""trial"",""time""
""fullscreenenter"",""0"",""2905""
","
","
","""event"",""trial"",""time""
""fullscreenenter"",""0"",""2905""
","
","null","<p></p>","null","","","","","","","","","","","","","","","","","","","","","","","",""
"","do_trial","207","549462","0.0-112.0-0.0","""event"",""trial"",""time""
""fullscreenenter"",""0"",""2905""
","
","
","""event"",""trial"",""time""
""fullscreenenter"",""0"",""2905""
","
","439.20000000298023","","","","","","","","51","0,0,0","6","blank","323","null","0.09264222301964639","0.14271337799663708","0.6543825944836513","0","","","","","","","","",""
"","html-keyboard-response","208","550468","0.0-112.0-1.0","""event"",""trial"",""time""
""fullscreenenter"",""0"",""2905""
","
","
","""event"",""trial"",""time""
""fullscreenenter"",""0"",""2905""
","
","null","<p></p>","null","","","","","","","","","","","","","","","","","","","","","","","",""
"","do_trial","209","553461","0.0-113.0-0.0","""event"",""trial"",""time""
""fullscreenenter"",""0"",""2905""
","
","
","""event"",""trial"",""time""
""fullscreenenter"",""0"",""2905""
","
","440.5","","","","","","","","51","0,0,1","6","blank","324","null","0.1320412289513749","0.28021928742428936","0.6040812063112669","1","","","","","","","","",""
"","html-keyboard-response","210","554466","0.0-113.0-1.0","""event"",""trial"",""time""
""fullscreenenter"",""0"",""2905""
","
","
","""event"",""trial"",""time""
""fullscreenenter"",""0"",""2905""
","
","null","<p></p>","null","","","","","","","","","","","","","","","","","","","","","","","",""
"","do_trial","211","557328","0.0-114.0-0.0","""event"",""trial"",""time""
""fullscreenenter"",""0"",""2905""
","
","
","""event"",""trial"",""time""
""fullscreenenter"",""0"",""2905""
","
","307.8999999985099","","","","","","","","51","0,0,1","6","blank","325","null","0.21033915923293203","0.3306227012205746","0.5876382384621992","1","","","","","","","","",""
"","html-keyboard-response","212","558334","0.0-114.0-1.0","""event"",""trial"",""time""
""fullscreenenter"",""0"",""2905""
","
","
","""event"",""trial"",""time""
""fullscreenenter"",""0"",""2905""
","
","null","<p></p>","null","","","","","","","","","","","","","","","","","","","","","","","",""
"","do_recog","213","562124","0.0-115.0-0.0","""event"",""trial"",""time""
""fullscreenenter"",""0"",""2905""
","
","
","""event"",""trial"",""time""
""fullscreenenter"",""0"",""2905""
","
","2279.4000000059605","","","","","","","","55","","","","326","probe-147","","","","","1","[object Object]","151","3","0","","","",""
"","html-keyboard-response","214","563129","0.0-115.0-1.0","""event"",""trial"",""time""
""fullscreenenter"",""0"",""2905""
","
","
","""event"",""trial"",""time""
""fullscreenenter"",""0"",""2905""
","
","null","<p></p>","null","","","","","","","","","","","","","","","","","","","","","","","",""
"","do_trial","215","566037","0.0-116.0-0.0","""event"",""trial"",""time""
""fullscreenenter"",""0"",""2905""
","
","
","""event"",""trial"",""time""
""fullscreenenter"",""0"",""2905""
","
","355.5","","","","","","","","51","0,0,1","6","blank","327","null","0.1435442380249203","0.3537730060101639","0.5861183156287065","1","","","","","","","","",""
"","html-keyboard-response","216","567043","0.0-116.0-1.0","""event"",""trial"",""time""
""fullscreenenter"",""0"",""2905""
","
","
","""event"",""trial"",""time""
""fullscreenenter"",""0"",""2905""
","
","null","<p></p>","null","","","","","","","","","","","","","","","","","","","","","","","",""
"","do_trial","217","570187","0.0-117.0-0.0","""event"",""trial"",""time""
""fullscreenenter"",""0"",""2905""
","
","
","""event"",""trial"",""time""
""fullscreenenter"",""0"",""2905""
","
","589.6000000014901","","","","","","","","51","0,0,1","6","blank","328","null","0.1730950980969155","0.20463543410910703","0.629212731724154","1","","","","","","","","",""
"","html-keyboard-response","218","571192","0.0-117.0-1.0","""event"",""trial"",""time""
""fullscreenenter"",""0"",""2905""
","
","
","""event"",""trial"",""time""
""fullscreenenter"",""0"",""2905""
","
","null","<p></p>","null","","","","","","","","","","","","","","","","","","","","","","","",""
"","do_trial","219","574409","0.0-118.0-0.0","""event"",""trial"",""time""
""fullscreenenter"",""0"",""2905""
","
","
","""event"",""trial"",""time""
""fullscreenenter"",""0"",""2905""
","
","666.1000000014901","","","","","","","","51","0,1,1","6","blank","329","null","0.16973360987475236","0.36644839394487805","0.6139577054567146","1","","","","","","","","",""
"","html-keyboard-response","220","575414","0.0-118.0-1.0","""event"",""trial"",""time""
""fullscreenenter"",""0"",""2905""
","
","
","""event"",""trial"",""time""
""fullscreenenter"",""0"",""2905""
","
","null","<p></p>","null","","","","","","","","","","","","","","","","","","","","","","","",""
"","do_trial","221","578388","0.0-119.0-0.0","""event"",""trial"",""time""
""fullscreenenter"",""0"",""2905""
","
","
","""event"",""trial"",""time""
""fullscreenenter"",""0"",""2905""
","
","420.3999999985099","","","","","","","","51","1,0,0","6","blank","330","null","0.2545077681358587","0.29222197088858265","0.7230108938302299","0","","","","","","","","",""
"","html-keyboard-response","222","579394","0.0-119.0-1.0","""event"",""trial"",""time""
""fullscreenenter"",""0"",""2905""
","
","
","""event"",""trial"",""time""
""fullscreenenter"",""0"",""2905""
","
","null","<p></p>","null","","","","","","","","","","","","","","","","","","","","","","","",""
"","do_trial","223","582278","0.0-120.0-0.0","""event"",""trial"",""time""
""fullscreenenter"",""0"",""2905""
","
","
","""event"",""trial"",""time""
""fullscreenenter"",""0"",""2905""
","
","330.20000000298023","","","","","","","","51","1,0,0","6","blank","331","null","0.15844830926659875","0.36938673990267773","0.6834318551093557","0","","","","","","","","",""
"","html-keyboard-response","224","583282","0.0-120.0-1.0","""event"",""trial"",""time""
""fullscreenenter"",""0"",""2905""
","
","
","""event"",""trial"",""time""
""fullscreenenter"",""0"",""2905""
","
","null","<p></p>","null","","","","","","","","","","","","","","","","","","","","","","","",""
"","do_recog","225","586783","0.0-121.0-0.0","""event"",""trial"",""time""
""fullscreenenter"",""0"",""2905""
","
","
","""event"",""trial"",""time""
""fullscreenenter"",""0"",""2905""
","
","1992.7000000029802","","","","","","","","56","","","","332","probe-99","","","","","1","[object Object]","193","4","0","","","",""
"","html-keyboard-response","226","587790","0.0-121.0-1.0","""event"",""trial"",""time""
""fullscreenenter"",""0"",""2905""
","
","
","""event"",""trial"",""time""
""fullscreenenter"",""0"",""2905""
","
","null","<p></p>","null","","","","","","","","","","","","","","","","","","","","","","","",""
"","do_trial","227","591272","0.0-122.0-0.0","""event"",""trial"",""time""
""fullscreenenter"",""0"",""2905""
","
","
","""event"",""trial"",""time""
""fullscreenenter"",""0"",""2905""
","
","929","","","","","","","","51","0,0,0","6","blank","333","null","0.06450495025607757","0.36357089505537227","0.636587442594147","0","","","","","","","","",""
"","html-keyboard-response","228","592277","0.0-122.0-1.0","""event"",""trial"",""time""
""fullscreenenter"",""0"",""2905""
","
","
","""event"",""trial"",""time""
""fullscreenenter"",""0"",""2905""
","
","null","<p></p>","null","","","","","","","","","","","","","","","","","","","","","","","",""
"","do_trial","229","595112","0.0-123.0-0.0","""event"",""trial"",""time""
""fullscreenenter"",""0"",""2905""
","
","
","""event"",""trial"",""time""
""fullscreenenter"",""0"",""2905""
","
","280.79999999701977","","","","","","","","49","0,1,1","6","blank","334","null","0.1241510373506285","0.4778270698363938","0.6553119522598327","0","","","","","","","","",""
"","html-keyboard-response","230","596117","0.0-123.0-1.0","""event"",""trial"",""time""
""fullscreenenter"",""0"",""2905""
","
","
","""event"",""trial"",""time""
""fullscreenenter"",""0"",""2905""
","
","null","<p></p>","null","","","","","","","","","","","","","","","","","","","","","","","",""
"","do_trial","231","598856","0.0-124.0-0.0","""event"",""trial"",""time""
""fullscreenenter"",""0"",""2905""
","
","
","""event"",""trial"",""time""
""fullscreenenter"",""0"",""2905""
","
","189.80000000447035","","","","","","","","49","1,0,1","6","blank","335","null","0.07218816926129212","0.47460865786196643","0.5509368420030872","1","","","","","","","","",""
"","html-keyboard-response","232","599861","0.0-124.0-1.0","""event"",""trial"",""time""
""fullscreenenter"",""0"",""2905""
","
","
","""event"",""trial"",""time""
""fullscreenenter"",""0"",""2905""
","
","null","<p></p>","null","","","","","","","","","","","","","","","","","","","","","","","",""
"","do_trial","233","602969","0.0-125.0-0.0","""event"",""trial"",""time""
""fullscreenenter"",""0"",""2905""
","
","
","""event"",""trial"",""time""
""fullscreenenter"",""0"",""2905""
","
","559.6000000014901","","","","","","","","49","0,1,1","6","blank","336","null","0.0685151386502818","0.5172373820291785","0.6009809433036383","0","","","","","","","","",""
"","html-keyboard-response","234","603974","0.0-125.0-1.0","""event"",""trial"",""time""
""fullscreenenter"",""0"",""2905""
","
","
","""event"",""trial"",""time""
""fullscreenenter"",""0"",""2905""
","
","null","<p></p>","null","","","","","","","","","","","","","","","","","","","","","","","",""
"","do_trial","235","607065","0.0-126.0-0.0","""event"",""trial"",""time""
""fullscreenenter"",""0"",""2905""
","
","
","""event"",""trial"",""time""
""fullscreenenter"",""0"",""2905""
","
","543","","","","","","","","49","0,0,1","6","blank","337","null","0.09883121315994949","0.4378272281397548","0.7231142628545979","0","","","","","","","","",""
"","html-keyboard-response","236","608070","0.0-126.0-1.0","""event"",""trial"",""time""
""fullscreenenter"",""0"",""2905""
","
","
","""event"",""trial"",""time""
""fullscreenenter"",""0"",""2905""
","
","null","<p></p>","null","","","","","","","","","","","","","","","","","","","","","","","",""
"","do_trial","237","611132","0.0-127.0-0.0","""event"",""trial"",""time""
""fullscreenenter"",""0"",""2905""
","
","
","""event"",""trial"",""time""
""fullscreenenter"",""0"",""2905""
","
","511.5","","","","","","","","50","0,0,0","6","blank","338","null","0.09315378713650198","0.3243822363742618","0.8175425935847467","0","","","","","","","","",""
"","html-keyboard-response","238","612136","0.0-127.0-1.0","""event"",""trial"",""time""
""fullscreenenter"",""0"",""2905""
","
","
","""event"",""trial"",""time""
""fullscreenenter"",""0"",""2905""
","
","null","<p></p>","null","","","","","","","","","","","","","","","","","","","","","","","",""
"","do_recog","239","615635","0.0-128.0-0.0","""event"",""trial"",""time""
""fullscreenenter"",""0"",""2905""
","
","
","""event"",""trial"",""time""
""fullscreenenter"",""0"",""2905""
","
","1985.7999999970198","","","","","","","","53","","","","339","probe-47","","","","","1","[object Object]","38","0","1","","","",""
"","html-keyboard-response","240","616640","0.0-128.0-1.0","""event"",""trial"",""time""
""fullscreenenter"",""0"",""2905""
","
","
","""event"",""trial"",""time""
""fullscreenenter"",""0"",""2905""
","
","null","<p></p>","null","","","","","","","","","","","","","","","","","","","","","","","",""
"","do_trial","241","619657","0.0-129.0-0.0","""event"",""trial"",""time""
""fullscreenenter"",""0"",""2905""
","
","
","""event"",""trial"",""time""
""fullscreenenter"",""0"",""2905""
","
","465.29999999701977","","","","","","","","50","0,1,1","6","blank","340","null","0.13612212013084418","0.21134154617220688","0.8008451840978299","1","","","","","","","","",""
"","html-keyboard-response","242","620660","0.0-129.0-1.0","""event"",""trial"",""time""
""fullscreenenter"",""0"",""2905""
","
","
","""event"",""trial"",""time""
""fullscreenenter"",""0"",""2905""
","
","null","<p></p>","null","","","","","","","","","","","","","","","","","","","","","","","",""
"","do_recog","243","624094","0.0-130.0-0.0","""event"",""trial"",""time""
""fullscreenenter"",""0"",""2905""
","
","
","""event"",""trial"",""time""
""fullscreenenter"",""0"",""2905""
","
","1921.1000000014901","","","","","","","","56","","","","341","probe-128","","","","","1","[object Object]","152","3","0","","","",""
"","html-keyboard-response","244","625098","0.0-130.0-1.0","""event"",""trial"",""time""
""fullscreenenter"",""0"",""2905""
","
","
","""event"",""trial"",""time""
""fullscreenenter"",""0"",""2905""
","
","null","<p></p>","null","","","","","","","","","","","","","","","","","","","","","","","",""
"","do_trial","245","628033","0.0-131.0-0.0","""event"",""trial"",""time""
""fullscreenenter"",""0"",""2905""
","
","
","""event"",""trial"",""time""
""fullscreenenter"",""0"",""2905""
","
","385.80000000447035","","","","","","","","50","0,0,0","6","blank","342","null","0.0582447960816989","0.06865660581618943","0.712234589905787","0","","","","","","","","",""
"","html-keyboard-response","246","629038","0.0-131.0-1.0","""event"",""trial"",""time""
""fullscreenenter"",""0"",""2905""
","
","
","""event"",""trial"",""time""
""fullscreenenter"",""0"",""2905""
","
","null","<p></p>","null","","","","","","","","","","","","","","","","","","","","","","","",""
"","do_recog","247","632351","0.0-132.0-0.0","""event"",""trial"",""time""
""fullscreenenter"",""0"",""2905""
","
","
","""event"",""trial"",""time""
""fullscreenenter"",""0"",""2905""
","
","1808.1000000014901","","","","","","","","55","","","","343","probe-237","","","","","0","[object Object]","null","null","1","","","",""
"","html-keyboard-response","248","633356","0.0-132.0-1.0","""event"",""trial"",""time""
""fullscreenenter"",""0"",""2905""
","
","
","""event"",""trial"",""time""
""fullscreenenter"",""0"",""2905""
","
","null","<p></p>","null","","","","","","","","","","","","","","","","","","","","","","","",""
"","do_trial","249","636319","0.0-133.0-0.0","""event"",""trial"",""time""
""fullscreenenter"",""0"",""2905""
","
","
","""event"",""trial"",""time""
""fullscreenenter"",""0"",""2905""
","
","414.1000000014901","","","","","","","","50","0,0,1","6","blank","344","null","0.17190671607332497","0.2147173692024371","0.7758303846956426","0","","","","","","","","",""
"","html-keyboard-response","250","637325","0.0-133.0-1.0","""event"",""trial"",""time""
""fullscreenenter"",""0"",""2905""
","
","
","""event"",""trial"",""time""
""fullscreenenter"",""0"",""2905""
","
","null","<p></p>","null","","","","","","","","","","","","","","","","","","","","","","","",""
"","do_trial","251","639975","0.0-134.0-0.0","""event"",""trial"",""time""
""fullscreenenter"",""0"",""2905""
","
","
","""event"",""trial"",""time""
""fullscreenenter"",""0"",""2905""
","
","96.10000000149012","","","","","","","","51","0,0,1","6","blank","345","null","0.11862437335794812","0.35583257468095547","0.6788983517353497","1","","","","","","","","",""
"","html-keyboard-response","252","640981","0.0-134.0-1.0","""event"",""trial"",""time""
""fullscreenenter"",""0"",""2905""
","
","
","""event"",""trial"",""time""
""fullscreenenter"",""0"",""2905""
","
","null","<p></p>","null","","","","","","","","","","","","","","","","","","","","","","","",""
"","do_trial","253","643885","0.0-135.0-0.0","""event"",""trial"",""time""
""fullscreenenter"",""0"",""2905""
","
","
","""event"",""trial"",""time""
""fullscreenenter"",""0"",""2905""
","
","347.29999999701977","","","","","","","","51","0,0,0","6","blank","346","null","0.0633589395047377","0.3488196090005368","0.5679818213936298","0","","","","","","","","",""
"","html-keyboard-response","254","644891","0.0-135.0-1.0","""event"",""trial"",""time""
""fullscreenenter"",""0"",""2905""
","
","
","""event"",""trial"",""time""
""fullscreenenter"",""0"",""2905""
","
","null","<p></p>","null","","","","","","","","","","","","","","","","","","","","","","","",""
"","do_trial","255","647819","0.0-136.0-0.0","""event"",""trial"",""time""
""fullscreenenter"",""0"",""2905""
","
","
","""event"",""trial"",""time""
""fullscreenenter"",""0"",""2905""
","
","375.20000000298023","","","","","","","","51","0,0,0","6","blank","347","null","0.21681940544969522","0.47161341170224014","0.4171468615254533","0","","","","","","","","",""
"","html-keyboard-response","256","648824","0.0-136.0-1.0","""event"",""trial"",""time""
""fullscreenenter"",""0"",""2905""
","
","
","""event"",""trial"",""time""
""fullscreenenter"",""0"",""2905""
","
","null","<p></p>","null","","","","","","","","","","","","","","","","","","","","","","","",""
"","do_recog","257","652823","0.0-137.0-0.0","""event"",""trial"",""time""
""fullscreenenter"",""0"",""2905""
","
","
","""event"",""trial"",""time""
""fullscreenenter"",""0"",""2905""
","
","2494","","","","","","","","55","","","","348","probe-213","","","","","1","[object Object]","34","0","0","","","",""
"","html-keyboard-response","258","653829","0.0-137.0-1.0","""event"",""trial"",""time""
""fullscreenenter"",""0"",""2905""
","
","
","""event"",""trial"",""time""
""fullscreenenter"",""0"",""2905""
","
","null","<p></p>","null","","","","","","","","","","","","","","","","","","","","","","","",""
"","break","259","663083","0.0-138.0-0.0","""event"",""trial"",""time""
""fullscreenenter"",""0"",""2905""
","
","
","""event"",""trial"",""time""
""fullscreenenter"",""0"",""2905""
","
","9253.10000000149","<div class='center'><p>Time to take a quick break! You have 2 minutes to rest, but you can move on sooner if you'd like.</p><p> Press the <b>space bar</b> to continue.</p></div>","32","","","","","","","","","","","","","","","","","","","","","","","",""
"","do_trial","260","666868","0.0-138.0-1.0","""event"",""trial"",""time""
""fullscreenenter"",""0"",""2905""
","
","
","""event"",""trial"",""time""
""fullscreenenter"",""0"",""2905""
","
","1225.6000000014901","","","","","","","","51","1,0,1","6","blank","349","null","0.20345140145835705","0.508578991061145","0.2980308577274139","1","","","","","","","","",""
"","html-keyboard-response","261","667874","0.0-138.0-2.0","""event"",""trial"",""time""
""fullscreenenter"",""0"",""2905""
","
","
","""event"",""trial"",""time""
""fullscreenenter"",""0"",""2905""
","
","null","<p></p>","null","","","","","","","","","","","","","","","","","","","","","","","",""
"","do_recog","262","671489","0.0-139.0-0.0","""event"",""trial"",""time""
""fullscreenenter"",""0"",""2905""
","
","
","""event"",""trial"",""time""
""fullscreenenter"",""0"",""2905""
","
","2108.10000000149","","","","","","","","54","","","","350","probe-04","","","","","1","[object Object]","117","2","1","","","",""
"","html-keyboard-response","263","672491","0.0-139.0-1.0","""event"",""trial"",""time""
""fullscreenenter"",""0"",""2905""
","
","
","""event"",""trial"",""time""
""fullscreenenter"",""0"",""2905""
","
","null","<p></p>","null","","","","","","","","","","","","","","","","","","","","","","","",""
"","do_trial","264","675562","0.0-140.0-0.0","""event"",""trial"",""time""
""fullscreenenter"",""0"",""2905""
","
","
","""event"",""trial"",""time""
""fullscreenenter"",""0"",""2905""
","
","520.7000000029802","","","","","","","","51","0,1,0","6","blank","351","null","0.14361281414170793","0.6592497275929039","0.2686446419813478","0","","","","","","","","",""
"","html-keyboard-response","265","676564","0.0-140.0-1.0","""event"",""trial"",""time""
""fullscreenenter"",""0"",""2905""
","
","
","""event"",""trial"",""time""
""fullscreenenter"",""0"",""2905""
","
","null","<p></p>","null","","","","","","","","","","","","","","","","","","","","","","","",""
"","do_trial","266","679536","0.0-141.0-0.0","""event"",""trial"",""time""
""fullscreenenter"",""0"",""2905""
","
","
","""event"",""trial"",""time""
""fullscreenenter"",""0"",""2905""
","
","415.30000000447035","","","","","","","","50","0,1,0","6","blank","352","null","0.07086971490809842","0.5864301486448633","0.32346444336143015","1","","","","","","","","",""
"","html-keyboard-response","267","680541","0.0-141.0-1.0","""event"",""trial"",""time""
""fullscreenenter"",""0"",""2905""
","
","
","""event"",""trial"",""time""
""fullscreenenter"",""0"",""2905""
","
","null","<p></p>","null","","","","","","","","","","","","","","","","","","","","","","","",""
"","do_trial","268","683353","0.0-142.0-0.0","""event"",""trial"",""time""
""fullscreenenter"",""0"",""2905""
","
","
","""event"",""trial"",""time""
""fullscreenenter"",""0"",""2905""
","
","261.20000000298023","","","","","","","","50","0,0,0","6","blank","353","null","0.09972327889250711","0.6965729835959528","0.22218565172972585","0","","","","","","","","",""
"","html-keyboard-response","269","684358","0.0-142.0-1.0","""event"",""trial"",""time""
""fullscreenenter"",""0"",""2905""
","
","
","""event"",""trial"",""time""
""fullscreenenter"",""0"",""2905""
","
","null","<p></p>","null","","","","","","","","","","","","","","","","","","","","","","","",""
"","do_trial","270","687185","0.0-143.0-0.0","""event"",""trial"",""time""
""fullscreenenter"",""0"",""2905""
","
","
","""event"",""trial"",""time""
""fullscreenenter"",""0"",""2905""
","
","276.30000000447035","","","","","","","","50","0,1,0","6","blank","354","null","0.12182684415303781","0.5977643256991684","0.2479987669340842","1","","","","","","","","",""
"","html-keyboard-response","271","688190","0.0-143.0-1.0","""event"",""trial"",""time""
""fullscreenenter"",""0"",""2905""
","
","
","""event"",""trial"",""time""
""fullscreenenter"",""0"",""2905""
","
","null","<p></p>","null","","","","","","","","","","","","","","","","","","","","","","","",""
"","do_recog","272","691470","0.0-144.0-0.0","""event"",""trial"",""time""
""fullscreenenter"",""0"",""2905""
","
","
","""event"",""trial"",""time""
""fullscreenenter"",""0"",""2905""
","
","1767.2999999970198","","","","","","","","53","","","","355","probe-28","","","","","1","[object Object]","71","1","1","","","",""
"","html-keyboard-response","273","692475","0.0-144.0-1.0","""event"",""trial"",""time""
""fullscreenenter"",""0"",""2905""
","
","
","""event"",""trial"",""time""
""fullscreenenter"",""0"",""2905""
","
","null","<p></p>","null","","","","","","","","","","","","","","","","","","","","","","","",""
"","do_trial","274","695461","0.0-145.0-0.0","""event"",""trial"",""time""
""fullscreenenter"",""0"",""2905""
","
","
","""event"",""trial"",""time""
""fullscreenenter"",""0"",""2905""
","
","432","","","","","","","","50","0,0,0","6","blank","356","null","0.10254415795863416","0.532198538704173","0.17130347171324925","0","","","","","","","","",""
"","html-keyboard-response","275","696466","0.0-145.0-1.0","""event"",""trial"",""time""
""fullscreenenter"",""0"",""2905""
","
","
","""event"",""trial"",""time""
""fullscreenenter"",""0"",""2905""
","
","null","<p></p>","null","","","","","","","","","","","","","","","","","","","","","","","",""
"","do_trial","276","699331","0.0-146.0-0.0","""event"",""trial"",""time""
""fullscreenenter"",""0"",""2905""
","
","
","""event"",""trial"",""time""
""fullscreenenter"",""0"",""2905""
","
","315","","","","","","","","51","0,1,1","6","blank","357","null","0.12362123286224266","0.5224415805988379","0.3043536860247869","1","","","","","","","","",""
"","html-keyboard-response","277","700337","0.0-146.0-1.0","""event"",""trial"",""time""
""fullscreenenter"",""0"",""2905""
","
","
