"success","trial_type","trial_index","time_elapsed","internal_node_id","interactions","blur_events","focus_events","fullscreenenter_events","fullscreenexit_events","rt","stimulus","key_press","subject_id","participant_id","age","gender","prompt","response","choice_outcomes","context_n","context_img_id","trial_n","probe_img_id","pR_red","pR_white","pR_black","outcome","is_valid","image_to_show","probed_trial","probed_context","correct","probe","probed_trial_n","probed_context_n","context_im"
"true","fullscreen","0","3556","0.0-0.0","""event"",""trial"",""time""
""fullscreenenter"",""0"",""2624""
","
","
","""event"",""trial"",""time""
""fullscreenenter"",""0"",""2624""
","
","","","","","","","","","","","","","","","","","","","","","","","","","","",""
"","pavlovia","1","3563","0.0-1.0","""event"",""trial"",""time""
""fullscreenenter"",""0"",""2624""
","
","
","""event"",""trial"",""time""
""fullscreenenter"",""0"",""2624""
","
","","","","","","","","","","","","","","","","","","","","","","","","","","",""
"","welc_back","2","13357","0.0-2.0","""event"",""trial"",""time""
""fullscreenenter"",""0"",""2624""
","
","
","""event"",""trial"",""time""
""fullscreenenter"",""0"",""2624""
","
","null","run_exp/static/audio/clip_29_welcome_back.m4a","null","436","936","11","Female","<div class='center'><p>Welcome to day 2!</p><p> Yesterday, you were the head captain of a pirate ship. You asked your fellow pirates to rob other ships of their gold across six different islands.</p></div>","","","","","","","","","","","","","","","","","","",""
"","html-keyboard-response","3","17236","0.0-3.0","""event"",""trial"",""time""
""fullscreenenter"",""0"",""2624""
","
","
","""event"",""trial"",""time""
""fullscreenenter"",""0"",""2624""
","
","3870.699999988079","<div class='center'><p>Welcome to day 2!</p><p> Yesterday, you were the head captain of a pirate ship. You asked your fellow pirates to rob other ships of their gold across six different islands.</p><p><b>[Press the space bar to continue]</b></p></div>","32","","","","","","","","","","","","","","","","","","","","","","","",""
"","day_1_summary_goal","4","34436","0.0-4.0","""event"",""trial"",""time""
""fullscreenenter"",""0"",""2624""
","
","
","""event"",""trial"",""time""
""fullscreenenter"",""0"",""2624""
","
","null","run_exp/static/audio/clip_30_goal_of_game.m4a","null","","","","","<div class='center'><p>Today, like yesterday, you get to pick which pirate you want to rob the next ship.</p><p>If the pirate is successful in robbing a ship, you get gold coins that look like this: </p><p><img src='run_exp/static/images/tutorial/reward.png' height='150'></p><p> If they were not successful in robbing the ship, then you will get no gold coins and you'll see a big red x like this: </p><p><img src='run_exp/static/images/tutorial/reward_no.png' height='150'></p></div>","","","","","","","","","","","","","","","","","","",""
"","html-keyboard-response","5","34937","0.0-5.0","""event"",""trial"",""time""
""fullscreenenter"",""0"",""2624""
","
","
","""event"",""trial"",""time""
""fullscreenenter"",""0"",""2624""
","
","484.89999997615814","<div class='center'><p>Today, like yesterday, you get to pick which pirate you want to rob the next ship.</p><p>If the pirate is successful in robbing a ship, you get gold coins that look like this: </p><p><img src='run_exp/static/images/tutorial/reward.png' height='150'></p><p> If they were not successful in robbing the ship, then you will get no gold coins and you'll see a big red x like this: </p><p><img src='run_exp/static/images/tutorial/reward_no.png' height='150'></p><p><b>[Press the space bar to continue]</b></p></div>","32","","","","","","","","","","","","","","","","","","","","","","","",""
"","day_1_summary_pick","6","49640","0.0-6.0","""event"",""trial"",""time""
""fullscreenenter"",""0"",""2624""
","
","
","""event"",""trial"",""time""
""fullscreenenter"",""0"",""2624""
","
","null","run_exp/static/audio/clip_31_how_to_pick_a_pirate.m4a","null","","","","","<div class='center'><p>Also, just like yesterday, you will use the 1,2,3 keys on your keyboard to pick a pirate. Press '1' to choose red beard, '2' to choose white beard, and '3' to choose black beard . You only have 3 seconds to pick a pirate, so please make a choice quickly!</p></div>","","","","","","","","","","","","","","","","","","",""
"","html-keyboard-response","7","49960","0.0-7.0","""event"",""trial"",""time""
""fullscreenenter"",""0"",""2624""
","
","
","""event"",""trial"",""time""
""fullscreenenter"",""0"",""2624""
","
","317.10000002384186","<div class='center'><p>Also, just like yesterday, you will use the 1,2,3 keys on your keyboard to pick a pirate. Press '1' to choose red beard, '2' to choose white beard, and '3' to choose black beard . You only have 3 seconds to pick a pirate, so please make a choice quickly!</p><p><b>[Press the space bar to continue]</b></p></div>","32","","","","","","","","","","","","","","","","","","","","","","","",""
"","test_phase_begin","8","80359","0.0-8.0","""event"",""trial"",""time""
""fullscreenenter"",""0"",""2624""
","
","
","""event"",""trial"",""time""
""fullscreenenter"",""0"",""2624""
","
","null","run_exp/static/audio/clip_32_final_place.m4a","null","","","","","<div class='center'><p>You’ve arrived at the final island of your journey! Unfortunately, it’s very foggy out, so you won’t be able to see it in the distance like the other islands you've visited.</p><p>You’ll still be deciding which pirate you want to rob a ship like before. However, because of the fog, you also won’t be able to see the ship.</p><p>This means you do not have to remember the ships you rob on this island.</p><p>Unlike yesterday, you won't be visiting multiple islands today. You will stay on this island for the entire game. This game will last ~30 minutes.</p></div>","","","","","","","","","","","","","","","","","","",""
"","html-keyboard-response","9","87200","0.0-9.0","""event"",""trial"",""time""
""fullscreenenter"",""0"",""2624""
","
","
","""event"",""trial"",""time""
""fullscreenenter"",""0"",""2624""
","
","6836","<div class='center'><p>You’ve arrived at the final island of your journey! Unfortunately, it’s very foggy out, so you won’t be able to see it in the distance like the other islands you've visited.</p><p>You’ll still be deciding which pirate you want to rob a ship like before. However, because of the fog, you also won’t be able to see the ship.</p><p>This means you do not have to remember the ships you rob on this island.</p><p>Unlike yesterday, you won't be visiting multiple islands today. You will stay on this island for the entire game. This game will last ~30 minutes.</p><p><b>[Press the space bar to continue]</b></p></div>","32","","","","","","","","","","","","","","","","","","","","","","","",""
"","explain_probe_1","10","94939","0.0-10.0","""event"",""trial"",""time""
""fullscreenenter"",""0"",""2624""
","
","
","""event"",""trial"",""time""
""fullscreenenter"",""0"",""2624""
","
","null","run_exp/static/audio/clip_33_recognition_1.m4a","null","","","","","<div class='center'><p> Sometimes you’ll be shown a ship, and you will be asked if you saw this ship on a past island.</p><p> Here is an example of what you will see.</p><p><img src='run_exp/static/images/tutorial/example_recog_trial.png' height='500'></p></div>","","","","","","","","","","","","","","","","","","",""
"","html-keyboard-response","11","98568","0.0-11.0","""event"",""trial"",""time""
""fullscreenenter"",""0"",""2624""
","
","
","""event"",""trial"",""time""
""fullscreenenter"",""0"",""2624""
","
","3626.100000023842","<div class='center'><p> Sometimes you’ll be shown a ship, and you will be asked if you saw this ship on a past island.</p><p> Here is an example of what you will see.</p><p><img src='run_exp/static/images/tutorial/example_recog_trial.png' height='500'></p><p><b>[Press the space bar to continue]</b></p></div>","32","","","","","","","","","","","","","","","","","","","","","","","",""
"","explain_probe_2","12","120297","0.0-12.0","""event"",""trial"",""time""
""fullscreenenter"",""0"",""2624""
","
","
","""event"",""trial"",""time""
""fullscreenenter"",""0"",""2624""
","
","null","run_exp/static/audio/clip_34_recognition_2.m4a","null","","","","","<div class='center'><p> You will press the 5, 6, 7, 8 keys on your keyboard to respond.</p><p>If you are sure you saw the ship, press <b>5</b> on your keyboard.</p><p> If you think you saw it before but aren't sure, then press <b>6</b>.</p><p> If you think you have <b>not</b> seen it before but aren't sure, then press <b>7</b>.</p><p> If you are sure you did <b>not</b> see the ship before, then press <b>8</b>.</p><p><img src='run_exp/static/images/tutorial/example_recog_trial.png' height='500'></p></div>","","","","","","","","","","","","","","","","","","",""
"","html-keyboard-response","13","121409","0.0-13.0","""event"",""trial"",""time""
""fullscreenenter"",""0"",""2624""
","
","
","""event"",""trial"",""time""
""fullscreenenter"",""0"",""2624""
","
","1109","<div class='center'><p> You will press the 5, 6, 7, 8 keys on your keyboard to respond.</p><p>If you are sure you saw the ship, press <b>5</b> on your keyboard.</p><p> If you think you saw it before but aren't sure, then press <b>6</b>.</p><p> If you think you have <b>not</b> seen it before but aren't sure, then press <b>7</b>.</p><p> If you are sure you did <b>not</b> see the ship before, then press <b>8</b>.</p><p><img src='run_exp/static/images/tutorial/example_recog_trial.png' height='500'></p><p><b>[Press the space bar to continue]</b></p></div>","32","","","","","","","","","","","","","","","","","","","","","","","",""
"","explain_outcome","14","138621","0.0-14.0","""event"",""trial"",""time""
""fullscreenenter"",""0"",""2624""
","
","
","""event"",""trial"",""time""
""fullscreenenter"",""0"",""2624""
","
","null","run_exp/static/audio/clip_35_recognition_3.m4a","null","","","","","<div class='center'><p> If you remember correctly, then you’ll get a gold coin like this: </p><p><img src='run_exp/static/images/tutorial/reward_small.png' height='200'></p><p>If you do not remember correctly, then you'll see a red x like this: </p><p><img src='run_exp/static/images/tutorial/reward_no.png' height='200'></p><p>Importantly, when you are shown a ship, take the time to remind yourself which island you saw it on. This will help you in the next part of the study.</p></div>","","","","","","","","","","","","","","","","","","",""
"","html-keyboard-response","15","138957","0.0-15.0","""event"",""trial"",""time""
""fullscreenenter"",""0"",""2624""
","
","
","""event"",""trial"",""time""
""fullscreenenter"",""0"",""2624""
","
","330.39999997615814","<div class='center'><p> If you remember correctly, then you’ll get a gold coin like this: </p><p><img src='run_exp/static/images/tutorial/reward_small.png' height='200'></p><p>If you do not remember correctly, then you'll see a red x like this: </p><p><img src='run_exp/static/images/tutorial/reward_no.png' height='200'></p><p>Importantly, when you are shown a ship, take the time to remind yourself which island you saw it on. This will help you in the next part of the study.</p><p><b>[Press the space bar to continue]</b></p></div>","32","","","","","","","","","","","","","","","","","","","","","","","",""
"","begin_test_phase","16","154780","0.0-16.0","""event"",""trial"",""time""
""fullscreenenter"",""0"",""2624""
","
","
","""event"",""trial"",""time""
""fullscreenenter"",""0"",""2624""
","
","null","run_exp/static/audio/clip_36_begin_final.m4a","null","","","","","<div class='center'><p>Let's go over the important points again. Your job is to: </p><p>1. Pick the pirate who is best at robbing ships and will bring you back gold coins. </p><p>2. Correctly remember whether or not you saw a ship before. If you did see the ship before, remind yourself on which island you saw it. </p></div>","","","","","","","","","","","","","","","","","","",""
"","html-keyboard-response","17","154955","0.0-17.0","""event"",""trial"",""time""
""fullscreenenter"",""0"",""2624""
","
","
","""event"",""trial"",""time""
""fullscreenenter"",""0"",""2624""
","
","94","<div class='center'><p>Let's go over the important points again. Your job is to: </p><p>1. Pick the pirate who is best at robbing ships and will bring you back gold coins. </p><p>2. Correctly remember whether or not you saw a ship before. If you did see the ship before, remind yourself on which island you saw it. </p><p><b>[Press the space bar to continue]</b></p></div>","32","","","","","","","","","","","","","","","","","","","","","","","",""
"","do_welcome","18","158988","0.0-18.0","""event"",""trial"",""time""
""fullscreenenter"",""0"",""2624""
","
","
","""event"",""trial"",""time""
""fullscreenenter"",""0"",""2624""
","
","null","","","","","","","","null","","","","","","","","","","","","","","","","","",""
"","do_trial","19","162956","0.0-19.0-0.0","""event"",""trial"",""time""
""fullscreenenter"",""0"",""2624""
","
","
","""event"",""trial"",""time""
""fullscreenenter"",""0"",""2624""
","
","1386.9000000357628","","","","","","","","50","0,0,1","6","blank","230","null","0.09592051007840117","0.3836861947086114","0.6105960170506015","0","","","","","","","","",""
"","html-keyboard-response","20","163972","0.0-19.0-1.0","""event"",""trial"",""time""
""fullscreenenter"",""0"",""2624""
","
","
","""event"",""trial"",""time""
""fullscreenenter"",""0"",""2624""
","
","null","<p></p>","null","","","","","","","","","","","","","","","","","","","","","","","",""
"","do_trial","21","167021","0.0-20.0-0.0","""event"",""trial"",""time""
""fullscreenenter"",""0"",""2624""
","
","
","""event"",""trial"",""time""
""fullscreenenter"",""0"",""2624""
","
","470.10000002384186","","","","","","","","49","0,0,1","6","blank","231","null","0.12731340625239276","0.33199017601157815","0.5221319403822783","0","","","","","","","","",""
"","html-keyboard-response","22","168026","0.0-20.0-1.0","""event"",""trial"",""time""
""fullscreenenter"",""0"",""2624""
","
","
","""event"",""trial"",""time""
""fullscreenenter"",""0"",""2624""
","
","null","<p></p>","null","","","","","","","","","","","","","","","","","","","","","","","",""
"","do_trial","23","171102","0.0-21.0-0.0","""event"",""trial"",""time""
""fullscreenenter"",""0"",""2624""
","
","
","""event"",""trial"",""time""
""fullscreenenter"",""0"",""2624""
","
","500.10000002384186","","","","","","","","51","0,0,1","6","blank","232","null","0.07388119432310594","0.23162134833598452","0.5397760360065219","1","","","","","","","","",""
"","html-keyboard-response","24","172115","0.0-21.0-1.0","""event"",""trial"",""time""
""fullscreenenter"",""0"",""2624""
","
","
","""event"",""trial"",""time""
""fullscreenenter"",""0"",""2624""
","
","null","<p></p>","null","","","","","","","","","","","","","","","","","","","","","","","",""
"","do_trial","25","175084","0.0-22.0-0.0","""event"",""trial"",""time""
""fullscreenenter"",""0"",""2624""
","
","
","""event"",""trial"",""time""
""fullscreenenter"",""0"",""2624""
","
","379.69999998807907","","","","","","","","51","0,0,0","6","blank","233","null","0.12695613040364076","0.29031687440214127","0.485486373237289","0","","","","","","","","",""
"","html-keyboard-response","26","176090","0.0-22.0-1.0","""event"",""trial"",""time""
""fullscreenenter"",""0"",""2624""
","
","
","""event"",""trial"",""time""
""fullscreenenter"",""0"",""2624""
","
","null","<p></p>","null","","","","","","","","","","","","","","","","","","","","","","","",""
"","do_trial","27","178922","0.0-23.0-0.0","""event"",""trial"",""time""
""fullscreenenter"",""0"",""2624""
","
","
","""event"",""trial"",""time""
""fullscreenenter"",""0"",""2624""
","
","246.5","","","","","","","","50","0,0,0","6","blank","234","null","0.09087553869418454","0.39975546221599517","0.5552065672744123","0","","","","","","","","",""
"","html-keyboard-response","28","179940","0.0-23.0-1.0","""event"",""trial"",""time""
""fullscreenenter"",""0"",""2624""
","
","
","""event"",""trial"",""time""
""fullscreenenter"",""0"",""2624""
","
","null","<p></p>","null","","","","","","","","","","","","","","","","","","","","","","","",""
"","do_trial","29","183029","0.0-24.0-0.0","""event"",""trial"",""time""
""fullscreenenter"",""0"",""2624""
","
","
","""event"",""trial"",""time""
""fullscreenenter"",""0"",""2624""
","
","494.80000001192093","","","","","","","","49","0,0,0","6","blank","235","null","0.19698701375975944","0.5088485094706708","0.7421055446309782","0","","","","","","","","",""
"","html-keyboard-response","30","184048","0.0-24.0-1.0","""event"",""trial"",""time""
""fullscreenenter"",""0"",""2624""
","
","
","""event"",""trial"",""time""
""fullscreenenter"",""0"",""2624""
","
","null","<p></p>","null","","","","","","","","","","","","","","","","","","","","","","","",""
"","do_trial","31","186959","0.0-25.0-0.0","""event"",""trial"",""time""
""fullscreenenter"",""0"",""2624""
","
","
","""event"",""trial"",""time""
""fullscreenenter"",""0"",""2624""
","
","328.7000000476837","","","","","","","","51","1,0,0","6","blank","236","null","0.38185876946775715","0.3964989816024685","0.6966623073283963","0","","","","","","","","",""
"","html-keyboard-response","32","187968","0.0-25.0-1.0","""event"",""trial"",""time""
""fullscreenenter"",""0"",""2624""
","
","
","""event"",""trial"",""time""
""fullscreenenter"",""0"",""2624""
","
","null","<p></p>","null","","","","","","","","","","","","","","","","","","","","","","","",""
"","do_trial","33","190592","0.0-26.0-0.0","""event"",""trial"",""time""
""fullscreenenter"",""0"",""2624""
","
","
","""event"",""trial"",""time""
""fullscreenenter"",""0"",""2624""
","
","43.10000002384186","","","","","","","","51","0,0,0","6","blank","237","null","0.30009072601717646","0.4268748821222168","0.6334216326046476","0","","","","","","","","",""
"","html-keyboard-response","34","191602","0.0-26.0-1.0","""event"",""trial"",""time""
""fullscreenenter"",""0"",""2624""
","
","
","""event"",""trial"",""time""
""fullscreenenter"",""0"",""2624""
","
","null","<p></p>","null","","","","","","","","","","","","","","","","","","","","","","","",""
"","do_trial","35","194360","0.0-27.0-0.0","""event"",""trial"",""time""
""fullscreenenter"",""0"",""2624""
","
","
","""event"",""trial"",""time""
""fullscreenenter"",""0"",""2624""
","
","185.10000002384186","","","","","","","","50","0,0,0","6","blank","238","null","0.26087566576317667","0.2699920131480799","0.6938707666040586","0","","","","","","","","",""
"","html-keyboard-response","36","195367","0.0-27.0-1.0","""event"",""trial"",""time""
""fullscreenenter"",""0"",""2624""
","
","
","""event"",""trial"",""time""
""fullscreenenter"",""0"",""2624""
","
","null","<p></p>","null","","","","","","","","","","","","","","","","","","","","","","","",""
"","do_trial","37","198351","0.0-28.0-0.0","""event"",""trial"",""time""
""fullscreenenter"",""0"",""2624""
","
","
","""event"",""trial"",""time""
""fullscreenenter"",""0"",""2624""
","
","399.30000001192093","","","","","","","","51","1,0,1","6","blank","239","null","0.2578807702455028","0.317519859350964","0.6289756729890537","1","","","","","","","","",""
"","html-keyboard-response","38","199371","0.0-28.0-1.0","""event"",""trial"",""time""
""fullscreenenter"",""0"",""2624""
","
","
","""event"",""trial"",""time""
""fullscreenenter"",""0"",""2624""
","
","null","<p></p>","null","","","","","","","","","","","","","","","","","","","","","","","",""
"","do_trial","39","203118","0.0-29.0-0.0","""event"",""trial"",""time""
""fullscreenenter"",""0"",""2624""
","
","
","""event"",""trial"",""time""
""fullscreenenter"",""0"",""2624""
","
","1146.699999988079","","","","","","","","51","1,0,1","6","blank","240","null","0.27627724762809586","0.2983007138090166","0.5989625890003245","1","","","","","","","","",""
"","html-keyboard-response","40","204136","0.0-29.0-1.0","""event"",""trial"",""time""
""fullscreenenter"",""0"",""2624""
","
","
","""event"",""trial"",""time""
""fullscreenenter"",""0"",""2624""
","
","null","<p></p>","null","","","","","","","","","","","","","","","","","","","","","","","",""
"","do_recog","41","210161","0.0-30.0-0.0","""event"",""trial"",""time""
""fullscreenenter"",""0"",""2624""
","
","
","""event"",""trial"",""time""
""fullscreenenter"",""0"",""2624""
","
","null","","","","","","","","null","","","","241","probe-164","","","","","1","[object Object]","74","1","0","","","",""
"","html-keyboard-response","42","211177","0.0-30.0-1.0","""event"",""trial"",""time""
""fullscreenenter"",""0"",""2624""
","
","
","""event"",""trial"",""time""
""fullscreenenter"",""0"",""2624""
","
","null","<p></p>","null","","","","","","","","","","","","","","","","","","","","","","","",""
"","do_trial","43","214901","0.0-31.0-0.0","""event"",""trial"",""time""
""fullscreenenter"",""0"",""2624""
","
","
","""event"",""trial"",""time""
""fullscreenenter"",""0"",""2624""
","
","1138.1000000238419","","","","","","","","50","0,0,1","6","blank","242","null","0.37225967780911007","0.30367242156847213","0.49417175125877416","0","","","","","","","","",""
"","html-keyboard-response","44","215904","0.0-31.0-1.0","""event"",""trial"",""time""
""fullscreenenter"",""0"",""2624""
","
","
","""event"",""trial"",""time""
""fullscreenenter"",""0"",""2624""
","
","null","<p></p>","null","","","","","","","","","","","","","","","","","","","","","","","",""
"","do_trial","45","219044","0.0-32.0-0.0","""event"",""trial"",""time""
""fullscreenenter"",""0"",""2624""
","
","
","""event"",""trial"",""time""
""fullscreenenter"",""0"",""2624""
","
","567.1000000238419","","","","","","","","50","0,0,1","6","blank","243","null","0.14703454107889433","0.33867374920953114","0.42015626068751133","0","","","","","","","","",""
"","html-keyboard-response","46","220055","0.0-32.0-1.0","""event"",""trial"",""time""
""fullscreenenter"",""0"",""2624""
","
","
","""event"",""trial"",""time""
""fullscreenenter"",""0"",""2624""
","
","null","<p></p>","null","","","","","","","","","","","","","","","","","","","","","","","",""
"","do_trial","47","222956","0.0-33.0-0.0","""event"",""trial"",""time""
""fullscreenenter"",""0"",""2624""
","
","
","""event"",""trial"",""time""
""fullscreenenter"",""0"",""2624""
","
","315.9000000357628","","","","","","","","51","0,1,0","6","blank","244","null","0.05350587604730956","0.36866228606583834","0.30915018434254127","0","","","","","","","","",""
"","html-keyboard-response","48","223972","0.0-33.0-1.0","""event"",""trial"",""time""
""fullscreenenter"",""0"",""2624""
","
","
","""event"",""trial"",""time""
""fullscreenenter"",""0"",""2624""
","
","null","<p></p>","null","","","","","","","","","","","","","","","","","","","","","","","",""
"","do_trial","49","226872","0.0-34.0-0.0","""event"",""trial"",""time""
""fullscreenenter"",""0"",""2624""
","
","
","""event"",""trial"",""time""
""fullscreenenter"",""0"",""2624""
","
","313.9000000357628","","","","","","","","49","1,1,0","6","blank","245","null","0.08387057471982626","0.46054384676361826","0.2841654221045084","1","","","","","","","","",""
"","html-keyboard-response","50","227884","0.0-34.0-1.0","""event"",""trial"",""time""
""fullscreenenter"",""0"",""2624""
","
","
","""event"",""trial"",""time""
""fullscreenenter"",""0"",""2624""
","
","null","<p></p>","null","","","","","","","","","","","","","","","","","","","","","","","",""
"","do_trial","51","230529","0.0-35.0-0.0","""event"",""trial"",""time""
""fullscreenenter"",""0"",""2624""
","
","
","""event"",""trial"",""time""
""fullscreenenter"",""0"",""2624""
","
","61.5","","","","","","","","49","0,0,0","6","blank","246","null","0.17832480164115544","0.45050016014660715","0.15283272053705257","0","","","","","","","","",""
"","html-keyboard-response","52","231541","0.0-35.0-1.0","""event"",""trial"",""time""
""fullscreenenter"",""0"",""2624""
","
","
","""event"",""trial"",""time""
""fullscreenenter"",""0"",""2624""
","
","null","<p></p>","null","","","","","","","","","","","","","","","","","","","","","","","",""
"","do_recog","53","235981","0.0-36.0-0.0","""event"",""trial"",""time""
""fullscreenenter"",""0"",""2624""
","
","
","""event"",""trial"",""time""
""fullscreenenter"",""0"",""2624""
","
","2919.300000011921","","","","","","","","56","","","","247","probe-235","","","","","0","[object Object]","null","null","1","","","",""
"","html-keyboard-response","54","236986","0.0-36.0-1.0","""event"",""trial"",""time""
""fullscreenenter"",""0"",""2624""
","
","
","""event"",""trial"",""time""
""fullscreenenter"",""0"",""2624""
","
","null","<p></p>","null","","","","","","","","","","","","","","","","","","","","","","","",""
"","do_trial","55","240648","0.0-37.0-0.0","""event"",""trial"",""time""
""fullscreenenter"",""0"",""2624""
","
","
","""event"",""trial"",""time""
""fullscreenenter"",""0"",""2624""
","
","1089.699999988079","","","","","","","","50","0,0,0","6","blank","248","null","0.24538708493988295","0.5590451739203379","0.3281517859168526","0","","","","","","","","",""
"","html-keyboard-response","56","241657","0.0-37.0-1.0","""event"",""trial"",""time""
""fullscreenenter"",""0"",""2624""
","
","
","""event"",""trial"",""time""
""fullscreenenter"",""0"",""2624""
","
","null","<p></p>","null","","","","","","","","","","","","","","","","","","","","","","","",""
"","do_recog","57","244801","0.0-38.0-0.0","""event"",""trial"",""time""
""fullscreenenter"",""0"",""2624""
","
","
","""event"",""trial"",""time""
""fullscreenenter"",""0"",""2624""
","
","1623.7999999523163","","","","","","","","56","","","","249","probe-201","","","","","1","[object Object]","156","3","0","","","",""
"","html-keyboard-response","58","245805","0.0-38.0-1.0","""event"",""trial"",""time""
""fullscreenenter"",""0"",""2624""
""fullscreenexit"",""59"",""245944""
","
","
","""event"",""trial"",""time""
""fullscreenenter"",""0"",""2624""
","""event"",""trial"",""time""
""fullscreenexit"",""59"",""245944""
","null","<p></p>","null","","","","","","","","","","","","","","","","","","","","","","","",""
"","do_trial","59","251899","0.0-39.0-0.0","""event"",""trial"",""time""
""fullscreenenter"",""0"",""2624""
""fullscreenexit"",""59"",""245944""
","
","
","""event"",""trial"",""time""
""fullscreenenter"",""0"",""2624""
","""event"",""trial"",""time""
""fullscreenexit"",""59"",""245944""
","null","","","","","","","","null","1,1,0","6","blank","250","null","0.2508069212561684","0.7437695991199652","0.3716197002692447","","","","","","","","","",""
"","html-keyboard-response","60","252920","0.0-39.0-1.0","""event"",""trial"",""time""
""fullscreenenter"",""0"",""2624""
""fullscreenexit"",""59"",""245944""
","
","
","""event"",""trial"",""time""
""fullscreenenter"",""0"",""2624""
","""event"",""trial"",""time""
""fullscreenexit"",""59"",""245944""
","null","<p></p>","null","","","","","","","","","","","","","","","","","","","","","","","",""
"","do_trial","61","259011","0.0-40.0-0.0","""event"",""trial"",""time""
""fullscreenenter"",""0"",""2624""
""fullscreenexit"",""59"",""245944""
","
","
","""event"",""trial"",""time""
""fullscreenenter"",""0"",""2624""
","""event"",""trial"",""time""
""fullscreenexit"",""59"",""245944""
","null","","","","","","","","null","1,1,0","6","blank","251","null","0.15490127795602937","0.6259061787515947","0.3746011886975179","","","","","","","","","",""
"","html-keyboard-response","62","260016","0.0-40.0-1.0","""event"",""trial"",""time""
""fullscreenenter"",""0"",""2624""
""fullscreenexit"",""59"",""245944""
","
","
","""event"",""trial"",""time""
""fullscreenenter"",""0"",""2624""
","""event"",""trial"",""time""
""fullscreenexit"",""59"",""245944""
","null","<p></p>","null","","","","","","","","","","","","","","","","","","","","","","","",""
"","do_trial","63","262613","0.0-41.0-0.0","""event"",""trial"",""time""
""fullscreenenter"",""0"",""2624""
""fullscreenexit"",""59"",""245944""
","
","
","""event"",""trial"",""time""
""fullscreenenter"",""0"",""2624""
","""event"",""trial"",""time""
""fullscreenexit"",""59"",""245944""
","32.30000001192093","","","","","","","","50","0,0,1","6","blank","252","null","0.3180611000974084","0.428848081010197","0.29583900874918256","0","","","","","","","","",""
"","html-keyboard-response","64","263629","0.0-41.0-1.0","""event"",""trial"",""time""
""fullscreenenter"",""0"",""2624""
""fullscreenexit"",""59"",""245944""
","
","
","""event"",""trial"",""time""
""fullscreenenter"",""0"",""2624""
","""event"",""trial"",""time""
""fullscreenexit"",""59"",""245944""
","null","<p></p>","null","","","","","","","","","","","","","","","","","","","","","","","",""
"","do_recog","65","267818","0.0-42.0-0.0","""event"",""trial"",""time""
""fullscreenenter"",""0"",""2624""
""fullscreenexit"",""59"",""245944""
","
","
","""event"",""trial"",""time""
""fullscreenenter"",""0"",""2624""
","""event"",""trial"",""time""
""fullscreenexit"",""59"",""245944""
","2670.199999988079","","","","","","","","56","","","","253","probe-251","","","","","0","[object Object]","null","null","1","","","",""
"","html-keyboard-response","66","268829","0.0-42.0-1.0","""event"",""trial"",""time""
""fullscreenenter"",""0"",""2624""
""fullscreenexit"",""59"",""245944""
","
","
","""event"",""trial"",""time""
""fullscreenenter"",""0"",""2624""
","""event"",""trial"",""time""
""fullscreenexit"",""59"",""245944""
","null","<p></p>","null","","","","","","","","","","","","","","","","","","","","","","","",""
"","do_trial","67","272679","0.0-43.0-0.0","""event"",""trial"",""time""
""fullscreenenter"",""0"",""2624""
""fullscreenexit"",""59"",""245944""
","
","
","""event"",""trial"",""time""
""fullscreenenter"",""0"",""2624""
","""event"",""trial"",""time""
""fullscreenexit"",""59"",""245944""
","1273.300000011921","","","","","","","","49","1,1,0","6","blank","254","null","0.14829426002915003","0.5595932017625127","0.25937439029832143","1","","","","","","","","",""
"","html-keyboard-response","68","273685","0.0-43.0-1.0","""event"",""trial"",""time""
""fullscreenenter"",""0"",""2624""
""fullscreenexit"",""59"",""245944""
","
","
","""event"",""trial"",""time""
""fullscreenenter"",""0"",""2624""
","""event"",""trial"",""time""
""fullscreenexit"",""59"",""245944""
","null","<p></p>","null","","","","","","","","","","","","","","","","","","","","","","","",""
"","do_recog","69","275699","0.0-44.0-0.0","""event"",""trial"",""time""
""fullscreenenter"",""0"",""2624""
""fullscreenexit"",""59"",""245944""
","
","
","""event"",""trial"",""time""
""fullscreenenter"",""0"",""2624""
","""event"",""trial"",""time""
""fullscreenexit"",""59"",""245944""
","500.39999997615814","","","","","","","","55","","","","255","probe-250","","","","","0","[object Object]","null","null","1","","","",""
"","html-keyboard-response","70","276718","0.0-44.0-1.0","""event"",""trial"",""time""
""fullscreenenter"",""0"",""2624""
""fullscreenexit"",""59"",""245944""
","
","
","""event"",""trial"",""time""
""fullscreenenter"",""0"",""2624""
","""event"",""trial"",""time""
""fullscreenexit"",""59"",""245944""
","null","<p></p>","null","","","","","","","","","","","","","","","","","","","","","","","",""
"","do_trial","71","279998","0.0-45.0-0.0","""event"",""trial"",""time""
""fullscreenenter"",""0"",""2624""
""fullscreenexit"",""59"",""245944""
","
","
","""event"",""trial"",""time""
""fullscreenenter"",""0"",""2624""
","""event"",""trial"",""time""
""fullscreenexit"",""59"",""245944""
","715.4000000357628","","","","","","","","50","0,0,0","6","blank","256","null","0.16199225486036753","0.47047574529547304","0.4264149502556363","0","","","","","","","","",""
"","html-keyboard-response","72","281010","0.0-45.0-1.0","""event"",""trial"",""time""
""fullscreenenter"",""0"",""2624""
""fullscreenexit"",""59"",""245944""
","
","
","""event"",""trial"",""time""
""fullscreenenter"",""0"",""2624""
","""event"",""trial"",""time""
""fullscreenexit"",""59"",""245944""
","null","<p></p>","null","","","","","","","","","","","","","","","","","","","","","","","",""
"","do_trial","73","284023","0.0-46.0-0.0","""event"",""trial"",""time""
""fullscreenenter"",""0"",""2624""
""fullscreenexit"",""59"",""245944""
","
","
","""event"",""trial"",""time""
""fullscreenenter"",""0"",""2624""
","""event"",""trial"",""time""
""fullscreenexit"",""59"",""245944""
","441","","","","","","","","51","0,0,0","6","blank","257","null","0.07699006957330491","0.5458324516537039","0.27513376643877835","0","","","","","","","","",""
"","html-keyboard-response","74","285040","0.0-46.0-1.0","""event"",""trial"",""time""
""fullscreenenter"",""0"",""2624""
""fullscreenexit"",""59"",""245944""
","
","
","""event"",""trial"",""time""
""fullscreenenter"",""0"",""2624""
","""event"",""trial"",""time""
""fullscreenexit"",""59"",""245944""
","null","<p></p>","null","","","","","","","","","","","","","","","","","","","","","","","",""
"","do_trial","75","287884","0.0-47.0-0.0","""event"",""trial"",""time""
""fullscreenenter"",""0"",""2624""
""fullscreenexit"",""59"",""245944""
","
","
","""event"",""trial"",""time""
""fullscreenenter"",""0"",""2624""
","""event"",""trial"",""time""
""fullscreenexit"",""59"",""245944""
","273","","","","","","","","49","0,0,0","6","blank","258","null","0.16132475832397547","0.4881568933211284","0.24131646362202105","0","","","","","","","","",""
"","html-keyboard-response","76","288898","0.0-47.0-1.0","""event"",""trial"",""time""
""fullscreenenter"",""0"",""2624""
""fullscreenexit"",""59"",""245944""
","
","
","""event"",""trial"",""time""
""fullscreenenter"",""0"",""2624""
","""event"",""trial"",""time""
""fullscreenexit"",""59"",""245944""
","null","<p></p>","null","","","","","","","","","","","","","","","","","","","","","","","",""
"","do_trial","77","291829","0.0-48.0-0.0","""event"",""trial"",""time""
""fullscreenenter"",""0"",""2624""
""fullscreenexit"",""59"",""245944""
","
","
","""event"",""trial"",""time""
""fullscreenenter"",""0"",""2624""
","""event"",""trial"",""time""
""fullscreenexit"",""59"",""245944""
","353.4000000357628","","","","","","","","50","1,1,1","6","blank","259","null","0.11557309539625116","0.5016518050222969","0.3390470193514939","1","","","","","","","","",""
"","html-keyboard-response","78","292835","0.0-48.0-1.0","""event"",""trial"",""time""
""fullscreenenter"",""0"",""2624""
""fullscreenexit"",""59"",""245944""
","
","
","""event"",""trial"",""time""
""fullscreenenter"",""0"",""2624""
","""event"",""trial"",""time""
""fullscreenexit"",""59"",""245944""
","null","<p></p>","null","","","","","","","","","","","","","","","","","","","","","","","",""
"","do_trial","79","295709","0.0-49.0-0.0","""event"",""trial"",""time""
""fullscreenenter"",""0"",""2624""
""fullscreenexit"",""59"",""245944""
","
","
","""event"",""trial"",""time""
""fullscreenenter"",""0"",""2624""
","""event"",""trial"",""time""
""fullscreenexit"",""59"",""245944""
","277.60000002384186","","","","","","","","50","0,1,0","6","blank","260","null","0.11166120135868238","0.47054643918302563","0.3007212267047467","1","","","","","","","","",""
"","html-keyboard-response","80","296726","0.0-49.0-1.0","""event"",""trial"",""time""
""fullscreenenter"",""0"",""2624""
""fullscreenexit"",""59"",""245944""
","
","
","""event"",""trial"",""time""
""fullscreenenter"",""0"",""2624""
","""event"",""trial"",""time""
""fullscreenexit"",""59"",""245944""
","null","<p></p>","null","","","","","","","","","","","","","","","","","","","","","","","",""
"","do_recog","81","299008","0.0-50.0-0.0","""event"",""trial"",""time""
""fullscreenenter"",""0"",""2624""
""fullscreenexit"",""59"",""245944""
","
","
","""event"",""trial"",""time""
""fullscreenenter"",""0"",""2624""
","""event"",""trial"",""time""
""fullscreenexit"",""59"",""245944""
","758.5","","","","","","","","55","","","","261","probe-174","","","","","1","[object Object]","114","2","0","","","",""
"","html-keyboard-response","82","300013","0.0-50.0-1.0","""event"",""trial"",""time""
""fullscreenenter"",""0"",""2624""
""fullscreenexit"",""59"",""245944""
","
","
","""event"",""trial"",""time""
""fullscreenenter"",""0"",""2624""
","""event"",""trial"",""time""
""fullscreenexit"",""59"",""245944""
","null","<p></p>","null","","","","","","","","","","","","","","","","","","","","","","","",""
"","do_trial","83","303410","0.0-51.0-0.0","""event"",""trial"",""time""
""fullscreenenter"",""0"",""2624""
""fullscreenexit"",""59"",""245944""
","
","
","""event"",""trial"",""time""
""fullscreenenter"",""0"",""2624""
","""event"",""trial"",""time""
""fullscreenexit"",""59"",""245944""
","813.3000000119209","","","","","","","","51","0,1,0","6","blank","262","null","0.12058582109420854","0.5436522534207079","0.2413778336458501","0","","","","","","","","",""
"","html-keyboard-response","84","304414","0.0-51.0-1.0","""event"",""trial"",""time""
""fullscreenenter"",""0"",""2624""
""fullscreenexit"",""59"",""245944""
","
","
","""event"",""trial"",""time""
""fullscreenenter"",""0"",""2624""
","""event"",""trial"",""time""
""fullscreenexit"",""59"",""245944""
","null","<p></p>","null","","","","","","","","","","","","","","","","","","","","","","","",""
"","do_recog","85","306774","0.0-52.0-0.0","""event"",""trial"",""time""
""fullscreenenter"",""0"",""2624""
""fullscreenexit"",""59"",""245944""
","
","
","""event"",""trial"",""time""
""fullscreenenter"",""0"",""2624""
","""event"",""trial"",""time""
""fullscreenexit"",""59"",""245944""
","837.5","","","","","","","","54","","","","263","probe-154","","","","","1","[object Object]","39","0","1","","","",""
"","html-keyboard-response","86","307788","0.0-52.0-1.0","""event"",""trial"",""time""
""fullscreenenter"",""0"",""2624""
""fullscreenexit"",""59"",""245944""
","
","
","""event"",""trial"",""time""
""fullscreenenter"",""0"",""2624""
","""event"",""trial"",""time""
""fullscreenexit"",""59"",""245944""
","null","<p></p>","null","","","","","","","","","","","","","","","","","","","","","","","",""
"","do_trial","87","310885","0.0-53.0-0.0","""event"",""trial"",""time""
""fullscreenenter"",""0"",""2624""
""fullscreenexit"",""59"",""245944""
","
","
","""event"",""trial"",""time""
""fullscreenenter"",""0"",""2624""
","""event"",""trial"",""time""
""fullscreenexit"",""59"",""245944""
","516.5","","","","","","","","49","0,0,0","6","blank","264","null","0.10171249607784319","0.5791070120249455","0.30408691596851856","0","","","","","","","","",""
"","html-keyboard-response","88","311891","0.0-53.0-1.0","""event"",""trial"",""time""
""fullscreenenter"",""0"",""2624""
""fullscreenexit"",""59"",""245944""
","
","
","""event"",""trial"",""time""
""fullscreenenter"",""0"",""2624""
","""event"",""trial"",""time""
""fullscreenexit"",""59"",""245944""
","null","<p></p>","null","","","","","","","","","","","","","","","","","","","","","","","",""
"","do_trial","89","316532","0.0-54.0-0.0","""event"",""trial"",""time""
""fullscreenenter"",""0"",""2624""
""fullscreenexit"",""59"",""245944""
","
","
","""event"",""trial"",""time""
""fullscreenenter"",""0"",""2624""
","""event"",""trial"",""time""
""fullscreenexit"",""59"",""245944""
","2047.800000011921","","","","","","","","50","1,0,0","6","blank","265","null","0.2113391375579942","0.6344433785497501","0.29815950255141027","0","","","","","","","","",""
"","html-keyboard-response","90","317548","0.0-54.0-1.0","""event"",""trial"",""time""
""fullscreenenter"",""0"",""2624""
""fullscreenexit"",""59"",""245944""
","
","
","""event"",""trial"",""time""
""fullscreenenter"",""0"",""2624""
","""event"",""trial"",""time""
""fullscreenexit"",""59"",""245944""
","null","<p></p>","null","","","","","","","","","","","","","","","","","","","","","","","",""
"","do_trial","91","320449","0.0-55.0-0.0","""event"",""trial"",""time""
""fullscreenenter"",""0"",""2624""
""fullscreenexit"",""59"",""245944""
","
","
","""event"",""trial"",""time""
""fullscreenenter"",""0"",""2624""
","""event"",""trial"",""time""
""fullscreenexit"",""59"",""245944""
","335.89999997615814","","","","","","","","49","0,1,0","6","blank","266","null","0.20566932371444316","0.5737643754500263","0.4121061706873052","0","","","","","","","","",""
"","html-keyboard-response","92","321461","0.0-55.0-1.0","""event"",""trial"",""time""
""fullscreenenter"",""0"",""2624""
""fullscreenexit"",""59"",""245944""
","
","
","""event"",""trial"",""time""
""fullscreenenter"",""0"",""2624""
","""event"",""trial"",""time""
""fullscreenexit"",""59"",""245944""
","null","<p></p>","null","","","","","","","","","","","","","","","","","","","","","","","",""
"","do_trial","93","324384","0.0-56.0-0.0","""event"",""trial"",""time""
""fullscreenenter"",""0"",""2624""
""fullscreenexit"",""59"",""245944""
","
","
","""event"",""trial"",""time""
""fullscreenenter"",""0"",""2624""
","""event"",""trial"",""time""
""fullscreenexit"",""59"",""245944""
","344.5","","","","","","","","49","0,1,0","6","blank","267","null","0.178090070060839","0.5500771200026282","0.32491329849887574","0","","","","","","","","",""
"","html-keyboard-response","94","325399","0.0-56.0-1.0","""event"",""trial"",""time""
""fullscreenenter"",""0"",""2624""
""fullscreenexit"",""59"",""245944""
","
","
","""event"",""trial"",""time""
""fullscreenenter"",""0"",""2624""
","""event"",""trial"",""time""
""fullscreenexit"",""59"",""245944""
","null","<p></p>","null","","","","","","","","","","","","","","","","","","","","","","","",""
"","do_trial","95","328273","0.0-57.0-0.0","""event"",""trial"",""time""
""fullscreenenter"",""0"",""2624""
""fullscreenexit"",""59"",""245944""
","
","
","""event"",""trial"",""time""
""fullscreenenter"",""0"",""2624""
","""event"",""trial"",""time""
""fullscreenexit"",""59"",""245944""
","288.80000001192093","","","","","","","","50","0,0,0","6","blank","268","null","0.11620631749197066","0.46730931876399867","0.363490848349122","0","","","","","","","","",""
"","html-keyboard-response","96","329286","0.0-57.0-1.0","""event"",""trial"",""time""
""fullscreenenter"",""0"",""2624""
""fullscreenexit"",""59"",""245944""
""blur"",""97"",""334350""
""focus"",""97"",""402490""
","""event"",""trial"",""time""
""blur"",""97"",""334350""
","""event"",""trial"",""time""
""focus"",""97"",""402490""
","""event"",""trial"",""time""
""fullscreenenter"",""0"",""2624""
","""event"",""trial"",""time""
""fullscreenexit"",""59"",""245944""
","null","<p></p>","null","","","","","","","","","","","","","","","","","","","","","","","",""
"","break","97","403660","0.0-58.0-0.0","""event"",""trial"",""time""
""fullscreenenter"",""0"",""2624""
""fullscreenexit"",""59"",""245944""
""blur"",""97"",""334350""
""focus"",""97"",""402490""
","""event"",""trial"",""time""
""blur"",""97"",""334350""
","""event"",""trial"",""time""
""focus"",""97"",""402490""
","""event"",""trial"",""time""
""fullscreenenter"",""0"",""2624""
","""event"",""trial"",""time""
""fullscreenexit"",""59"",""245944""
","74377.39999997616","<div class='center'><p>Time to take a quick break! You have 2 minutes to rest, but you can move on sooner if you'd like.</p><p> Press the <b>space bar</b> to continue.</p></div>","32","","","","","","","","","","","","","","","","","","","","","","","",""
"","do_trial","98","407816","0.0-58.0-1.0","""event"",""trial"",""time""
""fullscreenenter"",""0"",""2624""
""fullscreenexit"",""59"",""245944""
""blur"",""97"",""334350""
""focus"",""97"",""402490""
","""event"",""trial"",""time""
""blur"",""97"",""334350""
","""event"",""trial"",""time""
""focus"",""97"",""402490""
","""event"",""trial"",""time""
""fullscreenenter"",""0"",""2624""
","""event"",""trial"",""time""
""fullscreenexit"",""59"",""245944""
","1581.2000000476837","","","","","","","","50","0,1,1","6","blank","269","null","0.06628973136240243","0.34687007083789545","0.18190452162737805","1","","","","","","","","",""
"","html-keyboard-response","99","408826","0.0-58.0-2.0","""event"",""trial"",""time""
""fullscreenenter"",""0"",""2624""
""fullscreenexit"",""59"",""245944""
""blur"",""97"",""334350""
""focus"",""97"",""402490""
","""event"",""trial"",""time""
""blur"",""97"",""334350""
","""event"",""trial"",""time""
""focus"",""97"",""402490""
","""event"",""trial"",""time""
""fullscreenenter"",""0"",""2624""
","""event"",""trial"",""time""
""fullscreenexit"",""59"",""245944""
","null","<p></p>","null","","","","","","","","","","","","","","","","","","","","","","","",""
"","do_trial","100","411901","0.0-59.0-0.0","""event"",""trial"",""time""
""fullscreenenter"",""0"",""2624""
""fullscreenexit"",""59"",""245944""
""blur"",""97"",""334350""
""focus"",""97"",""402490""
","""event"",""trial"",""time""
""blur"",""97"",""334350""
","""event"",""trial"",""time""
""focus"",""97"",""402490""
","""event"",""trial"",""time""
""fullscreenenter"",""0"",""2624""
","""event"",""trial"",""time""
""fullscreenexit"",""59"",""245944""
","498.80000001192093","","","","","","","","50","0,0,0","6","blank","270","null","0.17461314453459026","0.45762309793243516","0.12397594270779355","0","","","","","","","","",""
"","html-keyboard-response","101","412910","0.0-59.0-1.0","""event"",""trial"",""time""
""fullscreenenter"",""0"",""2624""
""fullscreenexit"",""59"",""245944""
""blur"",""97"",""334350""
""focus"",""97"",""402490""
","""event"",""trial"",""time""
""blur"",""97"",""334350""
","""event"",""trial"",""time""
""focus"",""97"",""402490""
","""event"",""trial"",""time""
""fullscreenenter"",""0"",""2624""
","""event"",""trial"",""time""
""fullscreenexit"",""59"",""245944""
","null","<p></p>","null","","","","","","","","","","","","","","","","","","","","","","","",""
"","do_recog","102","417108","0.0-60.0-0.0","""event"",""trial"",""time""
""fullscreenenter"",""0"",""2624""
""fullscreenexit"",""59"",""245944""
""blur"",""97"",""334350""
""focus"",""97"",""402490""
","""event"",""trial"",""time""
""blur"",""97"",""334350""
","""event"",""trial"",""time""
""focus"",""97"",""402490""
","""event"",""trial"",""time""
""fullscreenenter"",""0"",""2624""
","""event"",""trial"",""time""
""fullscreenexit"",""59"",""245944""
","2673.100000023842","","","","","","","","54","","","","271","probe-27","","","","","1","[object Object]","72","1","1","","","",""
"","html-keyboard-response","103","418113","0.0-60.0-1.0","""event"",""trial"",""time""
""fullscreenenter"",""0"",""2624""
""fullscreenexit"",""59"",""245944""
""blur"",""97"",""334350""
""focus"",""97"",""402490""
","""event"",""trial"",""time""
""blur"",""97"",""334350""
","""event"",""trial"",""time""
""focus"",""97"",""402490""
","""event"",""trial"",""time""
""fullscreenenter"",""0"",""2624""
","""event"",""trial"",""time""
""fullscreenexit"",""59"",""245944""
","null","<p></p>","null","","","","","","","","","","","","","","","","","","","","","","","",""
"","do_trial","104","421162","0.0-61.0-0.0","""event"",""trial"",""time""
""fullscreenenter"",""0"",""2624""
""fullscreenexit"",""59"",""245944""
""blur"",""97"",""334350""
""focus"",""97"",""402490""
","""event"",""trial"",""time""
""blur"",""97"",""334350""
","""event"",""trial"",""time""
""focus"",""97"",""402490""
","""event"",""trial"",""time""
""fullscreenenter"",""0"",""2624""
","""event"",""trial"",""time""
""fullscreenexit"",""59"",""245944""
","465.7000000476837","","","","","","","","49","0,1,0","6","blank","272","null","0.1988267823412604","0.5033967316312274","0.3249099990918755","0","","","","","","","","",""
"","html-keyboard-response","105","422175","0.0-61.0-1.0","""event"",""trial"",""time""
""fullscreenenter"",""0"",""2624""
""fullscreenexit"",""59"",""245944""
""blur"",""97"",""334350""
""focus"",""97"",""402490""
","""event"",""trial"",""time""
""blur"",""97"",""334350""
","""event"",""trial"",""time""
""focus"",""97"",""402490""
","""event"",""trial"",""time""
""fullscreenenter"",""0"",""2624""
","""event"",""trial"",""time""
""fullscreenexit"",""59"",""245944""
","null","<p></p>","null","","","","","","","","","","","","","","","","","","","","","","","",""
"","do_trial","106","425190","0.0-62.0-0.0","""event"",""trial"",""time""
""fullscreenenter"",""0"",""2624""
""fullscreenexit"",""59"",""245944""
""blur"",""97"",""334350""
""focus"",""97"",""402490""
","""event"",""trial"",""time""
""blur"",""97"",""334350""
","""event"",""trial"",""time""
""focus"",""97"",""402490""
","""event"",""trial"",""time""
""fullscreenenter"",""0"",""2624""
","""event"",""trial"",""time""
""fullscreenexit"",""59"",""245944""
","429.5","","","","","","","","51","1,1,0","6","blank","273","null","0.20370484065355088","0.5366958023747244","0.32689714781787294","0","","","","","","","","",""
"","html-keyboard-response","107","426202","0.0-62.0-1.0","""event"",""trial"",""time""
""fullscreenenter"",""0"",""2624""
""fullscreenexit"",""59"",""245944""
""blur"",""97"",""334350""
""focus"",""97"",""402490""
","""event"",""trial"",""time""
""blur"",""97"",""334350""
","""event"",""trial"",""time""
""focus"",""97"",""402490""
","""event"",""trial"",""time""
""fullscreenenter"",""0"",""2624""
","""event"",""trial"",""time""
""fullscreenexit"",""59"",""245944""
","null","<p></p>","null","","","","","","","","","","","","","","","","","","","","","","","",""
"","do_recog","108","428457","0.0-63.0-0.0","""event"",""trial"",""time""
""fullscreenenter"",""0"",""2624""
""fullscreenexit"",""59"",""245944""
""blur"",""97"",""334350""
""focus"",""97"",""402490""
","""event"",""trial"",""time""
""blur"",""97"",""334350""
","""event"",""trial"",""time""
""focus"",""97"",""402490""
","""event"",""trial"",""time""
""fullscreenenter"",""0"",""2624""
","""event"",""trial"",""time""
""fullscreenexit"",""59"",""245944""
","726.3000000119209","","","","","","","","54","","","","274","probe-190","","","","","1","[object Object]","192","4","1","","","",""
"","html-keyboard-response","109","429466","0.0-63.0-1.0","""event"",""trial"",""time""
""fullscreenenter"",""0"",""2624""
""fullscreenexit"",""59"",""245944""
""blur"",""97"",""334350""
""focus"",""97"",""402490""
","""event"",""trial"",""time""
""blur"",""97"",""334350""
","""event"",""trial"",""time""
""focus"",""97"",""402490""
","""event"",""trial"",""time""
""fullscreenenter"",""0"",""2624""
","""event"",""trial"",""time""
""fullscreenexit"",""59"",""245944""
","null","<p></p>","null","","","","","","","","","","","","","","","","","","","","","","","",""
"","do_trial","110","432336","0.0-64.0-0.0","""event"",""trial"",""time""
""fullscreenenter"",""0"",""2624""
""fullscreenexit"",""59"",""245944""
""blur"",""97"",""334350""
""focus"",""97"",""402490""
","""event"",""trial"",""time""
""blur"",""97"",""334350""
","""event"",""trial"",""time""
""focus"",""97"",""402490""
","""event"",""trial"",""time""
""fullscreenenter"",""0"",""2624""
","""event"",""trial"",""time""
""fullscreenexit"",""59"",""245944""
","297.89999997615814","","","","","","","","50","1,1,0","6","blank","275","null","0.11708793116319352","0.706217539672904","0.4602178227078471","1","","","","","","","","",""
"","html-keyboard-response","111","433354","0.0-64.0-1.0","""event"",""trial"",""time""
""fullscreenenter"",""0"",""2624""
""fullscreenexit"",""59"",""245944""
""blur"",""97"",""334350""
""focus"",""97"",""402490""
","""event"",""trial"",""time""
""blur"",""97"",""334350""
","""event"",""trial"",""time""
""focus"",""97"",""402490""
","""event"",""trial"",""time""
""fullscreenenter"",""0"",""2624""
","""event"",""trial"",""time""
""fullscreenexit"",""59"",""245944""
","null","<p></p>","null","","","","","","","","","","","","","","","","","","","","","","","",""
"","do_trial","112","436338","0.0-65.0-0.0","""event"",""trial"",""time""
""fullscreenenter"",""0"",""2624""
""fullscreenexit"",""59"",""245944""
""blur"",""97"",""334350""
""focus"",""97"",""402490""
","""event"",""trial"",""time""
""blur"",""97"",""334350""
","""event"",""trial"",""time""
""focus"",""97"",""402490""
","""event"",""trial"",""time""
""fullscreenenter"",""0"",""2624""
","""event"",""trial"",""time""
""fullscreenexit"",""59"",""245944""
","410.5","","","","","","","","50","0,1,0","6","blank","276","null","0.1682484522353649","0.6485849811354711","0.35296005503043204","1","","","","","","","","",""
"","html-keyboard-response","113","437347","0.0-65.0-1.0","""event"",""trial"",""time""
""fullscreenenter"",""0"",""2624""
""fullscreenexit"",""59"",""245944""
""blur"",""97"",""334350""
""focus"",""97"",""402490""
","""event"",""trial"",""time""
""blur"",""97"",""334350""
","""event"",""trial"",""time""
""focus"",""97"",""402490""
","""event"",""trial"",""time""
""fullscreenenter"",""0"",""2624""
","""event"",""trial"",""time""
""fullscreenexit"",""59"",""245944""
","null","<p></p>","null","","","","","","","","","","","","","","","","","","","","","","","",""
"","do_trial","114","440358","0.0-66.0-0.0","""event"",""trial"",""time""
""fullscreenenter"",""0"",""2624""
""fullscreenexit"",""59"",""245944""
""blur"",""97"",""334350""
""focus"",""97"",""402490""
","""event"",""trial"",""time""
""blur"",""97"",""334350""
","""event"",""trial"",""time""
""focus"",""97"",""402490""
","""event"",""trial"",""time""
""fullscreenenter"",""0"",""2624""
","""event"",""trial"",""time""
""fullscreenexit"",""59"",""245944""
","431.39999997615814","","","","","","","","50","0,0,0","6","blank","277","null","0.30194955960177067","0.6674863493352374","0.4373874454432884","0","","","","","","","","",""
"","html-keyboard-response","115","441377","0.0-66.0-1.0","""event"",""trial"",""time""
""fullscreenenter"",""0"",""2624""
""fullscreenexit"",""59"",""245944""
""blur"",""97"",""334350""
""focus"",""97"",""402490""
","""event"",""trial"",""time""
""blur"",""97"",""334350""
","""event"",""trial"",""time""
""focus"",""97"",""402490""
","""event"",""trial"",""time""
""fullscreenenter"",""0"",""2624""
","""event"",""trial"",""time""
""fullscreenexit"",""59"",""245944""
","null","<p></p>","null","","","","","","","","","","","","","","","","","","","","","","","",""
"","do_trial","116","444250","0.0-67.0-0.0","""event"",""trial"",""time""
""fullscreenenter"",""0"",""2624""
""fullscreenexit"",""59"",""245944""
""blur"",""97"",""334350""
""focus"",""97"",""402490""
","""event"",""trial"",""time""
""blur"",""97"",""334350""
","""event"",""trial"",""time""
""focus"",""97"",""402490""
","""event"",""trial"",""time""
""fullscreenenter"",""0"",""2624""
","""event"",""trial"",""time""
""fullscreenexit"",""59"",""245944""
","305.5999999642372","","","","","","","","51","0,1,1","6","blank","278","null","0.19162828368519028","0.5814648217502549","0.2371852418207051","1","","","","","","","","",""
"","html-keyboard-response","117","445253","0.0-67.0-1.0","""event"",""trial"",""time""
""fullscreenenter"",""0"",""2624""
""fullscreenexit"",""59"",""245944""
""blur"",""97"",""334350""
""focus"",""97"",""402490""
","""event"",""trial"",""time""
""blur"",""97"",""334350""
","""event"",""trial"",""time""
""focus"",""97"",""402490""
","""event"",""trial"",""time""
""fullscreenenter"",""0"",""2624""
","""event"",""trial"",""time""
""fullscreenexit"",""59"",""245944""
","null","<p></p>","null","","","","","","","","","","","","","","","","","","","","","","","",""
"","do_trial","118","447951","0.0-68.0-0.0","""event"",""trial"",""time""
""fullscreenenter"",""0"",""2624""
""fullscreenexit"",""59"",""245944""
""blur"",""97"",""334350""
""focus"",""97"",""402490""
","""event"",""trial"",""time""
""blur"",""97"",""334350""
","""event"",""trial"",""time""
""focus"",""97"",""402490""
","""event"",""trial"",""time""
""fullscreenenter"",""0"",""2624""
","""event"",""trial"",""time""
""fullscreenexit"",""59"",""245944""
","127.5","","","","","","","","49","0,1,0","6","blank","279","null","0.051788004283111685","0.6199970487361064","0.32967526378949674","0","","","","","","","","",""
"","html-keyboard-response","119","448970","0.0-68.0-1.0","""event"",""trial"",""time""
""fullscreenenter"",""0"",""2624""
""fullscreenexit"",""59"",""245944""
""blur"",""97"",""334350""
""focus"",""97"",""402490""
","""event"",""trial"",""time""
""blur"",""97"",""334350""
","""event"",""trial"",""time""
""focus"",""97"",""402490""
","""event"",""trial"",""time""
""fullscreenenter"",""0"",""2624""
","""event"",""trial"",""time""
""fullscreenexit"",""59"",""245944""
","null","<p></p>","null","","","","","","","","","","","","","","","","","","","","","","","",""
"","do_recog","120","451402","0.0-69.0-0.0","""event"",""trial"",""time""
""fullscreenenter"",""0"",""2624""
""fullscreenexit"",""59"",""245944""
""blur"",""97"",""334350""
""focus"",""97"",""402490""
","""event"",""trial"",""time""
""blur"",""97"",""334350""
","""event"",""trial"",""time""
""focus"",""97"",""402490""
","""event"",""trial"",""time""
""fullscreenenter"",""0"",""2624""
","""event"",""trial"",""time""
""fullscreenexit"",""59"",""245944""
","912.5","","","","","","","","55","","","","280","probe-105","","","","","1","[object Object]","193","4","0","","","",""
"","html-keyboard-response","121","452409","0.0-69.0-1.0","""event"",""trial"",""time""
""fullscreenenter"",""0"",""2624""
""fullscreenexit"",""59"",""245944""
""blur"",""97"",""334350""
""focus"",""97"",""402490""
","""event"",""trial"",""time""
""blur"",""97"",""334350""
","""event"",""trial"",""time""
""focus"",""97"",""402490""
","""event"",""trial"",""time""
""fullscreenenter"",""0"",""2624""
","""event"",""trial"",""time""
""fullscreenexit"",""59"",""245944""
","null","<p></p>","null","","","","","","","","","","","","","","","","","","","","","","","",""
"","do_trial","122","455458","0.0-70.0-0.0","""event"",""trial"",""time""
""fullscreenenter"",""0"",""2624""
""fullscreenexit"",""59"",""245944""
""blur"",""97"",""334350""
""focus"",""97"",""402490""
","""event"",""trial"",""time""
""blur"",""97"",""334350""
","""event"",""trial"",""time""
""focus"",""97"",""402490""
","""event"",""trial"",""time""
""fullscreenenter"",""0"",""2624""
","""event"",""trial"",""time""
""fullscreenexit"",""59"",""245944""
","468.5","","","","","","","","50","0,1,0","6","blank","281","null","0.09903537001202835","0.6272505763481463","0.3216811160605782","1","","","","","","","","",""
"","html-keyboard-response","123","456473","0.0-70.0-1.0","""event"",""trial"",""time""
""fullscreenenter"",""0"",""2624""
""fullscreenexit"",""59"",""245944""
""blur"",""97"",""334350""
""focus"",""97"",""402490""
","""event"",""trial"",""time""
""blur"",""97"",""334350""
","""event"",""trial"",""time""
""focus"",""97"",""402490""
","""event"",""trial"",""time""
""fullscreenenter"",""0"",""2624""
","""event"",""trial"",""time""
""fullscreenexit"",""59"",""245944""
","null","<p></p>","null","","","","","","","","","","","","","","","","","","","","","","","",""
"","do_trial","124","459435","0.0-71.0-0.0","""event"",""trial"",""time""
""fullscreenenter"",""0"",""2624""
""fullscreenexit"",""59"",""245944""
""blur"",""97"",""334350""
""focus"",""97"",""402490""
","""event"",""trial"",""time""
""blur"",""97"",""334350""
","""event"",""trial"",""time""
""focus"",""97"",""402490""
","""event"",""trial"",""time""
""fullscreenenter"",""0"",""2624""
","""event"",""trial"",""time""
""fullscreenexit"",""59"",""245944""
","377.9000000357628","","","","","","","","49","1,0,0","6","blank","282","null","0.10391854392880907","0.5553466974546841","0.21774373228681193","1","","","","","","","","",""
"","html-keyboard-response","125","460439","0.0-71.0-1.0","""event"",""trial"",""time""
""fullscreenenter"",""0"",""2624""
""fullscreenexit"",""59"",""245944""
""blur"",""97"",""334350""
""focus"",""97"",""402490""
","""event"",""trial"",""time""
""blur"",""97"",""334350""
","""event"",""trial"",""time""
""focus"",""97"",""402490""
","""event"",""trial"",""time""
""fullscreenenter"",""0"",""2624""
","""event"",""trial"",""time""
""fullscreenexit"",""59"",""245944""
","null","<p></p>","null","","","","","","","","","","","","","","","","","","","","","","","",""
"","do_trial","126","463307","0.0-72.0-0.0","""event"",""trial"",""time""
""fullscreenenter"",""0"",""2624""
""fullscreenexit"",""59"",""245944""
""blur"",""97"",""334350""
""focus"",""97"",""402490""
","""event"",""trial"",""time""
""blur"",""97"",""334350""
","""event"",""trial"",""time""
""focus"",""97"",""402490""
","""event"",""trial"",""time""
""fullscreenenter"",""0"",""2624""
","""event"",""trial"",""time""
""fullscreenexit"",""59"",""245944""
","291.0999999642372","","","","","","","","50","0,1,0","6","blank","283","null","0.19003624913653522","0.5434332254937976","0.22751725345179047","1","","","","","","","","",""
"","html-keyboard-response","127","464324","0.0-72.0-1.0","""event"",""trial"",""time""
""fullscreenenter"",""0"",""2624""
""fullscreenexit"",""59"",""245944""
""blur"",""97"",""334350""
""focus"",""97"",""402490""
","""event"",""trial"",""time""
""blur"",""97"",""334350""
","""event"",""trial"",""time""
""focus"",""97"",""402490""
","""event"",""trial"",""time""
""fullscreenenter"",""0"",""2624""
","""event"",""trial"",""time""
""fullscreenexit"",""59"",""245944""
","null","<p></p>","null","","","","","","","","","","","","","","","","","","","","","","","",""
"","do_trial","128","467168","0.0-73.0-0.0","""event"",""trial"",""time""
""fullscreenenter"",""0"",""2624""
""fullscreenexit"",""59"",""245944""
""blur"",""97"",""334350""
""focus"",""97"",""402490""
","""event"",""trial"",""time""
""blur"",""97"",""334350""
","""event"",""trial"",""time""
""focus"",""97"",""402490""
","""event"",""trial"",""time""
""fullscreenenter"",""0"",""2624""
","""event"",""trial"",""time""
""fullscreenexit"",""59"",""245944""
","271.30000001192093","","","","","","","","51","0,1,0","6","blank","284","null","0.21152591564362858","0.5910553073248205","0.1951058926987379","0","","","","","","","","",""
"","html-keyboard-response","129","468181","0.0-73.0-1.0","""event"",""trial"",""time""
""fullscreenenter"",""0"",""2624""
""fullscreenexit"",""59"",""245944""
""blur"",""97"",""334350""
""focus"",""97"",""402490""
","""event"",""trial"",""time""
""blur"",""97"",""334350""
","""event"",""trial"",""time""
""focus"",""97"",""402490""
","""event"",""trial"",""time""
""fullscreenenter"",""0"",""2624""
","""event"",""trial"",""time""
""fullscreenexit"",""59"",""245944""
","null","<p></p>","null","","","","","","","","","","","","","","","","","","","","","","","",""
"","do_trial","130","471407","0.0-74.0-0.0","""event"",""trial"",""time""
""fullscreenenter"",""0"",""2624""
""fullscreenexit"",""59"",""245944""
""blur"",""97"",""334350""
""focus"",""97"",""402490""
","""event"",""trial"",""time""
""blur"",""97"",""334350""
","""event"",""trial"",""time""
""focus"",""97"",""402490""
","""event"",""trial"",""time""
""fullscreenenter"",""0"",""2624""
","""event"",""trial"",""time""
""fullscreenexit"",""59"",""245944""
","659.5999999642372","","","","","","","","50","0,0,1","6","blank","285","null","0.12362076817781985","0.5726670045444558","0.19059666469649605","0","","","","","","","","",""
"","html-keyboard-response","131","472419","0.0-74.0-1.0","""event"",""trial"",""time""
""fullscreenenter"",""0"",""2624""
""fullscreenexit"",""59"",""245944""
""blur"",""97"",""334350""
""focus"",""97"",""402490""
","""event"",""trial"",""time""
""blur"",""97"",""334350""
","""event"",""trial"",""time""
""focus"",""97"",""402490""
","""event"",""trial"",""time""
""fullscreenenter"",""0"",""2624""
","""event"",""trial"",""time""
""fullscreenexit"",""59"",""245944""
","null","<p></p>","null","","","","","","","","","","","","","","","","","","","","","","","",""
"","do_trial","132","475400","0.0-75.0-0.0","""event"",""trial"",""time""
""fullscreenenter"",""0"",""2624""
""fullscreenexit"",""59"",""245944""
""blur"",""97"",""334350""
""focus"",""97"",""402490""
","""event"",""trial"",""time""
""blur"",""97"",""334350""
","""event"",""trial"",""time""
""focus"",""97"",""402490""
","""event"",""trial"",""time""
""fullscreenenter"",""0"",""2624""
","""event"",""trial"",""time""
""fullscreenexit"",""59"",""245944""
","412.19999998807907","","","","","","","","50","0,1,1","6","blank","286","null","0.10213701216023546","0.5747006065528882","0.28611855409789483","1","","","","","","","","",""
"","html-keyboard-response","133","476416","0.0-75.0-1.0","""event"",""trial"",""time""
""fullscreenenter"",""0"",""2624""
""fullscreenexit"",""59"",""245944""
""blur"",""97"",""334350""
""focus"",""97"",""402490""
","""event"",""trial"",""time""
""blur"",""97"",""334350""
","""event"",""trial"",""time""
""focus"",""97"",""402490""
","""event"",""trial"",""time""
""fullscreenenter"",""0"",""2624""
","""event"",""trial"",""time""
""fullscreenexit"",""59"",""245944""
","null","<p></p>","null","","","","","","","","","","","","","","","","","","","","","","","",""
"","do_recog","134","479619","0.0-76.0-0.0","""event"",""trial"",""time""
""fullscreenenter"",""0"",""2624""
""fullscreenexit"",""59"",""245944""
""blur"",""97"",""334350""
""focus"",""97"",""402490""
","""event"",""trial"",""time""
""blur"",""97"",""334350""
","""event"",""trial"",""time""
""focus"",""97"",""402490""
","""event"",""trial"",""time""
""fullscreenenter"",""0"",""2624""
","""event"",""trial"",""time""
""fullscreenexit"",""59"",""245944""
","1689.199999988079","","","","","","","","54","","","","287","probe-20","","","","","1","[object Object]","199","4","1","","","",""
"","html-keyboard-response","135","480627","0.0-76.0-1.0","""event"",""trial"",""time""
""fullscreenenter"",""0"",""2624""
""fullscreenexit"",""59"",""245944""
""blur"",""97"",""334350""
""focus"",""97"",""402490""
","""event"",""trial"",""time""
""blur"",""97"",""334350""
","""event"",""trial"",""time""
""focus"",""97"",""402490""
","""event"",""trial"",""time""
""fullscreenenter"",""0"",""2624""
","""event"",""trial"",""time""
""fullscreenexit"",""59"",""245944""
","null","<p></p>","null","","","","","","","","","","","","","","","","","","","","","","","",""
"","do_trial","136","483986","0.0-77.0-0.0","""event"",""trial"",""time""
""fullscreenenter"",""0"",""2624""
""fullscreenexit"",""59"",""245944""
""blur"",""97"",""334350""
""focus"",""97"",""402490""
","""event"",""trial"",""time""
""blur"",""97"",""334350""
","""event"",""trial"",""time""
""focus"",""97"",""402490""
","""event"",""trial"",""time""
""fullscreenenter"",""0"",""2624""
","""event"",""trial"",""time""
""fullscreenexit"",""59"",""245944""
","778.2999999523163","","","","","","","","50","0,1,0","6","blank","288","null","0.23591956649698398","0.664339443839322","0.2530881219064775","1","","","","","","","","",""
"","html-keyboard-response","137","484992","0.0-77.0-1.0","""event"",""trial"",""time""
""fullscreenenter"",""0"",""2624""
""fullscreenexit"",""59"",""245944""
""blur"",""97"",""334350""
""focus"",""97"",""402490""
","""event"",""trial"",""time""
""blur"",""97"",""334350""
","""event"",""trial"",""time""
""focus"",""97"",""402490""
","""event"",""trial"",""time""
""fullscreenenter"",""0"",""2624""
","""event"",""trial"",""time""
""fullscreenexit"",""59"",""245944""
","null","<p></p>","null","","","","","","","","","","","","","","","","","","","","","","","",""
"","do_recog","138","489241","0.0-78.0-0.0","""event"",""trial"",""time""
""fullscreenenter"",""0"",""2624""
""fullscreenexit"",""59"",""245944""
""blur"",""97"",""334350""
""focus"",""97"",""402490""
","""event"",""trial"",""time""
""blur"",""97"",""334350""
","""event"",""trial"",""time""
""focus"",""97"",""402490""
","""event"",""trial"",""time""
""fullscreenenter"",""0"",""2624""
","""event"",""trial"",""time""
""fullscreenexit"",""59"",""245944""
","2730.199999988079","","","","","","","","55","","","","289","probe-78","","","","","1","[object Object]","70","1","0","","","",""
"","html-keyboard-response","139","490259","0.0-78.0-1.0","""event"",""trial"",""time""
""fullscreenenter"",""0"",""2624""
""fullscreenexit"",""59"",""245944""
""blur"",""97"",""334350""
""focus"",""97"",""402490""
","""event"",""trial"",""time""
""blur"",""97"",""334350""
","""event"",""trial"",""time""
""focus"",""97"",""402490""
","""event"",""trial"",""time""
""fullscreenenter"",""0"",""2624""
","""event"",""trial"",""time""
""fullscreenexit"",""59"",""245944""
","null","<p></p>","null","","","","","","","","","","","","","","","","","","","","","","","",""
"","do_trial","140","493353","0.0-79.0-0.0","""event"",""trial"",""time""
""fullscreenenter"",""0"",""2624""
""fullscreenexit"",""59"",""245944""
""blur"",""97"",""334350""
""focus"",""97"",""402490""
","""event"",""trial"",""time""
""blur"",""97"",""334350""
","""event"",""trial"",""time""
""focus"",""97"",""402490""
","""event"",""trial"",""time""
""fullscreenenter"",""0"",""2624""
","""event"",""trial"",""time""
""fullscreenexit"",""59"",""245944""
","511.60000002384186","","","","","","","","51","0,1,0","6","blank","290","null","0.16327475035499647","0.551113121229129","0.23116030549733843","0","","","","","","","","",""
"","html-keyboard-response","141","494366","0.0-79.0-1.0","""event"",""trial"",""time""
""fullscreenenter"",""0"",""2624""
""fullscreenexit"",""59"",""245944""
""blur"",""97"",""334350""
""focus"",""97"",""402490""
","""event"",""trial"",""time""
""blur"",""97"",""334350""
","""event"",""trial"",""time""
""focus"",""97"",""402490""
","""event"",""trial"",""time""
""fullscreenenter"",""0"",""2624""
","""event"",""trial"",""time""
""fullscreenexit"",""59"",""245944""
","null","<p></p>","null","","","","","","","","","","","","","","","","","","","","","","","",""
"","do_recog","142","497286","0.0-80.0-0.0","""event"",""trial"",""time""
""fullscreenenter"",""0"",""2624""
""fullscreenexit"",""59"",""245944""
""blur"",""97"",""334350""
""focus"",""97"",""402490""
","""event"",""trial"",""time""
""blur"",""97"",""334350""
","""event"",""trial"",""time""
""focus"",""97"",""402490""
","""event"",""trial"",""time""
""fullscreenenter"",""0"",""2624""
","""event"",""trial"",""time""
""fullscreenexit"",""59"",""245944""
","1411.1000000238419","","","","","","","","55","","","","291","probe-66","","","","","1","[object Object]","71","1","0","","","",""
"","html-keyboard-response","143","498297","0.0-80.0-1.0","""event"",""trial"",""time""
""fullscreenenter"",""0"",""2624""
""fullscreenexit"",""59"",""245944""
""blur"",""97"",""334350""
""focus"",""97"",""402490""
","""event"",""trial"",""time""
""blur"",""97"",""334350""
","""event"",""trial"",""time""
""focus"",""97"",""402490""
","""event"",""trial"",""time""
""fullscreenenter"",""0"",""2624""
","""event"",""trial"",""time""
""fullscreenexit"",""59"",""245944""
","null","<p></p>","null","","","","","","","","","","","","","","","","","","","","","","","",""
"","do_trial","144","502467","0.0-81.0-0.0","""event"",""trial"",""time""
""fullscreenenter"",""0"",""2624""
""fullscreenexit"",""59"",""245944""
""blur"",""97"",""334350""
""focus"",""97"",""402490""
","""event"",""trial"",""time""
""blur"",""97"",""334350""
","""event"",""trial"",""time""
""focus"",""97"",""402490""
","""event"",""trial"",""time""
""fullscreenenter"",""0"",""2624""
","""event"",""trial"",""time""
""fullscreenexit"",""59"",""245944""
","1589.4000000357628","","","","","","","","50","0,0,1","6","blank","292","null","0.11512197797641353","0.5664656418855222","0.34272176551761313","0","","","","","","","","",""
"","html-keyboard-response","145","503473","0.0-81.0-1.0","""event"",""trial"",""time""
""fullscreenenter"",""0"",""2624""
""fullscreenexit"",""59"",""245944""
""blur"",""97"",""334350""
""focus"",""97"",""402490""
","""event"",""trial"",""time""
""blur"",""97"",""334350""
","""event"",""trial"",""time""
""focus"",""97"",""402490""
","""event"",""trial"",""time""
""fullscreenenter"",""0"",""2624""
","""event"",""trial"",""time""
""fullscreenexit"",""59"",""245944""
","null","<p></p>","null","","","","","","","","","","","","","","","","","","","","","","","",""
"","do_recog","146","506135","0.0-82.0-0.0","""event"",""trial"",""time""
""fullscreenenter"",""0"",""2624""
""fullscreenexit"",""59"",""245944""
""blur"",""97"",""334350""
""focus"",""97"",""402490""
","""event"",""trial"",""time""
""blur"",""97"",""334350""
","""event"",""trial"",""time""
""focus"",""97"",""402490""
","""event"",""trial"",""time""
""fullscreenenter"",""0"",""2624""
","""event"",""trial"",""time""
""fullscreenexit"",""59"",""245944""
","1137.199999988079","","","","","","","","55","","","","293","probe-25","","","","","1","[object Object]","190","4","0","","","",""
"","html-keyboard-response","147","507148","0.0-82.0-1.0","""event"",""trial"",""time""
""fullscreenenter"",""0"",""2624""
""fullscreenexit"",""59"",""245944""
""blur"",""97"",""334350""
""focus"",""97"",""402490""
","""event"",""trial"",""time""
""blur"",""97"",""334350""
","""event"",""trial"",""time""
""focus"",""97"",""402490""
","""event"",""trial"",""time""
""fullscreenenter"",""0"",""2624""
","""event"",""trial"",""time""
""fullscreenexit"",""59"",""245944""
","null","<p></p>","null","","","","","","","","","","","","","","","","","","","","","","","",""
"","do_trial","148","510763","0.0-83.0-0.0","""event"",""trial"",""time""
""fullscreenenter"",""0"",""2624""
""fullscreenexit"",""59"",""245944""
""blur"",""97"",""334350""
""focus"",""97"",""402490""
","""event"",""trial"",""time""
""blur"",""97"",""334350""
","""event"",""trial"",""time""
""focus"",""97"",""402490""
","""event"",""trial"",""time""
""fullscreenenter"",""0"",""2624""
","""event"",""trial"",""time""
""fullscreenexit"",""59"",""245944""
","1040.6000000238419","","","","","","","","50","0,1,1","6","blank","294","null","0.13602452158355488","0.5224025862633016","0.4597051331542788","1","","","","","","","","",""
"","html-keyboard-response","149","511775","0.0-83.0-1.0","""event"",""trial"",""time""
""fullscreenenter"",""0"",""2624""
""fullscreenexit"",""59"",""245944""
""blur"",""97"",""334350""
""focus"",""97"",""402490""
","""event"",""trial"",""time""
""blur"",""97"",""334350""
","""event"",""trial"",""time""
""focus"",""97"",""402490""
","""event"",""trial"",""time""
""fullscreenenter"",""0"",""2624""
","""event"",""trial"",""time""
""fullscreenexit"",""59"",""245944""
","null","<p></p>","null","","","","","","","","","","","","","","","","","","","","","","","",""
"","do_recog","150","513931","0.0-84.0-0.0","""event"",""trial"",""time""
""fullscreenenter"",""0"",""2624""
""fullscreenexit"",""59"",""245944""
""blur"",""97"",""334350""
""focus"",""97"",""402490""
","""event"",""trial"",""time""
""blur"",""97"",""334350""
","""event"",""trial"",""time""
""focus"",""97"",""402490""
","""event"",""trial"",""time""
""fullscreenenter"",""0"",""2624""
","""event"",""trial"",""time""
""fullscreenexit"",""59"",""245944""
","633.6999999880791","","","","","","","","55","","","","295","probe-124","","","","","1","[object Object]","35","0","0","","","",""
"","html-keyboard-response","151","514945","0.0-84.0-1.0","""event"",""trial"",""time""
""fullscreenenter"",""0"",""2624""
""fullscreenexit"",""59"",""245944""
""blur"",""97"",""334350""
""focus"",""97"",""402490""
","""event"",""trial"",""time""
""blur"",""97"",""334350""
","""event"",""trial"",""time""
""focus"",""97"",""402490""
","""event"",""trial"",""time""
""fullscreenenter"",""0"",""2624""
","""event"",""trial"",""time""
""fullscreenexit"",""59"",""245944""
","null","<p></p>","null","","","","","","","","","","","","","","","","","","","","","","","",""
"","do_trial","152","518073","0.0-85.0-0.0","""event"",""trial"",""time""
""fullscreenenter"",""0"",""2624""
""fullscreenexit"",""59"",""245944""
""blur"",""97"",""334350""
""focus"",""97"",""402490""
","""event"",""trial"",""time""
""blur"",""97"",""334350""
","""event"",""trial"",""time""
""focus"",""97"",""402490""
","""event"",""trial"",""time""
""fullscreenenter"",""0"",""2624""
","""event"",""trial"",""time""
""fullscreenexit"",""59"",""245944""
","526.1999999880791","","","","","","","","51","0,1,0","6","blank","296","null","0.10549786907254965","0.47998979329083513","0.4820637330660397","0","","","","","","","","",""
"","html-keyboard-response","153","519082","0.0-85.0-1.0","""event"",""trial"",""time""
""fullscreenenter"",""0"",""2624""
""fullscreenexit"",""59"",""245944""
""blur"",""97"",""334350""
""focus"",""97"",""402490""
","""event"",""trial"",""time""
""blur"",""97"",""334350""
","""event"",""trial"",""time""
""focus"",""97"",""402490""
","""event"",""trial"",""time""
""fullscreenenter"",""0"",""2624""
","""event"",""trial"",""time""
""fullscreenexit"",""59"",""245944""
","null","<p></p>","null","","","","","","","","","","","","","","","","","","","","","","","",""
"","do_trial","154","523169","0.0-86.0-0.0","""event"",""trial"",""time""
""fullscreenenter"",""0"",""2624""
""fullscreenexit"",""59"",""245944""
""blur"",""97"",""334350""
""focus"",""97"",""402490""
","""event"",""trial"",""time""
""blur"",""97"",""334350""
","""event"",""trial"",""time""
""focus"",""97"",""402490""
","""event"",""trial"",""time""
""fullscreenenter"",""0"",""2624""
","""event"",""trial"",""time""
""fullscreenexit"",""59"",""245944""
","1501.800000011921","","","","","","","","49","0,1,0","6","blank","297","null","0.057797575217289794","0.30247185980630087","0.4858166866739697","0","","","","","","","","",""
"","html-keyboard-response","155","524175","0.0-86.0-1.0","""event"",""trial"",""time""
""fullscreenenter"",""0"",""2624""
""fullscreenexit"",""59"",""245944""
""blur"",""97"",""334350""
""focus"",""97"",""402490""
","""event"",""trial"",""time""
""blur"",""97"",""334350""
","""event"",""trial"",""time""
""focus"",""97"",""402490""
","""event"",""trial"",""time""
""fullscreenenter"",""0"",""2624""
","""event"",""trial"",""time""
""fullscreenexit"",""59"",""245944""
","null","<p></p>","null","","","","","","","","","","","","","","","","","","","","","","","",""
"","do_recog","156","526382","0.0-87.0-0.0","""event"",""trial"",""time""
""fullscreenenter"",""0"",""2624""
""fullscreenexit"",""59"",""245944""
""blur"",""97"",""334350""
""focus"",""97"",""402490""
","""event"",""trial"",""time""
""blur"",""97"",""334350""
","""event"",""trial"",""time""
""focus"",""97"",""402490""
","""event"",""trial"",""time""
""fullscreenenter"",""0"",""2624""
","""event"",""trial"",""time""
""fullscreenexit"",""59"",""245944""
","686.1999999880791","","","","","","","","55","","","","298","probe-206","","","","","1","[object Object]","119","2","0","","","",""
"","html-keyboard-response","157","527396","0.0-87.0-1.0","""event"",""trial"",""time""
""fullscreenenter"",""0"",""2624""
""fullscreenexit"",""59"",""245944""
""blur"",""97"",""334350""
""focus"",""97"",""402490""
","""event"",""trial"",""time""
""blur"",""97"",""334350""
","""event"",""trial"",""time""
""focus"",""97"",""402490""
","""event"",""trial"",""time""
""fullscreenenter"",""0"",""2624""
","""event"",""trial"",""time""
""fullscreenexit"",""59"",""245944""
","null","<p></p>","null","","","","","","","","","","","","","","","","","","","","","","","",""
"","do_trial","158","530822","0.0-88.0-0.0","""event"",""trial"",""time""
""fullscreenenter"",""0"",""2624""
""fullscreenexit"",""59"",""245944""
""blur"",""97"",""334350""
""focus"",""97"",""402490""
","""event"",""trial"",""time""
""blur"",""97"",""334350""
","""event"",""trial"",""time""
""focus"",""97"",""402490""
","""event"",""trial"",""time""
""fullscreenenter"",""0"",""2624""
","""event"",""trial"",""time""
""fullscreenexit"",""59"",""245944""
","837.8000000119209","","","","","","","","50","0,1,0","6","blank","299","null","0.20269239770517508","0.26801618522470616","0.47421337889116394","1","","","","","","","","",""
"","html-keyboard-response","159","531838","0.0-88.0-1.0","""event"",""trial"",""time""
""fullscreenenter"",""0"",""2624""
""fullscreenexit"",""59"",""245944""
""blur"",""97"",""334350""
""focus"",""97"",""402490""
","""event"",""trial"",""time""
""blur"",""97"",""334350""
","""event"",""trial"",""time""
""focus"",""97"",""402490""
","""event"",""trial"",""time""
""fullscreenenter"",""0"",""2624""
","""event"",""trial"",""time""
""fullscreenexit"",""59"",""245944""
","null","<p></p>","null","","","","","","","","","","","","","","","","","","","","","","","",""
"","do_trial","160","534981","0.0-89.0-0.0","""event"",""trial"",""time""
""fullscreenenter"",""0"",""2624""
""fullscreenexit"",""59"",""245944""
""blur"",""97"",""334350""
""focus"",""97"",""402490""
","""event"",""trial"",""time""
""blur"",""97"",""334350""
","""event"",""trial"",""time""
""focus"",""97"",""402490""
","""event"",""trial"",""time""
""fullscreenenter"",""0"",""2624""
","""event"",""trial"",""time""
""fullscreenexit"",""59"",""245944""
","552.2000000476837","","","","","","","","50","0,1,1","6","blank","300","null","0.20247816476650912","0.3556508697283421","0.5474150088511662","1","","","","","","","","",""
"","html-keyboard-response","161","535987","0.0-89.0-1.0","""event"",""trial"",""time""
""fullscreenenter"",""0"",""2624""
""fullscreenexit"",""59"",""245944""
""blur"",""97"",""334350""
""focus"",""97"",""402490""
","""event"",""trial"",""time""
""blur"",""97"",""334350""
","""event"",""trial"",""time""
""focus"",""97"",""402490""
","""event"",""trial"",""time""
""fullscreenenter"",""0"",""2624""
","""event"",""trial"",""time""
""fullscreenexit"",""59"",""245944""
","null","<p></p>","null","","","","","","","","","","","","","","","","","","","","","","","",""
"","do_trial","162","539150","0.0-90.0-0.0","""event"",""trial"",""time""
""fullscreenenter"",""0"",""2624""
""fullscreenexit"",""59"",""245944""
""blur"",""97"",""334350""
""focus"",""97"",""402490""
","""event"",""trial"",""time""
""blur"",""97"",""334350""
","""event"",""trial"",""time""
""focus"",""97"",""402490""
","""event"",""trial"",""time""
""fullscreenenter"",""0"",""2624""
","""event"",""trial"",""time""
""fullscreenexit"",""59"",""245944""
","580.7000000476837","","","","","","","","51","0,1,0","6","blank","301","null","0.11843488204687716","0.385374937737868","0.7321495760103123","0","","","","","","","","",""
"","html-keyboard-response","163","540165","0.0-90.0-1.0","""event"",""trial"",""time""
""fullscreenenter"",""0"",""2624""
""fullscreenexit"",""59"",""245944""
""blur"",""97"",""334350""
""focus"",""97"",""402490""
","""event"",""trial"",""time""
""blur"",""97"",""334350""
","""event"",""trial"",""time""
""focus"",""97"",""402490""
","""event"",""trial"",""time""
""fullscreenenter"",""0"",""2624""
","""event"",""trial"",""time""
""fullscreenexit"",""59"",""245944""
","null","<p></p>","null","","","","","","","","","","","","","","","","","","","","","","","",""
"","do_trial","164","543174","0.0-91.0-0.0","""event"",""trial"",""time""
""fullscreenenter"",""0"",""2624""
""fullscreenexit"",""59"",""245944""
""blur"",""97"",""334350""
""focus"",""97"",""402490""
","""event"",""trial"",""time""
""blur"",""97"",""334350""
","""event"",""trial"",""time""
""focus"",""97"",""402490""
","""event"",""trial"",""time""
""fullscreenenter"",""0"",""2624""
","""event"",""trial"",""time""
""fullscreenexit"",""59"",""245944""
","416.30000001192093","","","","","","","","49","1,0,1","6","blank","302","null","0.10368830058718218","0.3755463425226531","0.7210298696286016","1","","","","","","","","",""
"","html-keyboard-response","165","544182","0.0-91.0-1.0","""event"",""trial"",""time""
""fullscreenenter"",""0"",""2624""
""fullscreenexit"",""59"",""245944""
""blur"",""97"",""334350""
""focus"",""97"",""402490""
","""event"",""trial"",""time""
""blur"",""97"",""334350""
","""event"",""trial"",""time""
""focus"",""97"",""402490""
","""event"",""trial"",""time""
""fullscreenenter"",""0"",""2624""
","""event"",""trial"",""time""
""fullscreenexit"",""59"",""245944""
","null","<p></p>","null","","","","","","","","","","","","","","","","","","","","","","","",""
"","do_trial","166","547306","0.0-92.0-0.0","""event"",""trial"",""time""
""fullscreenenter"",""0"",""2624""
""fullscreenexit"",""59"",""245944""
""blur"",""97"",""334350""
""focus"",""97"",""402490""
","""event"",""trial"",""time""
""blur"",""97"",""334350""
","""event"",""trial"",""time""
""focus"",""97"",""402490""
","""event"",""trial"",""time""
""fullscreenenter"",""0"",""2624""
","""event"",""trial"",""time""
""fullscreenexit"",""59"",""245944""
","546.6999999880791","","","","","","","","50","0,0,1","6","blank","303","null","0.1446121070573635","0.28959670379386504","0.6685816992336763","0","","","","","","","","",""
"","html-keyboard-response","167","548320","0.0-92.0-1.0","""event"",""trial"",""time""
""fullscreenenter"",""0"",""2624""
""fullscreenexit"",""59"",""245944""
""blur"",""97"",""334350""
""focus"",""97"",""402490""
","""event"",""trial"",""time""
""blur"",""97"",""334350""
","""event"",""trial"",""time""
""focus"",""97"",""402490""
","""event"",""trial"",""time""
""fullscreenenter"",""0"",""2624""
","""event"",""trial"",""time""
""fullscreenexit"",""59"",""245944""
","null","<p></p>","null","","","","","","","","","","","","","","","","","","","","","","","",""
"","do_trial","168","551131","0.0-93.0-0.0","""event"",""trial"",""time""
""fullscreenenter"",""0"",""2624""
""fullscreenexit"",""59"",""245944""
""blur"",""97"",""334350""
""focus"",""97"",""402490""
","""event"",""trial"",""time""
""blur"",""97"",""334350""
","""event"",""trial"",""time""
""focus"",""97"",""402490""
","""event"",""trial"",""time""
""fullscreenenter"",""0"",""2624""
","""event"",""trial"",""time""
""fullscreenexit"",""59"",""245944""
","237.5","","","","","","","","49","0,1,1","6","blank","304","null","0.15359630172287037","0.34433398640230123","0.7064487087911896","0","","","","","","","","",""
"","html-keyboard-response","169","552136","0.0-93.0-1.0","""event"",""trial"",""time""
""fullscreenenter"",""0"",""2624""
""fullscreenexit"",""59"",""245944""
""blur"",""97"",""334350""
""focus"",""97"",""402490""
","""event"",""trial"",""time""
""blur"",""97"",""334350""
","""event"",""trial"",""time""
""focus"",""97"",""402490""
","""event"",""trial"",""time""
""fullscreenenter"",""0"",""2624""
","""event"",""trial"",""time""
""fullscreenexit"",""59"",""245944""
","null","<p></p>","null","","","","","","","","","","","","","","","","","","","","","","","",""
"","do_recog","170","554430","0.0-94.0-0.0","""event"",""trial"",""time""
""fullscreenenter"",""0"",""2624""
""fullscreenexit"",""59"",""245944""
""blur"",""97"",""334350""
""focus"",""97"",""402490""
","""event"",""trial"",""time""
""blur"",""97"",""334350""
","""event"",""trial"",""time""
""focus"",""97"",""402490""
","""event"",""trial"",""time""
""fullscreenenter"",""0"",""2624""
","""event"",""trial"",""time""
""fullscreenexit"",""59"",""245944""
","764.8000000119209","","","","","","","","55","","","","305","probe-109","","","","","1","[object Object]","118","2","0","","","",""
"","html-keyboard-response","171","555449","0.0-94.0-1.0","""event"",""trial"",""time""
""fullscreenenter"",""0"",""2624""
""fullscreenexit"",""59"",""245944""
""blur"",""97"",""334350""
""focus"",""97"",""402490""
","""event"",""trial"",""time""
""blur"",""97"",""334350""
","""event"",""trial"",""time""
""focus"",""97"",""402490""
","""event"",""trial"",""time""
""fullscreenenter"",""0"",""2624""
","""event"",""trial"",""time""
""fullscreenexit"",""59"",""245944""
","null","<p></p>","null","","","","","","","","","","","","","","","","","","","","","","","",""
"","do_trial","172","561519","0.0-95.0-0.0","""event"",""trial"",""time""
""fullscreenenter"",""0"",""2624""
""fullscreenexit"",""59"",""245944""
""blur"",""97"",""334350""
""focus"",""97"",""402490""
","""event"",""trial"",""time""
""blur"",""97"",""334350""
","""event"",""trial"",""time""
""focus"",""97"",""402490""
","""event"",""trial"",""time""
""fullscreenenter"",""0"",""2624""
","""event"",""trial"",""time""
""fullscreenexit"",""59"",""245944""
","null","","","","","","","","null","0,0,1","6","blank","306","null","0.13087834609922083","0.269638327081615","0.6703309303182192","","","","","","","","","",""
"","html-keyboard-response","173","562531","0.0-95.0-1.0","""event"",""trial"",""time""
""fullscreenenter"",""0"",""2624""
""fullscreenexit"",""59"",""245944""
""blur"",""97"",""334350""
""focus"",""97"",""402490""
","""event"",""trial"",""time""
""blur"",""97"",""334350""
","""event"",""trial"",""time""
""focus"",""97"",""402490""
","""event"",""trial"",""time""
""fullscreenenter"",""0"",""2624""
","""event"",""trial"",""time""
""fullscreenexit"",""59"",""245944""
","null","<p></p>","null","","","","","","","","","","","","","","","","","","","","","","","",""
"","do_trial","174","565780","0.0-96.0-0.0","""event"",""trial"",""time""
""fullscreenenter"",""0"",""2624""
""fullscreenexit"",""59"",""245944""
""blur"",""97"",""334350""
""focus"",""97"",""402490""
","""event"",""trial"",""time""
""blur"",""97"",""334350""
","""event"",""trial"",""time""
""focus"",""97"",""402490""
","""event"",""trial"",""time""
""fullscreenenter"",""0"",""2624""
","""event"",""trial"",""time""
""fullscreenexit"",""59"",""245944""
","670.2999999523163","","","","","","","","49","0,1,0","6","blank","307","null","0.07747482540391001","0.404810924863413","0.44119390440476813","0","","","","","","","","",""
"","html-keyboard-response","175","566784","0.0-96.0-1.0","""event"",""trial"",""time""
""fullscreenenter"",""0"",""2624""
""fullscreenexit"",""59"",""245944""
""blur"",""97"",""334350""
""focus"",""97"",""402490""
","""event"",""trial"",""time""
""blur"",""97"",""334350""
","""event"",""trial"",""time""
""focus"",""97"",""402490""
","""event"",""trial"",""time""
""fullscreenenter"",""0"",""2624""
","""event"",""trial"",""time""
""fullscreenexit"",""59"",""245944""
","null","<p></p>","null","","","","","","","","","","","","","","","","","","","","","","","",""
"","do_trial","176","569785","0.0-97.0-0.0","""event"",""trial"",""time""
""fullscreenenter"",""0"",""2624""
""fullscreenexit"",""59"",""245944""
""blur"",""97"",""334350""
""focus"",""97"",""402490""
","""event"",""trial"",""time""
""blur"",""97"",""334350""
","""event"",""trial"",""time""
""focus"",""97"",""402490""
","""event"",""trial"",""time""
""fullscreenenter"",""0"",""2624""
","""event"",""trial"",""time""
""fullscreenexit"",""59"",""245944""
","416.7000000476837","","","","","","","","51","0,1,1","6","blank","308","null","0.07763137413483837","0.19584865765401965","0.2999873146434063","1","","","","","","","","",""
"","html-keyboard-response","177","570794","0.0-97.0-1.0","""event"",""trial"",""time""
""fullscreenenter"",""0"",""2624""
""fullscreenexit"",""59"",""245944""
""blur"",""97"",""334350""
""focus"",""97"",""402490""
""blur"",""178"",""574966""
""focus"",""178"",""636524""
","""event"",""trial"",""time""
""blur"",""97"",""334350""
""blur"",""178"",""574966""
","""event"",""trial"",""time""
""focus"",""97"",""402490""
""focus"",""178"",""636524""
","""event"",""trial"",""time""
""fullscreenenter"",""0"",""2624""
","""event"",""trial"",""time""
""fullscreenexit"",""59"",""245944""
","null","<p></p>","null","","","","","","","","","","","","","","","","","","","","","","","",""
"","break","178","637720","0.0-98.0-0.0","""event"",""trial"",""time""
""fullscreenenter"",""0"",""2624""
""fullscreenexit"",""59"",""245944""
""blur"",""97"",""334350""
""focus"",""97"",""402490""
""blur"",""178"",""574966""
""focus"",""178"",""636524""
","""event"",""trial"",""time""
""blur"",""97"",""334350""
""blur"",""178"",""574966""
","""event"",""trial"",""time""
""focus"",""97"",""402490""
""focus"",""178"",""636524""
","""event"",""trial"",""time""
""fullscreenenter"",""0"",""2624""
","""event"",""trial"",""time""
""fullscreenexit"",""59"",""245944""
","66928.59999996424","<div class='center'><p>Time to take a quick break! You have 2 minutes to rest, but you can move on sooner if you'd like.</p><p> Press the <b>space bar</b> to continue.</p></div>","32","","","","","","","","","","","","","","","","","","","","","","","",""
"","do_trial","179","641443","0.0-98.0-1.0","""event"",""trial"",""time""
""fullscreenenter"",""0"",""2624""
""fullscreenexit"",""59"",""245944""
""blur"",""97"",""334350""
""focus"",""97"",""402490""
""blur"",""178"",""574966""
""focus"",""178"",""636524""
","""event"",""trial"",""time""
""blur"",""97"",""334350""
""blur"",""178"",""574966""
","""event"",""trial"",""time""
""focus"",""97"",""402490""
""focus"",""178"",""636524""
","""event"",""trial"",""time""
""fullscreenenter"",""0"",""2624""
","""event"",""trial"",""time""
""fullscreenexit"",""59"",""245944""
","1150.5","","","","","","","","50","0,0,0","6","blank","309","null","0.08202776822638003","0.18608055078290697","0.27874557513219317","0","","","","","","","","",""
"","html-keyboard-response","180","642458","0.0-98.0-2.0","""event"",""trial"",""time""
""fullscreenenter"",""0"",""2624""
""fullscreenexit"",""59"",""245944""
""blur"",""97"",""334350""
""focus"",""97"",""402490""
""blur"",""178"",""574966""
""focus"",""178"",""636524""
","""event"",""trial"",""time""
""blur"",""97"",""334350""
""blur"",""178"",""574966""
","""event"",""trial"",""time""
""focus"",""97"",""402490""
""focus"",""178"",""636524""
","""event"",""trial"",""time""
""fullscreenenter"",""0"",""2624""
","""event"",""trial"",""time""
""fullscreenexit"",""59"",""245944""
","null","<p></p>","null","","","","","","","","","","","","","","","","","","","","","","","",""
"","do_recog","181","648484","0.0-99.0-0.0","""event"",""trial"",""time""
""fullscreenenter"",""0"",""2624""
""fullscreenexit"",""59"",""245944""
""blur"",""97"",""334350""
""focus"",""97"",""402490""
""blur"",""178"",""574966""
""focus"",""178"",""636524""
","""event"",""trial"",""time""
""blur"",""97"",""334350""
""blur"",""178"",""574966""
","""event"",""trial"",""time""
""focus"",""97"",""402490""
""focus"",""178"",""636524""
","""event"",""trial"",""time""
""fullscreenenter"",""0"",""2624""
","""event"",""trial"",""time""
""fullscreenexit"",""59"",""245944""
","null","","","","","","","","null","","","","310","probe-83","","","","","1","[object Object]","77","1","0","","","",""
"","html-keyboard-response","182","649500","0.0-99.0-1.0","""event"",""trial"",""time""
""fullscreenenter"",""0"",""2624""
""fullscreenexit"",""59"",""245944""
""blur"",""97"",""334350""
""focus"",""97"",""402490""
""blur"",""178"",""574966""
""focus"",""178"",""636524""
","""event"",""trial"",""time""
""blur"",""97"",""334350""
""blur"",""178"",""574966""
","""event"",""trial"",""time""
""focus"",""97"",""402490""
""focus"",""178"",""636524""
","""event"",""trial"",""time""
""fullscreenenter"",""0"",""2624""
","""event"",""trial"",""time""
""fullscreenexit"",""59"",""245944""
","null","<p></p>","null","","","","","","","","","","","","","","","","","","","","","","","",""
"","do_trial","183","652771","0.0-100.0-0.0","""event"",""trial"",""time""
""fullscreenenter"",""0"",""2624""
""fullscreenexit"",""59"",""245944""
""blur"",""97"",""334350""
""focus"",""97"",""402490""
""blur"",""178"",""574966""
""focus"",""178"",""636524""
","""event"",""trial"",""time""
""blur"",""97"",""334350""
""blur"",""178"",""574966""
","""event"",""trial"",""time""
""focus"",""97"",""402490""
""focus"",""178"",""636524""
","""event"",""trial"",""time""
""fullscreenenter"",""0"",""2624""
","""event"",""trial"",""time""
""fullscreenexit"",""59"",""245944""
","690.3999999761581","","","","","","","","50","0,1,0","6","blank","311","null","0.06716269423633964","0.27791041937590616","0.43165549705001144","1","","","","","","","","",""
"","html-keyboard-response","184","653789","0.0-100.0-1.0","""event"",""trial"",""time""
""fullscreenenter"",""0"",""2624""
""fullscreenexit"",""59"",""245944""
""blur"",""97"",""334350""
""focus"",""97"",""402490""
""blur"",""178"",""574966""
""focus"",""178"",""636524""
","""event"",""trial"",""time""
""blur"",""97"",""334350""
""blur"",""178"",""574966""
","""event"",""trial"",""time""
""focus"",""97"",""402490""
""focus"",""178"",""636524""
","""event"",""trial"",""time""
""fullscreenenter"",""0"",""2624""
","""event"",""trial"",""time""
""fullscreenexit"",""59"",""245944""
","null","<p></p>","null","","","","","","","","","","","","","","","","","","","","","","","",""
"","do_recog","185","657284","0.0-101.0-0.0","""event"",""trial"",""time""
""fullscreenenter"",""0"",""2624""
""fullscreenexit"",""59"",""245944""
""blur"",""97"",""334350""
""focus"",""97"",""402490""
""blur"",""178"",""574966""
""focus"",""178"",""636524""
","""event"",""trial"",""time""
""blur"",""97"",""334350""
""blur"",""178"",""574966""
","""event"",""trial"",""time""
""focus"",""97"",""402490""
""focus"",""178"",""636524""
","""event"",""trial"",""time""
""fullscreenenter"",""0"",""2624""
","""event"",""trial"",""time""
""fullscreenexit"",""59"",""245944""
","1977.8999999761581","","","","","","","","54","","","","312","probe-48","","","","","1","[object Object]","155","3","1","","","",""
"","html-keyboard-response","186","658302","0.0-101.0-1.0","""event"",""trial"",""time""
""fullscreenenter"",""0"",""2624""
""fullscreenexit"",""59"",""245944""
""blur"",""97"",""334350""
""focus"",""97"",""402490""
""blur"",""178"",""574966""
""focus"",""178"",""636524""
","""event"",""trial"",""time""
""blur"",""97"",""334350""
""blur"",""178"",""574966""
","""event"",""trial"",""time""
""focus"",""97"",""402490""
""focus"",""178"",""636524""
","""event"",""trial"",""time""
""fullscreenenter"",""0"",""2624""
","""event"",""trial"",""time""
""fullscreenexit"",""59"",""245944""
","null","<p></p>","null","","","","","","","","","","","","","","","","","","","","","","","",""
"","do_trial","187","662940","0.0-102.0-0.0","""event"",""trial"",""time""
""fullscreenenter"",""0"",""2624""
""fullscreenexit"",""59"",""245944""
""blur"",""97"",""334350""
""focus"",""97"",""402490""
""blur"",""178"",""574966""
""focus"",""178"",""636524""
","""event"",""trial"",""time""
""blur"",""97"",""334350""
""blur"",""178"",""574966""
","""event"",""trial"",""time""
""focus"",""97"",""402490""
""focus"",""178"",""636524""
","""event"",""trial"",""time""
