success,trial_type,trial_index,time_elapsed,internal_node_id,rt,stimulus,subject_id,key_press,response,choice_outcomes,context_n,context_img_id,trial_n,probe_img_id,pR_red,pR_white,pR_black,outcome,is_valid,image_to_show,probed_trial,probed_context,correct,context_id
TRUE,fullscreen,0,3701,0.0-0.0,,,,,,,,,,,,,,,,,,,,
,pavlovia,1,3720,0.0-1.0,,,,,,,,,,,,,,,,,,,,
,html-keyboard-response,2,10688,0.0-2.0,6964.4,"<div class='center'><p>Like yesterday,as the head captain of the ship, you have one important things to do: </p><b><p> Pick the pirate who you think will be most successful at robbing the next ship.</p></b><p>This is important in determining how much bonus money you’ll win.</p><br><p>The game will start by showing you the pirates. First pick a pirate using the <b> 1, 2, 3 </b> buttons on your keyboard. </p><p> Press <b>'1'</b> to choose red beard, <b>'2'</b> to choose white beard, and <b>'3'</b> to choose black beard</p><p> You only have 3 seconds to pick a pirate, so please make a choice quickly! If you are too slow, you’ll have to wait a bit during the time out.</p><p> Don’t feel rushed, but please do try to make a choice every time.</p><p>How good a pirate is at robbing a ship will change depending on the place they are in and how good the defenses are of the ship.</p><p><b>[Press the space bar to begin the practice game]</b></p></div>",60ff7ab8aaa4c9e19aebce0b,32,,,,,,,,,,,,,,,,
,html-keyboard-response,3,22055,0.0-3.0,11364.6,"<div class='center'><p>You’ve arrived at the final island of your journey! Unfortunately, it’s very foggy out, so you won’t be able to see it in the distance like the previous islands you've visited.</p><p>You’ll still be deciding which pirate you want to rob a ship like before. However, because of the fog, you also won’t be able to see the ship.</p><p>This means you do not have to remember the ships you rob on this island.</p><p><b>[Press the space bar to continue]</b></p></div>",,32,,,,,,,,,,,,,,,,
,html-keyboard-response,4,31145,0.0-4.0,9084.8,"<div class='center'><p> Sometimes you’ll be shown a ship, and you will be asked if you saw this ship on a past island.</p><p> Here is an example of what you will see.</p><p><b>[Press the space bar to continue]</b></p><p><img src='run_exp/static/images/tutorial/example_recog_trial.png' height='500'></p></div>",,32,,,,,,,,,,,,,,,,
,html-keyboard-response,5,34187,0.0-5.0,3036.4,"<div class='center'><p> You will press the 5, 6, 7, 8 buttons on your keyboard to respond.</p><p>If you are very sure saw the ship, press <b>5</b> on your keyboard.</p><p> If you think you  saw it before but are not sure, then press <b>6</b>.</p><p> If you think you have not seen it before but are not sure, then press <b>7</b>.</p><p> If you are sure you did not see the ship before, then press <b>8</b>.</p><p><b>[Press the space bar to continue]</b></p><p><img src='run_exp/static/images/tutorial/example_recog_trial.png' height='500'></p></div>",,32,,,,,,,,,,,,,,,,
,html-keyboard-response,6,42050,0.0-6.0,7857.8,"<div class='center'><p> If you remember correctly, then you’ll get a gold coin like this: </p><p><img src='run_exp/static/images/tutorial/reward_small.png' height='200'></p><p>If you do not remember correctly, then you'll see a red x like this: </p><p><img src='run_exp/static/images/tutorial/reward_no.png' height='200'></p><p>Importantly, when you are shown a ship, take the time to remind yourself which island you saw it on. This will help you in the next part of the study.</p><p><b>[Press the space bar to continue]</b></p></div>",,32,,,,,,,,,,,,,,,,
,html-keyboard-response,7,47980,0.0-7.0,5927.9,"<div class='center'><p>Let's go over the important points again. Your job is to: </p><p>1. Pick the pirate who is best at robbing ships and will bring you back gold coins. </p><p>2. Correctly remember whether or not you saw a ship before. If you did see the ship before, remind yourself on which island you saw the ship. </p><p><b>[Press the space bar to begin the next part of the study]</b></p></div>",,32,,,,,,,,,,,,,,,,
,do_welcome,8,49516,0.0-8.0,null,,,,null,,,,,,,,,,,,,,,
,do_trial,9,53878,0.0-9.0-0.0,1751.5,,,,49,"0,1,0",6,blank,230,null,0.361857245,0.640255359,0.055612764,0,,,,,,
,html-keyboard-response,10,54881,0.0-9.0-1.0,null,<p></p>,,null,,,,,,,,,,,,,,,,
,do_trial,11,59056,0.0-10.0-0.0,1562.6,,,,50,"0,0,0",6,blank,231,null,0.252888058,0.643301799,0.158776329,0,,,,,,
,html-keyboard-response,12,60059,0.0-10.0-1.0,null,<p></p>,,null,,,,,,,,,,,,,,,,
,do_trial,13,63068,0.0-11.0-0.0,413.4,,,,51,"0,1,1",6,blank,232,null,0.224692955,0.617419661,0.235451032,1,,,,,,
,html-keyboard-response,14,64071,0.0-11.0-1.0,null,<p></p>,,null,,,,,,,,,,,,,,,,
,do_trial,15,67404,0.0-12.0-0.0,717.7,,,,50,"0,1,0",6,blank,233,null,0.143046021,0.655314749,0.18960309,1,,,,,,
,html-keyboard-response,16,68408,0.0-12.0-1.0,null,<p></p>,,null,,,,,,,,,,,,,,,,
,do_trial,17,71391,0.0-13.0-0.0,364.7,,,,49,"0,1,1",6,blank,234,null,0.142856139,0.609509811,0.24140824,0,,,,,,
,html-keyboard-response,18,72395,0.0-13.0-1.0,null,<p></p>,,null,,,,,,,,,,,,,,,,
,do_trial,19,75255,0.0-14.0-0.0,257.7,,,,50,"0,1,0",6,blank,235,null,0.118258696,0.709848013,0.210650268,1,,,,,,
,html-keyboard-response,20,76258,0.0-14.0-1.0,null,<p></p>,,null,,,,,,,,,,,,,,,,
,do_trial,21,79091,0.0-15.0-0.0,220.7,,,,50,"0,1,0",6,blank,236,null,0.123795968,0.797787491,0.234360047,1,,,,,,
,html-keyboard-response,22,80094,0.0-15.0-1.0,null,<p></p>,,null,,,,,,,,,,,,,,,,
,do_trial,23,83009,0.0-16.0-0.0,308.2,,,,50,"0,1,1",6,blank,237,null,0.213511556,0.642001688,0.07804107,1,,,,,,
,html-keyboard-response,24,84014,0.0-16.0-1.0,null,<p></p>,,null,,,,,,,,,,,,,,,,
,do_trial,25,86931,0.0-17.0-0.0,305,,,,50,"1,1,0",6,blank,238,null,0.323070755,0.681546095,0.105497821,1,,,,,,
,html-keyboard-response,26,87936,0.0-17.0-1.0,null,<p></p>,,null,,,,,,,,,,,,,,,,
,do_trial,27,90556,0.0-18.0-0.0,0.7,,,,50,"1,1,0",6,blank,239,null,0.360309519,0.717848271,0.116800678,1,,,,,,
,html-keyboard-response,28,91559,0.0-18.0-1.0,null,<p></p>,,null,,,,,,,,,,,,,,,,
,do_trial,29,94399,0.0-19.0-0.0,245,,,,50,"0,0,0",6,blank,240,null,0.290426681,0.677310504,0.110126908,0,,,,,,
,html-keyboard-response,30,95401,0.0-19.0-1.0,null,<p></p>,,null,,,,,,,,,,,,,,,,
,do_trial,31,98399,0.0-20.0-0.0,399.2,,,,49,"1,1,0",6,blank,241,null,0.306189714,0.569035088,0.156452237,1,,,,,,
,html-keyboard-response,32,99401,0.0-20.0-1.0,null,<p></p>,,null,,,,,,,,,,,,,,,,
,do_trial,33,102258,0.0-21.0-0.0,255.5,,,,49,"1,0,1",6,blank,242,null,0.463377275,0.44252075,0.121790738,1,,,,,,
,html-keyboard-response,34,103264,0.0-21.0-1.0,null,<p></p>,,null,,,,,,,,,,,,,,,,
,do_trial,35,106134,0.0-22.0-0.0,254.4,,,,49,"0,1,0",6,blank,243,null,0.490878996,0.376987216,0.093936613,0,,,,,,
,html-keyboard-response,36,107139,0.0-22.0-1.0,null,<p></p>,,null,,,,,,,,,,,,,,,,
,do_trial,37,109986,0.0-23.0-0.0,232.7,,,,50,"0,1,0",6,blank,244,null,0.543244831,0.508986161,0.05099553,1,,,,,,
,html-keyboard-response,38,110997,0.0-23.0-1.0,null,<p></p>,,null,,,,,,,,,,,,,,,,
,do_recog,39,117020,0.0-24.0-0.0,null,,,,null,,,,245,probe-82,,,,,1,[object Object],207,5,0,
,html-keyboard-response,40,118026,0.0-24.0-1.0,null,<p></p>,,null,,,,,,,,,,,,,,,,
,do_trial,41,121221,0.0-25.0-0.0,588.5,,,,49,"0,1,0",6,blank,246,null,0.594702676,0.419982798,0.063242093,0,,,,,,
,html-keyboard-response,42,122226,0.0-25.0-1.0,null,<p></p>,,null,,,,,,,,,,,,,,,,
,do_trial,43,125083,0.0-26.0-0.0,253.6,,,,50,"1,1,0",6,blank,247,null,0.665856609,0.42137105,0.071232202,1,,,,,,
,html-keyboard-response,44,126085,0.0-26.0-1.0,null,<p></p>,,null,,,,,,,,,,,,,,,,
,do_trial,45,129015,0.0-27.0-0.0,316.7,,,,51,"0,0,1",6,blank,248,null,0.557104804,0.306745006,0.089873847,1,,,,,,
,html-keyboard-response,46,130018,0.0-27.0-1.0,null,<p></p>,,null,,,,,,,,,,,,,,,,
,do_recog,47,133397,0.0-28.0-0.0,1858.3,,,,53,,,,249,probe-11,,,,,1,[object Object],166,4,1,
,html-keyboard-response,48,134402,0.0-28.0-1.0,null,<p></p>,,null,,,,,,,,,,,,,,,,
,do_trial,49,137817,0.0-29.0-0.0,801.2,,,,50,"0,1,0",6,blank,250,null,0.441860175,0.274520717,0.081255182,1,,,,,,
,html-keyboard-response,50,138820,0.0-29.0-1.0,null,<p></p>,,null,,,,,,,,,,,,,,,,
,do_trial,51,141655,0.0-30.0-0.0,238.8,,,,49,"0,0,0",6,blank,251,null,0.640010161,0.302680251,0.061522728,0,,,,,,
,html-keyboard-response,52,142658,0.0-30.0-1.0,null,<p></p>,,null,,,,,,,,,,,,,,,,
,do_trial,53,145520,0.0-31.0-0.0,255.3,,,,50,"0,1,0",6,blank,252,null,0.552581715,0.29851951,0.1698329,1,,,,,,
,html-keyboard-response,54,146524,0.0-31.0-1.0,null,<p></p>,,null,,,,,,,,,,,,,,,,
,do_trial,55,149437,0.0-32.0-0.0,315.8,,,,51,"0,1,0",6,blank,253,null,0.624830968,0.184161336,0.136949277,0,,,,,,
,html-keyboard-response,56,150442,0.0-32.0-1.0,null,<p></p>,,null,,,,,,,,,,,,,,,,
,do_recog,57,153970,0.0-33.0-0.0,2011.6,,,,54,,,,254,probe-150,,,,,1,[object Object],209,5,1,
,html-keyboard-response,58,154973,0.0-33.0-1.0,null,<p></p>,,null,,,,,,,,,,,,,,,,
,do_trial,59,158093,0.0-34.0-0.0,524,,,,50,"1,1,0",6,blank,255,null,0.778493723,0.326670662,0.052442197,1,,,,,,
,html-keyboard-response,60,159096,0.0-34.0-1.0,null,<p></p>,,null,,,,,,,,,,,,,,,,
,do_recog,61,162573,0.0-35.0-0.0,1960.8,,,,55,,,,256,probe-230,,,,,1,[object Object],204,5,0,
,html-keyboard-response,62,163579,0.0-35.0-1.0,null,<p></p>,,null,,,,,,,,,,,,,,,,
,do_trial,63,167209,0.0-36.0-0.0,1022.6,,,,50,"1,0,0",6,blank,257,null,0.703316869,0.324206495,0.05744641,0,,,,,,
,html-keyboard-response,64,168213,0.0-36.0-1.0,null,<p></p>,,null,,,,,,,,,,,,,,,,
,do_trial,65,171082,0.0-37.0-0.0,271.5,,,,49,"1,1,0",6,blank,258,null,0.700824561,0.39446671,0.070996933,1,,,,,,
,html-keyboard-response,66,172088,0.0-37.0-1.0,null,<p></p>,,null,,,,,,,,,,,,,,,,
,do_trial,67,175191,0.0-38.0-0.0,498.4,,,,50,"1,0,0",6,blank,259,null,0.619225258,0.308765489,0.112339515,0,,,,,,
,html-keyboard-response,68,176196,0.0-38.0-1.0,null,<p></p>,,null,,,,,,,,,,,,,,,,
,do_trial,69,179250,0.0-39.0-0.0,426.3,,,,51,"0,0,0",6,blank,260,null,0.580481523,0.240077514,0.141432083,0,,,,,,
,html-keyboard-response,70,180267,0.0-39.0-1.0,null,<p></p>,,null,,,,,,,,,,,,,,,,
,do_trial,71,183456,0.0-40.0-0.0,589,,,,49,"1,0,0",6,blank,261,null,0.578833435,0.233108117,0.112908919,1,,,,,,
,html-keyboard-response,72,184459,0.0-40.0-1.0,null,<p></p>,,null,,,,,,,,,,,,,,,,
,do_trial,73,187495,0.0-41.0-0.0,420.9,,,,50,"1,0,0",6,blank,262,null,0.589645904,0.309272373,0.160252174,0,,,,,,
,html-keyboard-response,74,188498,0.0-41.0-1.0,null,<p></p>,,null,,,,,,,,,,,,,,,,
,do_trial,75,191653,0.0-42.0-0.0,555.4,,,,51,"1,0,0",6,blank,263,null,0.736886658,0.275609593,0.068512008,0,,,,,,
,html-keyboard-response,76,192656,0.0-42.0-1.0,null,<p></p>,,null,,,,,,,,,,,,,,,,
,do_recog,77,195973,0.0-43.0-0.0,1791.1,,,,53,,,,264,probe-210,,,,,1,[object Object],123,3,1,
,html-keyboard-response,78,196980,0.0-43.0-1.0,null,<p></p>,,null,,,,,,,,,,,,,,,,
,do_trial,79,200440,0.0-44.0-0.0,850.9,,,,50,"0,0,0",6,blank,265,null,0.643461656,0.314151221,0.064985402,0,,,,,,
,html-keyboard-response,80,201443,0.0-44.0-1.0,null,<p></p>,,null,,,,,,,,,,,,,,,,
,do_trial,81,204607,0.0-45.0-0.0,548.6,,,,51,"1,0,0",6,blank,266,null,0.651789947,0.319370612,0.201056217,0,,,,,,
,html-keyboard-response,82,205610,0.0-45.0-1.0,null,<p></p>,,null,,,,,,,,,,,,,,,,
,do_trial,83,208783,0.0-46.0-0.0,574.2,,,,49,"1,1,0",6,blank,267,null,0.676154791,0.298406623,0.168164505,1,,,,,,
,html-keyboard-response,84,209787,0.0-46.0-1.0,null,<p></p>,,null,,,,,,,,,,,,,,,,
,do_trial,85,212853,0.0-47.0-0.0,460.9,,,,49,"1,1,0",6,blank,268,null,0.729827539,0.324886805,0.109315323,1,,,,,,
,html-keyboard-response,86,213857,0.0-47.0-1.0,null,<p></p>,,null,,,,,,,,,,,,,,,,
,do_trial,87,216812,0.0-48.0-0.0,343.8,,,,50,"0,0,0",6,blank,269,null,0.641092616,0.261143923,0.14764907,0,,,,,,
,html-keyboard-response,88,217818,0.0-48.0-1.0,null,<p></p>,,null,,,,,,,,,,,,,,,,
,do_recog,89,221064,0.0-49.0-0.0,1722.5,,,,55,,,,270,probe-95,,,,,1,[object Object],44,1,0,
,html-keyboard-response,90,222069,0.0-49.0-1.0,null,<p></p>,,null,,,,,,,,,,,,,,,,
,do_trial,91,227289,0.0-50.0-0.0,2616,,,,49,"1,0,0",6,blank,271,null,0.645979624,0.192517455,0.057658086,1,,,,,,
,html-keyboard-response,92,228293,0.0-50.0-1.0,null,<p></p>,,null,,,,,,,,,,,,,,,,
,do_trial,93,231223,0.0-51.0-0.0,315.9,,,,50,"0,0,0",6,blank,272,null,0.723082402,0.336659845,0.124860282,0,,,,,,
,html-keyboard-response,94,232228,0.0-51.0-1.0,null,<p></p>,,null,,,,,,,,,,,,,,,,
,do_trial,95,235355,0.0-52.0-0.0,517.6,,,,50,"0,0,0",6,blank,273,null,0.676070312,0.374316724,0.203965503,0,,,,,,
,html-keyboard-response,96,236358,0.0-52.0-1.0,null,<p></p>,,null,,,,,,,,,,,,,,,,
,do_trial,97,239477,0.0-53.0-0.0,510.5,,,,49,"1,0,0",6,blank,274,null,0.713326096,0.422016641,0.137333643,1,,,,,,
,html-keyboard-response,98,240481,0.0-53.0-1.0,null,<p></p>,,null,,,,,,,,,,,,,,,,
,do_trial,99,243333,0.0-54.0-0.0,250.9,,,,50,"0,0,0",6,blank,275,null,0.704679349,0.396185284,0.180034898,0,,,,,,
,html-keyboard-response,100,244336,0.0-54.0-1.0,null,<p></p>,,null,,,,,,,,,,,,,,,,
,do_recog,101,247479,0.0-55.0-0.0,1627.1,,,,53,,,,276,probe-30,,,,,1,[object Object],162,4,1,
,html-keyboard-response,102,248484,0.0-55.0-1.0,null,<p></p>,,null,,,,,,,,,,,,,,,,
,do_trial,103,251673,0.0-56.0-0.0,589.6,,,,50,"1,0,0",6,blank,277,null,0.706503554,0.461642686,0.126316752,0,,,,,,
,html-keyboard-response,104,252677,0.0-56.0-1.0,null,<p></p>,,null,,,,,,,,,,,,,,,,
,do_trial,105,255559,0.0-57.0-0.0,276.2,,,,49,"1,0,0",6,blank,278,null,0.658125563,0.37771603,0.108767732,1,,,,,,
,html-keyboard-response,106,256561,0.0-57.0-1.0,null,<p></p>,,null,,,,,,,,,,,,,,,,
,do_trial,107,259537,0.0-58.0-0.0,379.1,,,,50,"1,0,0",6,blank,279,null,0.677518437,0.447026302,0.164643943,0,,,,,,
,html-keyboard-response,108,260541,0.0-58.0-1.0,null,<p></p>,,null,,,,,,,,,,,,,,,,
,do_trial,109,263786,0.0-59.0-0.0,648.5,,,,51,"1,0,0",6,blank,280,null,0.632841706,0.303777906,0.199145151,0,,,,,,
,html-keyboard-response,110,264790,0.0-59.0-1.0,null,<p></p>,,null,,,,,,,,,,,,,,,,
,do_recog,111,267745,0.0-60.0-0.0,1435.3,,,,53,,,,281,probe-152,,,,,1,[object Object],165,4,1,
,html-keyboard-response,112,268748,0.0-60.0-1.0,null,<p></p>,,null,,,,,,,,,,,,,,,,
,do_trial,113,272479,0.0-61.0-0.0,1119.5,,,,50,"1,0,0",6,blank,282,null,0.59430699,0.284950418,0.098203391,0,,,,,,
,html-keyboard-response,114,273484,0.0-61.0-1.0,null,<p></p>,,null,,,,,,,,,,,,,,,,
,do_trial,115,276900,0.0-62.0-0.0,790.4,,,,50,"1,0,0",6,blank,283,null,0.77583014,0.304885949,0.097827611,0,,,,,,
,html-keyboard-response,116,277902,0.0-62.0-1.0,null,<p></p>,,null,,,,,,,,,,,,,,,,
,do_trial,117,281006,0.0-63.0-0.0,494.9,,,,50,"1,1,0",6,blank,284,null,0.68253016,0.263260528,0.059782783,1,,,,,,
,html-keyboard-response,118,282011,0.0-63.0-1.0,null,<p></p>,,null,,,,,,,,,,,,,,,,
,do_trial,119,284942,0.0-64.0-0.0,317.9,,,,50,"1,0,0",6,blank,285,null,0.65778827,0.255862036,0.059668264,0,,,,,,
,html-keyboard-response,120,285947,0.0-64.0-1.0,null,<p></p>,,null,,,,,,,,,,,,,,,,
,do_recog,121,288823,0.0-65.0-0.0,1350,,,,53,,,,286,probe-09,,,,,1,[object Object],42,1,1,
,html-keyboard-response,122,289828,0.0-65.0-1.0,null,<p></p>,,null,,,,,,,,,,,,,,,,
,do_trial,123,293025,0.0-66.0-0.0,583,,,,49,"1,1,0",6,blank,287,null,0.610316557,0.33392478,0.095671269,1,,,,,,
,html-keyboard-response,124,294030,0.0-66.0-1.0,null,<p></p>,,null,,,,,,,,,,,,,,,,
,do_trial,125,297181,0.0-67.0-0.0,537.9,,,,51,"1,0,1",6,blank,288,null,0.630929306,0.201994345,0.148039092,1,,,,,,
,html-keyboard-response,126,298184,0.0-67.0-1.0,null,<p></p>,,null,,,,,,,,,,,,,,,,
,do_trial,127,301236,0.0-68.0-0.0,429.2,,,,51,"1,0,1",6,blank,289,null,0.548168649,0.261829908,0.298690926,1,,,,,,
,html-keyboard-response,128,302240,0.0-68.0-1.0,null,<p></p>,,null,,,,,,,,,,,,,,,,
,do_recog,129,306025,0.0-69.0-0.0,2263.7,,,,53,,,,290,probe-168,,,,,1,[object Object],40,1,1,
,html-keyboard-response,130,307030,0.0-69.0-1.0,null,<p></p>,,null,,,,,,,,,,,,,,,,
,do_trial,131,310213,0.0-70.0-0.0,575.5,,,,50,"0,0,0",6,blank,291,null,0.485288179,0.229182996,0.323743368,0,,,,,,
,html-keyboard-response,132,311217,0.0-70.0-1.0,null,<p></p>,,null,,,,,,,,,,,,,,,,
,do_trial,133,314532,0.0-71.0-0.0,705.4,,,,50,"1,0,1",6,blank,292,null,0.351884299,0.341864256,0.374395061,0,,,,,,
,html-keyboard-response,134,315535,0.0-71.0-1.0,null,<p></p>,,null,,,,,,,,,,,,,,,,
,do_recog,135,318253,0.0-72.0-0.0,1199.7,,,,53,,,,293,probe-103,,,,,1,[object Object],126,3,1,
,html-keyboard-response,136,319259,0.0-72.0-1.0,null,<p></p>,,null,,,,,,,,,,,,,,,,
,do_trial,137,322211,0.0-73.0-0.0,338.1,,,,51,"0,1,1",6,blank,294,null,0.209470111,0.365276416,0.322355712,1,,,,,,
,html-keyboard-response,138,323216,0.0-73.0-1.0,null,<p></p>,,null,,,,,,,,,,,,,,,,
,do_trial,139,326176,0.0-74.0-0.0,349.9,,,,49,"0,0,0",6,blank,295,null,0.07261931,0.357460324,0.55608127,0,,,,,,
,html-keyboard-response,140,327181,0.0-74.0-1.0,null,<p></p>,,null,,,,,,,,,,,,,,,,
,do_trial,141,330248,0.0-75.0-0.0,458.5,,,,50,"0,0,1",6,blank,296,null,0.053477671,0.355279096,0.578918349,0,,,,,,
,html-keyboard-response,142,331252,0.0-75.0-1.0,null,<p></p>,,null,,,,,,,,,,,,,,,,
,do_trial,143,334266,0.0-76.0-0.0,411,,,,51,"0,0,0",6,blank,297,null,0.268044955,0.285970337,0.689249075,0,,,,,,
,html-keyboard-response,144,335271,0.0-76.0-1.0,null,<p></p>,,null,,,,,,,,,,,,,,,,
,do_recog,145,337998,0.0-77.0-0.0,1203.4,,,,53,,,,298,probe-162,,,,,1,[object Object],46,1,1,
,html-keyboard-response,146,339004,0.0-77.0-1.0,null,<p></p>,,null,,,,,,,,,,,,,,,,
,do_trial,147,342306,0.0-78.0-0.0,688.7,,,,50,"0,0,1",6,blank,299,null,0.262049091,0.327802623,0.658760849,0,,,,,,
,html-keyboard-response,148,343312,0.0-78.0-1.0,null,<p></p>,,null,,,,,,,,,,,,,,,,
,do_recog,149,345943,0.0-79.0-0.0,1104.5,,,,53,,,,300,probe-60,,,,,1,[object Object],161,4,1,
,html-keyboard-response,150,346950,0.0-79.0-1.0,null,<p></p>,,null,,,,,,,,,,,,,,,,
,do_trial,151,350260,0.0-80.0-0.0,695.1,,,,49,"0,0,0",6,blank,301,null,0.234872081,0.212332874,0.670670927,0,,,,,,
,html-keyboard-response,152,351264,0.0-80.0-1.0,null,<p></p>,,null,,,,,,,,,,,,,,,,
,do_trial,153,354375,0.0-81.0-0.0,501.7,,,,50,"0,1,1",6,blank,302,null,0.165292932,0.290619103,0.771820402,1,,,,,,
,html-keyboard-response,154,355379,0.0-81.0-1.0,null,<p></p>,,null,,,,,,,,,,,,,,,,
,do_trial,155,358867,0.0-82.0-0.0,880.4,,,,51,"0,1,1",6,blank,303,null,0.086861372,0.288448335,0.838822528,1,,,,,,
,html-keyboard-response,156,359871,0.0-82.0-1.0,null,<p></p>,,null,,,,,,,,,,,,,,,,
,do_trial,157,362837,0.0-83.0-0.0,352.9,,,,50,"0,1,1",6,blank,304,null,0.090742373,0.469660243,0.792167131,1,,,,,,
,html-keyboard-response,158,363841,0.0-83.0-1.0,null,<p></p>,,null,,,,,,,,,,,,,,,,
,do_trial,159,366804,0.0-84.0-0.0,362.2,,,,50,"0,1,1",6,blank,305,null,0.077278361,0.458453922,0.717880911,1,,,,,,
,html-keyboard-response,160,367809,0.0-84.0-1.0,null,<p></p>,,null,,,,,,,,,,,,,,,,
,do_recog,161,370700,0.0-85.0-0.0,1365.2,,,,53,,,,306,probe-29,,,,,1,[object Object],129,3,1,
,html-keyboard-response,162,371704,0.0-85.0-1.0,null,<p></p>,,null,,,,,,,,,,,,,,,,
,do_trial,163,374931,0.0-86.0-0.0,616.5,,,,50,"0,0,1",6,blank,307,null,0.100104584,0.385069321,0.653407494,0,,,,,,
,html-keyboard-response,164,375935,0.0-86.0-1.0,null,<p></p>,,null,,,,,,,,,,,,,,,,
,do_recog,165,378661,0.0-87.0-0.0,1211.7,,,,53,,,,308,probe-234,,,,,0,[object Object],null,null,0,
,html-keyboard-response,166,379666,0.0-87.0-1.0,null,<p></p>,,null,,,,,,,,,,,,,,,,
,do_trial,167,382833,0.0-88.0-0.0,564,,,,49,"0,0,1",6,blank,309,null,0.256821828,0.286000812,0.637979209,0,,,,,,
,html-keyboard-response,168,383836,0.0-88.0-1.0,null,<p></p>,,null,,,,,,,,,,,,,,,,
,do_trial,169,387231,0.0-89.0-0.0,797.5,,,,49,"0,1,1",6,blank,310,null,0.164309168,0.295264613,0.489425109,0,,,,,,
,html-keyboard-response,170,388234,0.0-89.0-1.0,null,<p></p>,,null,,,,,,,,,,,,,,,,
,do_recog,171,390838,0.0-90.0-0.0,1086.7,,,,53,,,,311,probe-201,,,,,1,[object Object],206,5,1,
,html-keyboard-response,172,391844,0.0-90.0-1.0,null,<p></p>,,null,,,,,,,,,,,,,,,,
,do_trial,173,395019,0.0-91.0-0.0,559.3,,,,50,"0,0,0",6,blank,312,null,0.176697312,0.194062649,0.630527539,0,,,,,,
,html-keyboard-response,174,396022,0.0-91.0-1.0,null,<p></p>,,null,,,,,,,,,,,,,,,,
,do_recog,175,398719,0.0-92.0-0.0,1176.3,,,,53,,,,313,probe-50,,,,,1,[object Object],89,2,1,
,html-keyboard-response,176,399728,0.0-92.0-1.0,null,<p></p>,,null,,,,,,,,,,,,,,,,
,do_trial,177,403259,0.0-93.0-0.0,925.6,,,,50,"0,0,1",6,blank,314,null,0.130251522,0.234444047,0.677452238,0,,,,,,
,html-keyboard-response,178,404264,0.0-93.0-1.0,null,<p></p>,,null,,,,,,,,,,,,,,,,
,do_recog,179,407026,0.0-94.0-0.0,1238.6,,,,53,,,,315,probe-79,,,,,1,[object Object],169,4,1,
,html-keyboard-response,180,408031,0.0-94.0-1.0,null,<p></p>,,null,,,,,,,,,,,,,,,,
,do_trial,181,411293,0.0-95.0-0.0,650.9,,,,49,"0,1,0",6,blank,316,null,0.114895491,0.251268303,0.53032468,0,,,,,,
,html-keyboard-response,182,412297,0.0-95.0-1.0,null,<p></p>,,null,,,,,,,,,,,,,,,,
,do_trial,183,415377,0.0-96.0-0.0,468.6,,,,49,"0,1,1",6,blank,317,null,0.162513586,0.307242834,0.494003851,0,,,,,,
,html-keyboard-response,184,416383,0.0-96.0-1.0,null,<p></p>,,null,,,,,,,,,,,,,,,,
,do_trial,185,419451,0.0-97.0-0.0,462.5,,,,51,"0,1,1",6,blank,318,null,0.058370076,0.221694802,0.653194855,1,,,,,,
,html-keyboard-response,186,420455,0.0-97.0-1.0,null,<p></p>,,null,,,,,,,,,,,,,,,,
,do_recog,187,423014,0.0-98.0-0.0,1044.6,,,,53,,,,319,probe-229,,,,,1,[object Object],164,4,1,
,html-keyboard-response,188,424018,0.0-98.0-1.0,null,<p></p>,,null,,,,,,,,,,,,,,,,
,do_trial,189,427037,0.0-99.0-0.0,411.5,,,,50,"0,0,0",6,blank,320,null,0.067408216,0.163590534,0.564589909,0,,,,,,
,html-keyboard-response,190,428040,0.0-99.0-1.0,null,<p></p>,,null,,,,,,,,,,,,,,,,
,do_trial,191,431699,0.0-100.0-0.0,1063.3,,,,49,"1,0,0",6,blank,321,null,0.06890943,0.283253932,0.474562491,1,,,,,,
,html-keyboard-response,192,432703,0.0-100.0-1.0,null,<p></p>,,null,,,,,,,,,,,,,,,,
,do_trial,193,435539,0.0-101.0-0.0,239.5,,,,50,"0,1,0",6,blank,322,null,0.119511446,0.277053668,0.588151108,1,,,,,,
,html-keyboard-response,194,436542,0.0-101.0-1.0,null,<p></p>,,null,,,,,,,,,,,,,,,,
,do_trial,195,439653,0.0-102.0-0.0,513.1,,,,50,"1,0,0",6,blank,323,null,0.058123394,0.302074554,0.60800323,0,,,,,,
,html-keyboard-response,196,440657,0.0-102.0-1.0,null,<p></p>,,null,,,,,,,,,,,,,,,,
,do_trial,197,443649,0.0-103.0-0.0,385.5,,,,49,"0,0,0",6,blank,324,null,0.104212818,0.307493385,0.535184038,0,,,,,,
,html-keyboard-response,198,444653,0.0-103.0-1.0,null,<p></p>,,null,,,,,,,,,,,,,,,,
,do_recog,199,447161,0.0-104.0-0.0,991.9,,,,53,,,,325,probe-155,,,,,1,[object Object],84,2,1,
,html-keyboard-response,200,448165,0.0-104.0-1.0,null,<p></p>,,null,,,,,,,,,,,,,,,,
,do_trial,201,451293,0.0-105.0-0.0,522.5,,,,51,"0,1,0",6,blank,326,null,0.08514112,0.287019873,0.507096924,0,,,,,,
,html-keyboard-response,202,452296,0.0-105.0-1.0,null,<p></p>,,null,,,,,,,,,,,,,,,,
,do_trial,203,455319,0.0-106.0-0.0,415.1,,,,50,"0,0,0",6,blank,327,null,0.085826609,0.231577454,0.611951145,0,,,,,,
,html-keyboard-response,204,456322,0.0-106.0-1.0,null,<p></p>,,null,,,,,,,,,,,,,,,,
,do_trial,205,459816,0.0-107.0-0.0,890.8,,,,50,"0,1,1",6,blank,328,null,0.163040081,0.270946653,0.688715407,1,,,,,,
,html-keyboard-response,206,460820,0.0-107.0-1.0,null,<p></p>,,null,,,,,,,,,,,,,,,,
,do_recog,207,463656,0.0-108.0-0.0,1324,,,,53,,,,329,probe-178,,,,,1,[object Object],122,3,1,
,html-keyboard-response,208,464659,0.0-108.0-1.0,null,<p></p>,,null,,,,,,,,,,,,,,,,
,do_trial,209,467823,0.0-109.0-0.0,561.2,,,,51,"0,0,0",6,blank,330,null,0.203986401,0.223745657,0.595416319,0,,,,,,
,html-keyboard-response,210,468829,0.0-109.0-1.0,null,<p></p>,,null,,,,,,,,,,,,,,,,
,do_trial,211,471822,0.0-110.0-0.0,380.2,,,,50,"0,0,1",6,blank,331,null,0.123327093,0.201105067,0.528134073,0,,,,,,
,html-keyboard-response,212,472827,0.0-110.0-1.0,null,<p></p>,,null,,,,,,,,,,,,,,,,
,do_trial,213,476078,0.0-111.0-0.0,639.1,,,,50,"0,1,0",6,blank,332,null,0.210398768,0.262644591,0.605264224,1,,,,,,
,html-keyboard-response,214,477080,0.0-111.0-1.0,null,<p></p>,,null,,,,,,,,,,,,,,,,
,do_trial,215,480660,0.0-112.0-0.0,971.6,,,,50,"0,1,1",6,blank,333,null,0.138241887,0.402580648,0.589912484,1,,,,,,
,html-keyboard-response,216,481663,0.0-112.0-1.0,null,<p></p>,,null,,,,,,,,,,,,,,,,
,do_trial,217,484743,0.0-113.0-0.0,469.1,,,,50,"0,1,1",6,blank,334,null,0.245557844,0.518822305,0.698898994,1,,,,,,
,html-keyboard-response,218,485746,0.0-113.0-1.0,null,<p></p>,,null,,,,,,,,,,,,,,,,
,do_trial,219,488890,0.0-114.0-0.0,546.4,,,,49,"0,1,1",6,blank,335,null,0.225694758,0.522932862,0.843424633,0,,,,,,
,html-keyboard-response,220,489895,0.0-114.0-1.0,null,<p></p>,,null,,,,,,,,,,,,,,,,
,do_trial,221,493520,0.0-115.0-0.0,1014.4,,,,50,"0,0,1",6,blank,336,null,0.097436533,0.300571552,0.783592415,0,,,,,,
,html-keyboard-response,222,494523,0.0-115.0-1.0,null,<p></p>,,null,,,,,,,,,,,,,,,,
,do_recog,223,497233,0.0-116.0-0.0,1194.9,,,,53,,,,337,probe-40,,,,,1,[object Object],41,1,1,
,html-keyboard-response,224,498238,0.0-116.0-1.0,null,<p></p>,,null,,,,,,,,,,,,,,,,
,do_trial,225,501953,0.0-117.0-0.0,1103.7,,,,49,"0,0,1",6,blank,338,null,0.156679709,0.288607114,0.61951726,0,,,,,,
,html-keyboard-response,226,502958,0.0-117.0-1.0,null,<p></p>,,null,,,,,,,,,,,,,,,,
,do_trial,227,506569,0.0-118.0-0.0,999.5,,,,50,"0,0,1",6,blank,339,null,0.084324167,0.132964531,0.611647328,0,,,,,,
,html-keyboard-response,228,507572,0.0-118.0-1.0,null,<p></p>,,null,,,,,,,,,,,,,,,,
,do_trial,229,511255,0.0-119.0-0.0,1078.8,,,,49,"0,0,1",6,blank,340,null,0.079989864,0.200031257,0.621791034,0,,,,,,
,html-keyboard-response,230,512258,0.0-119.0-1.0,null,<p></p>,,null,,,,,,,,,,,,,,,,
,do_recog,231,515097,0.0-120.0-0.0,1322.3,,,,53,,,,341,probe-222,,,,,1,[object Object],201,5,1,
,html-keyboard-response,232,516102,0.0-120.0-1.0,null,<p></p>,,null,,,,,,,,,,,,,,,,
,do_trial,233,519204,0.0-121.0-0.0,492.7,,,,50,"0,1,0",6,blank,342,null,0.070889444,0.228660701,0.681852404,1,,,,,,
,html-keyboard-response,234,520208,0.0-121.0-1.0,null,<p></p>,,null,,,,,,,,,,,,,,,,
,do_recog,235,522827,0.0-122.0-0.0,1101.9,,,,53,,,,343,probe-07,,,,,1,[object Object],85,2,1,
,html-keyboard-response,236,523833,0.0-122.0-1.0,null,<p></p>,,null,,,,,,,,,,,,,,,,
,do_trial,237,526900,0.0-123.0-0.0,456.4,,,,49,"1,0,1",6,blank,344,null,0.145610327,0.393315233,0.616349,1,,,,,,
,html-keyboard-response,238,527903,0.0-123.0-1.0,null,<p></p>,,null,,,,,,,,,,,,,,,,
,do_trial,239,531043,0.0-124.0-0.0,535,,,,50,"1,1,1",6,blank,345,null,0.050925873,0.416654414,0.407351956,1,,,,,,
,html-keyboard-response,240,532047,0.0-124.0-1.0,null,<p></p>,,null,,,,,,,,,,,,,,,,
,do_recog,241,534562,0.0-125.0-0.0,1003.8,,,,53,,,,346,probe-16,,,,,1,[object Object],160,4,1,
,html-keyboard-response,242,535566,0.0-125.0-1.0,null,<p></p>,,null,,,,,,,,,,,,,,,,
,do_trial,243,539073,0.0-126.0-0.0,898.4,,,,50,"0,1,0",6,blank,347,null,0.182545334,0.272207846,0.262534518,1,,,,,,
,html-keyboard-response,244,540076,0.0-126.0-1.0,null,<p></p>,,null,,,,,,,,,,,,,,,,
,do_trial,245,543475,0.0-127.0-0.0,798.3,,,,50,"0,0,0",6,blank,348,null,0.336216239,0.289185428,0.092857045,0,,,,,,
,html-keyboard-response,246,544479,0.0-127.0-1.0,null,<p></p>,,null,,,,,,,,,,,,,,,,
,do_recog,247,547198,0.0-128.0-0.0,1206,,,,53,,,,349,probe-121,,,,,1,[object Object],127,3,1,
,html-keyboard-response,248,548203,0.0-128.0-1.0,null,<p></p>,,null,,,,,,,,,,,,,,,,
,do_trial,249,551993,0.0-129.0-0.0,1182.3,,,,49,"1,1,0",6,blank,350,null,0.428456194,0.369758078,0.060426287,1,,,,,,
,html-keyboard-response,250,552998,0.0-129.0-1.0,null,<p></p>,,null,,,,,,,,,,,,,,,,
,do_trial,251,557099,0.0-130.0-0.0,1495.1,,,,49,"1,0,0",6,blank,351,null,0.498232896,0.324367287,0.053079049,1,,,,,,
,html-keyboard-response,252,558103,0.0-130.0-1.0,null,<p></p>,,null,,,,,,,,,,,,,,,,
,do_trial,253,561547,0.0-131.0-0.0,847.5,,,,49,"0,0,0",6,blank,352,null,0.590235536,0.183134626,0.059228312,0,,,,,,
,html-keyboard-response,254,562550,0.0-131.0-1.0,null,<p></p>,,null,,,,,,,,,,,,,,,,
,do_trial,255,566326,0.0-132.0-0.0,1174.9,,,,49,"0,1,0",6,blank,353,null,0.491532395,0.172317387,0.142660186,0,,,,,,
,html-keyboard-response,256,567329,0.0-132.0-1.0,null,<p></p>,,null,,,,,,,,,,,,,,,,
,do_trial,257,570804,0.0-133.0-0.0,873.2,,,,50,"0,0,0",6,blank,354,null,0.49055946,0.128278147,0.16475635,0,,,,,,
,html-keyboard-response,258,571810,0.0-133.0-1.0,null,<p></p>,,null,,,,,,,,,,,,,,,,
,do_trial,259,575401,0.0-134.0-0.0,979.9,,,,51,"0,0,0",6,blank,355,null,0.71121469,0.182327537,0.077666346,0,,,,,,
,html-keyboard-response,260,576407,0.0-134.0-1.0,null,<p></p>,,null,,,,,,,,,,,,,,,,
,do_recog,261,579150,0.0-135.0-0.0,1218.7,,,,53,,,,356,probe-204,,,,,1,[object Object],167,4,1,
,html-keyboard-response,262,580154,0.0-135.0-1.0,null,<p></p>,,null,,,,,,,,,,,,,,,,
,do_trial,263,583977,0.0-136.0-0.0,1213.4,,,,49,"0,0,0",6,blank,357,null,0.74223737,0.136053449,0.155081232,0,,,,,,
,html-keyboard-response,264,584982,0.0-136.0-1.0,null,<p></p>,,null,,,,,,,,,,,,,,,,
,do_trial,265,588284,0.0-137.0-0.0,704,,,,50,"1,0,0",6,blank,358,null,0.611166223,0.252853848,0.076649889,0,,,,,,
,html-keyboard-response,266,589288,0.0-137.0-1.0,null,<p></p>,,null,,,,,,,,,,,,,,,,
,do_trial,267,592968,0.0-138.0-0.0,1074.4,,,,49,"0,1,0",6,blank,359,null,0.641740744,0.264940748,0.108164468,0,,,,,,
,html-keyboard-response,268,593973,0.0-138.0-1.0,null,<p></p>,,null,,,,,,,,,,,,,,,,
,do_recog,269,599997,0.0-139.0-0.0,null,,,,null,,,,360,probe-197,,,,,1,[object Object],124,3,0,
,html-keyboard-response,270,601002,0.0-139.0-1.0,null,<p></p>,,null,,,,,,,,,,,,,,,,
,do_trial,271,603930,0.0-140.0-0.0,315.9,,,,50,"1,0,0",6,blank,361,null,0.63923548,0.273516635,0.061899433,0,,,,,,
,html-keyboard-response,272,604933,0.0-140.0-1.0,null,<p></p>,,null,,,,,,,,,,,,,,,,
,do_trial,273,608607,0.0-141.0-0.0,1063.1,,,,49,"1,1,0",6,blank,362,null,0.549168107,0.213766022,0.148976036,1,,,,,,
,html-keyboard-response,274,609610,0.0-141.0-1.0,null,<p></p>,,null,,,,,,,,,,,,,,,,
,do_recog,275,612380,0.0-142.0-0.0,1245.2,,,,53,,,,363,probe-22,,,,,1,[object Object],120,3,1,
,html-keyboard-response,276,613386,0.0-142.0-1.0,null,<p></p>,,null,,,,,,,,,,,,,,,,
,do_trial,277,617149,0.0-143.0-0.0,1154.2,,,,49,"0,1,1",6,blank,364,null,0.540688288,0.289689147,0.219675468,0,,,,,,
,html-keyboard-response,278,618153,0.0-143.0-1.0,null,<p></p>,,null,,,,,,,,,,,,,,,,
,do_trial,279,621907,0.0-144.0-0.0,1145.4,,,,50,"1,0,0",6,blank,365,null,0.395659851,0.27655924,0.247455396,0,,,,,,
,html-keyboard-response,280,622912,0.0-144.0-1.0,null,<p></p>,,null,,,,,,,,,,,,,,,,
,do_trial,281,625916,0.0-145.0-0.0,398.3,,,,51,"0,1,0",6,blank,366,null,0.489909348,0.362877145,0.213290189,0,,,,,,
,html-keyboard-response,282,626921,0.0-145.0-1.0,null,<p></p>,,null,,,,,,,,,,,,,,,,
,do_trial,283,630329,0.0-146.0-0.0,806,,,,50,"0,0,0",6,blank,367,null,0.479714833,0.409791051,0.158340791,0,,,,,,
,html-keyboard-response,284,631334,0.0-146.0-1.0,null,<p></p>,,null,,,,,,,,,,,,,,,,
,do_trial,285,634267,0.0-147.0-0.0,327.5,,,,49,"1,0,0",6,blank,368,null,0.682217921,0.385259979,0.132921793,1,,,,,,
,html-keyboard-response,286,635270,0.0-147.0-1.0,null,<p></p>,,null,,,,,,,,,,,,,,,,
,do_trial,287,638243,0.0-148.0-0.0,369.7,,,,51,"1,0,0",6,blank,369,null,0.707173172,0.467705439,0.077170454,0,,,,,,
,html-keyboard-response,288,639246,0.0-148.0-1.0,null,<p></p>,,null,,,,,,,,,,,,,,,,
,do_recog,289,642084,0.0-149.0-0.0,1313.7,,,,53,,,,370,probe-37,,,,,1,[object Object],48,1,1,
,html-keyboard-response,290,643090,0.0-149.0-1.0,null,<p></p>,,null,,,,,,,,,,,,,,,,
,do_trial,291,646484,0.0-150.0-0.0,781.8,,,,50,"0,0,1",6,blank,371,null,0.745177674,0.425001576,0.083834773,0,,,,,,
,html-keyboard-response,292,647486,0.0-150.0-1.0,null,<p></p>,,null,,,,,,,,,,,,,,,,
,do_trial,293,650981,0.0-151.0-0.0,894.1,,,,50,"1,0,0",6,blank,372,null,0.731709086,0.269456192,0.098838616,0,,,,,,
,html-keyboard-response,294,651984,0.0-151.0-1.0,null,<p></p>,,null,,,,,,,,,,,,,,,,
,do_trial,295,655028,0.0-152.0-0.0,441.8,,,,51,"1,0,0",6,blank,373,null,0.758592413,0.217244007,0.073099618,0,,,,,,
,html-keyboard-response,296,656031,0.0-152.0-1.0,null,<p></p>,,null,,,,,,,,,,,,,,,,
,do_trial,297,658966,0.0-153.0-0.0,337.4,,,,50,"0,0,1",6,blank,374,null,0.62423064,0.200922333,0.162569009,0,,,,,,
,html-keyboard-response,298,659971,0.0-153.0-1.0,null,<p></p>,,null,,,,,,,,,,,,,,,,
,do_trial,299,662637,0.0-154.0-0.0,58.5,,,,49,"1,1,0",6,blank,375,null,0.691346449,0.396133745,0.054939565,1,,,,,,
,html-keyboard-response,300,663640,0.0-154.0-1.0,null,<p></p>,,null,,,,,,,,,,,,,,,,
,do_recog,301,666470,0.0-155.0-0.0,1310.5,,,,53,,,,376,probe-03,,,,,1,[object Object],125,3,1,
,html-keyboard-response,302,667473,0.0-155.0-1.0,null,<p></p>,,null,,,,,,,,,,,,,,,,
,do_trial,303,670778,0.0-156.0-0.0,697.4,,,,49,"1,0,1",6,blank,377,null,0.568155042,0.423151732,0.082159378,1,,,,,,
,html-keyboard-response,304,671783,0.0-156.0-1.0,null,<p></p>,,null,,,,,,,,,,,,,,,,
,do_trial,305,674917,0.0-157.0-0.0,521.9,,,,51,"1,1,0",6,blank,378,null,0.610972235,0.428439132,0.136663809,0,,,,,,
,html-keyboard-response,306,675919,0.0-157.0-1.0,null,<p></p>,,null,,,,,,,,,,,,,,,,
,do_recog,307,678346,0.0-158.0-0.0,906.4,,,,53,,,,379,probe-223,,,,,1,[object Object],128,3,1,
,html-keyboard-response,308,679350,0.0-158.0-1.0,null,<p></p>,,null,,,,,,,,,,,,,,,,
,do_trial,309,682554,0.0-159.0-0.0,599.9,,,,49,"1,0,0",6,blank,380,null,0.51217361,0.318610092,0.087339733,1,,,,,,
,html-keyboard-response,310,683557,0.0-159.0-1.0,null,<p></p>,,null,,,,,,,,,,,,,,,,
,do_recog,311,686036,0.0-160.0-0.0,967,,,,53,,,,381,probe-145,,,,,1,[object Object],163,4,1,
,html-keyboard-response,312,687041,0.0-160.0-1.0,null,<p></p>,,null,,,,,,,,,,,,,,,,
,do_trial,313,690191,0.0-161.0-0.0,545.1,,,,50,"1,0,0",6,blank,382,null,0.585145414,0.419612971,0.061481382,0,,,,,,
,html-keyboard-response,314,691198,0.0-161.0-1.0,null,<p></p>,,null,,,,,,,,,,,,,,,,
,do_trial,315,694272,0.0-162.0-0.0,460.6,,,,51,"1,0,0",6,blank,383,null,0.558207501,0.34198854,0.068182664,0,,,,,,
,html-keyboard-response,316,695275,0.0-162.0-1.0,null,<p></p>,,null,,,,,,,,,,,,,,,,
,do_trial,317,698471,0.0-163.0-0.0,593.5,,,,49,"1,0,0",6,blank,384,null,0.590034905,0.339775463,0.085405718,1,,,,,,
,html-keyboard-response,318,699475,0.0-163.0-1.0,null,<p></p>,,null,,,,,,,,,,,,,,,,
,do_trial,319,702982,0.0-164.0-0.0,898.5,,,,50,"0,0,0",6,blank,385,null,0.554858523,0.365646913,0.080183984,0,,,,,,
,html-keyboard-response,320,703986,0.0-164.0-1.0,null,<p></p>,,null,,,,,,,,,,,,,,,,
,do_recog,321,706672,0.0-165.0-0.0,1168,,,,53,,,,386,probe-177,,,,,1,[object Object],121,3,1,
,html-keyboard-response,322,707678,0.0-165.0-1.0,null,<p></p>,,null,,,,,,,,,,,,,,,,
,do_trial,323,711164,0.0-166.0-0.0,872.6,,,,49,"1,1,0",6,blank,387,null,0.569823961,0.338862702,0.053458127,1,,,,,,
,html-keyboard-response,324,712168,0.0-166.0-1.0,null,<p></p>,,null,,,,,,,,,,,,,,,,
,do_trial,325,715450,0.0-167.0-0.0,674.2,,,,51,"1,0,0",6,blank,388,null,0.589523175,0.454967519,0.089574384,0,,,,,,
,html-keyboard-response,326,716453,0.0-167.0-1.0,null,<p></p>,,null,,,,,,,,,,,,,,,,
,do_trial,327,719796,0.0-168.0-0.0,727.8,,,,49,"1,0,0",6,blank,389,null,0.707017697,0.222600763,0.059231183,1,,,,,,
,html-keyboard-response,328,720799,0.0-168.0-1.0,null,<p></p>,,null,,,,,,,,,,,,,,,,
,do_trial,329,723794,0.0-169.0-0.0,384.9,,,,51,"0,0,0",6,blank,390,null,0.716128528,0.324611329,0.125159746,0,,,,,,
,html-keyboard-response,330,724800,0.0-169.0-1.0,null,<p></p>,,null,,,,,,,,,,,,,,,,
,do_trial,331,727985,0.0-170.0-0.0,573.1,,,,50,"1,1,1",6,blank,391,null,0.631810408,0.200839188,0.187615296,1,,,,,,
,html-keyboard-response,332,728988,0.0-170.0-1.0,null,<p></p>,,null,,,,,,,,,,,,,,,,
,do_recog,333,731658,0.0-171.0-0.0,1154.3,,,,53,,,,392,probe-93,,,,,1,[object Object],45,1,1,
,html-keyboard-response,334,732662,0.0-171.0-1.0,null,<p></p>,,null,,,,,,,,,,,,,,,,
,do_trial,335,736151,0.0-172.0-0.0,885.9,,,,49,"1,0,1",6,blank,393,null,0.527062726,0.21102175,0.115370281,1,,,,,,
,html-keyboard-response,336,737156,0.0-172.0-1.0,null,<p></p>,,null,,,,,,,,,,,,,,,,
,do_trial,337,740202,0.0-173.0-0.0,431.2,,,,51,"1,0,0",6,blank,394,null,0.473764693,0.304497326,0.054427129,0,,,,,,
,html-keyboard-response,338,741207,0.0-173.0-1.0,null,<p></p>,,null,,,,,,,,,,,,,,,,
,do_trial,339,744113,0.0-174.0-0.0,299.2,,,,50,"0,0,0",6,blank,395,null,0.368154608,0.362274107,0.108600837,0,,,,,,
,html-keyboard-response,340,745119,0.0-174.0-1.0,null,<p></p>,,null,,,,,,,,,,,,,,,,
,do_trial,341,748149,0.0-175.0-0.0,428.1,,,,49,"1,0,0",6,blank,396,null,0.301946952,0.521768107,0.09550969,1,,,,,,
,html-keyboard-response,342,749153,0.0-175.0-1.0,null,<p></p>,,null,,,,,,,,,,,,,,,,
,do_trial,343,752123,0.0-176.0-0.0,360.4,,,,51,"1,1,0",6,blank,397,null,0.344894661,0.414808978,0.087995045,0,,,,,,
,html-keyboard-response,344,753128,0.0-176.0-1.0,null,<p></p>,,null,,,,,,,,,,,,,,,,
,do_recog,345,755848,0.0-177.0-0.0,1201.9,,,,53,,,,398,probe-83,,,,,1,[object Object],87,2,1,
,html-keyboard-response,346,756851,0.0-177.0-1.0,null,<p></p>,,null,,,,,,,,,,,,,,,,
,do_trial,347,760152,0.0-178.0-0.0,685.9,,,,49,"0,1,0",6,blank,399,null,0.229742441,0.449279562,0.280649017,0,,,,,,
,html-keyboard-response,348,761157,0.0-178.0-1.0,null,<p></p>,,null,,,,,,,,,,,,,,,,
,do_trial,349,764268,0.0-179.0-0.0,502.8,,,,50,"0,1,0",6,blank,400,null,0.104890567,0.433702312,0.215753999,1,,,,,,
,html-keyboard-response,350,765271,0.0-179.0-1.0,null,<p></p>,,null,,,,,,,,,,,,,,,,
,do_trial,351,768242,0.0-180.0-0.0,367.1,,,,51,"0,1,0",6,blank,401,null,0.163660044,0.465325087,0.295245297,0,,,,,,
,html-keyboard-response,352,769245,0.0-180.0-1.0,null,<p></p>,,null,,,,,,,,,,,,,,,,
,do_trial,353,772536,0.0-181.0-0.0,687.6,,,,49,"0,0,0",6,blank,402,null,0.133591906,0.371159126,0.354823768,0,,,,,,
,html-keyboard-response,354,773538,0.0-181.0-1.0,null,<p></p>,,null,,,,,,,,,,,,,,,,
,do_trial,355,776895,0.0-182.0-0.0,759.1,,,,51,"0,0,1",6,blank,403,null,0.110012251,0.372104438,0.334405271,1,,,,,,
,html-keyboard-response,356,777900,0.0-182.0-1.0,null,<p></p>,,null,,,,,,,,,,,,,,,,
,do_recog,357,780512,0.0-183.0-0.0,1098.5,,,,53,,,,404,probe-154,,,,,1,[object Object],203,5,1,
,html-keyboard-response,358,781518,0.0-183.0-1.0,null,<p></p>,,null,,,,,,,,,,,,,,,,
,do_trial,359,784954,0.0-184.0-0.0,830.4,,,,49,"0,1,0",6,blank,405,null,0.067278061,0.560402594,0.265941231,0,,,,,,
,html-keyboard-response,360,785959,0.0-184.0-1.0,null,<p></p>,,null,,,,,,,,,,,,,,,,
,do_recog,361,788577,0.0-185.0-0.0,1097.8,,,,53,,,,406,probe-53,,,,,1,[object Object],49,1,1,
,html-keyboard-response,362,789582,0.0-185.0-1.0,null,<p></p>,,null,,,,,,,,,,,,,,,,
,do_trial,363,792966,0.0-186.0-0.0,783.2,,,,51,"0,1,0",6,blank,407,null,0.096557431,0.640086842,0.320243966,0,,,,,,
,html-keyboard-response,364,793971,0.0-186.0-1.0,null,<p></p>,,null,,,,,,,,,,,,,,,,
,do_trial,365,797669,0.0-187.0-0.0,1095,,,,49,"0,0,0",6,blank,408,null,0.168495776,0.593937332,0.187547409,0,,,,,,
,html-keyboard-response,366,798677,0.0-187.0-1.0,null,<p></p>,,null,,,,,,,,,,,,,,,,
,do_recog,367,801211,0.0-188.0-0.0,1010.2,,,,53,,,,409,probe-92,,,,,1,[object Object],43,1,1,
,html-keyboard-response,368,802216,0.0-188.0-1.0,null,<p></p>,,null,,,,,,,,,,,,,,,,
,do_trial,369,805402,0.0-189.0-0.0,576.1,,,,50,"0,1,0",6,blank,410,null,0.141388805,0.504111849,0.306128571,1,,,,,,
,html-keyboard-response,370,806405,0.0-189.0-1.0,null,<p></p>,,null,,,,,,,,,,,,,,,,
,do_trial,371,809804,0.0-190.0-0.0,791,,,,51,"0,1,0",6,blank,411,null,0.107317648,0.578652347,0.181906408,0,,,,,,
,html-keyboard-response,372,810807,0.0-190.0-1.0,null,<p></p>,,null,,,,,,,,,,,,,,,,
,do_trial,373,813751,0.0-191.0-0.0,337.2,,,,49,"0,1,1",6,blank,412,null,0.064516984,0.618402944,0.234497011,0,,,,,,
,html-keyboard-response,374,814755,0.0-191.0-1.0,null,<p></p>,,null,,,,,,,,,,,,,,,,
,do_trial,375,817866,0.0-192.0-0.0,509.3,,,,50,"1,1,0",6,blank,413,null,0.101489205,0.668634559,0.227099887,1,,,,,,
,html-keyboard-response,376,818871,0.0-192.0-1.0,null,<p></p>,,null,,,,,,,,,,,,,,,,
,do_trial,377,822064,0.0-193.0-0.0,583.5,,,,51,"0,0,0",6,blank,414,null,0.148048152,0.676711191,0.2533275,0,,,,,,
,html-keyboard-response,378,823068,0.0-193.0-1.0,null,<p></p>,,null,,,,,,,,,,,,,,,,
,do_trial,379,826108,0.0-194.0-0.0,441.5,,,,50,"0,1,1",6,blank,415,null,0.159931965,0.736601323,0.377505479,1,,,,,,
,html-keyboard-response,380,827112,0.0-194.0-1.0,null,<p></p>,,null,,,,,,,,,,,,,,,,
,do_recog,381,829813,0.0-195.0-0.0,1185.3,,,,53,,,,416,probe-130,,,,,1,[object Object],202,5,1,
,html-keyboard-response,382,830816,0.0-195.0-1.0,null,<p></p>,,null,,,,,,,,,,,,,,,,
,do_trial,383,833951,0.0-196.0-0.0,537.4,,,,49,"1,1,1",6,blank,417,null,0.198982897,0.826819828,0.398967925,1,,,,,,
,html-keyboard-response,384,834956,0.0-196.0-1.0,null,<p></p>,,null,,,,,,,,,,,,,,,,
,do_trial,385,838069,0.0-197.0-0.0,501,,,,50,"0,1,0",6,blank,418,null,0.159804416,0.828641728,0.256985715,1,,,,,,
,html-keyboard-response,386,839074,0.0-197.0-1.0,null,<p></p>,,null,,,,,,,,,,,,,,,,
,do_recog,387,841624,0.0-198.0-0.0,1036,,,,53,,,,419,probe-55,,,,,1,[object Object],81,2,1,
,html-keyboard-response,388,842629,0.0-198.0-1.0,null,<p></p>,,null,,,,,,,,,,,,,,,,
,do_trial,389,845586,0.0-199.0-0.0,350.2,,,,51,"0,0,0",6,blank,420,null,0.089581179,0.727765062,0.371860691,0,,,,,,
,html-keyboard-response,390,846590,0.0-199.0-1.0,null,<p></p>,,null,,,,,,,,,,,,,,,,
,do_trial,391,849595,0.0-200.0-0.0,396.9,,,,50,"1,0,0",6,blank,421,null,0.140755343,0.523540983,0.430647776,0,,,,,,
,html-keyboard-response,392,850597,0.0-200.0-1.0,null,<p></p>,,null,,,,,,,,,,,,,,,,
,do_trial,393,853768,0.0-201.0-0.0,569.9,,,,49,"0,0,1",6,blank,422,null,0.077421679,0.534780508,0.408409094,0,,,,,,
,html-keyboard-response,394,854771,0.0-201.0-1.0,null,<p></p>,,null,,,,,,,,,,,,,,,,
,do_trial,395,858035,0.0-202.0-0.0,654.6,,,,51,"0,1,1",6,blank,423,null,0.194809134,0.486703579,0.296612562,1,,,,,,
,html-keyboard-response,396,859038,0.0-202.0-1.0,null,<p></p>,,null,,,,,,,,,,,,,,,,
,do_trial,397,862384,0.0-203.0-0.0,737.2,,,,50,"1,1,0",6,blank,424,null,0.171750891,0.458301858,0.251407319,1,,,,,,
,html-keyboard-response,398,863391,0.0-203.0-1.0,null,<p></p>,,null,,,,,,,,,,,,,,,,
,do_recog,399,866109,0.0-204.0-0.0,1192.5,,,,53,,,,425,probe-215,,,,,1,[object Object],47,1,1,
,html-keyboard-response,400,867116,0.0-204.0-1.0,null,<p></p>,,null,,,,,,,,,,,,,,,,
,do_trial,401,870503,0.0-205.0-0.0,776.9,,,,50,"0,1,1",6,blank,426,null,0.172804181,0.630687616,0.29286293,1,,,,,,
,html-keyboard-response,402,871508,0.0-205.0-1.0,null,<p></p>,,null,,,,,,,,,,,,,,,,
,do_recog,403,874076,0.0-206.0-0.0,1046.9,,,,53,,,,427,probe-184,,,,,1,[object Object],168,4,1,
,html-keyboard-response,404,875079,0.0-206.0-1.0,null,<p></p>,,null,,,,,,,,,,,,,,,,
,do_trial,405,878464,0.0-207.0-0.0,774.5,,,,50,"0,1,1",6,blank,428,null,0.149182625,0.619918554,0.484752339,1,,,,,,
,html-keyboard-response,406,879469,0.0-207.0-1.0,null,<p></p>,,null,,,,,,,,,,,,,,,,
,do_recog,407,882067,0.0-208.0-0.0,1073.1,,,,53,,,,429,probe-10,,,,,1,[object Object],88,2,1,
,html-keyboard-response,408,883072,0.0-208.0-1.0,null,<p></p>,,null,,,,,,,,,,,,,,,,
,do_trial,409,886477,0.0-209.0-0.0,793.8,,,,51,"0,1,0",6,blank,430,null,0.135135631,0.573787508,0.571369571,0,,,,,,
,html-keyboard-response,410,887481,0.0-209.0-1.0,null,<p></p>,,null,,,,,,,,,,,,,,,,
,do_trial,411,890600,0.0-210.0-0.0,509.2,,,,50,"1,1,1",6,blank,431,null,0.161580237,0.579778152,0.450620227,1,,,,,,
,html-keyboard-response,412,891603,0.0-210.0-1.0,null,<p></p>,,null,,,,,,,,,,,,,,,,
,do_trial,413,894845,0.0-211.0-0.0,622.2,,,,51,"0,1,1",6,blank,432,null,0.227147074,0.56048299,0.539608273,1,,,,,,
,html-keyboard-response,414,895850,0.0-211.0-1.0,null,<p></p>,,null,,,,,,,,,,,,,,,,
,do_recog,415,898747,0.0-212.0-0.0,1372.4,,,,53,,,,433,probe-132,,,,,1,[object Object],80,2,1,
,html-keyboard-response,416,899752,0.0-212.0-1.0,null,<p></p>,,null,,,,,,,,,,,,,,,,
,do_trial,417,904918,0.0-213.0-0.0,2556.4,,,,51,"0,1,0",6,blank,434,null,0.100771015,0.58299424,0.635666231,0,,,,,,
,html-keyboard-response,418,905923,0.0-213.0-1.0,null,<p></p>,,null,,,,,,,,,,,,,,,,
,do_recog,419,908352,0.0-214.0-0.0,910.7,,,,53,,,,435,probe-242,,,,,0,[object Object],null,null,0,
,html-keyboard-response,420,909358,0.0-214.0-1.0,null,<p></p>,,null,,,,,,,,,,,,,,,,
,do_trial,421,912382,0.0-215.0-0.0,409.5,,,,49,"0,1,1",6,blank,436,null,0.081349077,0.633603774,0.643864203,0,,,,,,
,html-keyboard-response,422,913385,0.0-215.0-1.0,null,<p></p>,,null,,,,,,,,,,,,,,,,
,do_recog,423,915920,0.0-216.0-0.0,1018,,,,53,,,,437,probe-77,,,,,1,[object Object],82,2,1,
,html-keyboard-response,424,916926,0.0-216.0-1.0,null,<p></p>,,null,,,,,,,,,,,,,,,,
,do_trial,425,919814,0.0-217.0-0.0,273.8,,,,51,"0,0,1",6,blank,438,null,0.143917143,0.656811697,0.462533845,1,,,,,,
,html-keyboard-response,426,920819,0.0-217.0-1.0,null,<p></p>,,null,,,,,,,,,,,,,,,,
,do_trial,427,924018,0.0-218.0-0.0,588.1,,,,50,"0,0,0",6,blank,439,null,0.050967855,0.653713535,0.39543931,0,,,,,,
,html-keyboard-response,428,925024,0.0-218.0-1.0,null,<p></p>,,null,,,,,,,,,,,,,,,,
,do_trial,429,928458,0.0-219.0-0.0,820.2,,,,49,"0,0,0",6,blank,440,null,0.06807824,0.568395568,0.282777601,0,,,,,,
,html-keyboard-response,430,929464,0.0-219.0-1.0,null,<p></p>,,null,,,,,,,,,,,,,,,,
,do_trial,431,932232,0.0-220.0-0.0,157.3,,,,50,"0,0,0",6,blank,441,null,0.082811152,0.540979205,0.35934478,0,,,,,,
,html-keyboard-response,432,933236,0.0-220.0-1.0,null,<p></p>,,null,,,,,,,,,,,,,,,,
,do_trial,433,936267,0.0-221.0-0.0,423.5,,,,51,"0,0,1",6,blank,442,null,0.116147073,0.599467668,0.324376909,1,,,,,,
,html-keyboard-response,434,937273,0.0-221.0-1.0,null,<p></p>,,null,,,,,,,,,,,,,,,,
,do_trial,435,940601,0.0-222.0-0.0,714,,,,49,"0,1,1",6,blank,443,null,0.184085306,0.584629437,0.275583343,0,,,,,,
,html-keyboard-response,436,941605,0.0-222.0-1.0,null,<p></p>,,null,,,,,,,,,,,,,,,,
,do_recog,437,944113,0.0-223.0-0.0,983.1,,,,53,,,,444,probe-227,,,,,1,[object Object],200,5,1,
,html-keyboard-response,438,945119,0.0-223.0-1.0,null,<p></p>,,null,,,,,,,,,,,,,,,,
,do_trial,439,948327,0.0-224.0-0.0,604.9,,,,49,"0,1,0",6,blank,445,null,0.103423423,0.664936314,0.22275043,0,,,,,,
,html-keyboard-response,440,949331,0.0-224.0-1.0,null,<p></p>,,null,,,,,,,,,,,,,,,,
,do_recog,441,951844,0.0-225.0-0.0,987.7,,,,53,,,,446,probe-61,,,,,1,[object Object],208,5,1,
,html-keyboard-response,442,952856,0.0-225.0-1.0,null,<p></p>,,null,,,,,,,,,,,,,,,,
,do_trial,443,956169,0.0-226.0-0.0,702.1,,,,50,"0,0,1",6,blank,447,null,0.077330072,0.680715473,0.257664958,0,,,,,,
,html-keyboard-response,444,957174,0.0-226.0-1.0,null,<p></p>,,null,,,,,,,,,,,,,,,,
,do_recog,445,959590,0.0-227.0-0.0,900,,,,53,,,,448,probe-133,,,,,1,[object Object],205,5,1,
,html-keyboard-response,446,960595,0.0-227.0-1.0,null,<p></p>,,null,,,,,,,,,,,,,,,,
,do_trial,447,963613,0.0-228.0-0.0,409.4,,,,51,"0,0,1",6,blank,449,null,0.110385474,0.540835361,0.252601243,1,,,,,,
,html-keyboard-response,448,964617,0.0-228.0-1.0,null,<p></p>,,null,,,,,,,,,,,,,,,,
,do_trial,449,967642,0.0-229.0-0.0,416.2,,,,49,"0,0,1",6,blank,450,null,0.076141073,0.542232793,0.242547458,0,,,,,,
,html-keyboard-response,450,968645,0.0-229.0-1.0,null,<p></p>,,null,,,,,,,,,,,,,,,,
,do_trial,451,971713,0.0-230.0-0.0,469.8,,,,51,"0,1,1",6,blank,451,null,0.050882606,0.556965191,0.259467081,1,,,,,,
,html-keyboard-response,452,972717,0.0-230.0-1.0,null,<p></p>,,null,,,,,,,,,,,,,,,,
,do_recog,453,975719,0.0-231.0-0.0,1481,,,,53,,,,452,probe-174,,,,,1,[object Object],86,2,1,
,html-keyboard-response,454,976724,0.0-231.0-1.0,null,<p></p>,,null,,,,,,,,,,,,,,,,
,do_trial,455,980012,0.0-232.0-0.0,677.4,,,,49,"0,0,0",6,blank,453,null,0.218669296,0.441448839,0.116559703,0,,,,,,
,html-keyboard-response,456,981017,0.0-232.0-1.0,null,<p></p>,,null,,,,,,,,,,,,,,,,
,do_trial,457,984046,0.0-233.0-0.0,428.8,,,,51,"0,0,0",6,blank,454,null,0.255056907,0.424343342,0.082782943,0,,,,,,
,html-keyboard-response,458,985053,0.0-233.0-1.0,null,<p></p>,,null,,,,,,,,,,,,,,,,
,do_trial,459,988022,0.0-234.0-0.0,349.6,,,,50,"1,1,0",6,blank,455,null,0.298263441,0.324994832,0.142510808,1,,,,,,
,html-keyboard-response,460,989026,0.0-234.0-1.0,null,<p></p>,,null,,,,,,,,,,,,,,,,
,do_trial,461,992200,0.0-235.0-0.0,570.1,,,,49,"1,1,0",6,blank,456,null,0.382439768,0.214062051,0.05934919,1,,,,,,
,html-keyboard-response,462,993203,0.0-235.0-1.0,null,<p></p>,,null,,,,,,,,,,,,,,,,
,do_trial,463,996162,0.0-236.0-0.0,352.7,,,,51,"0,0,0",6,blank,457,null,0.456070551,0.306121011,0.147696172,0,,,,,,
,html-keyboard-response,464,997168,0.0-236.0-1.0,null,<p></p>,,null,,,,,,,,,,,,,,,,
,do_trial,465,1000114,0.0-237.0-0.0,330.3,,,,50,"1,0,1",6,blank,458,null,0.539691774,0.261354859,0.182929924,0,,,,,,
,html-keyboard-response,466,1001119,0.0-237.0-1.0,null,<p></p>,,null,,,,,,,,,,,,,,,,
,do_trial,467,1004133,0.0-238.0-0.0,400.3,,,,50,"0,0,0",6,blank,459,null,0.731052172,0.204890351,0.216048234,0,,,,,,
,html-keyboard-response,468,1005137,0.0-238.0-1.0,null,<p></p>,,null,,,,,,,,,,,,,,,,
,do_recog,469,1007472,0.0-239.0-0.0,820.6,,,,53,,,,460,probe-49,,,,,1,[object Object],83,2,1,
,html-keyboard-response,470,1008476,0.0-239.0-1.0,null,<p></p>,,null,,,,,,,,,,,,,,,,
,do_trial,471,1011819,0.0-240.0-0.0,743.8,,,,49,"0,0,0",6,blank,461,null,0.699632812,0.274879784,0.16278795,0,,,,,,
,html-keyboard-response,472,1012824,0.0-240.0-1.0,null,<p></p>,,null,,,,,,,,,,,,,,,,
,do_recog,473,1015379,0.0-241.0-0.0,1034.4,,,,53,,,,462,probe-235,,,,,0,[object Object],null,null,0,
,html-keyboard-response,474,1016384,0.0-241.0-1.0,null,<p></p>,,null,,,,,,,,,,,,,,,,
,do_trial,475,1020009,0.0-242.0-0.0,1014.7,,,,50,"1,0,0",6,blank,463,null,0.708058057,0.40169849,0.22599497,0,,,,,,
,html-keyboard-response,476,1021013,0.0-242.0-1.0,null,<p></p>,,null,,,,,,,,,,,,,,,,
,do_recog,477,1023542,0.0-243.0-0.0,1011.5,,,,53,,,,464,probe-253,,,,,0,[object Object],null,null,0,
,html-keyboard-response,478,1024546,0.0-243.0-1.0,null,<p></p>,,null,,,,,,,,,,,,,,,,
,do_trial,479,1027872,0.0-244.0-0.0,728.6,,,,49,"1,0,0",6,blank,465,null,0.686547112,0.423631775,0.079229992,1,,,,,,
,html-keyboard-response,480,1028878,0.0-244.0-1.0,null,<p></p>,,null,,,,,,,,,,,,,,,,
,do_trial,481,1032174,0.0-245.0-0.0,684.2,,,,51,"0,0,0",6,blank,466,null,0.668987655,0.402016764,0.063718271,0,,,,,,
,html-keyboard-response,482,1033177,0.0-245.0-1.0,null,<p></p>,,null,,,,,,,,,,,,,,,,
,do_trial,483,1036384,0.0-246.0-0.0,603.9,,,,50,"0,0,0",6,blank,467,null,0.553504768,0.40835961,0.116397581,0,,,,,,
,html-keyboard-response,484,1037389,0.0-246.0-1.0,null,<p></p>,,null,,,,,,,,,,,,,,,,
,do_recog,485,1039859,0.0-247.0-0.0,945.1,,,,53,,,,468,probe-251,,,,,0,[object Object],null,null,0,
,html-keyboard-response,486,1040865,0.0-247.0-1.0,null,<p></p>,,null,,,,,,,,,,,,,,,,
,do_trial,487,1044038,0.0-248.0-0.0,561,,,,49,"1,1,0",6,blank,469,null,0.629282095,0.431741621,0.091807681,1,,,,,,
,html-keyboard-response,488,1045041,0.0-248.0-1.0,null,<p></p>,,null,,,,,,,,,,,,,,,,
,do_recog,489,1047584,0.0-249.0-0.0,1022.1,,,,53,,,,470,probe-254,,,,,0,[object Object],null,null,0,
,html-keyboard-response,490,1048587,0.0-249.0-1.0,null,<p></p>,,null,,,,,,,,,,,,,,,,
,do_trial,491,1051489,0.0-250.0-0.0,300.6,,,,50,"1,0,1",6,blank,471,null,0.556613752,0.251544232,0.238793944,0,,,,,,
,html-keyboard-response,492,1052494,0.0-250.0-1.0,null,<p></p>,,null,,,,,,,,,,,,,,,,
,do_recog,493,1056086,0.0-251.0-0.0,2065.8,,,,55,,,,472,probe-250,,,,,0,[object Object],null,null,1,
,html-keyboard-response,494,1057091,0.0-251.0-1.0,null,<p></p>,,null,,,,,,,,,,,,,,,,
,do_trial,495,1060362,0.0-252.0-0.0,657.4,,,,49,"1,1,0",6,blank,473,null,0.544071371,0.290283366,0.23787459,1,,,,,,
,html-keyboard-response,496,1061367,0.0-252.0-1.0,null,<p></p>,,null,,,,,,,,,,,,,,,,
,do_trial,497,1064498,0.0-253.0-0.0,518.4,,,,51,"0,0,0",6,blank,474,null,0.46422578,0.311434379,0.125450284,0,,,,,,
,html-keyboard-response,498,1065502,0.0-253.0-1.0,null,<p></p>,,null,,,,,,,,,,,,,,,,
,do_recog,499,1068507,0.0-254.0-0.0,1492.4,,,,55,,,,475,probe-237,,,,,0,[object Object],null,null,1,
,html-keyboard-response,500,1069512,0.0-254.0-1.0,null,<p></p>,,null,,,,,,,,,,,,,,,,
,do_trial,501,1072722,0.0-255.0-0.0,598,,,,50,"1,0,0",6,blank,476,null,0.601966372,0.191742342,0.062964435,0,,,,,,
,html-keyboard-response,502,1073727,0.0-255.0-1.0,null,<p></p>,,null,,,,,,,,,,,,,,,,
,do_recog,503,1076713,0.0-256.0-0.0,1465.2,,,,55,,,,477,probe-247,,,,,0,[object Object],null,null,1,
,html-keyboard-response,504,1077718,0.0-256.0-1.0,null,<p></p>,,null,,,,,,,,,,,,,,,,
,do_trial,505,1081216,0.0-257.0-0.0,902.9,,,,49,"1,0,1",6,blank,478,null,0.593836284,0.190332684,0.072243814,1,,,,,,
,html-keyboard-response,506,1082220,0.0-257.0-1.0,null,<p></p>,,null,,,,,,,,,,,,,,,,
,do_recog,507,1084860,0.0-258.0-0.0,1126.2,,,,55,,,,479,probe-232,,,,,0,[object Object],null,null,1,
,html-keyboard-response,508,1085867,0.0-258.0-1.0,null,<p></p>,,null,,,,,,,,,,,,,,,,
,do_pick_best_pirate,509,1092504,0.0-259.0-0.0,5612.7,,,,50,,,,,,,,,,,,,,,
,do_pick_best_pirate,510,1098180,0.0-260.0-0.0,4659.6,,,,50,,,,,,,,,,,,,,,
,do_pick_best_pirate,511,1100144,0.0-261.0-0.0,940.3,,,,49,,,,,,,,,,,,,,,
,do_pick_best_pirate,512,1105038,0.0-262.0-0.0,3869.7,,,,51,,,,,,,,,,,,,,,
,do_pick_best_pirate,513,1108066,0.0-263.0-0.0,2004.3,,,,50,,,,,,,,,,,,,,,
,do_pick_best_pirate,514,1111021,0.0-264.0-0.0,1931.8,,,,50,,,,,,,,,,,,,,,
,html-keyboard-response,515,1117625,0.0-265.0-0.0,6597.7,<p>You are all done with the experiment!</p><p> You made $15 plus $3 in bonus payment!</p><p>Thank you for participating. You will recieve your payment within 3 days.<p><b>[Press the space bar to end the experiment]</b></p></div>,,32,,,,,,,,,,,,,,,,