"success","trial_type","trial_index","time_elapsed","internal_node_id","interactions","blur_events","focus_events","fullscreenenter_events","fullscreenexit_events","rt","stimulus","key_press","subject_id","participant_id","age","gender","prompt","response","choice_outcomes","context_n","context_img_id","trial_n","probe_img_id","pR_red","pR_white","pR_black","outcome","is_valid","image_to_show","probed_trial","probed_context","correct","probe","probed_trial_n","probed_context_n","context_im"
"true","fullscreen","0","93099","0.0-0.0","""event"",""trial"",""time""
""fullscreenenter"",""0"",""92110""
","
","
","""event"",""trial"",""time""
""fullscreenenter"",""0"",""92110""
","
","","","","","","","","","","","","","","","","","","","","","","","","","","",""
"","pavlovia","1","93112","0.0-1.0","""event"",""trial"",""time""
""fullscreenenter"",""0"",""92110""
","
","
","""event"",""trial"",""time""
""fullscreenenter"",""0"",""92110""
","
","","","","","","","","","","","","","","","","","","","","","","","","","","",""
"","welc_back","2","104192","0.0-2.0","""event"",""trial"",""time""
""fullscreenenter"",""0"",""92110""
","
","
","""event"",""trial"",""time""
""fullscreenenter"",""0"",""92110""
","
","null","run_exp/static/audio/clip_29_welcome_back.m4a","null","1401","1463","8","Female","<div class='center'><p>Welcome to day 2!</p><p> Yesterday, you were the head captain of a pirate ship. You asked your fellow pirates to rob other ships of their gold across six different islands.</p></div>","","","","","","","","","","","","","","","","","","",""
"","html-keyboard-response","3","125517","0.0-3.0","""event"",""trial"",""time""
""fullscreenenter"",""0"",""92110""
","
","
","""event"",""trial"",""time""
""fullscreenenter"",""0"",""92110""
","
","21319.39999999851","<div class='center'><p>Welcome to day 2!</p><p> Yesterday, you were the head captain of a pirate ship. You asked your fellow pirates to rob other ships of their gold across six different islands.</p><p><b>[Press the space bar to continue]</b></p></div>","32","","","","","","","","","","","","","","","","","","","","","","","",""
"","day_1_summary_goal","4","143863","0.0-4.0","""event"",""trial"",""time""
""fullscreenenter"",""0"",""92110""
","
","
","""event"",""trial"",""time""
""fullscreenenter"",""0"",""92110""
","
","null","run_exp/static/audio/clip_30_goal_of_game.m4a","null","","","","","<div class='center'><p>Today, like yesterday, you get to pick which pirate you want to rob the next ship.</p><p>If the pirate is successful in robbing a ship, you get gold coins that look like this: </p><p><img src='run_exp/static/images/tutorial/reward.png' height='150'></p><p> If they were not successful in robbing the ship, then you will get no gold coins and you'll see a big red x like this: </p><p><img src='run_exp/static/images/tutorial/reward_no.png' height='150'></p></div>","","","","","","","","","","","","","","","","","","",""
"","html-keyboard-response","5","145811","0.0-5.0","""event"",""trial"",""time""
""fullscreenenter"",""0"",""92110""
","
","
","""event"",""trial"",""time""
""fullscreenenter"",""0"",""92110""
","
","1943.2000000029802","<div class='center'><p>Today, like yesterday, you get to pick which pirate you want to rob the next ship.</p><p>If the pirate is successful in robbing a ship, you get gold coins that look like this: </p><p><img src='run_exp/static/images/tutorial/reward.png' height='150'></p><p> If they were not successful in robbing the ship, then you will get no gold coins and you'll see a big red x like this: </p><p><img src='run_exp/static/images/tutorial/reward_no.png' height='150'></p><p><b>[Press the space bar to continue]</b></p></div>","32","","","","","","","","","","","","","","","","","","","","","","","",""
"","day_1_summary_pick","6","160523","0.0-6.0","""event"",""trial"",""time""
""fullscreenenter"",""0"",""92110""
","
","
","""event"",""trial"",""time""
""fullscreenenter"",""0"",""92110""
","
","null","run_exp/static/audio/clip_31_how_to_pick_a_pirate.m4a","null","","","","","<div class='center'><p>Also, just like yesterday, you will use the 1,2,3 keys on your keyboard to pick a pirate. Press '1' to choose red beard, '2' to choose white beard, and '3' to choose black beard . You only have 3 seconds to pick a pirate, so please make a choice quickly!</p></div>","","","","","","","","","","","","","","","","","","",""
"","html-keyboard-response","7","162176","0.0-7.0","""event"",""trial"",""time""
""fullscreenenter"",""0"",""92110""
","
","
","""event"",""trial"",""time""
""fullscreenenter"",""0"",""92110""
","
","1650.699999999255","<div class='center'><p>Also, just like yesterday, you will use the 1,2,3 keys on your keyboard to pick a pirate. Press '1' to choose red beard, '2' to choose white beard, and '3' to choose black beard . You only have 3 seconds to pick a pirate, so please make a choice quickly!</p><p><b>[Press the space bar to continue]</b></p></div>","32","","","","","","","","","","","","","","","","","","","","","","","",""
"","test_phase_begin","8","192603","0.0-8.0","""event"",""trial"",""time""
""fullscreenenter"",""0"",""92110""
","
","
","""event"",""trial"",""time""
""fullscreenenter"",""0"",""92110""
","
","null","run_exp/static/audio/clip_32_final_place.m4a","null","","","","","<div class='center'><p>You’ve arrived at the final island of your journey! Unfortunately, it’s very foggy out, so you won’t be able to see it in the distance like the other islands you've visited.</p><p>You’ll still be deciding which pirate you want to rob a ship like before. However, because of the fog, you also won’t be able to see the ship.</p><p>This means you do not have to remember the ships you rob on this island.</p><p>Unlike yesterday, you won't be visiting multiple islands today. You will stay on this island for the entire game. This game will last ~30 minutes.</p></div>","","","","","","","","","","","","","","","","","","",""
"","html-keyboard-response","9","194223","0.0-9.0","""event"",""trial"",""time""
""fullscreenenter"",""0"",""92110""
","
","
","""event"",""trial"",""time""
""fullscreenenter"",""0"",""92110""
","
","1616.5999999977648","<div class='center'><p>You’ve arrived at the final island of your journey! Unfortunately, it’s very foggy out, so you won’t be able to see it in the distance like the other islands you've visited.</p><p>You’ll still be deciding which pirate you want to rob a ship like before. However, because of the fog, you also won’t be able to see the ship.</p><p>This means you do not have to remember the ships you rob on this island.</p><p>Unlike yesterday, you won't be visiting multiple islands today. You will stay on this island for the entire game. This game will last ~30 minutes.</p><p><b>[Press the space bar to continue]</b></p></div>","32","","","","","","","","","","","","","","","","","","","","","","","",""
"","explain_probe_1","10","201984","0.0-10.0","""event"",""trial"",""time""
""fullscreenenter"",""0"",""92110""
","
","
","""event"",""trial"",""time""
""fullscreenenter"",""0"",""92110""
","
","null","run_exp/static/audio/clip_33_recognition_1.m4a","null","","","","","<div class='center'><p> Sometimes you’ll be shown a ship, and you will be asked if you saw this ship on a past island.</p><p> Here is an example of what you will see.</p><p><img src='run_exp/static/images/tutorial/example_recog_trial.png' height='500'></p></div>","","","","","","","","","","","","","","","","","","",""
"","html-keyboard-response","11","210406","0.0-11.0","""event"",""trial"",""time""
""fullscreenenter"",""0"",""92110""
","
","
","""event"",""trial"",""time""
""fullscreenenter"",""0"",""92110""
","
","8418.5","<div class='center'><p> Sometimes you’ll be shown a ship, and you will be asked if you saw this ship on a past island.</p><p> Here is an example of what you will see.</p><p><img src='run_exp/static/images/tutorial/example_recog_trial.png' height='500'></p><p><b>[Press the space bar to continue]</b></p></div>","32","","","","","","","","","","","","","","","","","","","","","","","",""
"","explain_probe_2","12","232164","0.0-12.0","""event"",""trial"",""time""
""fullscreenenter"",""0"",""92110""
","
","
","""event"",""trial"",""time""
""fullscreenenter"",""0"",""92110""
","
","null","run_exp/static/audio/clip_34_recognition_2.m4a","null","","","","","<div class='center'><p> You will press the 5, 6, 7, 8 keys on your keyboard to respond.</p><p>If you are sure you saw the ship, press <b>5</b> on your keyboard.</p><p> If you think you saw it before but aren't sure, then press <b>6</b>.</p><p> If you think you have <b>not</b> seen it before but aren't sure, then press <b>7</b>.</p><p> If you are sure you did <b>not</b> see the ship before, then press <b>8</b>.</p><p><img src='run_exp/static/images/tutorial/example_recog_trial.png' height='500'></p></div>","","","","","","","","","","","","","","","","","","",""
"","html-keyboard-response","13","240863","0.0-13.0","""event"",""trial"",""time""
""fullscreenenter"",""0"",""92110""
","
","
","""event"",""trial"",""time""
""fullscreenenter"",""0"",""92110""
","
","8695.800000000745","<div class='center'><p> You will press the 5, 6, 7, 8 keys on your keyboard to respond.</p><p>If you are sure you saw the ship, press <b>5</b> on your keyboard.</p><p> If you think you saw it before but aren't sure, then press <b>6</b>.</p><p> If you think you have <b>not</b> seen it before but aren't sure, then press <b>7</b>.</p><p> If you are sure you did <b>not</b> see the ship before, then press <b>8</b>.</p><p><img src='run_exp/static/images/tutorial/example_recog_trial.png' height='500'></p><p><b>[Press the space bar to continue]</b></p></div>","32","","","","","","","","","","","","","","","","","","","","","","","",""
"","explain_outcome","14","258103","0.0-14.0","""event"",""trial"",""time""
""fullscreenenter"",""0"",""92110""
","
","
","""event"",""trial"",""time""
""fullscreenenter"",""0"",""92110""
","
","null","run_exp/static/audio/clip_35_recognition_3.m4a","null","","","","","<div class='center'><p> If you remember correctly, then you’ll get a gold coin like this: </p><p><img src='run_exp/static/images/tutorial/reward_small.png' height='200'></p><p>If you do not remember correctly, then you'll see a red x like this: </p><p><img src='run_exp/static/images/tutorial/reward_no.png' height='200'></p><p>Importantly, when you are shown a ship, take the time to remind yourself which island you saw it on. This will help you in the next part of the study.</p></div>","","","","","","","","","","","","","","","","","","",""
"","html-keyboard-response","15","260173","0.0-15.0","""event"",""trial"",""time""
""fullscreenenter"",""0"",""92110""
","
","
","""event"",""trial"",""time""
""fullscreenenter"",""0"",""92110""
","
","2065.699999999255","<div class='center'><p> If you remember correctly, then you’ll get a gold coin like this: </p><p><img src='run_exp/static/images/tutorial/reward_small.png' height='200'></p><p>If you do not remember correctly, then you'll see a red x like this: </p><p><img src='run_exp/static/images/tutorial/reward_no.png' height='200'></p><p>Importantly, when you are shown a ship, take the time to remind yourself which island you saw it on. This will help you in the next part of the study.</p><p><b>[Press the space bar to continue]</b></p></div>","32","","","","","","","","","","","","","","","","","","","","","","","",""
"","begin_test_phase","16","276023","0.0-16.0","""event"",""trial"",""time""
""fullscreenenter"",""0"",""92110""
","
","
","""event"",""trial"",""time""
""fullscreenenter"",""0"",""92110""
","
","null","run_exp/static/audio/clip_36_begin_final.m4a","null","","","","","<div class='center'><p>Let's go over the important points again. Your job is to: </p><p>1. Pick the pirate who is best at robbing ships and will bring you back gold coins. </p><p>2. Correctly remember whether or not you saw a ship before. If you did see the ship before, remind yourself on which island you saw it. </p></div>","","","","","","","","","","","","","","","","","","",""
"","html-keyboard-response","17","277926","0.0-17.0","""event"",""trial"",""time""
""fullscreenenter"",""0"",""92110""
","
","
","""event"",""trial"",""time""
""fullscreenenter"",""0"",""92110""
","
","1786.6000000014901","<div class='center'><p>Let's go over the important points again. Your job is to: </p><p>1. Pick the pirate who is best at robbing ships and will bring you back gold coins. </p><p>2. Correctly remember whether or not you saw a ship before. If you did see the ship before, remind yourself on which island you saw it. </p><p><b>[Press the space bar to continue]</b></p></div>","32","","","","","","","","","","","","","","","","","","","","","","","",""
"","do_welcome","18","281968","0.0-18.0","""event"",""trial"",""time""
""fullscreenenter"",""0"",""92110""
","
","
","""event"",""trial"",""time""
""fullscreenenter"",""0"",""92110""
","
","null","","","","","","","","null","","","","","","","","","","","","","","","","","",""
"","do_trial","19","286085","0.0-19.0-0.0","""event"",""trial"",""time""
""fullscreenenter"",""0"",""92110""
","
","
","""event"",""trial"",""time""
""fullscreenenter"",""0"",""92110""
","
","1509.0999999977648","","","","","","","","49","0,1,1","6","blank","230","null","0.15710405660311663","0.2631024718325135","0.585983407603218","0","","","","","","","","",""
"","html-keyboard-response","20","287091","0.0-19.0-1.0","""event"",""trial"",""time""
""fullscreenenter"",""0"",""92110""
","
","
","""event"",""trial"",""time""
""fullscreenenter"",""0"",""92110""
","
","null","<p></p>","null","","","","","","","","","","","","","","","","","","","","","","","",""
"","do_trial","21","290499","0.0-20.0-0.0","""event"",""trial"",""time""
""fullscreenenter"",""0"",""92110""
","
","
","""event"",""trial"",""time""
""fullscreenenter"",""0"",""92110""
","
","800.0999999977648","","","","","","","","50","0,0,1","6","blank","231","null","0.20400356803409936","0.2050608741593618","0.7073072147705313","0","","","","","","","","",""
"","html-keyboard-response","22","291521","0.0-20.0-1.0","""event"",""trial"",""time""
""fullscreenenter"",""0"",""92110""
","
","
","""event"",""trial"",""time""
""fullscreenenter"",""0"",""92110""
","
","null","<p></p>","null","","","","","","","","","","","","","","","","","","","","","","","",""
"","do_trial","23","294673","0.0-21.0-0.0","""event"",""trial"",""time""
""fullscreenenter"",""0"",""92110""
","
","
","""event"",""trial"",""time""
""fullscreenenter"",""0"",""92110""
","
","551.3999999985099","","","","","","","","51","0,0,1","6","blank","232","null","0.14693230810063565","0.22340788923531435","0.6920448503530118","1","","","","","","","","",""
"","html-keyboard-response","24","295684","0.0-21.0-1.0","""event"",""trial"",""time""
""fullscreenenter"",""0"",""92110""
","
","
","""event"",""trial"",""time""
""fullscreenenter"",""0"",""92110""
","
","null","<p></p>","null","","","","","","","","","","","","","","","","","","","","","","","",""
"","do_trial","25","298842","0.0-22.0-0.0","""event"",""trial"",""time""
""fullscreenenter"",""0"",""92110""
","
","
","""event"",""trial"",""time""
""fullscreenenter"",""0"",""92110""
","
","578.3999999985099","","","","","","","","51","0,0,1","6","blank","233","null","0.14548893436644406","0.20871150575842076","0.8374584550315265","1","","","","","","","","",""
"","html-keyboard-response","26","299855","0.0-22.0-1.0","""event"",""trial"",""time""
""fullscreenenter"",""0"",""92110""
","
","
","""event"",""trial"",""time""
""fullscreenenter"",""0"",""92110""
","
","null","<p></p>","null","","","","","","","","","","","","","","","","","","","","","","","",""
"","do_trial","27","303033","0.0-23.0-0.0","""event"",""trial"",""time""
""fullscreenenter"",""0"",""92110""
","
","
","""event"",""trial"",""time""
""fullscreenenter"",""0"",""92110""
","
","589.0999999977648","","","","","","","","51","0,1,1","6","blank","234","null","0.08588394447983268","0.3501220807121301","0.7771029469746802","1","","","","","","","","",""
"","html-keyboard-response","28","304046","0.0-23.0-1.0","""event"",""trial"",""time""
""fullscreenenter"",""0"",""92110""
","
","
","""event"",""trial"",""time""
""fullscreenenter"",""0"",""92110""
","
","null","<p></p>","null","","","","","","","","","","","","","","","","","","","","","","","",""
"","do_trial","29","307153","0.0-24.0-0.0","""event"",""trial"",""time""
""fullscreenenter"",""0"",""92110""
","
","
","""event"",""trial"",""time""
""fullscreenenter"",""0"",""92110""
","
","472.5","","","","","","","","51","0,0,0","6","blank","235","null","0.10978063487950136","0.2458560337037158","0.655709501805365","0","","","","","","","","",""
"","html-keyboard-response","30","308169","0.0-24.0-1.0","""event"",""trial"",""time""
""fullscreenenter"",""0"",""92110""
","
","
","""event"",""trial"",""time""
""fullscreenenter"",""0"",""92110""
","
","null","<p></p>","null","","","","","","","","","","","","","","","","","","","","","","","",""
"","do_trial","31","311220","0.0-25.0-0.0","""event"",""trial"",""time""
""fullscreenenter"",""0"",""92110""
","
","
","""event"",""trial"",""time""
""fullscreenenter"",""0"",""92110""
","
","456.19999999925494","","","","","","","","49","0,1,1","6","blank","236","null","0.13962865028211022","0.27609984687954475","0.768450892847185","0","","","","","","","","",""
"","html-keyboard-response","32","312237","0.0-25.0-1.0","""event"",""trial"",""time""
""fullscreenenter"",""0"",""92110""
","
","
","""event"",""trial"",""time""
""fullscreenenter"",""0"",""92110""
","
","null","<p></p>","null","","","","","","","","","","","","","","","","","","","","","","","",""
"","do_trial","33","315365","0.0-26.0-0.0","""event"",""trial"",""time""
""fullscreenenter"",""0"",""92110""
","
","
","""event"",""trial"",""time""
""fullscreenenter"",""0"",""92110""
","
","542.1999999992549","","","","","","","","50","0,0,1","6","blank","237","null","0.08340368825173332","0.2456711424520093","0.6431186546260327","0","","","","","","","","",""
"","html-keyboard-response","34","316378","0.0-26.0-1.0","""event"",""trial"",""time""
""fullscreenenter"",""0"",""92110""
","
","
","""event"",""trial"",""time""
""fullscreenenter"",""0"",""92110""
","
","null","<p></p>","null","","","","","","","","","","","","","","","","","","","","","","","",""
"","do_trial","35","319471","0.0-27.0-0.0","""event"",""trial"",""time""
""fullscreenenter"",""0"",""92110""
","
","
","""event"",""trial"",""time""
""fullscreenenter"",""0"",""92110""
","
","509.3999999985099","","","","","","","","51","0,0,1","6","blank","238","null","0.11050160784689377","0.11987720749451454","0.606159009271983","1","","","","","","","","",""
"","html-keyboard-response","36","320492","0.0-27.0-1.0","""event"",""trial"",""time""
""fullscreenenter"",""0"",""92110""
","
","
","""event"",""trial"",""time""
""fullscreenenter"",""0"",""92110""
","
","null","<p></p>","null","","","","","","","","","","","","","","","","","","","","","","","",""
"","do_trial","37","323768","0.0-28.0-0.0","""event"",""trial"",""time""
""fullscreenenter"",""0"",""92110""
","
","
","""event"",""trial"",""time""
""fullscreenenter"",""0"",""92110""
","
","678.1999999992549","","","","","","","","51","0,0,1","6","blank","239","null","0.13815824877093782","0.304859555598698","0.5705557070235729","1","","","","","","","","",""
"","html-keyboard-response","38","324796","0.0-28.0-1.0","""event"",""trial"",""time""
""fullscreenenter"",""0"",""92110""
","
","
","""event"",""trial"",""time""
""fullscreenenter"",""0"",""92110""
","
","null","<p></p>","null","","","","","","","","","","","","","","","","","","","","","","","",""
"","do_trial","39","327806","0.0-29.0-0.0","""event"",""trial"",""time""
""fullscreenenter"",""0"",""92110""
","
","
","""event"",""trial"",""time""
""fullscreenenter"",""0"",""92110""
","
","396.30000000074506","","","","","","","","51","0,1,0","6","blank","240","null","0.12512472027635074","0.2415885747329858","0.574869919585281","0","","","","","","","","",""
"","html-keyboard-response","40","328824","0.0-29.0-1.0","""event"",""trial"",""time""
""fullscreenenter"",""0"",""92110""
","
","
","""event"",""trial"",""time""
""fullscreenenter"",""0"",""92110""
","
","null","<p></p>","null","","","","","","","","","","","","","","","","","","","","","","","",""
"","do_recog","41","334853","0.0-30.0-0.0","""event"",""trial"",""time""
""fullscreenenter"",""0"",""92110""
","
","
","""event"",""trial"",""time""
""fullscreenenter"",""0"",""92110""
","
","null","","","","","","","","null","","","","241","probe-225","","","","","1","[object Object]","117","2","0","","","",""
"","html-keyboard-response","42","335865","0.0-30.0-1.0","""event"",""trial"",""time""
""fullscreenenter"",""0"",""92110""
","
","
","""event"",""trial"",""time""
""fullscreenenter"",""0"",""92110""
","
","null","<p></p>","null","","","","","","","","","","","","","","","","","","","","","","","",""
"","do_trial","43","339642","0.0-31.0-0.0","""event"",""trial"",""time""
""fullscreenenter"",""0"",""92110""
","
","
","""event"",""trial"",""time""
""fullscreenenter"",""0"",""92110""
","
","1169.199999999255","","","","","","","","49","0,1,0","6","blank","242","null","0.1528644253642583","0.24670264930062924","0.5278154346226396","0","","","","","","","","",""
"","html-keyboard-response","44","340652","0.0-31.0-1.0","""event"",""trial"",""time""
""fullscreenenter"",""0"",""92110""
","
","
","""event"",""trial"",""time""
""fullscreenenter"",""0"",""92110""
","
","null","<p></p>","null","","","","","","","","","","","","","","","","","","","","","","","",""
"","do_recog","45","346690","0.0-32.0-0.0","""event"",""trial"",""time""
""fullscreenenter"",""0"",""92110""
","
","
","""event"",""trial"",""time""
""fullscreenenter"",""0"",""92110""
","
","null","","","","","","","","null","","","","243","probe-44","","","","","1","[object Object]","153","3","0","","","",""
"","html-keyboard-response","46","347714","0.0-32.0-1.0","""event"",""trial"",""time""
""fullscreenenter"",""0"",""92110""
","
","
","""event"",""trial"",""time""
""fullscreenenter"",""0"",""92110""
","
","null","<p></p>","null","","","","","","","","","","","","","","","","","","","","","","","",""
"","do_trial","47","351284","0.0-33.0-0.0","""event"",""trial"",""time""
""fullscreenenter"",""0"",""92110""
","
","
","""event"",""trial"",""time""
""fullscreenenter"",""0"",""92110""
","
","970.6999999992549","","","","","","","","49","0,0,1","6","blank","244","null","0.1664404411719228","0.43007241849371797","0.3840254230054173","0","","","","","","","","",""
"","html-keyboard-response","48","352303","0.0-33.0-1.0","""event"",""trial"",""time""
""fullscreenenter"",""0"",""92110""
","
","
","""event"",""trial"",""time""
""fullscreenenter"",""0"",""92110""
","
","null","<p></p>","null","","","","","","","","","","","","","","","","","","","","","","","",""
"","do_recog","49","354328","0.0-34.0-0.0","""event"",""trial"",""time""
""fullscreenenter"",""0"",""92110""
","
","
","""event"",""trial"",""time""
""fullscreenenter"",""0"",""92110""
","
","498.5","","","","","","","","54","","","","245","probe-229","","","","","1","[object Object]","39","0","1","","","",""
"","html-keyboard-response","50","355348","0.0-34.0-1.0","""event"",""trial"",""time""
""fullscreenenter"",""0"",""92110""
","
","
","""event"",""trial"",""time""
""fullscreenenter"",""0"",""92110""
","
","null","<p></p>","null","","","","","","","","","","","","","","","","","","","","","","","",""
"","do_trial","51","359228","0.0-35.0-0.0","""event"",""trial"",""time""
""fullscreenenter"",""0"",""92110""
","
","
","""event"",""trial"",""time""
""fullscreenenter"",""0"",""92110""
","
","1283.6000000014901","","","","","","","","49","1,1,0","6","blank","246","null","0.25348399188224163","0.6887704089356792","0.3652424689116395","1","","","","","","","","",""
"","html-keyboard-response","52","360255","0.0-35.0-1.0","""event"",""trial"",""time""
""fullscreenenter"",""0"",""92110""
","
","
","""event"",""trial"",""time""
""fullscreenenter"",""0"",""92110""
","
","null","<p></p>","null","","","","","","","","","","","","","","","","","","","","","","","",""
"","do_trial","53","363328","0.0-36.0-0.0","""event"",""trial"",""time""
""fullscreenenter"",""0"",""92110""
","
","
","""event"",""trial"",""time""
""fullscreenenter"",""0"",""92110""
","
","473.19999999925494","","","","","","","","49","0,0,1","6","blank","247","null","0.2835989875870155","0.6300397013307479","0.2067883239774644","0","","","","","","","","",""
"","html-keyboard-response","54","364345","0.0-36.0-1.0","""event"",""trial"",""time""
""fullscreenenter"",""0"",""92110""
","
","
","""event"",""trial"",""time""
""fullscreenenter"",""0"",""92110""
","
","null","<p></p>","null","","","","","","","","","","","","","","","","","","","","","","","",""
"","do_recog","55","367259","0.0-37.0-0.0","""event"",""trial"",""time""
""fullscreenenter"",""0"",""92110""
","
","
","""event"",""trial"",""time""
""fullscreenenter"",""0"",""92110""
","
","1401.199999999255","","","","","","","","54","","","","248","probe-98","","","","","1","[object Object]","32","0","1","","","",""
"","html-keyboard-response","56","368275","0.0-37.0-1.0","""event"",""trial"",""time""
""fullscreenenter"",""0"",""92110""
","
","
","""event"",""trial"",""time""
""fullscreenenter"",""0"",""92110""
","
","null","<p></p>","null","","","","","","","","","","","","","","","","","","","","","","","",""
"","do_trial","57","371794","0.0-38.0-0.0","""event"",""trial"",""time""
""fullscreenenter"",""0"",""92110""
","
","
","""event"",""trial"",""time""
""fullscreenenter"",""0"",""92110""
","
","962.3000000007451","","","","","","","","49","0,1,0","6","blank","249","null","0.13598427934715868","0.5642387444903547","0.23910210308814722","0","","","","","","","","",""
"","html-keyboard-response","58","372807","0.0-38.0-1.0","""event"",""trial"",""time""
""fullscreenenter"",""0"",""92110""
","
","
","""event"",""trial"",""time""
""fullscreenenter"",""0"",""92110""
","
","null","<p></p>","null","","","","","","","","","","","","","","","","","","","","","","","",""
"","do_recog","59","375655","0.0-39.0-0.0","""event"",""trial"",""time""
""fullscreenenter"",""0"",""92110""
","
","
","""event"",""trial"",""time""
""fullscreenenter"",""0"",""92110""
","
","1326.1000000014901","","","","","","","","54","","","","250","probe-104","","","","","1","[object Object]","113","2","1","","","",""
"","html-keyboard-response","60","376664","0.0-39.0-1.0","""event"",""trial"",""time""
""fullscreenenter"",""0"",""92110""
","
","
","""event"",""trial"",""time""
""fullscreenenter"",""0"",""92110""
","
","null","<p></p>","null","","","","","","","","","","","","","","","","","","","","","","","",""
"","do_trial","61","380272","0.0-40.0-0.0","""event"",""trial"",""time""
""fullscreenenter"",""0"",""92110""
","
","
","""event"",""trial"",""time""
""fullscreenenter"",""0"",""92110""
","
","1030.199999999255","","","","","","","","49","0,0,1","6","blank","251","null","0.05604683382616831","0.536578323350751","0.39189109495123703","0","","","","","","","","",""
"","html-keyboard-response","62","381274","0.0-40.0-1.0","""event"",""trial"",""time""
""fullscreenenter"",""0"",""92110""
","
","
","""event"",""trial"",""time""
""fullscreenenter"",""0"",""92110""
","
","null","<p></p>","null","","","","","","","","","","","","","","","","","","","","","","","",""
"","do_recog","63","383974","0.0-41.0-0.0","""event"",""trial"",""time""
""fullscreenenter"",""0"",""92110""
","
","
","""event"",""trial"",""time""
""fullscreenenter"",""0"",""92110""
","
","1184.5","","","","","","","","54","","","","252","probe-101","","","","","1","[object Object]","119","2","1","","","",""
"","html-keyboard-response","64","384984","0.0-41.0-1.0","""event"",""trial"",""time""
""fullscreenenter"",""0"",""92110""
","
","
","""event"",""trial"",""time""
""fullscreenenter"",""0"",""92110""
","
","null","<p></p>","null","","","","","","","","","","","","","","","","","","","","","","","",""
"","do_trial","65","388847","0.0-42.0-0.0","""event"",""trial"",""time""
""fullscreenenter"",""0"",""92110""
","
","
","""event"",""trial"",""time""
""fullscreenenter"",""0"",""92110""
","
","1261.6000000014901","","","","","","","","49","0,1,0","6","blank","253","null","0.10970751857929752","0.5628976899511096","0.3708811945754739","0","","","","","","","","",""
"","html-keyboard-response","66","389861","0.0-42.0-1.0","""event"",""trial"",""time""
""fullscreenenter"",""0"",""92110""
","
","
","""event"",""trial"",""time""
""fullscreenenter"",""0"",""92110""
","
","null","<p></p>","null","","","","","","","","","","","","","","","","","","","","","","","",""
"","do_trial","67","392943","0.0-43.0-0.0","""event"",""trial"",""time""
""fullscreenenter"",""0"",""92110""
","
","
","""event"",""trial"",""time""
""fullscreenenter"",""0"",""92110""
","
","502.30000000074506","","","","","","","","50","0,0,0","6","blank","254","null","0.09090678011103259","0.540618408629355","0.37753116877385723","0","","","","","","","","",""
"","html-keyboard-response","68","393946","0.0-43.0-1.0","""event"",""trial"",""time""
""fullscreenenter"",""0"",""92110""
","
","
","""event"",""trial"",""time""
""fullscreenenter"",""0"",""92110""
","
","null","<p></p>","null","","","","","","","","","","","","","","","","","","","","","","","",""
"","do_trial","69","397195","0.0-44.0-0.0","""event"",""trial"",""time""
""fullscreenenter"",""0"",""92110""
","
","
","""event"",""trial"",""time""
""fullscreenenter"",""0"",""92110""
","
","663.3999999985099","","","","","","","","50","0,1,1","6","blank","255","null","0.15784354108762677","0.5659552433330047","0.2789344717797917","1","","","","","","","","",""
"","html-keyboard-response","70","398207","0.0-44.0-1.0","""event"",""trial"",""time""
""fullscreenenter"",""0"",""92110""
","
","
","""event"",""trial"",""time""
""fullscreenenter"",""0"",""92110""
","
","null","<p></p>","null","","","","","","","","","","","","","","","","","","","","","","","",""
"","do_trial","71","401344","0.0-45.0-0.0","""event"",""trial"",""time""
""fullscreenenter"",""0"",""92110""
","
","
","""event"",""trial"",""time""
""fullscreenenter"",""0"",""92110""
","
","554.1999999992549","","","","","","","","50","0,0,1","6","blank","256","null","0.157003782126617","0.4914480783069219","0.3615342980817128","0","","","","","","","","",""
"","html-keyboard-response","72","402373","0.0-45.0-1.0","""event"",""trial"",""time""
""fullscreenenter"",""0"",""92110""
","
","
","""event"",""trial"",""time""
""fullscreenenter"",""0"",""92110""
","
","null","<p></p>","null","","","","","","","","","","","","","","","","","","","","","","","",""
"","do_recog","73","405722","0.0-46.0-0.0","""event"",""trial"",""time""
""fullscreenenter"",""0"",""92110""
","
","
","""event"",""trial"",""time""
""fullscreenenter"",""0"",""92110""
","
","1828.7999999970198","","","","","","","","54","","","","257","probe-87","","","","","1","[object Object]","156","3","1","","","",""
"","html-keyboard-response","74","406727","0.0-46.0-1.0","""event"",""trial"",""time""
""fullscreenenter"",""0"",""92110""
","
","
","""event"",""trial"",""time""
""fullscreenenter"",""0"",""92110""
","
","null","<p></p>","null","","","","","","","","","","","","","","","","","","","","","","","",""
"","do_trial","75","410337","0.0-47.0-0.0","""event"",""trial"",""time""
""fullscreenenter"",""0"",""92110""
","
","
","""event"",""trial"",""time""
""fullscreenenter"",""0"",""92110""
","
","1045.3999999985099","","","","","","","","50","0,1,0","6","blank","258","null","0.13620865871939639","0.4751896141197946","0.12562663168347563","1","","","","","","","","",""
"","html-keyboard-response","76","411344","0.0-47.0-1.0","""event"",""trial"",""time""
""fullscreenenter"",""0"",""92110""
","
","
","""event"",""trial"",""time""
""fullscreenenter"",""0"",""92110""
","
","null","<p></p>","null","","","","","","","","","","","","","","","","","","","","","","","",""
"","do_recog","77","414227","0.0-48.0-0.0","""event"",""trial"",""time""
""fullscreenenter"",""0"",""92110""
","
","
","""event"",""trial"",""time""
""fullscreenenter"",""0"",""92110""
","
","1360.800000000745","","","","","","","","54","","","","259","probe-46","","","","","1","[object Object]","195","4","1","","","",""
"","html-keyboard-response","78","415244","0.0-48.0-1.0","""event"",""trial"",""time""
""fullscreenenter"",""0"",""92110""
","
","
","""event"",""trial"",""time""
""fullscreenenter"",""0"",""92110""
","
","null","<p></p>","null","","","","","","","","","","","","","","","","","","","","","","","",""
"","do_trial","79","418374","0.0-49.0-0.0","""event"",""trial"",""time""
""fullscreenenter"",""0"",""92110""
","
","
","""event"",""trial"",""time""
""fullscreenenter"",""0"",""92110""
","
","525.3999999985099","","","","","","","","50","0,1,0","6","blank","260","null","0.1251547318267454","0.4356619959893114","0.12019129337557384","1","","","","","","","","",""
"","html-keyboard-response","80","419386","0.0-49.0-1.0","""event"",""trial"",""time""
""fullscreenenter"",""0"",""92110""
","
","
","""event"",""trial"",""time""
""fullscreenenter"",""0"",""92110""
","
","null","<p></p>","null","","","","","","","","","","","","","","","","","","","","","","","",""
"","do_trial","81","422633","0.0-50.0-0.0","""event"",""trial"",""time""
""fullscreenenter"",""0"",""92110""
","
","
","""event"",""trial"",""time""
""fullscreenenter"",""0"",""92110""
","
","638.3000000007451","","","","","","","","50","0,1,0","6","blank","261","null","0.07296759415066516","0.48520588119430913","0.3277502359080965","1","","","","","","","","",""
"","html-keyboard-response","82","423645","0.0-50.0-1.0","""event"",""trial"",""time""
""fullscreenenter"",""0"",""92110""
","
","
","""event"",""trial"",""time""
""fullscreenenter"",""0"",""92110""
","
","null","<p></p>","null","","","","","","","","","","","","","","","","","","","","","","","",""
"","do_trial","83","426718","0.0-51.0-0.0","""event"",""trial"",""time""
""fullscreenenter"",""0"",""92110""
","
","
","""event"",""trial"",""time""
""fullscreenenter"",""0"",""92110""
","
","482.69999999925494","","","","","","","","50","1,0,0","6","blank","262","null","0.11357936016624721","0.5828187788861658","0.33218053056740154","0","","","","","","","","",""
"","html-keyboard-response","84","427729","0.0-51.0-1.0","""event"",""trial"",""time""
""fullscreenenter"",""0"",""92110""
","
","
","""event"",""trial"",""time""
""fullscreenenter"",""0"",""92110""
","
","null","<p></p>","null","","","","","","","","","","","","","","","","","","","","","","","",""
"","do_trial","85","431439","0.0-52.0-0.0","""event"",""trial"",""time""
""fullscreenenter"",""0"",""92110""
","
","
","""event"",""trial"",""time""
""fullscreenenter"",""0"",""92110""
","
","1113.699999999255","","","","","","","","49","0,1,1","6","blank","263","null","0.14394173820238798","0.558087293232811","0.3111589059009051","0","","","","","","","","",""
"","html-keyboard-response","86","432451","0.0-52.0-1.0","""event"",""trial"",""time""
""fullscreenenter"",""0"",""92110""
","
","
","""event"",""trial"",""time""
""fullscreenenter"",""0"",""92110""
","
","null","<p></p>","null","","","","","","","","","","","","","","","","","","","","","","","",""
"","do_trial","87","435203","0.0-53.0-0.0","""event"",""trial"",""time""
""fullscreenenter"",""0"",""92110""
","
","
","""event"",""trial"",""time""
""fullscreenenter"",""0"",""92110""
","
","167.69999999925494","","","","","","","","50","0,0,1","6","blank","264","null","0.0648995301261419","0.5418753802783455","0.39200270589122327","0","","","","","","","","",""
"","html-keyboard-response","88","436215","0.0-53.0-1.0","""event"",""trial"",""time""
""fullscreenenter"",""0"",""92110""
","
","
","""event"",""trial"",""time""
""fullscreenenter"",""0"",""92110""
","
","null","<p></p>","null","","","","","","","","","","","","","","","","","","","","","","","",""
"","do_trial","89","439121","0.0-54.0-0.0","""event"",""trial"",""time""
""fullscreenenter"",""0"",""92110""
","
","
","""event"",""trial"",""time""
""fullscreenenter"",""0"",""92110""
","
","295.19999999925494","","","","","","","","50","0,0,0","6","blank","265","null","0.09070279011900594","0.5514971413381864","0.3155471470805583","0","","","","","","","","",""
"","html-keyboard-response","90","440136","0.0-54.0-1.0","""event"",""trial"",""time""
""fullscreenenter"",""0"",""92110""
","
","
","""event"",""trial"",""time""
""fullscreenenter"",""0"",""92110""
","
","null","<p></p>","null","","","","","","","","","","","","","","","","","","","","","","","",""
"","do_trial","91","443047","0.0-55.0-0.0","""event"",""trial"",""time""
""fullscreenenter"",""0"",""92110""
","
","
","""event"",""trial"",""time""
""fullscreenenter"",""0"",""92110""
","
","309.19999999925494","","","","","","","","49","0,1,1","6","blank","266","null","0.08777002655488923","0.5617348751633121","0.403569691736668","0","","","","","","","","",""
"","html-keyboard-response","92","444052","0.0-55.0-1.0","""event"",""trial"",""time""
""fullscreenenter"",""0"",""92110""
","
","
","""event"",""trial"",""time""
""fullscreenenter"",""0"",""92110""
","
","null","<p></p>","null","","","","","","","","","","","","","","","","","","","","","","","",""
"","do_recog","93","447198","0.0-56.0-0.0","""event"",""trial"",""time""
""fullscreenenter"",""0"",""92110""
","
","
","""event"",""trial"",""time""
""fullscreenenter"",""0"",""92110""
","
","1624.199999999255","","","","","","","","54","","","","267","probe-154","","","","","1","[object Object]","190","4","1","","","",""
"","html-keyboard-response","94","448215","0.0-56.0-1.0","""event"",""trial"",""time""
""fullscreenenter"",""0"",""92110""
","
","
","""event"",""trial"",""time""
""fullscreenenter"",""0"",""92110""
","
","null","<p></p>","null","","","","","","","","","","","","","","","","","","","","","","","",""
"","do_trial","95","451597","0.0-57.0-0.0","""event"",""trial"",""time""
""fullscreenenter"",""0"",""92110""
","
","
","""event"",""trial"",""time""
""fullscreenenter"",""0"",""92110""
","
","770.8000000007451","","","","","","","","49","0,1,0","6","blank","268","null","0.11719676292525401","0.6059288623062543","0.39134201711947797","0","","","","","","","","",""
"","html-keyboard-response","96","452610","0.0-57.0-1.0","""event"",""trial"",""time""
""fullscreenenter"",""0"",""92110""
","
","
","""event"",""trial"",""time""
""fullscreenenter"",""0"",""92110""
","
","null","<p></p>","null","","","","","","","","","","","","","","","","","","","","","","","",""
"","break","97","462223","0.0-58.0-0.0","""event"",""trial"",""time""
""fullscreenenter"",""0"",""92110""
","
","
","""event"",""trial"",""time""
""fullscreenenter"",""0"",""92110""
","
","9609.800000000745","<div class='center'><p>Time to take a quick break! You have 2 minutes to rest, but you can move on sooner if you'd like.</p><p> Press the <b>space bar</b> to continue.</p></div>","32","","","","","","","","","","","","","","","","","","","","","","","",""
"","do_trial","98","466192","0.0-58.0-1.0","""event"",""trial"",""time""
""fullscreenenter"",""0"",""92110""
","
","
","""event"",""trial"",""time""
""fullscreenenter"",""0"",""92110""
","
","1356","","","","","","","","49","0,1,0","6","blank","269","null","0.18308147849903064","0.5977500038781204","0.3015221941404746","0","","","","","","","","",""
"","html-keyboard-response","99","467211","0.0-58.0-2.0","""event"",""trial"",""time""
""fullscreenenter"",""0"",""92110""
","
","
","""event"",""trial"",""time""
""fullscreenenter"",""0"",""92110""
","
","null","<p></p>","null","","","","","","","","","","","","","","","","","","","","","","","",""
"","do_trial","100","470248","0.0-59.0-0.0","""event"",""trial"",""time""
""fullscreenenter"",""0"",""92110""
","
","
","""event"",""trial"",""time""
""fullscreenenter"",""0"",""92110""
","
","443.1000000014901","","","","","","","","50","0,1,0","6","blank","270","null","0.06444850417040891","0.772697701173235","0.2848073157676522","1","","","","","","","","",""
"","html-keyboard-response","101","471261","0.0-59.0-1.0","""event"",""trial"",""time""
""fullscreenenter"",""0"",""92110""
","
","
","""event"",""trial"",""time""
""fullscreenenter"",""0"",""92110""
","
","null","<p></p>","null","","","","","","","","","","","","","","","","","","","","","","","",""
"","do_trial","102","474504","0.0-60.0-0.0","""event"",""trial"",""time""
""fullscreenenter"",""0"",""92110""
","
","
","""event"",""trial"",""time""
""fullscreenenter"",""0"",""92110""
","
","657.5","","","","","","","","50","0,1,0","6","blank","271","null","0.10579382651355125","0.5944717740777016","0.40912854932002063","1","","","","","","","","",""
"","html-keyboard-response","103","475510","0.0-60.0-1.0","""event"",""trial"",""time""
""fullscreenenter"",""0"",""92110""
","
","
","""event"",""trial"",""time""
""fullscreenenter"",""0"",""92110""
","
","null","<p></p>","null","","","","","","","","","","","","","","","","","","","","","","","",""
"","do_recog","104","478604","0.0-61.0-0.0","""event"",""trial"",""time""
""fullscreenenter"",""0"",""92110""
","
","
","""event"",""trial"",""time""
""fullscreenenter"",""0"",""92110""
","
","1571.9000000022352","","","","","","","","54","","","","272","probe-213","","","","","1","[object Object]","74","1","1","","","",""
"","html-keyboard-response","105","479621","0.0-61.0-1.0","""event"",""trial"",""time""
""fullscreenenter"",""0"",""92110""
","
","
","""event"",""trial"",""time""
""fullscreenenter"",""0"",""92110""
","
","null","<p></p>","null","","","","","","","","","","","","","","","","","","","","","","","",""
"","do_trial","106","483030","0.0-62.0-0.0","""event"",""trial"",""time""
""fullscreenenter"",""0"",""92110""
","
","
","""event"",""trial"",""time""
""fullscreenenter"",""0"",""92110""
","
","833","","","","","","","","50","0,0,0","6","blank","273","null","0.14895259897717886","0.5584116041981261","0.44129153530795107","0","","","","","","","","",""
"","html-keyboard-response","107","484039","0.0-62.0-1.0","""event"",""trial"",""time""
""fullscreenenter"",""0"",""92110""
","
","
","""event"",""trial"",""time""
""fullscreenenter"",""0"",""92110""
","
","null","<p></p>","null","","","","","","","","","","","","","","","","","","","","","","","",""
"","do_trial","108","486940","0.0-63.0-0.0","""event"",""trial"",""time""
""fullscreenenter"",""0"",""92110""
","
","
","""event"",""trial"",""time""
""fullscreenenter"",""0"",""92110""
","
","281.5","","","","","","","","49","0,1,1","6","blank","274","null","0.06838571364295704","0.5873917641546327","0.54023976293806","0","","","","","","","","",""
"","html-keyboard-response","109","487943","0.0-63.0-1.0","""event"",""trial"",""time""
""fullscreenenter"",""0"",""92110""
","
","
","""event"",""trial"",""time""
""fullscreenenter"",""0"",""92110""
","
","null","<p></p>","null","","","","","","","","","","","","","","","","","","","","","","","",""
"","do_trial","110","490877","0.0-64.0-0.0","""event"",""trial"",""time""
""fullscreenenter"",""0"",""92110""
","
","
","""event"",""trial"",""time""
""fullscreenenter"",""0"",""92110""
","
","323.80000000074506","","","","","","","","49","0,1,1","6","blank","275","null","0.09383069525593529","0.5518023605712222","0.45522682915330626","0","","","","","","","","",""
"","html-keyboard-response","111","491894","0.0-64.0-1.0","""event"",""trial"",""time""
""fullscreenenter"",""0"",""92110""
","
","
","""event"",""trial"",""time""
""fullscreenenter"",""0"",""92110""
","
","null","<p></p>","null","","","","","","","","","","","","","","","","","","","","","","","",""
"","do_trial","112","495259","0.0-65.0-0.0","""event"",""trial"",""time""
""fullscreenenter"",""0"",""92110""
","
","
","""event"",""trial"",""time""
""fullscreenenter"",""0"",""92110""
","
","768.8000000007451","","","","","","","","50","1,0,1","6","blank","276","null","0.10780318375706988","0.6214082318751112","0.4848143272146968","0","","","","","","","","",""
"","html-keyboard-response","113","496265","0.0-65.0-1.0","""event"",""trial"",""time""
""fullscreenenter"",""0"",""92110""
","
","
","""event"",""trial"",""time""
""fullscreenenter"",""0"",""92110""
","
","null","<p></p>","null","","","","","","","","","","","","","","","","","","","","","","","",""
"","do_recog","114","499278","0.0-66.0-0.0","""event"",""trial"",""time""
""fullscreenenter"",""0"",""92110""
","
","
","""event"",""trial"",""time""
""fullscreenenter"",""0"",""92110""
","
","1482","","","","","","","","54","","","","277","probe-147","","","","","1","[object Object]","198","4","1","","","",""
"","html-keyboard-response","115","500282","0.0-66.0-1.0","""event"",""trial"",""time""
""fullscreenenter"",""0"",""92110""
","
","
","""event"",""trial"",""time""
""fullscreenenter"",""0"",""92110""
","
","null","<p></p>","null","","","","","","","","","","","","","","","","","","","","","","","",""
"","do_trial","116","504029","0.0-67.0-0.0","""event"",""trial"",""time""
""fullscreenenter"",""0"",""92110""
","
","
","""event"",""trial"",""time""
""fullscreenenter"",""0"",""92110""
","
","1157.1000000014901","","","","","","","","49","0,0,0","6","blank","278","null","0.10468704428619054","0.43877998830185105","0.3506813311964403","0","","","","","","","","",""
"","html-keyboard-response","117","505042","0.0-67.0-1.0","""event"",""trial"",""time""
""fullscreenenter"",""0"",""92110""
","
","
","""event"",""trial"",""time""
""fullscreenenter"",""0"",""92110""
","
","null","<p></p>","null","","","","","","","","","","","","","","","","","","","","","","","",""
"","do_trial","118","508205","0.0-68.0-0.0","""event"",""trial"",""time""
""fullscreenenter"",""0"",""92110""
","
","
","""event"",""trial"",""time""
""fullscreenenter"",""0"",""92110""
","
","567.5","","","","","","","","50","0,1,0","6","blank","279","null","0.09030993198107994","0.4486072498540327","0.4047246807818764","1","","","","","","","","",""
"","html-keyboard-response","119","509210","0.0-68.0-1.0","""event"",""trial"",""time""
""fullscreenenter"",""0"",""92110""
","
","
","""event"",""trial"",""time""
""fullscreenenter"",""0"",""92110""
","
","null","<p></p>","null","","","","","","","","","","","","","","","","","","","","","","","",""
"","do_trial","120","512415","0.0-69.0-0.0","""event"",""trial"",""time""
""fullscreenenter"",""0"",""92110""
","
","
","""event"",""trial"",""time""
""fullscreenenter"",""0"",""92110""
","
","631.3000000007451","","","","","","","","50","0,1,0","6","blank","280","null","0.1414865841331768","0.5353096523796517","0.3094166624726654","1","","","","","","","","",""
"","html-keyboard-response","121","513429","0.0-69.0-1.0","""event"",""trial"",""time""
""fullscreenenter"",""0"",""92110""
","
","
","""event"",""trial"",""time""
""fullscreenenter"",""0"",""92110""
","
","null","<p></p>","null","","","","","","","","","","","","","","","","","","","","","","","",""
"","do_trial","122","516405","0.0-70.0-0.0","""event"",""trial"",""time""
""fullscreenenter"",""0"",""92110""
","
","
","""event"",""trial"",""time""
""fullscreenenter"",""0"",""92110""
","
","359.9000000022352","","","","","","","","50","0,1,0","6","blank","281","null","0.10422203145080178","0.5904014044354322","0.22249172583645668","1","","","","","","","","",""
"","html-keyboard-response","123","517410","0.0-70.0-1.0","""event"",""trial"",""time""
""fullscreenenter"",""0"",""92110""
","
","
","""event"",""trial"",""time""
""fullscreenenter"",""0"",""92110""
","
","null","<p></p>","null","","","","","","","","","","","","","","","","","","","","","","","",""
"","do_trial","124","520494","0.0-71.0-0.0","""event"",""trial"",""time""
""fullscreenenter"",""0"",""92110""
","
","
","""event"",""trial"",""time""
""fullscreenenter"",""0"",""92110""
","
","464.30000000074506","","","","","","","","50","1,1,1","6","blank","282","null","0.09852342625415875","0.7166277888469336","0.26930922044280403","1","","","","","","","","",""
"","html-keyboard-response","125","521499","0.0-71.0-1.0","""event"",""trial"",""time""
""fullscreenenter"",""0"",""92110""
","
","
","""event"",""trial"",""time""
""fullscreenenter"",""0"",""92110""
","
","null","<p></p>","null","","","","","","","","","","","","","","","","","","","","","","","",""
"","do_trial","126","524124","0.0-72.0-0.0","""event"",""trial"",""time""
""fullscreenenter"",""0"",""92110""
","
","
","""event"",""trial"",""time""
""fullscreenenter"",""0"",""92110""
","
","42.19999999925494","","","","","","","","50","0,0,0","6","blank","283","null","0.09671909569461824","0.5680022459119592","0.20185731044362507","0","","","","","","","","",""
"","html-keyboard-response","127","525135","0.0-72.0-1.0","""event"",""trial"",""time""
""fullscreenenter"",""0"",""92110""
","
","
","""event"",""trial"",""time""
""fullscreenenter"",""0"",""92110""
","
","null","<p></p>","null","","","","","","","","","","","","","","","","","","","","","","","",""
"","do_trial","128","527735","0.0-73.0-0.0","""event"",""trial"",""time""
""fullscreenenter"",""0"",""92110""
","
","
","""event"",""trial"",""time""
""fullscreenenter"",""0"",""92110""
","
","42.900000002235174","","","","","","","","50","0,1,1","6","blank","284","null","0.11659304912142966","0.5895172068800085","0.25727573829195327","1","","","","","","","","",""
"","html-keyboard-response","129","528752","0.0-73.0-1.0","""event"",""trial"",""time""
""fullscreenenter"",""0"",""92110""
","
","
","""event"",""trial"",""time""
""fullscreenenter"",""0"",""92110""
","
","null","<p></p>","null","","","","","","","","","","","","","","","","","","","","","","","",""
"","do_recog","130","531823","0.0-74.0-0.0","""event"",""trial"",""time""
""fullscreenenter"",""0"",""92110""
","
","
","""event"",""trial"",""time""
""fullscreenenter"",""0"",""92110""
","
","1555.699999999255","","","","","","","","55","","","","285","probe-246","","","","","0","[object Object]","null","null","1","","","",""
"","html-keyboard-response","131","532827","0.0-74.0-1.0","""event"",""trial"",""time""
""fullscreenenter"",""0"",""92110""
","
","
","""event"",""trial"",""time""
""fullscreenenter"",""0"",""92110""
","
","null","<p></p>","null","","","","","","","","","","","","","","","","","","","","","","","",""
"","do_trial","132","536353","0.0-75.0-0.0","""event"",""trial"",""time""
""fullscreenenter"",""0"",""92110""
","
","
","""event"",""trial"",""time""
""fullscreenenter"",""0"",""92110""
","
","938.9000000022352","","","","","","","","50","0,1,1","6","blank","286","null","0.12610143975020613","0.6363655395844647","0.39467810154418626","1","","","","","","","","",""
"","html-keyboard-response","133","537360","0.0-75.0-1.0","""event"",""trial"",""time""
""fullscreenenter"",""0"",""92110""
","
","
","""event"",""trial"",""time""
""fullscreenenter"",""0"",""92110""
","
","null","<p></p>","null","","","","","","","","","","","","","","","","","","","","","","","",""
"","do_trial","134","540490","0.0-76.0-0.0","""event"",""trial"",""time""
""fullscreenenter"",""0"",""92110""
","
","
","""event"",""trial"",""time""
""fullscreenenter"",""0"",""92110""
","
","541.9000000022352","","","","","","","","50","0,0,1","6","blank","287","null","0.20310391717644494","0.5537945176041779","0.4141250499552453","0","","","","","","","","",""
"","html-keyboard-response","135","541504","0.0-76.0-1.0","""event"",""trial"",""time""
""fullscreenenter"",""0"",""92110""
","
","
","""event"",""trial"",""time""
""fullscreenenter"",""0"",""92110""
","
","null","<p></p>","null","","","","","","","","","","","","","","","","","","","","","","","",""
"","do_trial","136","544396","0.0-77.0-0.0","""event"",""trial"",""time""
""fullscreenenter"",""0"",""92110""
","
","
","""event"",""trial"",""time""
""fullscreenenter"",""0"",""92110""
","
","258.3999999985099","","","","","","","","49","0,1,0","6","blank","288","null","0.20624464278028515","0.44028193339097793","0.45757615780621247","0","","","","","","","","",""
"","html-keyboard-response","137","545406","0.0-77.0-1.0","""event"",""trial"",""time""
""fullscreenenter"",""0"",""92110""
","
","
","""event"",""trial"",""time""
""fullscreenenter"",""0"",""92110""
","
","null","<p></p>","null","","","","","","","","","","","","","","","","","","","","","","","",""
"","do_recog","138","548979","0.0-78.0-0.0","""event"",""trial"",""time""
""fullscreenenter"",""0"",""92110""
","
","
","""event"",""trial"",""time""
""fullscreenenter"",""0"",""92110""
","
","2057.60000000149","","","","","","","","54","","","","289","probe-16","","","","","1","[object Object]","31","0","1","","","",""
"","html-keyboard-response","139","550001","0.0-78.0-1.0","""event"",""trial"",""time""
""fullscreenenter"",""0"",""92110""
","
","
","""event"",""trial"",""time""
""fullscreenenter"",""0"",""92110""
","
","null","<p></p>","null","","","","","","","","","","","","","","","","","","","","","","","",""
"","do_trial","140","553255","0.0-79.0-0.0","""event"",""trial"",""time""
""fullscreenenter"",""0"",""92110""
","
","
","""event"",""trial"",""time""
""fullscreenenter"",""0"",""92110""
","
","666.2999999970198","","","","","","","","50","0,0,1","6","blank","290","null","0.055269018281433824","0.5826329486397165","0.35563431178837657","0","","","","","","","","",""
"","html-keyboard-response","141","554271","0.0-79.0-1.0","""event"",""trial"",""time""
""fullscreenenter"",""0"",""92110""
","
","
","""event"",""trial"",""time""
""fullscreenenter"",""0"",""92110""
","
","null","<p></p>","null","","","","","","","","","","","","","","","","","","","","","","","",""
"","do_trial","142","557199","0.0-80.0-0.0","""event"",""trial"",""time""
""fullscreenenter"",""0"",""92110""
","
","
","""event"",""trial"",""time""
""fullscreenenter"",""0"",""92110""
","
","267.30000000074506","","","","","","","","49","0,1,0","6","blank","291","null","0.05111099032279331","0.582469938122583","0.23994255912966744","0","","","","","","","","",""
"","html-keyboard-response","143","558210","0.0-80.0-1.0","""event"",""trial"",""time""
""fullscreenenter"",""0"",""92110""
","
","
","""event"",""trial"",""time""
""fullscreenenter"",""0"",""92110""
","
","null","<p></p>","null","","","","","","","","","","","","","","","","","","","","","","","",""
"","do_trial","144","561085","0.0-81.0-0.0","""event"",""trial"",""time""
""fullscreenenter"",""0"",""92110""
","
","
","""event"",""trial"",""time""
""fullscreenenter"",""0"",""92110""
","
","283.80000000074506","","","","","","","","49","0,1,0","6","blank","292","null","0.07575067506806012","0.6025444419887214","0.23577638363111522","0","","","","","","","","",""
"","html-keyboard-response","145","562097","0.0-81.0-1.0","""event"",""trial"",""time""
""fullscreenenter"",""0"",""92110""
","
","
","""event"",""trial"",""time""
""fullscreenenter"",""0"",""92110""
","
","null","<p></p>","null","","","","","","","","","","","","","","","","","","","","","","","",""
"","do_recog","146","565227","0.0-82.0-0.0","""event"",""trial"",""time""
""fullscreenenter"",""0"",""92110""
","
","
","""event"",""trial"",""time""
""fullscreenenter"",""0"",""92110""
","
","1610.300000000745","","","","","","","","55","","","","293","probe-22","","","","","1","[object Object]","33","0","0","","","",""
"","html-keyboard-response","147","566248","0.0-82.0-1.0","""event"",""trial"",""time""
""fullscreenenter"",""0"",""92110""
","
","
","""event"",""trial"",""time""
""fullscreenenter"",""0"",""92110""
","
","null","<p></p>","null","","","","","","","","","","","","","","","","","","","","","","","",""
"","do_trial","148","570209","0.0-83.0-0.0","""event"",""trial"",""time""
""fullscreenenter"",""0"",""92110""
","
","
","""event"",""trial"",""time""
""fullscreenenter"",""0"",""92110""
","
","1368","","","","","","","","49","0,0,1","6","blank","294","null","0.05102698445988363","0.6468791895875279","0.3202572480104382","0","","","","","","","","",""
"","html-keyboard-response","149","571216","0.0-83.0-1.0","""event"",""trial"",""time""
""fullscreenenter"",""0"",""92110""
","
","
","""event"",""trial"",""time""
""fullscreenenter"",""0"",""92110""
","
","null","<p></p>","null","","","","","","","","","","","","","","","","","","","","","","","",""
"","do_recog","150","574176","0.0-84.0-0.0","""event"",""trial"",""time""
""fullscreenenter"",""0"",""92110""
","
","
","""event"",""trial"",""time""
""fullscreenenter"",""0"",""92110""
","
","1445.5999999977648","","","","","","","","54","","","","295","probe-233","","","","","0","[object Object]","null","null","0","","","",""
"","html-keyboard-response","151","575187","0.0-84.0-1.0","""event"",""trial"",""time""
""fullscreenenter"",""0"",""92110""
","
","
","""event"",""trial"",""time""
""fullscreenenter"",""0"",""92110""
","
","null","<p></p>","null","","","","","","","","","","","","","","","","","","","","","","","",""
"","do_trial","152","579237","0.0-85.0-0.0","""event"",""trial"",""time""
""fullscreenenter"",""0"",""92110""
","
","
","""event"",""trial"",""time""
""fullscreenenter"",""0"",""92110""
","
","1464","","","","","","","","49","0,1,0","6","blank","296","null","0.12584214821131107","0.5882667927948408","0.3390247919851451","0","","","","","","","","",""
"","html-keyboard-response","153","580241","0.0-85.0-1.0","""event"",""trial"",""time""
""fullscreenenter"",""0"",""92110""
","
","
","""event"",""trial"",""time""
""fullscreenenter"",""0"",""92110""
","
","null","<p></p>","null","","","","","","","","","","","","","","","","","","","","","","","",""
"","do_trial","154","583212","0.0-86.0-0.0","""event"",""trial"",""time""
""fullscreenenter"",""0"",""92110""
","
","
","""event"",""trial"",""time""
""fullscreenenter"",""0"",""92110""
","
","357.0999999977648","","","","","","","","50","0,0,1","6","blank","297","null","0.25084816651782976","0.3718220255277987","0.3043920940255201","0","","","","","","","","",""
"","html-keyboard-response","155","584243","0.0-86.0-1.0","""event"",""trial"",""time""
""fullscreenenter"",""0"",""92110""
","
","
","""event"",""trial"",""time""
""fullscreenenter"",""0"",""92110""
","
","null","<p></p>","null","","","","","","","","","","","","","","","","","","","","","","","",""
"","do_recog","156","590260","0.0-87.0-0.0","""event"",""trial"",""time""
""fullscreenenter"",""0"",""92110""
","
","
","""event"",""trial"",""time""
""fullscreenenter"",""0"",""92110""
","
","null","","","","","","","","null","","","","298","probe-194","","","","","1","[object Object]","34","0","0","","","",""
"","html-keyboard-response","157","591263","0.0-87.0-1.0","""event"",""trial"",""time""
""fullscreenenter"",""0"",""92110""
","
","
","""event"",""trial"",""time""
""fullscreenenter"",""0"",""92110""
","
","null","<p></p>","null","","","","","","","","","","","","","","","","","","","","","","","",""
"","do_trial","158","594407","0.0-88.0-0.0","""event"",""trial"",""time""
""fullscreenenter"",""0"",""92110""
","
","
","""event"",""trial"",""time""
""fullscreenenter"",""0"",""92110""
","
","534.1000000014901","","","","","","","","49","0,1,0","6","blank","299","null","0.34894905862094994","0.21403500672691705","0.3087418939442814","0","","","","","","","","",""
"","html-keyboard-response","159","595425","0.0-88.0-1.0","""event"",""trial"",""time""
""fullscreenenter"",""0"",""92110""
","
","
","""event"",""trial"",""time""
""fullscreenenter"",""0"",""92110""
","
","null","<p></p>","null","","","","","","","","","","","","","","","","","","","","","","","",""
"","do_trial","160","598388","0.0-89.0-0.0","""event"",""trial"",""time""
""fullscreenenter"",""0"",""92110""
","
","
","""event"",""trial"",""time""
""fullscreenenter"",""0"",""92110""
","
","372.1000000014901","","","","","","","","50","0,0,1","6","blank","300","null","0.3481253578617586","0.10579262540761634","0.24037624757895024","0","","","","","","","","",""
"","html-keyboard-response","161","599401","0.0-89.0-1.0","""event"",""trial"",""time""
""fullscreenenter"",""0"",""92110""
","
","
","""event"",""trial"",""time""
""fullscreenenter"",""0"",""92110""
","
","null","<p></p>","null","","","","","","","","","","","","","","","","","","","","","","","",""
"","do_trial","162","602319","0.0-90.0-0.0","""event"",""trial"",""time""
""fullscreenenter"",""0"",""92110""
","
","
","""event"",""trial"",""time""
""fullscreenenter"",""0"",""92110""
","
","353.30000000074506","","","","","","","","49","0,0,0","6","blank","301","null","0.47633067503230153","0.09198239977311268","0.22046373224329874","0","","","","","","","","",""
"","html-keyboard-response","163","603337","0.0-90.0-1.0","""event"",""trial"",""time""
""fullscreenenter"",""0"",""92110""
","
","
","""event"",""trial"",""time""
""fullscreenenter"",""0"",""92110""
","
","null","<p></p>","null","","","","","","","","","","","","","","","","","","","","","","","",""
"","do_recog","164","607097","0.0-91.0-0.0","""event"",""trial"",""time""
""fullscreenenter"",""0"",""92110""
","
","
","""event"",""trial"",""time""
""fullscreenenter"",""0"",""92110""
","
","2246.10000000149","","","","","","","","56","","","","302","probe-137","","","","","1","[object Object]","199","4","0","","","",""
"","html-keyboard-response","165","608117","0.0-91.0-1.0","""event"",""trial"",""time""
""fullscreenenter"",""0"",""92110""
","
","
","""event"",""trial"",""time""
""fullscreenenter"",""0"",""92110""
","
","null","<p></p>","null","","","","","","","","","","","","","","","","","","","","","","","",""
"","do_trial","166","614220","0.0-92.0-0.0","""event"",""trial"",""time""
""fullscreenenter"",""0"",""92110""
","
","
","""event"",""trial"",""time""
""fullscreenenter"",""0"",""92110""
","
","null","","","","","","","","null","0,0,1","6","blank","303","null","0.5676948682056964","0.12968710985922408","0.27300622358213483","","","","","","","","","",""
"","html-keyboard-response","167","615229","0.0-92.0-1.0","""event"",""trial"",""time""
""fullscreenenter"",""0"",""92110""
","
","
","""event"",""trial"",""time""
""fullscreenenter"",""0"",""92110""
","
","null","<p></p>","null","","","","","","","","","","","","","","","","","","","","","","","",""
"","do_recog","168","618317","0.0-93.0-0.0","""event"",""trial"",""time""
""fullscreenenter"",""0"",""92110""
","
","
","""event"",""trial"",""time""
""fullscreenenter"",""0"",""92110""
","
","1567.6000000014901","","","","","","","","54","","","","304","probe-220","","","","","1","[object Object]","194","4","1","","","",""
"","html-keyboard-response","169","619329","0.0-93.0-1.0","""event"",""trial"",""time""
""fullscreenenter"",""0"",""92110""
","
","
","""event"",""trial"",""time""
""fullscreenenter"",""0"",""92110""
","
","null","<p></p>","null","","","","","","","","","","","","","","","","","","","","","","","",""
"","do_trial","170","622727","0.0-94.0-0.0","""event"",""trial"",""time""
""fullscreenenter"",""0"",""92110""
","
","
","""event"",""trial"",""time""
""fullscreenenter"",""0"",""92110""
","
","790.3000000007451","","","","","","","","49","0,0,0","6","blank","305","null","0.698158775235896","0.05564915513350584","0.2473109388241494","0","","","","","","","","",""
"","html-keyboard-response","171","623731","0.0-94.0-1.0","""event"",""trial"",""time""
""fullscreenenter"",""0"",""92110""
","
","
","""event"",""trial"",""time""
""fullscreenenter"",""0"",""92110""
","
","null","<p></p>","null","","","","","","","","","","","","","","","","","","","","","","","",""
"","do_trial","172","626788","0.0-95.0-0.0","""event"",""trial"",""time""
""fullscreenenter"",""0"",""92110""
","
","
","""event"",""trial"",""time""
""fullscreenenter"",""0"",""92110""
","
","469.30000000074506","","","","","","","","50","1,1,0","6","blank","306","null","0.7569537471323671","0.16595371386706273","0.19633850327108715","1","","","","","","","","",""
"","html-keyboard-response","173","627810","0.0-95.0-1.0","""event"",""trial"",""time""
""fullscreenenter"",""0"",""92110""
","
","
","""event"",""trial"",""time""
""fullscreenenter"",""0"",""92110""
","
","null","<p></p>","null","","","","","","","","","","","","","","","","","","","","","","","",""
"","do_trial","174","631045","0.0-96.0-0.0","""event"",""trial"",""time""
""fullscreenenter"",""0"",""92110""
","
","
","""event"",""trial"",""time""
""fullscreenenter"",""0"",""92110""
","
","638.5","","","","","","","","50","1,0,1","6","blank","307","null","0.7093000945398638","0.151844488629019","0.39787574756650046","0","","","","","","","","",""
"","html-keyboard-response","175","632051","0.0-96.0-1.0","""event"",""trial"",""time""
""fullscreenenter"",""0"",""92110""
","
","
","""event"",""trial"",""time""
""fullscreenenter"",""0"",""92110""
","
","null","<p></p>","null","","","","","","","","","","","","","","","","","","","","","","","",""
"","do_trial","176","634942","0.0-97.0-0.0","""event"",""trial"",""time""
""fullscreenenter"",""0"",""92110""
","
","
","""event"",""trial"",""time""
""fullscreenenter"",""0"",""92110""
","
","293.6000000014901","","","","","","","","49","1,0,0","6","blank","308","null","0.6845782013882706","0.09187052800187587","0.33541119355341154","1","","","","","","","","",""
"","html-keyboard-response","177","635947","0.0-97.0-1.0","""event"",""trial"",""time""
""fullscreenenter"",""0"",""92110""
","
","
","""event"",""trial"",""time""
""fullscreenenter"",""0"",""92110""
","
","null","<p></p>","null","","","","","","","","","","","","","","","","","","","","","","","",""
"","break","178","637737","0.0-98.0-0.0","""event"",""trial"",""time""
""fullscreenenter"",""0"",""92110""
","
","
","""event"",""trial"",""time""
""fullscreenenter"",""0"",""92110""
","
","1787.4000000022352","<div class='center'><p>Time to take a quick break! You have 2 minutes to rest, but you can move on sooner if you'd like.</p><p> Press the <b>space bar</b> to continue.</p></div>","32","","","","","","","","","","","","","","","","","","","","","","","",""
"","do_trial","179","641992","0.0-98.0-1.0","""event"",""trial"",""time""
""fullscreenenter"",""0"",""92110""
","
","
","""event"",""trial"",""time""
""fullscreenenter"",""0"",""92110""
","
","1630.9000000022352","","","","","","","","49","1,0,0","6","blank","309","null","0.671783108886118","0.1349240396006209","0.1501294808209924","1","","","","","","","","",""
"","html-keyboard-response","180","642995","0.0-98.0-2.0","""event"",""trial"",""time""
""fullscreenenter"",""0"",""92110""
","
","
","""event"",""trial"",""time""
""fullscreenenter"",""0"",""92110""
","
","null","<p></p>","null","","","","","","","","","","","","","","","","","","","","","","","",""
"","do_trial","181","646119","0.0-99.0-0.0","""event"",""trial"",""time""
""fullscreenenter"",""0"",""92110""
","
","
","""event"",""trial"",""time""
""fullscreenenter"",""0"",""92110""
","
","491.80000000074506","","","","","","","","49","1,0,1","6","blank","310","null","0.6540303937505566","0.11293260564004687","0.2537162814801636","1","","","","","","","","",""
"","html-keyboard-response","182","647134","0.0-99.0-1.0","""event"",""trial"",""time""
""fullscreenenter"",""0"",""92110""
","
","
","""event"",""trial"",""time""
""fullscreenenter"",""0"",""92110""
","
","null","<p></p>","null","","","","","","","","","","","","","","","","","","","","","","","",""
"","do_recog","183","653170","0.0-100.0-0.0","""event"",""trial"",""time""
""fullscreenenter"",""0"",""92110""
","
","
","""event"",""trial"",""time""
""fullscreenenter"",""0"",""92110""
","
","null","","","","","","","","null","","","","311","probe-67","","","","","1","[object Object]","197","4","0","","","",""
"","html-keyboard-response","184","654180","0.0-100.0-1.0","""event"",""trial"",""time""
""fullscreenenter"",""0"",""92110""
","
","
","""event"",""trial"",""time""
""fullscreenenter"",""0"",""92110""
","
","null","<p></p>","null","","","","","","","","","","","","","","","","","","","","","","","",""
"","do_trial","185","657227","0.0-101.0-0.0","""event"",""trial"",""time""
""fullscreenenter"",""0"",""92110""
","
","
","""event"",""trial"",""time""
""fullscreenenter"",""0"",""92110""
","
","451.79999999701977","","","","","","","","49","1,1,0","6","blank","312","null","0.6401400736749072","0.08381467571006006","0.3259178128455836","1","","","","","","","","",""
"","html-keyboard-response","186","658230","0.0-101.0-1.0","""event"",""trial"",""time""
""fullscreenenter"",""0"",""92110""
","
","
","""event"",""trial"",""time""
""fullscreenenter"",""0"",""92110""
","
","null","<p></p>","null","","","","","","","","","","","","","","","","","","","","","","","",""
"","do_trial","187","660885","0.0-102.0-0.0","""event"",""trial"",""time""
""fullscreenenter"",""0"",""92110""
","
","
","""event"",""trial"",""time""
""fullscreenenter"",""0"",""92110""
","
","67.80000000074506","","","","","","","","49","1,0,0","6","blank","313","null","0.6113692921761886","0.08874900400284513","0.3411624129237802","1","","","","","","","","",""
"","html-keyboard-response","188","661916","0.0-102.0-1.0","""event"",""trial"",""time""
""fullscreenenter"",""0"",""92110""
","
","
","""event"",""trial"",""time""
""fullscreenenter"",""0"",""92110""
","
","null","<p></p>","null","","","","","","","","","","","","","","","","","","","","","","","",""
"","do_trial","189","665427","0.0-103.0-0.0","""event"",""trial"",""time""
""fullscreenenter"",""0"",""92110""
","
","
","""event"",""trial"",""time""
""fullscreenenter"",""0"",""92110""
","
","897.9000000022352","","","","","","","","49","0,1,1","6","blank","314","null","0.5528358781232684","0.11476644634710051","0.35893529852135203","0","","","","","","","","",""
"","html-keyboard-response","190","666429","0.0-103.0-1.0","""event"",""trial"",""time""
""fullscreenenter"",""0"",""92110""
","
","
","""event"",""trial"",""time""
""fullscreenenter"",""0"",""92110""
","
","null","<p></p>","null","","","","","","","","","","","","","","","","","","","","","","","",""
"","do_recog","191","670446","0.0-104.0-0.0","""event"",""trial"",""time""
""fullscreenenter"",""0"",""92110""
","
","
","""event"",""trial"",""time""
""fullscreenenter"",""0"",""92110""
","
","2494.400000002235","","","","","","","","54","","","","315","probe-136","","","","","1","[object Object]","116","2","1","","","",""
"","html-keyboard-response","192","671454","0.0-104.0-1.0","""event"",""trial"",""time""
""fullscreenenter"",""0"",""92110""
","
","
","""event"",""trial"",""time""
""fullscreenenter"",""0"",""92110""
","
","null","<p></p>","null","","","","","","","","","","","","","","","","","","","","","","","",""
"","do_trial","193","674651","0.0-105.0-0.0","""event"",""trial"",""time""
""fullscreenenter"",""0"",""92110""
","
","
","""event"",""trial"",""time""
""fullscreenenter"",""0"",""92110""
","
","608","","","","","","","","49","1,0,1","6","blank","316","null","0.6042323761122913","0.12291531434219036","0.33869005178603334","1","","","","","","","","",""
"","html-keyboard-response","194","675666","0.0-105.0-1.0","""event"",""trial"",""time""
""fullscreenenter"",""0"",""92110""
","
","
","""event"",""trial"",""time""
""fullscreenenter"",""0"",""92110""
","
","null","<p></p>","null","","","","","","","","","","","","","","","","","","","","","","","",""
"","do_recog","195","679805","0.0-106.0-0.0","""event"",""trial"",""time""
""fullscreenenter"",""0"",""92110""
","
","
","""event"",""trial"",""time""
""fullscreenenter"",""0"",""92110""
","
","2624.7999999970198","","","","","","","","53","","","","317","probe-86","","","","","1","[object Object]","38","0","1","","","",""
"","html-keyboard-response","196","680810","0.0-106.0-1.0","""event"",""trial"",""time""
""fullscreenenter"",""0"",""92110""
","
","
","""event"",""trial"",""time""
""fullscreenenter"",""0"",""92110""
","
","null","<p></p>","null","","","","","","","","","","","","","","","","","","","","","","","",""
"","do_trial","197","684420","0.0-107.0-0.0","""event"",""trial"",""time""
""fullscreenenter"",""0"",""92110""
","
","
","""event"",""trial"",""time""
""fullscreenenter"",""0"",""92110""
","
","1011.6999999992549","","","","","","","","49","1,0,1","6","blank","318","null","0.6945629245631725","0.053935667885485365","0.3791768785979306","1","","","","","","","","",""
"","html-keyboard-response","198","685443","0.0-107.0-1.0","""event"",""trial"",""time""
""fullscreenenter"",""0"",""92110""
","
","
","""event"",""trial"",""time""
""fullscreenenter"",""0"",""92110""
","
","null","<p></p>","null","","","","","","","","","","","","","","","","","","","","","","","",""
"","do_trial","199","688910","0.0-108.0-0.0","""event"",""trial"",""time""
""fullscreenenter"",""0"",""92110""
","
","
","""event"",""trial"",""time""
""fullscreenenter"",""0"",""92110""
","
","836.1999999992549","","","","","","","","49","1,0,0","6","blank","319","null","0.7120641756123014","0.10019267680177092","0.2884609338050325","1","","","","","","","","",""
"","html-keyboard-response","200","689913","0.0-108.0-1.0","""event"",""trial"",""time""
""fullscreenenter"",""0"",""92110""
","
","
","""event"",""trial"",""time""
""fullscreenenter"",""0"",""92110""
","
","null","<p></p>","null","","","","","","","","","","","","","","","","","","","","","","","",""
"","do_recog","201","693671","0.0-109.0-0.0","""event"",""trial"",""time""
""fullscreenenter"",""0"",""92110""
","
","
","""event"",""trial"",""time""
""fullscreenenter"",""0"",""92110""
","
","2239.60000000149","","","","","","","","53","","","","320","probe-231","","","","","0","[object Object]","null","null","0","","","",""
"","html-keyboard-response","202","694686","0.0-109.0-1.0","""event"",""trial"",""time""
""fullscreenenter"",""0"",""92110""
","
","
","""event"",""trial"",""time""
""fullscreenenter"",""0"",""92110""
","
","null","<p></p>","null","","","","","","","","","","","","","","","","","","","","","","","",""
"","do_trial","203","698311","0.0-110.0-0.0","""event"",""trial"",""time""
""fullscreenenter"",""0"",""92110""
","
","
","""event"",""trial"",""time""
""fullscreenenter"",""0"",""92110""
","
","1043.8999999985099","","","","","","","","49","1,0,0","6","blank","321","null","0.7043612809789324","0.17293556822909506","0.3594846746407475","1","","","","","","","","",""
"","html-keyboard-response","204","699317","0.0-110.0-1.0","""event"",""trial"",""time""
""fullscreenenter"",""0"",""92110""
","
","
","""event"",""trial"",""time""
""fullscreenenter"",""0"",""92110""
","
","null","<p></p>","null","","","","","","","","","","","","","","","","","","","","","","","",""
"","do_trial","205","702296","0.0-111.0-0.0","""event"",""trial"",""time""
""fullscreenenter"",""0"",""92110""
","
","
","""event"",""trial"",""time""
""fullscreenenter"",""0"",""92110""
","
","378.5","","","","","","","","49","0,0,0","6","blank","322","null","0.6700081443657877","0.19934726437392464","0.29665528262071256","0","","","","","","","","",""
"","html-keyboard-response","206","703299","0.0-111.0-1.0","""event"",""trial"",""time""
""fullscreenenter"",""0"",""92110""
","
","
","""event"",""trial"",""time""
""fullscreenenter"",""0"",""92110""
","
","null","<p></p>","null","","","","","","","","","","","","","","","","","","","","","","","",""
"","do_recog","207","707345","0.0-112.0-0.0","""event"",""trial"",""time""
""fullscreenenter"",""0"",""92110""
","
","
","""event"",""trial"",""time""
""fullscreenenter"",""0"",""92110""
","
","2514.900000002235","","","","","","","","53","","","","323","probe-253","","","","","0","[object Object]","null","null","0","","","",""
"","html-keyboard-response","208","708350","0.0-112.0-1.0","""event"",""trial"",""time""
""fullscreenenter"",""0"",""92110""
","
","
","""event"",""trial"",""time""
""fullscreenenter"",""0"",""92110""
","
","null","<p></p>","null","","","","","","","","","","","","","","","","","","","","","","","",""
"","do_trial","209","712665","0.0-113.0-0.0","""event"",""trial"",""time""
""fullscreenenter"",""0"",""92110""
","
","
","""event"",""trial"",""time""
""fullscreenenter"",""0"",""92110""
","
","1712.199999999255","","","","","","","","49","1,0,0","6","blank","324","null","0.6485772415810384","0.07092620502409014","0.3052418521709999","1","","","","","","","","",""
"","html-keyboard-response","210","713682","0.0-113.0-1.0","""event"",""trial"",""time""
""fullscreenenter"",""0"",""92110""
","
","
","""event"",""trial"",""time""
""fullscreenenter"",""0"",""92110""
","
","null","<p></p>","null","","","","","","","","","","","","","","","","","","","","","","","",""
"","do_recog","211","717919","0.0-114.0-0.0","""event"",""trial"",""time""
""fullscreenenter"",""0"",""92110""
","
","
","""event"",""trial"",""time""
""fullscreenenter"",""0"",""92110""
","
","2725.10000000149","","","","","","","","56","","","","325","probe-236","","","","","0","[object Object]","null","null","1","","","",""
"","html-keyboard-response","212","718938","0.0-114.0-1.0","""event"",""trial"",""time""
""fullscreenenter"",""0"",""92110""
","
","
","""event"",""trial"",""time""
""fullscreenenter"",""0"",""92110""
","
","null","<p></p>","null","","","","","","","","","","","","","","","","","","","","","","","",""
"","do_trial","213","722437","0.0-115.0-0.0","""event"",""trial"",""time""
""fullscreenenter"",""0"",""92110""
","
","
","""event"",""trial"",""time""
""fullscreenenter"",""0"",""92110""
","
","906.6999999992549","","","","","","","","49","1,0,0","6","blank","326","null","0.6536065255767403","0.14411599485566778","0.2575431200111814","1","","","","","","","","",""
"","html-keyboard-response","214","723454","0.0-115.0-1.0","""event"",""trial"",""time""
""fullscreenenter"",""0"",""92110""
","
","
","""event"",""trial"",""time""
""fullscreenenter"",""0"",""92110""
","
","null","<p></p>","null","","","","","","","","","","","","","","","","","","","","","","","",""
"","do_recog","215","727399","0.0-116.0-0.0","""event"",""trial"",""time""
""fullscreenenter"",""0"",""92110""
","
","
","""event"",""trial"",""time""
""fullscreenenter"",""0"",""92110""
","
","2420","","","","","","","","56","","","","327","probe-238","","","","","0","[object Object]","null","null","1","","","",""
"","html-keyboard-response","216","728408","0.0-116.0-1.0","""event"",""trial"",""time""
""fullscreenenter"",""0"",""92110""
","
","
","""event"",""trial"",""time""
""fullscreenenter"",""0"",""92110""
","
","null","<p></p>","null","","","","","","","","","","","","","","","","","","","","","","","",""
"","do_trial","217","731923","0.0-117.0-0.0","""event"",""trial"",""time""
""fullscreenenter"",""0"",""92110""
","
","
","""event"",""trial"",""time""
""fullscreenenter"",""0"",""92110""
","
","905.3000000007451","","","","","","","","49","1,1,0","6","blank","328","null","0.6890025530679945","0.06355841599915003","0.284385381099772","1","","","","","","","","",""
"","html-keyboard-response","218","732928","0.0-117.0-1.0","""event"",""trial"",""time""
""fullscreenenter"",""0"",""92110""
","
","
","""event"",""trial"",""time""
""fullscreenenter"",""0"",""92110""
","
","null","<p></p>","null","","","","","","","","","","","","","","","","","","","","","","","",""
"","do_recog","219","738956","0.0-118.0-0.0","""event"",""trial"",""time""
""fullscreenenter"",""0"",""92110""
","
","
","""event"",""trial"",""time""
""fullscreenenter"",""0"",""92110""
","
","null","","","","","","","","null","","","","329","probe-164","","","","","1","[object Object]","114","2","0","","","",""
"","html-keyboard-response","220","739967","0.0-118.0-1.0","""event"",""trial"",""time""
""fullscreenenter"",""0"",""92110""
","
","
","""event"",""trial"",""time""
""fullscreenenter"",""0"",""92110""
","
","null","<p></p>","null","","","","","","","","","","","","","","","","","","","","","","","",""
"","do_trial","221","743366","0.0-119.0-0.0","""event"",""trial"",""time""
""fullscreenenter"",""0"",""92110""
","
","
","""event"",""trial"",""time""
""fullscreenenter"",""0"",""92110""
","
","806","","","","","","","","49","0,0,1","6","blank","330","null","0.6346492938763817","0.28287613429878733","0.39410481044547097","0","","","","","","","","",""
"","html-keyboard-response","222","744380","0.0-119.0-1.0","""event"",""trial"",""time""
""fullscreenenter"",""0"",""92110""
","
","
","""event"",""trial"",""time""
""fullscreenenter"",""0"",""92110""
","
","null","<p></p>","null","","","","","","","","","","","","","","","","","","","","","","","",""
"","do_trial","223","747353","0.0-120.0-0.0","""event"",""trial"",""time""
""fullscreenenter"",""0"",""92110""
","
","
","""event"",""trial"",""time""
""fullscreenenter"",""0"",""92110""
","
","416.79999999701977","","","","","","","","50","1,0,0","6","blank","331","null","0.5498216678128292","0.19141015009472967","0.27904033553214824","0","","","","","","","","",""
"","html-keyboard-response","224","748374","0.0-120.0-1.0","""event"",""trial"",""time""
""fullscreenenter"",""0"",""92110""
","
","
","""event"",""trial"",""time""
""fullscreenenter"",""0"",""92110""
","
","null","<p></p>","null","","","","","","","","","","","","","","","","","","","","","","","",""
"","do_trial","225","751307","0.0-121.0-0.0","""event"",""trial"",""time""
""fullscreenenter"",""0"",""92110""
","
","
","""event"",""trial"",""time""
""fullscreenenter"",""0"",""92110""
","
","349.69999999925494","","","","","","","","50","1,0,1","6","blank","332","null","0.5681679559109992","0.20396097269810232","0.43369055718768834","0","","","","","","","","",""
"","html-keyboard-response","226","752319","0.0-121.0-1.0","""event"",""trial"",""time""
""fullscreenenter"",""0"",""92110""
","
","
","""event"",""trial"",""time""
""fullscreenenter"",""0"",""92110""
","
","null","<p></p>","null","","","","","","","","","","","","","","","","","","","","","","","",""
"","do_trial","227","755346","0.0-122.0-0.0","""event"",""trial"",""time""
""fullscreenenter"",""0"",""92110""
","
","
","""event"",""trial"",""time""
""fullscreenenter"",""0"",""92110""
","
","402.4000000022352","","","","","","","","49","1,0,0","6","blank","333","null","0.5509068770836241","0.060890352869762285","0.5200967567638253","1","","","","","","","","",""
"","html-keyboard-response","228","756361","0.0-122.0-1.0","""event"",""trial"",""time""
""fullscreenenter"",""0"",""92110""
","
","
","""event"",""trial"",""time""
""fullscreenenter"",""0"",""92110""
","
","null","<p></p>","null","","","","","","","","","","","","","","","","","","","","","","","",""
"","do_trial","229","759865","0.0-123.0-0.0","""event"",""trial"",""time""
""fullscreenenter"",""0"",""92110""
","
","
","""event"",""trial"",""time""
""fullscreenenter"",""0"",""92110""
","
","924.3999999985099","","","","","","","","49","1,0,0","6","blank","334","null","0.6015689103067857","0.12313014968471037","0.24595529685125372","1","","","","","","","","",""
"","html-keyboard-response","230","760868","0.0-123.0-1.0","""event"",""trial"",""time""
""fullscreenenter"",""0"",""92110""
","
","
","""event"",""trial"",""time""
""fullscreenenter"",""0"",""92110""
","
","null","<p></p>","null","","","","","","","","","","","","","","","","","","","","","","","",""
"","do_recog","231","766898","0.0-124.0-0.0","""event"",""trial"",""time""
""fullscreenenter"",""0"",""92110""
","
","
","""event"",""trial"",""time""
""fullscreenenter"",""0"",""92110""
","
","null","","","","","","","","null","","","","335","probe-126","","","","","1","[object Object]","115","2","0","","","",""
"","html-keyboard-response","232","767908","0.0-124.0-1.0","""event"",""trial"",""time""
""fullscreenenter"",""0"",""92110""
","
","
","""event"",""trial"",""time""
""fullscreenenter"",""0"",""92110""
","
","null","<p></p>","null","","","","","","","","","","","","","","","","","","","","","","","",""
"","do_trial","233","771538","0.0-125.0-0.0","""event"",""trial"",""time""
""fullscreenenter"",""0"",""92110""
","
","
","""event"",""trial"",""time""
""fullscreenenter"",""0"",""92110""
","
","1011.5999999977648","","","","","","","","49","0,0,0","6","blank","336","null","0.6751233206824118","0.08294524289552214","0.2060222707950124","0","","","","","","","","",""
"","html-keyboard-response","234","772550","0.0-125.0-1.0","""event"",""trial"",""time""
""fullscreenenter"",""0"",""92110""
","
","
","""event"",""trial"",""time""
""fullscreenenter"",""0"",""92110""
","
","null","<p></p>","null","","","","","","","","","","","","","","","","","","","","","","","",""
"","do_trial","235","775449","0.0-126.0-0.0","""event"",""trial"",""time""
""fullscreenenter"",""0"",""92110""
","
","
","""event"",""trial"",""time""
""fullscreenenter"",""0"",""92110""
","
","283.3999999985099","","","","","","","","50","1,0,1","6","blank","337","null","0.6020565798460509","0.19314180414698826","0.31036618272291416","0","","","","","","","","",""
"","html-keyboard-response","236","776457","0.0-126.0-1.0","""event"",""trial"",""time""
""fullscreenenter"",""0"",""92110""
","
","
","""event"",""trial"",""time""
""fullscreenenter"",""0"",""92110""
","
","null","<p></p>","null","","","","","","","","","","","","","","","","","","","","","","","",""
"","do_recog","237","780647","0.0-127.0-0.0","""event"",""trial"",""time""
""fullscreenenter"",""0"",""92110""
","
","
","""event"",""trial"",""time""
""fullscreenenter"",""0"",""92110""
","
","2672.800000000745","","","","","","","","56","","","","338","probe-14","","","","","1","[object Object]","158","3","0","","","",""
"","html-keyboard-response","238","781653","0.0-127.0-1.0","""event"",""trial"",""time""
""fullscreenenter"",""0"",""92110""
","
","
","""event"",""trial"",""time""
""fullscreenenter"",""0"",""92110""
","
","null","<p></p>","null","","","","","","","","","","","","","","","","","","","","","","","",""
"","do_trial","239","785080","0.0-128.0-0.0","""event"",""trial"",""time""
""fullscreenenter"",""0"",""92110""
","
","
","""event"",""trial"",""time""
""fullscreenenter"",""0"",""92110""
","
","834.3000000007451","","","","","","","","49","0,0,0","6","blank","339","null","0.6540005201399525","0.08212286508566116","0.39481863930064315","0","","","","","","","","",""
"","html-keyboard-response","240","786083","0.0-128.0-1.0","""event"",""trial"",""time""
""fullscreenenter"",""0"",""92110""
","
","
","""event"",""trial"",""time""
""fullscreenenter"",""0"",""92110""
","
","null","<p></p>","null","","","","","","","","","","","","","","","","","","","","","","","",""
"","do_trial","241","789153","0.0-129.0-0.0","""event"",""trial"",""time""
""fullscreenenter"",""0"",""92110""
","
","
","""event"",""trial"",""time""
""fullscreenenter"",""0"",""92110""
","
","482.3999999985099","","","","","","","","51","1,0,0","6","blank","340","null","0.7309818737399669","0.07024609381164643","0.3565104233591571","0","","","","","","","","",""
"","html-keyboard-response","242","790160","0.0-129.0-1.0","""event"",""trial"",""time""
""fullscreenenter"",""0"",""92110""
","
","
","""event"",""trial"",""time""
""fullscreenenter"",""0"",""92110""
","
","null","<p></p>","null","","","","","","","","","","","","","","","","","","","","","","","",""
"","do_recog","243","794343","0.0-130.0-0.0","""event"",""trial"",""time""
""fullscreenenter"",""0"",""92110""
","
","
","""event"",""trial"",""time""
""fullscreenenter"",""0"",""92110""
","
","2661.599999997765","","","","","","","","56","","","","341","probe-01","","","","","1","[object Object]","35","0","0","","","",""
"","html-keyboard-response","244","795359","0.0-130.0-1.0","""event"",""trial"",""time""
""fullscreenenter"",""0"",""92110""
","
","
","""event"",""trial"",""time""
""fullscreenenter"",""0"",""92110""
","
","null","<p></p>","null","","","","","","","","","","","","","","","","","","","","","","","",""
"","do_trial","245","799390","0.0-131.0-0.0","""event"",""trial"",""time""
""fullscreenenter"",""0"",""92110""
","
","
","""event"",""trial"",""time""
""fullscreenenter"",""0"",""92110""
","
","1426.6000000014901","","","","","","","","49","1,0,0","6","blank","342","null","0.7228842969191812","0.07363857851259714","0.4446657894227185","1","","","","","","","","",""
"","html-keyboard-response","246","800400","0.0-131.0-1.0","""event"",""trial"",""time""
""fullscreenenter"",""0"",""92110""
","
","
","""event"",""trial"",""time""
""fullscreenenter"",""0"",""92110""
","
","null","<p></p>","null","","","","","","","","","","","","","","","","","","","","","","","",""
"","do_trial","247","803537","0.0-132.0-0.0","""event"",""trial"",""time""
""fullscreenenter"",""0"",""92110""
","
","
","""event"",""trial"",""time""
""fullscreenenter"",""0"",""92110""
","
","555.4000000022352","","","","","","","","49","0,0,0","6","blank","343","null","0.5637817412817502","0.19608816057471196","0.33910531967851965","0","","","","","","","","",""
"","html-keyboard-response","248","804554","0.0-132.0-1.0","""event"",""trial"",""time""
""fullscreenenter"",""0"",""92110""
","
","
","""event"",""trial"",""time""
""fullscreenenter"",""0"",""92110""
","
","null","<p></p>","null","","","","","","","","","","","","","","","","","","","","","","","",""
"","do_trial","249","807327","0.0-133.0-0.0","""event"",""trial"",""time""
""fullscreenenter"",""0"",""92110""
","
","
","""event"",""trial"",""time""
""fullscreenenter"",""0"",""92110""
","
","148.39999999850988","","","","","","","","50","1,0,0","6","blank","344","null","0.6962039753904877","0.09560990549676662","0.331461209938896","0","","","","","","","","",""
"","html-keyboard-response","250","808338","0.0-133.0-1.0","""event"",""trial"",""time""
""fullscreenenter"",""0"",""92110""
","
","
","""event"",""trial"",""time""
""fullscreenenter"",""0"",""92110""
","
","null","<p></p>","null","","","","","","","","","","","","","","","","","","","","","","","",""
"","do_recog","251","812102","0.0-134.0-0.0","""event"",""trial"",""time""
""fullscreenenter"",""0"",""92110""
","
","
","""event"",""trial"",""time""
""fullscreenenter"",""0"",""92110""
","
","2245.699999999255","","","","","","","","56","","","","345","probe-68","","","","","1","[object Object]","193","4","0","","","",""
"","html-keyboard-response","252","813112","0.0-134.0-1.0","""event"",""trial"",""time""
""fullscreenenter"",""0"",""92110""
","
","
","""event"",""trial"",""time""
""fullscreenenter"",""0"",""92110""
","
","null","<p></p>","null","","","","","","","","","","","","","","","","","","","","","","","",""
"","do_trial","253","816783","0.0-135.0-0.0","""event"",""trial"",""time""
""fullscreenenter"",""0"",""92110""
","
","
","""event"",""trial"",""time""
""fullscreenenter"",""0"",""92110""
","
","1079","","","","","","","","49","0,0,0","6","blank","346","null","0.7125493478662256","0.06616353236501306","0.3504832509212539","0","","","","","","","","",""
"","html-keyboard-response","254","817794","0.0-135.0-1.0","""event"",""trial"",""time""
""fullscreenenter"",""0"",""92110""
","
","
","""event"",""trial"",""time""
""fullscreenenter"",""0"",""92110""
","
","null","<p></p>","null","","","","","","","","","","","","","","","","","","","","","","","",""
"","do_recog","255","822305","0.0-136.0-0.0","""event"",""trial"",""time""
""fullscreenenter"",""0"",""92110""
","
","
","""event"",""trial"",""time""
""fullscreenenter"",""0"",""92110""
","
","2990","","","","","","","","54","","","","347","probe-70","","","","","1","[object Object]","79","1","1","","","",""
"","html-keyboard-response","256","823323","0.0-136.0-1.0","""event"",""trial"",""time""
""fullscreenenter"",""0"",""92110""
","
","
","""event"",""trial"",""time""
""fullscreenenter"",""0"",""92110""
","
","null","<p></p>","null","","","","","","","","","","","","","","","","","","","","","","","",""
"","do_trial","257","826652","0.0-137.0-0.0","""event"",""trial"",""time""
""fullscreenenter"",""0"",""92110""
","
","
","""event"",""trial"",""time""
""fullscreenenter"",""0"",""92110""
","
","740.2999999970198","","","","","","","","49","1,0,0","6","blank","348","null","0.5826303926968299","0.1016399306930422","0.33407564389469957","1","","","","","","","","",""
"","html-keyboard-response","258","827655","0.0-137.0-1.0","""event"",""trial"",""time""
""fullscreenenter"",""0"",""92110""
","
","
","""event"",""trial"",""time""
""fullscreenenter"",""0"",""92110""
","
","null","<p></p>","null","","","","","","","","","","","","","","","","","","","","","","","",""
"","break","259","855519","0.0-138.0-0.0","""event"",""trial"",""time""
""fullscreenenter"",""0"",""92110""
","
","
","""event"",""trial"",""time""
""fullscreenenter"",""0"",""92110""
","
","27861.699999999255","<div class='center'><p>Time to take a quick break! You have 2 minutes to rest, but you can move on sooner if you'd like.</p><p> Press the <b>space bar</b> to continue.</p></div>","32","","","","","","","","","","","","","","","","","","","","","","","",""
"","do_recog","260","860056","0.0-138.0-1.0","""event"",""trial"",""time""
""fullscreenenter"",""0"",""92110""
","
","
","""event"",""trial"",""time""
""fullscreenenter"",""0"",""92110""
","
","3012.10000000149","","","","","","","","53","","","","349","probe-57","","","","","1","[object Object]","73","1","1","","","",""
"","html-keyboard-response","261","861064","0.0-138.0-2.0","""event"",""trial"",""time""
""fullscreenenter"",""0"",""92110""
","
","
","""event"",""trial"",""time""
""fullscreenenter"",""0"",""92110""
","
","null","<p></p>","null","","","","","","","","","","","","","","","","","","","","","","","",""
"","do_trial","262","864803","0.0-139.0-0.0","""event"",""trial"",""time""
""fullscreenenter"",""0"",""92110""
","
","
","""event"",""trial"",""time""
""fullscreenenter"",""0"",""92110""
","
","1085.199999999255","","","","","","","","49","1,0,1","6","blank","350","null","0.7532685000506625","0.06419629893143391","0.26593819777691297","1","","","","","","","","",""
"","html-keyboard-response","263","865814","0.0-139.0-1.0","""event"",""trial"",""time""
""fullscreenenter"",""0"",""92110""
","
","
","""event"",""trial"",""time""
""fullscreenenter"",""0"",""92110""
","
","null","<p></p>","null","","","","","","","","","","","","","","","","","","","","","","","",""
"","do_recog","264","871840","0.0-140.0-0.0","""event"",""trial"",""time""
""fullscreenenter"",""0"",""92110""
","
","
","""event"",""trial"",""time""
""fullscreenenter"",""0"",""92110""
","
","null","","","","","","","","null","","","","351","probe-25","","","","","1","[object Object]","118","2","0","","","",""
"","html-keyboard-response","265","872849","0.0-140.0-1.0","""event"",""trial"",""time""
""fullscreenenter"",""0"",""92110""
","
","
","""event"",""trial"",""time""
""fullscreenenter"",""0"",""92110""
","
","null","<p></p>","null","","","","","","","","","","","","","","","","","","","","","","","",""
"","do_trial","266","875993","0.0-141.0-0.0","""event"",""trial"",""time""
""fullscreenenter"",""0"",""92110""
","
","
","""event"",""trial"",""time""
""fullscreenenter"",""0"",""92110""
","
","560.8000000007451","","","","","","","","49","1,0,1","6","blank","352","null","0.533736707539251","0.1549255966729416","0.30320617018936274","1","","","","","","","","",""
"","html-keyboard-response","267","877005","0.0-141.0-1.0","""event"",""trial"",""time""
""fullscreenenter"",""0"",""92110""
","
","
","""event"",""trial"",""time""
""fullscreenenter"",""0"",""92110""
","
","null","<p></p>","null","","","","","","","","","","","","","","","","","","","","","","","",""
"","do_recog","268","880171","0.0-142.0-0.0","""event"",""trial"",""time""
""fullscreenenter"",""0"",""92110""
","
","
","""event"",""trial"",""time""
""fullscreenenter"",""0"",""92110""
","
","1639.699999999255","","","","","","","","54","","","","353","probe-35","","","","","1","[object Object]","151","3","1","","","",""
"","html-keyboard-response","269","881187","0.0-142.0-1.0","""event"",""trial"",""time""
""fullscreenenter"",""0"",""92110""
","
","
","""event"",""trial"",""time""
""fullscreenenter"",""0"",""92110""
","
","null","<p></p>","null","","","","","","","","","","","","","","","","","","","","","","","",""
"","do_trial","270","884615","0.0-143.0-0.0","""event"",""trial"",""time""
""fullscreenenter"",""0"",""92110""
","
","
","""event"",""trial"",""time""
""fullscreenenter"",""0"",""92110""
","
","819.6999999992549","","","","","","","","49","0,0,0","6","blank","354","null","0.43725064964447236","0.19480077685894123","0.3331656564549877","0","","","","","","","","",""
"","html-keyboard-response","271","885618","0.0-143.0-1.0","""event"",""trial"",""time""
""fullscreenenter"",""0"",""92110""
","
","
","""event"",""trial"",""time""
""fullscreenenter"",""0"",""92110""
","
","null","<p></p>","null","","","","","","","","","","","","","","","","","","","","","","","",""
"","do_trial","272","888857","0.0-144.0-0.0","""event"",""trial"",""time""
""fullscreenenter"",""0"",""92110""
","
","
","""event"",""trial"",""time""
""fullscreenenter"",""0"",""92110""
","
","631.3999999985099","","","","","","","","51","1,1,1","6","blank","355","null","0.294779693631471","0.21117701699812574","0.3919410035897903","1","","","","","","","","",""
"","html-keyboard-response","273","889873","0.0-144.0-1.0","""event"",""trial"",""time""
""fullscreenenter"",""0"",""92110""
","
","
","""event"",""trial"",""time""
""fullscreenenter"",""0"",""92110""
","
","null","<p></p>","null","","","","","","","","","","","","","","","","","","","","","","","",""
"","do_trial","274","892921","0.0-145.0-0.0","""event"",""trial"",""time""
""fullscreenenter"",""0"",""92110""
","
","
","""event"",""trial"",""time""
""fullscreenenter"",""0"",""92110""
","
","455.3999999985099","","","","","","","","51","0,0,0","6","blank","356","null","0.1531263324203899","0.33659790045480764","0.31105405197554237","0","","","","","","","","",""
"","html-keyboard-response","275","893940","0.0-145.0-1.0","""event"",""trial"",""time""
""fullscreenenter"",""0"",""92110""
","
","
","""event"",""trial"",""time""
""fullscreenenter"",""0"",""92110""
","
","null","<p></p>","null","","","","","","","","","","","","","","","","","","","","","","","",""
"","do_trial","276","896844","0.0-146.0-0.0","""event"",""trial"",""time""
""fullscreenenter"",""0"",""92110""
","
","
","""event"",""trial"",""time""
