"success","trial_type","trial_index","time_elapsed","internal_node_id","interactions","blur_events","focus_events","fullscreenenter_events","fullscreenexit_events","rt","stimulus","key_press","subject_id","participant_id","age","gender","prompt","response","choice_outcomes","context_n","context_img_id","trial_n","probe_img_id","pR_red","pR_white","pR_black","outcome","is_valid","image_to_show","probed_trial","probed_context","correct","probe","probed_trial_n","probed_context_n","context_im"
"true","fullscreen","0","19081","0.0-0.0","""event"",""trial"",""time""
""fullscreenenter"",""0"",""18095""
","
","
","""event"",""trial"",""time""
""fullscreenenter"",""0"",""18095""
","
","","","","","","","","","","","","","","","","","","","","","","","","","","",""
"","pavlovia","1","19086","0.0-1.0","""event"",""trial"",""time""
""fullscreenenter"",""0"",""18095""
","
","
","""event"",""trial"",""time""
""fullscreenenter"",""0"",""18095""
","
","","","","","","","","","","","","","","","","","","","","","","","","","","",""
"","welc_back","2","29306","0.0-2.0","""event"",""trial"",""time""
""fullscreenenter"",""0"",""18095""
","
","
","""event"",""trial"",""time""
""fullscreenenter"",""0"",""18095""
","
","null","run_exp/static/audio/clip_29_welcome_back.m4a","null","877","1148","20","Male","<div class='center'><p>Welcome to day 2!</p><p> Yesterday, you were the head captain of a pirate ship. You asked your fellow pirates to rob other ships of their gold across six different islands.</p></div>","","","","","","","","","","","","","","","","","","",""
"","html-keyboard-response","3","32082","0.0-3.0","""event"",""trial"",""time""
""fullscreenenter"",""0"",""18095""
","
","
","""event"",""trial"",""time""
""fullscreenenter"",""0"",""18095""
","
","2774.199999809265","<div class='center'><p>Welcome to day 2!</p><p> Yesterday, you were the head captain of a pirate ship. You asked your fellow pirates to rob other ships of their gold across six different islands.</p><p><b>[Press the space bar to continue]</b></p></div>","32","","","","","","","","","","","","","","","","","","","","","","","",""
"","day_1_summary_goal","4","49265","0.0-4.0","""event"",""trial"",""time""
""fullscreenenter"",""0"",""18095""
","
","
","""event"",""trial"",""time""
""fullscreenenter"",""0"",""18095""
","
","null","run_exp/static/audio/clip_30_goal_of_game.m4a","null","","","","","<div class='center'><p>Today, like yesterday, you get to pick which pirate you want to rob the next ship.</p><p>If the pirate is successful in robbing a ship, you get gold coins that look like this: </p><p><img src='run_exp/static/images/tutorial/reward.png' height='150'></p><p> If they were not successful in robbing the ship, then you will get no gold coins and you'll see a big red x like this: </p><p><img src='run_exp/static/images/tutorial/reward_no.png' height='150'></p></div>","","","","","","","","","","","","","","","","","","",""
"","html-keyboard-response","5","58000","0.0-5.0","""event"",""trial"",""time""
""fullscreenenter"",""0"",""18095""
","
","
","""event"",""trial"",""time""
""fullscreenenter"",""0"",""18095""
","
","8733.699999809265","<div class='center'><p>Today, like yesterday, you get to pick which pirate you want to rob the next ship.</p><p>If the pirate is successful in robbing a ship, you get gold coins that look like this: </p><p><img src='run_exp/static/images/tutorial/reward.png' height='150'></p><p> If they were not successful in robbing the ship, then you will get no gold coins and you'll see a big red x like this: </p><p><img src='run_exp/static/images/tutorial/reward_no.png' height='150'></p><p><b>[Press the space bar to continue]</b></p></div>","32","","","","","","","","","","","","","","","","","","","","","","","",""
"","day_1_summary_pick","6","72684","0.0-6.0","""event"",""trial"",""time""
""fullscreenenter"",""0"",""18095""
","
","
","""event"",""trial"",""time""
""fullscreenenter"",""0"",""18095""
","
","null","run_exp/static/audio/clip_31_how_to_pick_a_pirate.m4a","null","","","","","<div class='center'><p>Also, just like yesterday, you will use the 1,2,3 keys on your keyboard to pick a pirate. Press '1' to choose red beard, '2' to choose white beard, and '3' to choose black beard . You only have 3 seconds to pick a pirate, so please make a choice quickly!</p></div>","","","","","","","","","","","","","","","","","","",""
"","html-keyboard-response","7","74368","0.0-7.0","""event"",""trial"",""time""
""fullscreenenter"",""0"",""18095""
","
","
","""event"",""trial"",""time""
""fullscreenenter"",""0"",""18095""
","
","1683","<div class='center'><p>Also, just like yesterday, you will use the 1,2,3 keys on your keyboard to pick a pirate. Press '1' to choose red beard, '2' to choose white beard, and '3' to choose black beard . You only have 3 seconds to pick a pirate, so please make a choice quickly!</p><p><b>[Press the space bar to continue]</b></p></div>","32","","","","","","","","","","","","","","","","","","","","","","","",""
"","test_phase_begin","8","104744","0.0-8.0","""event"",""trial"",""time""
""fullscreenenter"",""0"",""18095""
","
","
","""event"",""trial"",""time""
""fullscreenenter"",""0"",""18095""
","
","null","run_exp/static/audio/clip_32_final_place.m4a","null","","","","","<div class='center'><p>You’ve arrived at the final island of your journey! Unfortunately, it’s very foggy out, so you won’t be able to see it in the distance like the other islands you've visited.</p><p>You’ll still be deciding which pirate you want to rob a ship like before. However, because of the fog, you also won’t be able to see the ship.</p><p>This means you do not have to remember the ships you rob on this island.</p><p>Unlike yesterday, you won't be visiting multiple islands today. You will stay on this island for the entire game. This game will last ~30 minutes.</p></div>","","","","","","","","","","","","","","","","","","",""
"","html-keyboard-response","9","108921","0.0-9.0","""event"",""trial"",""time""
""fullscreenenter"",""0"",""18095""
","
","
","""event"",""trial"",""time""
""fullscreenenter"",""0"",""18095""
","
","4176.599999904633","<div class='center'><p>You’ve arrived at the final island of your journey! Unfortunately, it’s very foggy out, so you won’t be able to see it in the distance like the other islands you've visited.</p><p>You’ll still be deciding which pirate you want to rob a ship like before. However, because of the fog, you also won’t be able to see the ship.</p><p>This means you do not have to remember the ships you rob on this island.</p><p>Unlike yesterday, you won't be visiting multiple islands today. You will stay on this island for the entire game. This game will last ~30 minutes.</p><p><b>[Press the space bar to continue]</b></p></div>","32","","","","","","","","","","","","","","","","","","","","","","","",""
"","explain_probe_1","10","116624","0.0-10.0","""event"",""trial"",""time""
""fullscreenenter"",""0"",""18095""
","
","
","""event"",""trial"",""time""
""fullscreenenter"",""0"",""18095""
","
","null","run_exp/static/audio/clip_33_recognition_1.m4a","null","","","","","<div class='center'><p> Sometimes you’ll be shown a ship, and you will be asked if you saw this ship on a past island.</p><p> Here is an example of what you will see.</p><p><img src='run_exp/static/images/tutorial/example_recog_trial.png' height='500'></p></div>","","","","","","","","","","","","","","","","","","",""
"","html-keyboard-response","11","123081","0.0-11.0","""event"",""trial"",""time""
""fullscreenenter"",""0"",""18095""
","
","
","""event"",""trial"",""time""
""fullscreenenter"",""0"",""18095""
","
","6455.700000047684","<div class='center'><p> Sometimes you’ll be shown a ship, and you will be asked if you saw this ship on a past island.</p><p> Here is an example of what you will see.</p><p><img src='run_exp/static/images/tutorial/example_recog_trial.png' height='500'></p><p><b>[Press the space bar to continue]</b></p></div>","32","","","","","","","","","","","","","","","","","","","","","","","",""
"","explain_probe_2","12","144784","0.0-12.0","""event"",""trial"",""time""
""fullscreenenter"",""0"",""18095""
","
","
","""event"",""trial"",""time""
""fullscreenenter"",""0"",""18095""
","
","null","run_exp/static/audio/clip_34_recognition_2.m4a","null","","","","","<div class='center'><p> You will press the 5, 6, 7, 8 keys on your keyboard to respond.</p><p>If you are sure you saw the ship, press <b>5</b> on your keyboard.</p><p> If you think you saw it before but aren't sure, then press <b>6</b>.</p><p> If you think you have <b>not</b> seen it before but aren't sure, then press <b>7</b>.</p><p> If you are sure you did <b>not</b> see the ship before, then press <b>8</b>.</p><p><img src='run_exp/static/images/tutorial/example_recog_trial.png' height='500'></p></div>","","","","","","","","","","","","","","","","","","",""
"","html-keyboard-response","13","146072","0.0-13.0","""event"",""trial"",""time""
""fullscreenenter"",""0"",""18095""
","
","
","""event"",""trial"",""time""
""fullscreenenter"",""0"",""18095""
","
","1286.5","<div class='center'><p> You will press the 5, 6, 7, 8 keys on your keyboard to respond.</p><p>If you are sure you saw the ship, press <b>5</b> on your keyboard.</p><p> If you think you saw it before but aren't sure, then press <b>6</b>.</p><p> If you think you have <b>not</b> seen it before but aren't sure, then press <b>7</b>.</p><p> If you are sure you did <b>not</b> see the ship before, then press <b>8</b>.</p><p><img src='run_exp/static/images/tutorial/example_recog_trial.png' height='500'></p><p><b>[Press the space bar to continue]</b></p></div>","32","","","","","","","","","","","","","","","","","","","","","","","",""
"","explain_outcome","14","163244","0.0-14.0","""event"",""trial"",""time""
""fullscreenenter"",""0"",""18095""
","
","
","""event"",""trial"",""time""
""fullscreenenter"",""0"",""18095""
","
","null","run_exp/static/audio/clip_35_recognition_3.m4a","null","","","","","<div class='center'><p> If you remember correctly, then you’ll get a gold coin like this: </p><p><img src='run_exp/static/images/tutorial/reward_small.png' height='200'></p><p>If you do not remember correctly, then you'll see a red x like this: </p><p><img src='run_exp/static/images/tutorial/reward_no.png' height='200'></p><p>Importantly, when you are shown a ship, take the time to remind yourself which island you saw it on. This will help you in the next part of the study.</p></div>","","","","","","","","","","","","","","","","","","",""
"","html-keyboard-response","15","165562","0.0-15.0","""event"",""trial"",""time""
""fullscreenenter"",""0"",""18095""
","
","
","""event"",""trial"",""time""
""fullscreenenter"",""0"",""18095""
","
","2316","<div class='center'><p> If you remember correctly, then you’ll get a gold coin like this: </p><p><img src='run_exp/static/images/tutorial/reward_small.png' height='200'></p><p>If you do not remember correctly, then you'll see a red x like this: </p><p><img src='run_exp/static/images/tutorial/reward_no.png' height='200'></p><p>Importantly, when you are shown a ship, take the time to remind yourself which island you saw it on. This will help you in the next part of the study.</p><p><b>[Press the space bar to continue]</b></p></div>","32","","","","","","","","","","","","","","","","","","","","","","","",""
"","begin_test_phase","16","181364","0.0-16.0","""event"",""trial"",""time""
""fullscreenenter"",""0"",""18095""
","
","
","""event"",""trial"",""time""
""fullscreenenter"",""0"",""18095""
","
","null","run_exp/static/audio/clip_36_begin_final.m4a","null","","","","","<div class='center'><p>Let's go over the important points again. Your job is to: </p><p>1. Pick the pirate who is best at robbing ships and will bring you back gold coins. </p><p>2. Correctly remember whether or not you saw a ship before. If you did see the ship before, remind yourself on which island you saw it. </p></div>","","","","","","","","","","","","","","","","","","",""
"","html-keyboard-response","17","185305","0.0-17.0","""event"",""trial"",""time""
""fullscreenenter"",""0"",""18095""
","
","
","""event"",""trial"",""time""
""fullscreenenter"",""0"",""18095""
","
","3917.5","<div class='center'><p>Let's go over the important points again. Your job is to: </p><p>1. Pick the pirate who is best at robbing ships and will bring you back gold coins. </p><p>2. Correctly remember whether or not you saw a ship before. If you did see the ship before, remind yourself on which island you saw it. </p><p><b>[Press the space bar to continue]</b></p></div>","32","","","","","","","","","","","","","","","","","","","","","","","",""
"","do_welcome","18","189316","0.0-18.0","""event"",""trial"",""time""
""fullscreenenter"",""0"",""18095""
","
","
","""event"",""trial"",""time""
""fullscreenenter"",""0"",""18095""
","
","null","","","","","","","","null","","","","","","","","","","","","","","","","","",""
"","do_trial","19","195362","0.0-19.0-0.0","""event"",""trial"",""time""
""fullscreenenter"",""0"",""18095""
","
","
","""event"",""trial"",""time""
""fullscreenenter"",""0"",""18095""
","
","null","","","","","","","","null","0,0,0","6","blank","230","null","0.6597837299979401","0.22022600847680043","0.11087352327017104","","","","","","","","","",""
"","html-keyboard-response","20","196374","0.0-19.0-1.0","""event"",""trial"",""time""
""fullscreenenter"",""0"",""18095""
","
","
","""event"",""trial"",""time""
""fullscreenenter"",""0"",""18095""
","
","null","<p></p>","null","","","","","","","","","","","","","","","","","","","","","","","",""
"","do_trial","21","199248","0.0-20.0-0.0","""event"",""trial"",""time""
""fullscreenenter"",""0"",""18095""
","
","
","""event"",""trial"",""time""
""fullscreenenter"",""0"",""18095""
","
","345.80000019073486","","","","","","","","50","1,1,0","6","blank","231","null","0.5772761830574296","0.35658820149158105","0.26360833562041136","1","","","","","","","","",""
"","html-keyboard-response","22","200259","0.0-20.0-1.0","""event"",""trial"",""time""
""fullscreenenter"",""0"",""18095""
","
","
","""event"",""trial"",""time""
""fullscreenenter"",""0"",""18095""
","
","null","<p></p>","null","","","","","","","","","","","","","","","","","","","","","","","",""
"","do_trial","23","203748","0.0-21.0-0.0","""event"",""trial"",""time""
""fullscreenenter"",""0"",""18095""
","
","
","""event"",""trial"",""time""
""fullscreenenter"",""0"",""18095""
","
","956.7999999523163","","","","","","","","50","1,1,0","6","blank","232","null","0.7072854163171703","0.3429793102538589","0.2795858332544283","1","","","","","","","","",""
"","html-keyboard-response","24","204761","0.0-21.0-1.0","""event"",""trial"",""time""
""fullscreenenter"",""0"",""18095""
","
","
","""event"",""trial"",""time""
""fullscreenenter"",""0"",""18095""
","
","null","<p></p>","null","","","","","","","","","","","","","","","","","","","","","","","",""
"","do_trial","25","207885","0.0-22.0-0.0","""event"",""trial"",""time""
""fullscreenenter"",""0"",""18095""
","
","
","""event"",""trial"",""time""
""fullscreenenter"",""0"",""18095""
","
","590.2000000476837","","","","","","","","50","1,0,1","6","blank","233","null","0.7184306152883531","0.18458164437126917","0.17143032482440768","0","","","","","","","","",""
"","html-keyboard-response","26","208892","0.0-22.0-1.0","""event"",""trial"",""time""
""fullscreenenter"",""0"",""18095""
","
","
","""event"",""trial"",""time""
""fullscreenenter"",""0"",""18095""
","
","null","<p></p>","null","","","","","","","","","","","","","","","","","","","","","","","",""
"","do_trial","27","211736","0.0-23.0-0.0","""event"",""trial"",""time""
""fullscreenenter"",""0"",""18095""
","
","
","""event"",""trial"",""time""
""fullscreenenter"",""0"",""18095""
","
","308.59999990463257","","","","","","","","50","1,1,0","6","blank","234","null","0.7361780718361237","0.2908149971406803","0.07149226076438384","1","","","","","","","","",""
"","html-keyboard-response","28","212742","0.0-23.0-1.0","""event"",""trial"",""time""
""fullscreenenter"",""0"",""18095""
","
","
","""event"",""trial"",""time""
""fullscreenenter"",""0"",""18095""
","
","null","<p></p>","null","","","","","","","","","","","","","","","","","","","","","","","",""
"","do_trial","29","215610","0.0-24.0-0.0","""event"",""trial"",""time""
""fullscreenenter"",""0"",""18095""
","
","
","""event"",""trial"",""time""
""fullscreenenter"",""0"",""18095""
","
","338.60000014305115","","","","","","","","50","1,1,0","6","blank","235","null","0.6332846252930673","0.2474991439803998","0.11164565637122405","1","","","","","","","","",""
"","html-keyboard-response","30","216617","0.0-24.0-1.0","""event"",""trial"",""time""
""fullscreenenter"",""0"",""18095""
","
","
","""event"",""trial"",""time""
""fullscreenenter"",""0"",""18095""
","
","null","<p></p>","null","","","","","","","","","","","","","","","","","","","","","","","",""
"","do_trial","31","219590","0.0-25.0-0.0","""event"",""trial"",""time""
""fullscreenenter"",""0"",""18095""
","
","
","""event"",""trial"",""time""
""fullscreenenter"",""0"",""18095""
","
","437.89999985694885","","","","","","","","50","1,0,0","6","blank","236","null","0.6343028883570715","0.16811090225803976","0.06853085270476887","0","","","","","","","","",""
"","html-keyboard-response","32","220600","0.0-25.0-1.0","""event"",""trial"",""time""
""fullscreenenter"",""0"",""18095""
","
","
","""event"",""trial"",""time""
""fullscreenenter"",""0"",""18095""
","
","null","<p></p>","null","","","","","","","","","","","","","","","","","","","","","","","",""
"","do_trial","33","223527","0.0-26.0-0.0","""event"",""trial"",""time""
""fullscreenenter"",""0"",""18095""
","
","
","""event"",""trial"",""time""
""fullscreenenter"",""0"",""18095""
","
","391.89999985694885","","","","","","","","50","1,1,0","6","blank","237","null","0.6342713185128563","0.3666433482413617","0.15522292781145575","1","","","","","","","","",""
"","html-keyboard-response","34","224538","0.0-26.0-1.0","""event"",""trial"",""time""
""fullscreenenter"",""0"",""18095""
","
","
","""event"",""trial"",""time""
""fullscreenenter"",""0"",""18095""
","
","null","<p></p>","null","","","","","","","","","","","","","","","","","","","","","","","",""
"","do_trial","35","227423","0.0-27.0-0.0","""event"",""trial"",""time""
""fullscreenenter"",""0"",""18095""
","
","
","""event"",""trial"",""time""
""fullscreenenter"",""0"",""18095""
","
","350.59999990463257","","","","","","","","50","1,1,0","6","blank","238","null","0.7555680472502188","0.30488215169690647","0.06357833482258968","1","","","","","","","","",""
"","html-keyboard-response","36","228433","0.0-27.0-1.0","""event"",""trial"",""time""
""fullscreenenter"",""0"",""18095""
","
","
","""event"",""trial"",""time""
""fullscreenenter"",""0"",""18095""
","
","null","<p></p>","null","","","","","","","","","","","","","","","","","","","","","","","",""
"","do_trial","37","231314","0.0-28.0-0.0","""event"",""trial"",""time""
""fullscreenenter"",""0"",""18095""
","
","
","""event"",""trial"",""time""
""fullscreenenter"",""0"",""18095""
","
","341.90000009536743","","","","","","","","50","0,0,0","6","blank","239","null","0.6235895005463713","0.34115019005917296","0.16898436190691107","0","","","","","","","","",""
"","html-keyboard-response","38","232327","0.0-28.0-1.0","""event"",""trial"",""time""
""fullscreenenter"",""0"",""18095""
","
","
","""event"",""trial"",""time""
""fullscreenenter"",""0"",""18095""
","
","null","<p></p>","null","","","","","","","","","","","","","","","","","","","","","","","",""
"","do_trial","39","235191","0.0-29.0-0.0","""event"",""trial"",""time""
""fullscreenenter"",""0"",""18095""
","
","
","""event"",""trial"",""time""
""fullscreenenter"",""0"",""18095""
","
","336.5","","","","","","","","50","0,1,0","6","blank","240","null","0.5803509158301546","0.4461506348084984","0.11904200267665743","1","","","","","","","","",""
"","html-keyboard-response","40","236199","0.0-29.0-1.0","""event"",""trial"",""time""
""fullscreenenter"",""0"",""18095""
","
","
","""event"",""trial"",""time""
""fullscreenenter"",""0"",""18095""
","
","null","<p></p>","null","","","","","","","","","","","","","","","","","","","","","","","",""
"","do_trial","41","239257","0.0-30.0-0.0","""event"",""trial"",""time""
""fullscreenenter"",""0"",""18095""
","
","
","""event"",""trial"",""time""
""fullscreenenter"",""0"",""18095""
","
","530.5","","","","","","","","50","0,0,0","6","blank","241","null","0.6333249225778416","0.34823307744600074","0.12875985454655656","0","","","","","","","","",""
"","html-keyboard-response","42","240269","0.0-30.0-1.0","""event"",""trial"",""time""
""fullscreenenter"",""0"",""18095""
","
","
","""event"",""trial"",""time""
""fullscreenenter"",""0"",""18095""
","
","null","<p></p>","null","","","","","","","","","","","","","","","","","","","","","","","",""
"","do_trial","43","243078","0.0-31.0-0.0","""event"",""trial"",""time""
""fullscreenenter"",""0"",""18095""
","
","
","""event"",""trial"",""time""
""fullscreenenter"",""0"",""18095""
","
","283.7000000476837","","","","","","","","50","0,1,0","6","blank","242","null","0.30545131082673505","0.42737404276397317","0.1141722381404256","1","","","","","","","","",""
"","html-keyboard-response","44","244088","0.0-31.0-1.0","""event"",""trial"",""time""
""fullscreenenter"",""0"",""18095""
","
","
","""event"",""trial"",""time""
""fullscreenenter"",""0"",""18095""
","
","null","<p></p>","null","","","","","","","","","","","","","","","","","","","","","","","",""
"","do_trial","45","246919","0.0-32.0-0.0","""event"",""trial"",""time""
""fullscreenenter"",""0"",""18095""
","
","
","""event"",""trial"",""time""
""fullscreenenter"",""0"",""18095""
","
","303.5","","","","","","","","50","0,1,0","6","blank","243","null","0.3633709338027468","0.6025992672795816","0.14477241674481423","1","","","","","","","","",""
"","html-keyboard-response","46","247927","0.0-32.0-1.0","""event"",""trial"",""time""
""fullscreenenter"",""0"",""18095""
","
","
","""event"",""trial"",""time""
""fullscreenenter"",""0"",""18095""
","
","null","<p></p>","null","","","","","","","","","","","","","","","","","","","","","","","",""
"","do_trial","47","250743","0.0-33.0-0.0","""event"",""trial"",""time""
""fullscreenenter"",""0"",""18095""
","
","
","""event"",""trial"",""time""
""fullscreenenter"",""0"",""18095""
","
","280.2999999523163","","","","","","","","50","0,1,0","6","blank","244","null","0.3271654165872415","0.6555407956466808","0.13405883908016902","1","","","","","","","","",""
"","html-keyboard-response","48","251750","0.0-33.0-1.0","""event"",""trial"",""time""
""fullscreenenter"",""0"",""18095""
","
","
","""event"",""trial"",""time""
""fullscreenenter"",""0"",""18095""
","
","null","<p></p>","null","","","","","","","","","","","","","","","","","","","","","","","",""
"","do_recog","49","257777","0.0-34.0-0.0","""event"",""trial"",""time""
""fullscreenenter"",""0"",""18095""
","
","
","""event"",""trial"",""time""
""fullscreenenter"",""0"",""18095""
","
","null","","","","","","","","null","","","","245","probe-21","","","","","1","[object Object]","33","0","0","","","",""
"","html-keyboard-response","50","258786","0.0-34.0-1.0","""event"",""trial"",""time""
""fullscreenenter"",""0"",""18095""
","
","
","""event"",""trial"",""time""
""fullscreenenter"",""0"",""18095""
","
","null","<p></p>","null","","","","","","","","","","","","","","","","","","","","","","","",""
"","do_trial","51","262901","0.0-35.0-0.0","""event"",""trial"",""time""
""fullscreenenter"",""0"",""18095""
","
","
","""event"",""trial"",""time""
""fullscreenenter"",""0"",""18095""
","
","1580.5999999046326","","","","","","","","50","0,1,0","6","blank","246","null","0.39054039694979314","0.7861978689246378","0.09906149210258607","1","","","","","","","","",""
"","html-keyboard-response","52","263907","0.0-35.0-1.0","""event"",""trial"",""time""
""fullscreenenter"",""0"",""18095""
","
","
","""event"",""trial"",""time""
""fullscreenenter"",""0"",""18095""
","
","null","<p></p>","null","","","","","","","","","","","","","","","","","","","","","","","",""
"","do_recog","53","267017","0.0-36.0-0.0","""event"",""trial"",""time""
""fullscreenenter"",""0"",""18095""
","
","
","""event"",""trial"",""time""
""fullscreenenter"",""0"",""18095""
","
","1591.5999999046326","","","","","","","","55","","","","247","probe-253","","","","","0","[object Object]","null","null","1","","","",""
"","html-keyboard-response","54","268028","0.0-36.0-1.0","""event"",""trial"",""time""
""fullscreenenter"",""0"",""18095""
","
","
","""event"",""trial"",""time""
""fullscreenenter"",""0"",""18095""
","
","null","<p></p>","null","","","","","","","","","","","","","","","","","","","","","","","",""
"","do_trial","55","271625","0.0-37.0-0.0","""event"",""trial"",""time""
""fullscreenenter"",""0"",""18095""
","
","
","""event"",""trial"",""time""
""fullscreenenter"",""0"",""18095""
","
","1058.1000001430511","","","","","","","","51","1,0,0","6","blank","248","null","0.38555279808177034","0.6476347008541398","0.10504324366355144","0","","","","","","","","",""
"","html-keyboard-response","56","272633","0.0-37.0-1.0","""event"",""trial"",""time""
""fullscreenenter"",""0"",""18095""
","
","
","""event"",""trial"",""time""
""fullscreenenter"",""0"",""18095""
","
","null","<p></p>","null","","","","","","","","","","","","","","","","","","","","","","","",""
"","do_trial","57","276114","0.0-38.0-0.0","""event"",""trial"",""time""
""fullscreenenter"",""0"",""18095""
","
","
","""event"",""trial"",""time""
""fullscreenenter"",""0"",""18095""
","
","944.4000000953674","","","","","","","","51","1,0,0","6","blank","249","null","0.3082269275454419","0.4855739307618636","0.07307908450245348","0","","","","","","","","",""
"","html-keyboard-response","58","277124","0.0-38.0-1.0","""event"",""trial"",""time""
""fullscreenenter"",""0"",""18095""
","
","
","""event"",""trial"",""time""
""fullscreenenter"",""0"",""18095""
","
","null","<p></p>","null","","","","","","","","","","","","","","","","","","","","","","","",""
"","do_trial","59","279968","0.0-39.0-0.0","""event"",""trial"",""time""
""fullscreenenter"",""0"",""18095""
","
","
","""event"",""trial"",""time""
""fullscreenenter"",""0"",""18095""
","
","315.69999980926514","","","","","","","","51","0,0,0","6","blank","250","null","0.3208675950623283","0.5973935228733356","0.07682487784344615","0","","","","","","","","",""
"","html-keyboard-response","60","280975","0.0-39.0-1.0","""event"",""trial"",""time""
""fullscreenenter"",""0"",""18095""
","
","
","""event"",""trial"",""time""
""fullscreenenter"",""0"",""18095""
","
","null","<p></p>","null","","","","","","","","","","","","","","","","","","","","","","","",""
"","do_trial","61","283816","0.0-40.0-0.0","""event"",""trial"",""time""
""fullscreenenter"",""0"",""18095""
","
","
","""event"",""trial"",""time""
""fullscreenenter"",""0"",""18095""
","
","307.09999990463257","","","","","","","","51","0,1,0","6","blank","251","null","0.46929574237434696","0.6228146095703319","0.20351138192754356","0","","","","","","","","",""
"","html-keyboard-response","62","284825","0.0-40.0-1.0","""event"",""trial"",""time""
""fullscreenenter"",""0"",""18095""
","
","
","""event"",""trial"",""time""
""fullscreenenter"",""0"",""18095""
","
","null","<p></p>","null","","","","","","","","","","","","","","","","","","","","","","","",""
"","do_trial","63","287668","0.0-41.0-0.0","""event"",""trial"",""time""
""fullscreenenter"",""0"",""18095""
","
","
","""event"",""trial"",""time""
""fullscreenenter"",""0"",""18095""
","
","311.7000000476837","","","","","","","","50","0,1,0","6","blank","252","null","0.31320500151392267","0.5436867975048936","0.07981917717258959","1","","","","","","","","",""
"","html-keyboard-response","64","288677","0.0-41.0-1.0","""event"",""trial"",""time""
""fullscreenenter"",""0"",""18095""
","
","
","""event"",""trial"",""time""
""fullscreenenter"",""0"",""18095""
","
","null","<p></p>","null","","","","","","","","","","","","","","","","","","","","","","","",""
"","do_trial","65","291640","0.0-42.0-0.0","""event"",""trial"",""time""
""fullscreenenter"",""0"",""18095""
","
","
","""event"",""trial"",""time""
""fullscreenenter"",""0"",""18095""
","
","434.30000019073486","","","","","","","","50","0,1,0","6","blank","253","null","0.2618806264558252","0.7670183947041815","0.10281643337631825","1","","","","","","","","",""
"","html-keyboard-response","66","292648","0.0-42.0-1.0","""event"",""trial"",""time""
""fullscreenenter"",""0"",""18095""
","
","
","""event"",""trial"",""time""
""fullscreenenter"",""0"",""18095""
","
","null","<p></p>","null","","","","","","","","","","","","","","","","","","","","","","","",""
"","do_trial","67","295842","0.0-43.0-0.0","""event"",""trial"",""time""
""fullscreenenter"",""0"",""18095""
","
","
","""event"",""trial"",""time""
""fullscreenenter"",""0"",""18095""
","
","654.5","","","","","","","","50","0,1,0","6","blank","254","null","0.35137410502869915","0.7592621233500918","0.09322893936706084","1","","","","","","","","",""
"","html-keyboard-response","68","296853","0.0-43.0-1.0","""event"",""trial"",""time""
""fullscreenenter"",""0"",""18095""
","
","
","""event"",""trial"",""time""
""fullscreenenter"",""0"",""18095""
","
","null","<p></p>","null","","","","","","","","","","","","","","","","","","","","","","","",""
"","do_recog","69","299650","0.0-44.0-0.0","""event"",""trial"",""time""
""fullscreenenter"",""0"",""18095""
","
","
","""event"",""trial"",""time""
""fullscreenenter"",""0"",""18095""
","
","1286.3999998569489","","","","","","","","54","","","","255","probe-221","","","","","1","[object Object]","78","1","1","","","",""
"","html-keyboard-response","70","300663","0.0-44.0-1.0","""event"",""trial"",""time""
""fullscreenenter"",""0"",""18095""
","
","
","""event"",""trial"",""time""
""fullscreenenter"",""0"",""18095""
","
","null","<p></p>","null","","","","","","","","","","","","","","","","","","","","","","","",""
"","do_trial","71","304045","0.0-45.0-0.0","""event"",""trial"",""time""
""fullscreenenter"",""0"",""18095""
","
","
","""event"",""trial"",""time""
""fullscreenenter"",""0"",""18095""
","
","855.7000000476837","","","","","","","","50","0,1,0","6","blank","256","null","0.31389917498949416","0.6854441365037062","0.12957669963746343","1","","","","","","","","",""
"","html-keyboard-response","72","305059","0.0-45.0-1.0","""event"",""trial"",""time""
""fullscreenenter"",""0"",""18095""
","
","
","""event"",""trial"",""time""
""fullscreenenter"",""0"",""18095""
","
","null","<p></p>","null","","","","","","","","","","","","","","","","","","","","","","","",""
"","do_recog","73","307822","0.0-46.0-0.0","""event"",""trial"",""time""
""fullscreenenter"",""0"",""18095""
","
","
","""event"",""trial"",""time""
""fullscreenenter"",""0"",""18095""
","
","1256.7999999523163","","","","","","","","54","","","","257","probe-229","","","","","1","[object Object]","74","1","1","","","",""
"","html-keyboard-response","74","308831","0.0-46.0-1.0","""event"",""trial"",""time""
""fullscreenenter"",""0"",""18095""
","
","
","""event"",""trial"",""time""
""fullscreenenter"",""0"",""18095""
","
","null","<p></p>","null","","","","","","","","","","","","","","","","","","","","","","","",""
"","do_trial","75","312030","0.0-47.0-0.0","""event"",""trial"",""time""
""fullscreenenter"",""0"",""18095""
","
","
","""event"",""trial"",""time""
""fullscreenenter"",""0"",""18095""
","
","664.9000000953674","","","","","","","","50","0,1,0","6","blank","258","null","0.18902653122255986","0.6010265196819201","0.13399498333249746","1","","","","","","","","",""
"","html-keyboard-response","76","313040","0.0-47.0-1.0","""event"",""trial"",""time""
""fullscreenenter"",""0"",""18095""
","
","
","""event"",""trial"",""time""
""fullscreenenter"",""0"",""18095""
","
","null","<p></p>","null","","","","","","","","","","","","","","","","","","","","","","","",""
"","do_trial","77","316838","0.0-48.0-0.0","""event"",""trial"",""time""
""fullscreenenter"",""0"",""18095""
","
","
","""event"",""trial"",""time""
""fullscreenenter"",""0"",""18095""
","
","1274.2000000476837","","","","","","","","50","1,0,0","6","blank","259","null","0.1384169615663064","0.5777038848027867","0.2572102308362389","0","","","","","","","","",""
"","html-keyboard-response","78","317849","0.0-48.0-1.0","""event"",""trial"",""time""
""fullscreenenter"",""0"",""18095""
","
","
","""event"",""trial"",""time""
""fullscreenenter"",""0"",""18095""
","
","null","<p></p>","null","","","","","","","","","","","","","","","","","","","","","","","",""
"","do_trial","79","321292","0.0-49.0-0.0","""event"",""trial"",""time""
""fullscreenenter"",""0"",""18095""
","
","
","""event"",""trial"",""time""
""fullscreenenter"",""0"",""18095""
","
","906.2999999523163","","","","","","","","50","0,1,0","6","blank","260","null","0.4254765850822587","0.44768777035587065","0.15804486690057087","1","","","","","","","","",""
"","html-keyboard-response","80","322306","0.0-49.0-1.0","""event"",""trial"",""time""
""fullscreenenter"",""0"",""18095""
","
","
","""event"",""trial"",""time""
""fullscreenenter"",""0"",""18095""
","
","null","<p></p>","null","","","","","","","","","","","","","","","","","","","","","","","",""
"","do_trial","81","325904","0.0-50.0-0.0","""event"",""trial"",""time""
""fullscreenenter"",""0"",""18095""
","
","
","""event"",""trial"",""time""
""fullscreenenter"",""0"",""18095""
","
","1062.7999999523163","","","","","","","","50","0,0,0","6","blank","261","null","0.526457460073493","0.49136596678365385","0.12595221122101513","0","","","","","","","","",""
"","html-keyboard-response","82","326912","0.0-50.0-1.0","""event"",""trial"",""time""
""fullscreenenter"",""0"",""18095""
","
","
","""event"",""trial"",""time""
""fullscreenenter"",""0"",""18095""
","
","null","<p></p>","null","","","","","","","","","","","","","","","","","","","","","","","",""
"","do_trial","83","330500","0.0-51.0-0.0","""event"",""trial"",""time""
""fullscreenenter"",""0"",""18095""
","
","
","""event"",""trial"",""time""
""fullscreenenter"",""0"",""18095""
","
","1055.5999999046326","","","","","","","","50","0,0,0","6","blank","262","null","0.5619434136748509","0.580976774080556","0.0818832595902806","0","","","","","","","","",""
"","html-keyboard-response","84","331508","0.0-51.0-1.0","""event"",""trial"",""time""
""fullscreenenter"",""0"",""18095""
","
","
","""event"",""trial"",""time""
""fullscreenenter"",""0"",""18095""
","
","null","<p></p>","null","","","","","","","","","","","","","","","","","","","","","","","",""
"","do_trial","85","334337","0.0-52.0-0.0","""event"",""trial"",""time""
""fullscreenenter"",""0"",""18095""
","
","
","""event"",""trial"",""time""
""fullscreenenter"",""0"",""18095""
","
","291.5","","","","","","","","50","1,1,0","6","blank","263","null","0.534750019612981","0.6501224951245524","0.07470561279680733","1","","","","","","","","",""
"","html-keyboard-response","86","335350","0.0-52.0-1.0","""event"",""trial"",""time""
""fullscreenenter"",""0"",""18095""
","
","
","""event"",""trial"",""time""
""fullscreenenter"",""0"",""18095""
","
","null","<p></p>","null","","","","","","","","","","","","","","","","","","","","","","","",""
"","do_recog","87","338363","0.0-53.0-0.0","""event"",""trial"",""time""
""fullscreenenter"",""0"",""18095""
","
","
","""event"",""trial"",""time""
""fullscreenenter"",""0"",""18095""
","
","1495.0999999046326","","","","","","","","53","","","","264","probe-51","","","","","1","[object Object]","190","4","1","","","",""
"","html-keyboard-response","88","339375","0.0-53.0-1.0","""event"",""trial"",""time""
""fullscreenenter"",""0"",""18095""
","
","
","""event"",""trial"",""time""
""fullscreenenter"",""0"",""18095""
","
","null","<p></p>","null","","","","","","","","","","","","","","","","","","","","","","","",""
"","do_trial","89","343678","0.0-54.0-0.0","""event"",""trial"",""time""
""fullscreenenter"",""0"",""18095""
","
","
","""event"",""trial"",""time""
""fullscreenenter"",""0"",""18095""
","
","1776.2000000476837","","","","","","","","50","0,1,1","6","blank","265","null","0.4663357354508824","0.7905233269606466","0.07421437501931723","1","","","","","","","","",""
"","html-keyboard-response","90","344692","0.0-54.0-1.0","""event"",""trial"",""time""
""fullscreenenter"",""0"",""18095""
","
","
","""event"",""trial"",""time""
""fullscreenenter"",""0"",""18095""
","
","null","<p></p>","null","","","","","","","","","","","","","","","","","","","","","","","",""
"","do_recog","91","347178","0.0-55.0-0.0","""event"",""trial"",""time""
""fullscreenenter"",""0"",""18095""
","
","
","""event"",""trial"",""time""
""fullscreenenter"",""0"",""18095""
","
","973.7999999523163","","","","","","","","53","","","","266","probe-117","","","","","1","[object Object]","118","2","1","","","",""
"","html-keyboard-response","92","348190","0.0-55.0-1.0","""event"",""trial"",""time""
""fullscreenenter"",""0"",""18095""
","
","
","""event"",""trial"",""time""
""fullscreenenter"",""0"",""18095""
","
","null","<p></p>","null","","","","","","","","","","","","","","","","","","","","","","","",""
"","do_trial","93","351609","0.0-56.0-0.0","""event"",""trial"",""time""
""fullscreenenter"",""0"",""18095""
","
","
","""event"",""trial"",""time""
""fullscreenenter"",""0"",""18095""
","
","882.7000000476837","","","","","","","","50","0,1,0","6","blank","267","null","0.3703063516709618","0.67601267748154","0.11092091297917744","1","","","","","","","","",""
"","html-keyboard-response","94","352618","0.0-56.0-1.0","""event"",""trial"",""time""
""fullscreenenter"",""0"",""18095""
","
","
","""event"",""trial"",""time""
""fullscreenenter"",""0"",""18095""
","
","null","<p></p>","null","","","","","","","","","","","","","","","","","","","","","","","",""
"","do_trial","95","355851","0.0-57.0-0.0","""event"",""trial"",""time""
""fullscreenenter"",""0"",""18095""
","
","
","""event"",""trial"",""time""
""fullscreenenter"",""0"",""18095""
","
","700","","","","","","","","51","0,1,0","6","blank","268","null","0.3618967361988746","0.6552784544368181","0.07818505925647565","0","","","","","","","","",""
"","html-keyboard-response","96","356861","0.0-57.0-1.0","""event"",""trial"",""time""
""fullscreenenter"",""0"",""18095""
","
","
","""event"",""trial"",""time""
""fullscreenenter"",""0"",""18095""
","
","null","<p></p>","null","","","","","","","","","","","","","","","","","","","","","","","",""
"","break","97","406368","0.0-58.0-0.0","""event"",""trial"",""time""
""fullscreenenter"",""0"",""18095""
","
","
","""event"",""trial"",""time""
""fullscreenenter"",""0"",""18095""
","
","49505.39999985695","<div class='center'><p>Time to take a quick break! You have 2 minutes to rest, but you can move on sooner if you'd like.</p><p> Press the <b>space bar</b> to continue.</p></div>","32","","","","","","","","","","","","","","","","","","","","","","","",""
"","do_recog","98","409388","0.0-58.0-1.0","""event"",""trial"",""time""
""fullscreenenter"",""0"",""18095""
","
","
","""event"",""trial"",""time""
""fullscreenenter"",""0"",""18095""
","
","1508.0999999046326","","","","","","","","55","","","","269","probe-23","","","","","1","[object Object]","30","0","0","","","",""
"","html-keyboard-response","99","410392","0.0-58.0-2.0","""event"",""trial"",""time""
""fullscreenenter"",""0"",""18095""
","
","
","""event"",""trial"",""time""
""fullscreenenter"",""0"",""18095""
","
","null","<p></p>","null","","","","","","","","","","","","","","","","","","","","","","","",""
"","do_trial","100","415812","0.0-59.0-0.0","""event"",""trial"",""time""
""fullscreenenter"",""0"",""18095""
","
","
","""event"",""trial"",""time""
""fullscreenenter"",""0"",""18095""
","
","2886.4000000953674","","","","","","","","50","0,1,0","6","blank","270","null","0.3454651714489204","0.7137422326984061","0.15810523630831946","1","","","","","","","","",""
"","html-keyboard-response","101","416821","0.0-59.0-1.0","""event"",""trial"",""time""
""fullscreenenter"",""0"",""18095""
","
","
","""event"",""trial"",""time""
""fullscreenenter"",""0"",""18095""
","
","null","<p></p>","null","","","","","","","","","","","","","","","","","","","","","","","",""
"","do_trial","102","419681","0.0-60.0-0.0","""event"",""trial"",""time""
""fullscreenenter"",""0"",""18095""
","
","
","""event"",""trial"",""time""
""fullscreenenter"",""0"",""18095""
","
","329.5","","","","","","","","50","1,1,0","6","blank","271","null","0.37379377339771425","0.7317710698117295","0.05247086550296398","1","","","","","","","","",""
"","html-keyboard-response","103","420690","0.0-60.0-1.0","""event"",""trial"",""time""
""fullscreenenter"",""0"",""18095""
","
","
","""event"",""trial"",""time""
""fullscreenenter"",""0"",""18095""
","
","null","<p></p>","null","","","","","","","","","","","","","","","","","","","","","","","",""
"","do_recog","104","423827","0.0-61.0-0.0","""event"",""trial"",""time""
""fullscreenenter"",""0"",""18095""
","
","
","""event"",""trial"",""time""
""fullscreenenter"",""0"",""18095""
","
","1616.2999999523163","","","","","","","","56","","","","272","probe-223","","","","","1","[object Object]","32","0","0","","","",""
"","html-keyboard-response","105","424833","0.0-61.0-1.0","""event"",""trial"",""time""
""fullscreenenter"",""0"",""18095""
","
","
","""event"",""trial"",""time""
""fullscreenenter"",""0"",""18095""
","
","null","<p></p>","null","","","","","","","","","","","","","","","","","","","","","","","",""
"","do_trial","106","427818","0.0-62.0-0.0","""event"",""trial"",""time""
""fullscreenenter"",""0"",""18095""
","
","
","""event"",""trial"",""time""
""fullscreenenter"",""0"",""18095""
","
","454.2000000476837","","","","","","","","50","0,1,0","6","blank","273","null","0.26287961965974593","0.6617863502203238","0.14781942575735715","1","","","","","","","","",""
"","html-keyboard-response","107","428820","0.0-62.0-1.0","""event"",""trial"",""time""
""fullscreenenter"",""0"",""18095""
","
","
","""event"",""trial"",""time""
""fullscreenenter"",""0"",""18095""
","
","null","<p></p>","null","","","","","","","","","","","","","","","","","","","","","","","",""
"","do_recog","108","432930","0.0-63.0-0.0","""event"",""trial"",""time""
""fullscreenenter"",""0"",""18095""
","
","
","""event"",""trial"",""time""
""fullscreenenter"",""0"",""18095""
","
","2590.5","","","","","","","","53","","","","274","probe-161","","","","","1","[object Object]","36","0","1","","","",""
"","html-keyboard-response","109","433943","0.0-63.0-1.0","""event"",""trial"",""time""
""fullscreenenter"",""0"",""18095""
","
","
","""event"",""trial"",""time""
""fullscreenenter"",""0"",""18095""
","
","null","<p></p>","null","","","","","","","","","","","","","","","","","","","","","","","",""
"","do_trial","110","438124","0.0-64.0-0.0","""event"",""trial"",""time""
""fullscreenenter"",""0"",""18095""
","
","
","""event"",""trial"",""time""
""fullscreenenter"",""0"",""18095""
","
","1651.0999999046326","","","","","","","","49","0,0,0","6","blank","275","null","0.2633788204753871","0.6012443471203","0.1244669195615557","0","","","","","","","","",""
"","html-keyboard-response","111","439137","0.0-64.0-1.0","""event"",""trial"",""time""
""fullscreenenter"",""0"",""18095""
","
","
","""event"",""trial"",""time""
""fullscreenenter"",""0"",""18095""
","
","null","<p></p>","null","","","","","","","","","","","","","","","","","","","","","","","",""
"","do_trial","112","442043","0.0-65.0-0.0","""event"",""trial"",""time""
""fullscreenenter"",""0"",""18095""
","
","
","""event"",""trial"",""time""
""fullscreenenter"",""0"",""18095""
","
","364.2999999523163","","","","","","","","50","0,0,0","6","blank","276","null","0.27678488259430484","0.34560251719767493","0.12864938877421367","0","","","","","","","","",""
"","html-keyboard-response","113","443046","0.0-65.0-1.0","""event"",""trial"",""time""
""fullscreenenter"",""0"",""18095""
","
","
","""event"",""trial"",""time""
""fullscreenenter"",""0"",""18095""
","
","null","<p></p>","null","","","","","","","","","","","","","","","","","","","","","","","",""
"","do_recog","114","445981","0.0-66.0-0.0","""event"",""trial"",""time""
""fullscreenenter"",""0"",""18095""
","
","
","""event"",""trial"",""time""
""fullscreenenter"",""0"",""18095""
","
","1422.8999998569489","","","","","","","","55","","","","277","probe-72","","","","","1","[object Object]","192","4","0","","","",""
"","html-keyboard-response","115","446990","0.0-66.0-1.0","""event"",""trial"",""time""
""fullscreenenter"",""0"",""18095""
","
","
","""event"",""trial"",""time""
""fullscreenenter"",""0"",""18095""
","
","null","<p></p>","null","","","","","","","","","","","","","","","","","","","","","","","",""
"","do_trial","116","450359","0.0-67.0-0.0","""event"",""trial"",""time""
""fullscreenenter"",""0"",""18095""
","
","
","""event"",""trial"",""time""
""fullscreenenter"",""0"",""18095""
","
","840.6000001430511","","","","","","","","50","0,0,0","6","blank","278","null","0.1265103315865943","0.38297495239091767","0.14985808183239177","0","","","","","","","","",""
"","html-keyboard-response","117","451370","0.0-67.0-1.0","""event"",""trial"",""time""
""fullscreenenter"",""0"",""18095""
","
","
","""event"",""trial"",""time""
""fullscreenenter"",""0"",""18095""
","
","null","<p></p>","null","","","","","","","","","","","","","","","","","","","","","","","",""
"","do_trial","118","454402","0.0-68.0-0.0","""event"",""trial"",""time""
""fullscreenenter"",""0"",""18095""
","
","
","""event"",""trial"",""time""
""fullscreenenter"",""0"",""18095""
","
","502.09999990463257","","","","","","","","50","0,1,0","6","blank","279","null","0.1912149026355123","0.4787137290758042","0.11057863629040494","1","","","","","","","","",""
"","html-keyboard-response","119","455411","0.0-68.0-1.0","""event"",""trial"",""time""
""fullscreenenter"",""0"",""18095""
","
","
","""event"",""trial"",""time""
""fullscreenenter"",""0"",""18095""
","
","null","<p></p>","null","","","","","","","","","","","","","","","","","","","","","","","",""
"","do_trial","120","461452","0.0-69.0-0.0","""event"",""trial"",""time""
""fullscreenenter"",""0"",""18095""
","
","
","""event"",""trial"",""time""
""fullscreenenter"",""0"",""18095""
","
","null","","","","","","","","null","1,0,0","6","blank","280","null","0.28577445579559585","0.508079215671977","0.14999389771717664","","","","","","","","","",""
"","html-keyboard-response","121","462459","0.0-69.0-1.0","""event"",""trial"",""time""
""fullscreenenter"",""0"",""18095""
","
","
","""event"",""trial"",""time""
""fullscreenenter"",""0"",""18095""
","
","null","<p></p>","null","","","","","","","","","","","","","","","","","","","","","","","",""
"","do_trial","122","465924","0.0-70.0-0.0","""event"",""trial"",""time""
""fullscreenenter"",""0"",""18095""
","
","
","""event"",""trial"",""time""
""fullscreenenter"",""0"",""18095""
","
","933.2999999523163","","","","","","","","50","1,0,0","6","blank","281","null","0.47067960662679786","0.526723015756604","0.22656891547180188","0","","","","","","","","",""
"","html-keyboard-response","123","466937","0.0-70.0-1.0","""event"",""trial"",""time""
""fullscreenenter"",""0"",""18095""
","
","
","""event"",""trial"",""time""
""fullscreenenter"",""0"",""18095""
","
","null","<p></p>","null","","","","","","","","","","","","","","","","","","","","","","","",""
"","do_trial","124","470360","0.0-71.0-0.0","""event"",""trial"",""time""
""fullscreenenter"",""0"",""18095""
","
","
","""event"",""trial"",""time""
""fullscreenenter"",""0"",""18095""
","
","885.2000000476837","","","","","","","","50","0,1,0","6","blank","282","null","0.42645085001531324","0.6014407287740162","0.25839247224662165","1","","","","","","","","",""
"","html-keyboard-response","125","471368","0.0-71.0-1.0","""event"",""trial"",""time""
""fullscreenenter"",""0"",""18095""
","
","
","""event"",""trial"",""time""
""fullscreenenter"",""0"",""18095""
","
","null","<p></p>","null","","","","","","","","","","","","","","","","","","","","","","","",""
"","do_recog","126","474742","0.0-72.0-0.0","""event"",""trial"",""time""
""fullscreenenter"",""0"",""18095""
","
","
","""event"",""trial"",""time""
""fullscreenenter"",""0"",""18095""
","
","1867.8000001907349","","","","","","","","56","","","","283","probe-240","","","","","0","[object Object]","null","null","1","","","",""
"","html-keyboard-response","127","475752","0.0-72.0-1.0","""event"",""trial"",""time""
""fullscreenenter"",""0"",""18095""
","
","
","""event"",""trial"",""time""
""fullscreenenter"",""0"",""18095""
","
","null","<p></p>","null","","","","","","","","","","","","","","","","","","","","","","","",""
"","do_trial","128","479386","0.0-73.0-0.0","""event"",""trial"",""time""
""fullscreenenter"",""0"",""18095""
","
","
","""event"",""trial"",""time""
""fullscreenenter"",""0"",""18095""
","
","1093.6000001430511","","","","","","","","50","0,1,0","6","blank","284","null","0.3824332583500164","0.43061147807356703","0.1655287854619941","1","","","","","","","","",""
"","html-keyboard-response","129","480395","0.0-73.0-1.0","""event"",""trial"",""time""
""fullscreenenter"",""0"",""18095""
","
","
","""event"",""trial"",""time""
""fullscreenenter"",""0"",""18095""
","
","null","<p></p>","null","","","","","","","","","","","","","","","","","","","","","","","",""
"","do_trial","130","483566","0.0-74.0-0.0","""event"",""trial"",""time""
""fullscreenenter"",""0"",""18095""
","
","
","""event"",""trial"",""time""
""fullscreenenter"",""0"",""18095""
","
","643.2999999523163","","","","","","","","50","0,1,0","6","blank","285","null","0.328907318918698","0.43851297120762467","0.22719117333352543","1","","","","","","","","",""
"","html-keyboard-response","131","484578","0.0-74.0-1.0","""event"",""trial"",""time""
""fullscreenenter"",""0"",""18095""
","
","
","""event"",""trial"",""time""
""fullscreenenter"",""0"",""18095""
","
","null","<p></p>","null","","","","","","","","","","","","","","","","","","","","","","","",""
"","do_trial","132","487452","0.0-75.0-0.0","""event"",""trial"",""time""
""fullscreenenter"",""0"",""18095""
","
","
","""event"",""trial"",""time""
""fullscreenenter"",""0"",""18095""
","
","333.30000019073486","","","","","","","","50","0,1,0","6","blank","286","null","0.2504079572947974","0.4797636178540065","0.18378038075043945","1","","","","","","","","",""
"","html-keyboard-response","133","488462","0.0-75.0-1.0","""event"",""trial"",""time""
""fullscreenenter"",""0"",""18095""
","
","
","""event"",""trial"",""time""
""fullscreenenter"",""0"",""18095""
","
","null","<p></p>","null","","","","","","","","","","","","","","","","","","","","","","","",""
"","do_trial","134","492344","0.0-76.0-0.0","""event"",""trial"",""time""
""fullscreenenter"",""0"",""18095""
","
","
","""event"",""trial"",""time""
""fullscreenenter"",""0"",""18095""
","
","1343.8999998569489","","","","","","","","50","1,0,0","6","blank","287","null","0.21581764397232245","0.5533790396234229","0.17987782719641196","0","","","","","","","","",""
"","html-keyboard-response","135","493356","0.0-76.0-1.0","""event"",""trial"",""time""
""fullscreenenter"",""0"",""18095""
","
","
","""event"",""trial"",""time""
""fullscreenenter"",""0"",""18095""
","
","null","<p></p>","null","","","","","","","","","","","","","","","","","","","","","","","",""
"","do_trial","136","496194","0.0-77.0-0.0","""event"",""trial"",""time""
""fullscreenenter"",""0"",""18095""
","
","
","""event"",""trial"",""time""
""fullscreenenter"",""0"",""18095""
","
","298.2000000476837","","","","","","","","50","0,0,1","6","blank","288","null","0.10363896343059206","0.48503098049869037","0.16290141239980455","0","","","","","","","","",""
"","html-keyboard-response","137","497204","0.0-77.0-1.0","""event"",""trial"",""time""
""fullscreenenter"",""0"",""18095""
","
","
","""event"",""trial"",""time""
""fullscreenenter"",""0"",""18095""
","
","null","<p></p>","null","","","","","","","","","","","","","","","","","","","","","","","",""
"","do_recog","138","500852","0.0-78.0-0.0","""event"",""trial"",""time""
""fullscreenenter"",""0"",""18095""
","
","
","""event"",""trial"",""time""
""fullscreenenter"",""0"",""18095""
","
","2135.9000000953674","","","","","","","","56","","","","289","probe-121","","","","","1","[object Object]","114","2","0","","","",""
"","html-keyboard-response","139","501861","0.0-78.0-1.0","""event"",""trial"",""time""
""fullscreenenter"",""0"",""18095""
","
","
","""event"",""trial"",""time""
""fullscreenenter"",""0"",""18095""
","
","null","<p></p>","null","","","","","","","","","","","","","","","","","","","","","","","",""
"","do_trial","140","505386","0.0-79.0-0.0","""event"",""trial"",""time""
""fullscreenenter"",""0"",""18095""
","
","
","""event"",""trial"",""time""
""fullscreenenter"",""0"",""18095""
","
","994","","","","","","","","50","0,1,1","6","blank","290","null","0.15034240506298233","0.5281547671163912","0.24551398000400013","1","","","","","","","","",""
"","html-keyboard-response","141","506398","0.0-79.0-1.0","""event"",""trial"",""time""
""fullscreenenter"",""0"",""18095""
","
","
","""event"",""trial"",""time""
""fullscreenenter"",""0"",""18095""
","
","null","<p></p>","null","","","","","","","","","","","","","","","","","","","","","","","",""
"","do_trial","142","509598","0.0-80.0-0.0","""event"",""trial"",""time""
""fullscreenenter"",""0"",""18095""
","
","
","""event"",""trial"",""time""
""fullscreenenter"",""0"",""18095""
","
","673.7999999523163","","","","","","","","50","0,1,1","6","blank","291","null","0.1819024289189198","0.5700455911740249","0.203192851170654","1","","","","","","","","",""
"","html-keyboard-response","143","510604","0.0-80.0-1.0","""event"",""trial"",""time""
""fullscreenenter"",""0"",""18095""
","
","
","""event"",""trial"",""time""
""fullscreenenter"",""0"",""18095""
","
","null","<p></p>","null","","","","","","","","","","","","","","","","","","","","","","","",""
"","do_recog","144","513955","0.0-81.0-0.0","""event"",""trial"",""time""
""fullscreenenter"",""0"",""18095""
","
","
","""event"",""trial"",""time""
""fullscreenenter"",""0"",""18095""
","
","1839","","","","","","","","55","","","","292","probe-247","","","","","0","[object Object]","null","null","1","","","",""
"","html-keyboard-response","145","514970","0.0-81.0-1.0","""event"",""trial"",""time""
""fullscreenenter"",""0"",""18095""
","
","
","""event"",""trial"",""time""
""fullscreenenter"",""0"",""18095""
","
","null","<p></p>","null","","","","","","","","","","","","","","","","","","","","","","","",""
"","do_trial","146","518487","0.0-82.0-0.0","""event"",""trial"",""time""
""fullscreenenter"",""0"",""18095""
","
","
","""event"",""trial"",""time""
""fullscreenenter"",""0"",""18095""
","
","989.5999999046326","","","","","","","","50","0,1,0","6","blank","293","null","0.11831340432666235","0.564881090492686","0.2533183214223594","1","","","","","","","","",""
"","html-keyboard-response","147","519501","0.0-82.0-1.0","""event"",""trial"",""time""
""fullscreenenter"",""0"",""18095""
","
","
","""event"",""trial"",""time""
""fullscreenenter"",""0"",""18095""
","
","null","<p></p>","null","","","","","","","","","","","","","","","","","","","","","","","",""
"","do_recog","148","522923","0.0-83.0-0.0","""event"",""trial"",""time""
""fullscreenenter"",""0"",""18095""
","
","
","""event"",""trial"",""time""
""fullscreenenter"",""0"",""18095""
","
","1912.7999999523163","","","","","","","","55","","","","294","probe-135","","","","","1","[object Object]","158","3","0","","","",""
"","html-keyboard-response","149","523932","0.0-83.0-1.0","""event"",""trial"",""time""
""fullscreenenter"",""0"",""18095""
","
","
","""event"",""trial"",""time""
""fullscreenenter"",""0"",""18095""
","
","null","<p></p>","null","","","","","","","","","","","","","","","","","","","","","","","",""
"","do_trial","150","527558","0.0-84.0-0.0","""event"",""trial"",""time""
""fullscreenenter"",""0"",""18095""
","
","
","""event"",""trial"",""time""
""fullscreenenter"",""0"",""18095""
","
","1097.9000000953674","","","","","","","","50","0,1,0","6","blank","295","null","0.06972586032617031","0.6998304212908903","0.11571235526412547","1","","","","","","","","",""
"","html-keyboard-response","151","528561","0.0-84.0-1.0","""event"",""trial"",""time""
""fullscreenenter"",""0"",""18095""
","
","
","""event"",""trial"",""time""
""fullscreenenter"",""0"",""18095""
","
","null","<p></p>","null","","","","","","","","","","","","","","","","","","","","","","","",""
"","do_recog","152","531705","0.0-85.0-0.0","""event"",""trial"",""time""
""fullscreenenter"",""0"",""18095""
","
","
","""event"",""trial"",""time""
""fullscreenenter"",""0"",""18095""
","
","1624.7000000476837","","","","","","","","56","","","","296","probe-252","","","","","0","[object Object]","null","null","1","","","",""
"","html-keyboard-response","153","532714","0.0-85.0-1.0","""event"",""trial"",""time""
""fullscreenenter"",""0"",""18095""
","
","
","""event"",""trial"",""time""
""fullscreenenter"",""0"",""18095""
","
","null","<p></p>","null","","","","","","","","","","","","","","","","","","","","","","","",""
"","do_trial","154","536348","0.0-86.0-0.0","""event"",""trial"",""time""
""fullscreenenter"",""0"",""18095""
","
","
","""event"",""trial"",""time""
""fullscreenenter"",""0"",""18095""
","
","1093.1000001430511","","","","","","","","50","0,1,0","6","blank","297","null","0.3985631709522493","0.6026635838300299","0.0979618672380297","1","","","","","","","","",""
"","html-keyboard-response","155","537355","0.0-86.0-1.0","""event"",""trial"",""time""
""fullscreenenter"",""0"",""18095""
","
","
","""event"",""trial"",""time""
""fullscreenenter"",""0"",""18095""
","
","null","<p></p>","null","","","","","","","","","","","","","","","","","","","","","","","",""
"","do_recog","156","540413","0.0-87.0-0.0","""event"",""trial"",""time""
""fullscreenenter"",""0"",""18095""
","
","
","""event"",""trial"",""time""
""fullscreenenter"",""0"",""18095""
","
","1553.2000000476837","","","","","","","","55","","","","298","probe-65","","","","","1","[object Object]","113","2","0","","","",""
"","html-keyboard-response","157","541425","0.0-87.0-1.0","""event"",""trial"",""time""
""fullscreenenter"",""0"",""18095""
","
","
","""event"",""trial"",""time""
""fullscreenenter"",""0"",""18095""
","
","null","<p></p>","null","","","","","","","","","","","","","","","","","","","","","","","",""
"","do_trial","158","544447","0.0-88.0-0.0","""event"",""trial"",""time""
""fullscreenenter"",""0"",""18095""
","
","
","""event"",""trial"",""time""
""fullscreenenter"",""0"",""18095""
","
","495.39999985694885","","","","","","","","50","1,1,0","6","blank","299","null","0.5158658580370785","0.4382675721751352","0.13424315348625743","1","","","","","","","","",""
"","html-keyboard-response","159","545455","0.0-88.0-1.0","""event"",""trial"",""time""
""fullscreenenter"",""0"",""18095""
","
","
","""event"",""trial"",""time""
""fullscreenenter"",""0"",""18095""
","
","null","<p></p>","null","","","","","","","","","","","","","","","","","","","","","","","",""
"","do_recog","160","548657","0.0-89.0-0.0","""event"",""trial"",""time""
""fullscreenenter"",""0"",""18095""
","
","
","""event"",""trial"",""time""
""fullscreenenter"",""0"",""18095""
","
","1683.5","","","","","","","","56","","","","300","probe-125","","","","","1","[object Object]","156","3","0","","","",""
"","html-keyboard-response","161","549667","0.0-89.0-1.0","""event"",""trial"",""time""
""fullscreenenter"",""0"",""18095""
","
","
","""event"",""trial"",""time""
""fullscreenenter"",""0"",""18095""
","
","null","<p></p>","null","","","","","","","","","","","","","","","","","","","","","","","",""
"","do_trial","162","553288","0.0-90.0-0.0","""event"",""trial"",""time""
""fullscreenenter"",""0"",""18095""
","
","
","""event"",""trial"",""time""
""fullscreenenter"",""0"",""18095""
","
","1091.5","","","","","","","","50","0,1,1","6","blank","301","null","0.49219197641012224","0.37771350623997074","0.29352374371864914","1","","","","","","","","",""
"","html-keyboard-response","163","554299","0.0-90.0-1.0","""event"",""trial"",""time""
""fullscreenenter"",""0"",""18095""
","
","
","""event"",""trial"",""time""
""fullscreenenter"",""0"",""18095""
","
","null","<p></p>","null","","","","","","","","","","","","","","","","","","","","","","","",""
"","do_trial","164","557452","0.0-91.0-0.0","""event"",""trial"",""time""
""fullscreenenter"",""0"",""18095""
","
","
","""event"",""trial"",""time""
""fullscreenenter"",""0"",""18095""
","
","612","","","","","","","","50","1,0,1","6","blank","302","null","0.48324722115965674","0.34753060546668707","0.24943814396145317","0","","","","","","","","",""
"","html-keyboard-response","165","558458","0.0-91.0-1.0","""event"",""trial"",""time""
""fullscreenenter"",""0"",""18095""
","
","
","""event"",""trial"",""time""
""fullscreenenter"",""0"",""18095""
","
","null","<p></p>","null","","","","","","","","","","","","","","","","","","","","","","","",""
"","do_trial","166","561546","0.0-92.0-0.0","""event"",""trial"",""time""
""fullscreenenter"",""0"",""18095""
","
","
","""event"",""trial"",""time""
""fullscreenenter"",""0"",""18095""
","
","549.4000000953674","","","","","","","","50","1,1,0","6","blank","303","null","0.625743289031423","0.33131789440511616","0.16426715765618738","1","","","","","","","","",""
"","html-keyboard-response","167","562553","0.0-92.0-1.0","""event"",""trial"",""time""
""fullscreenenter"",""0"",""18095""
","
","
","""event"",""trial"",""time""
""fullscreenenter"",""0"",""18095""
","
","null","<p></p>","null","","","","","","","","","","","","","","","","","","","","","","","",""
"","do_trial","168","565600","0.0-93.0-0.0","""event"",""trial"",""time""
""fullscreenenter"",""0"",""18095""
","
","
","""event"",""trial"",""time""
""fullscreenenter"",""0"",""18095""
","
","519.2999999523163","","","","","","","","50","1,0,0","6","blank","304","null","0.596508836351519","0.27466985576887476","0.13325837486687195","0","","","","","","","","",""
"","html-keyboard-response","169","566611","0.0-93.0-1.0","""event"",""trial"",""time""
""fullscreenenter"",""0"",""18095""
","
","
","""event"",""trial"",""time""
""fullscreenenter"",""0"",""18095""
","
","null","<p></p>","null","","","","","","","","","","","","","","","","","","","","","","","",""
"","do_trial","170","569779","0.0-94.0-0.0","""event"",""trial"",""time""
""fullscreenenter"",""0"",""18095""
","
","
","""event"",""trial"",""time""
""fullscreenenter"",""0"",""18095""
","
","628.2999999523163","","","","","","","","50","1,0,0","6","blank","305","null","0.5722692314230615","0.400093592385512","0.19015672725276617","0","","","","","","","","",""
"","html-keyboard-response","171","570788","0.0-94.0-1.0","""event"",""trial"",""time""
""fullscreenenter"",""0"",""18095""
","
","
","""event"",""trial"",""time""
""fullscreenenter"",""0"",""18095""
","
","null","<p></p>","null","","","","","","","","","","","","","","","","","","","","","","","",""
"","do_trial","172","573847","0.0-95.0-0.0","""event"",""trial"",""time""
""fullscreenenter"",""0"",""18095""
","
","
","""event"",""trial"",""time""
""fullscreenenter"",""0"",""18095""
","
","525.0999999046326","","","","","","","","50","1,0,0","6","blank","306","null","0.7064186303832216","0.26850977083409017","0.1474319863693693","0","","","","","","","","",""
"","html-keyboard-response","173","574856","0.0-95.0-1.0","""event"",""trial"",""time""
""fullscreenenter"",""0"",""18095""
","
","
","""event"",""trial"",""time""
""fullscreenenter"",""0"",""18095""
","
","null","<p></p>","null","","","","","","","","","","","","","","","","","","","","","","","",""
"","do_recog","174","579001","0.0-96.0-0.0","""event"",""trial"",""time""
""fullscreenenter"",""0"",""18095""
","
","
","""event"",""trial"",""time""
""fullscreenenter"",""0"",""18095""
","
","2632.4000000953674","","","","","","","","53","","","","307","probe-49","","","","","1","[object Object]","34","0","1","","","",""
"","html-keyboard-response","175","580008","0.0-96.0-1.0","""event"",""trial"",""time""
""fullscreenenter"",""0"",""18095""
","
","
","""event"",""trial"",""time""
""fullscreenenter"",""0"",""18095""
","
","null","<p></p>","null","","","","","","","","","","","","","","","","","","","","","","","",""
"","do_trial","176","583212","0.0-97.0-0.0","""event"",""trial"",""time""
""fullscreenenter"",""0"",""18095""
","
","
","""event"",""trial"",""time""
""fullscreenenter"",""0"",""18095""
","
","660.5","","","","","","","","50","0,0,0","6","blank","308","null","0.6880067921769437","0.415456882151247","0.1522468816454603","0","","","","","","","","",""
"","html-keyboard-response","177","584221","0.0-97.0-1.0","""event"",""trial"",""time""
""fullscreenenter"",""0"",""18095""
","
","
","""event"",""trial"",""time""
""fullscreenenter"",""0"",""18095""
","
","null","<p></p>","null","","","","","","","","","","","","","","","","","","","","","","","",""
"","break","178","639855","0.0-98.0-0.0","""event"",""trial"",""time""
""fullscreenenter"",""0"",""18095""
","
","
","""event"",""trial"",""time""
""fullscreenenter"",""0"",""18095""
","
","55634","<div class='center'><p>Time to take a quick break! You have 2 minutes to rest, but you can move on sooner if you'd like.</p><p> Press the <b>space bar</b> to continue.</p></div>","32","","","","","","","","","","","","","","","","","","","","","","","",""
"","do_trial","179","643507","0.0-98.0-1.0","""event"",""trial"",""time""
""fullscreenenter"",""0"",""18095""
","
","
","""event"",""trial"",""time""
""fullscreenenter"",""0"",""18095""
","
","1112.2999999523163","","","","","","","","50","1,0,0","6","blank","309","null","0.5240222528689987","0.4414806800235672","0.23422306784342173","0","","","","","","","","",""
"","html-keyboard-response","180","644517","0.0-98.0-2.0","""event"",""trial"",""time""
""fullscreenenter"",""0"",""18095""
","
","
","""event"",""trial"",""time""
""fullscreenenter"",""0"",""18095""
","
","null","<p></p>","null","","","","","","","","","","","","","","","","","","","","","","","",""
"","do_trial","181","648076","0.0-99.0-0.0","""event"",""trial"",""time""
""fullscreenenter"",""0"",""18095""
","
","
","""event"",""trial"",""time""
""fullscreenenter"",""0"",""18095""
","
","1033.2000000476837","","","","","","","","50","1,1,0","6","blank","310","null","0.6384528177013062","0.3044282675774801","0.20282347002363657","1","","","","","","","","",""
"","html-keyboard-response","182","649086","0.0-99.0-1.0","""event"",""trial"",""time""
""fullscreenenter"",""0"",""18095""
","
","
","""event"",""trial"",""time""
""fullscreenenter"",""0"",""18095""
","
","null","<p></p>","null","","","","","","","","","","","","","","","","","","","","","","","",""
"","do_trial","183","651974","0.0-100.0-0.0","""event"",""trial"",""time""
""fullscreenenter"",""0"",""18095""
","
","
","""event"",""trial"",""time""
""fullscreenenter"",""0"",""18095""
","
","353.40000009536743","","","","","","","","50","1,1,1","6","blank","311","null","0.6783609620461546","0.39406734182699965","0.08500581556306809","1","","","","","","","","",""
"","html-keyboard-response","184","652988","0.0-100.0-1.0","""event"",""trial"",""time""
""fullscreenenter"",""0"",""18095""
","
","
","""event"",""trial"",""time""
""fullscreenenter"",""0"",""18095""
","
","null","<p></p>","null","","","","","","","","","","","","","","","","","","","","","","","",""
"","do_trial","185","656017","0.0-101.0-0.0","""event"",""trial"",""time""
""fullscreenenter"",""0"",""18095""
","
","
","""event"",""trial"",""time""
""fullscreenenter"",""0"",""18095""
","
","492.59999990463257","","","","","","","","51","1,0,1","6","blank","312","null","0.6087477855798481","0.365938454698788","0.2895117742415306","1","","","","","","","","",""
"","html-keyboard-response","186","657026","0.0-101.0-1.0","""event"",""trial"",""time""
""fullscreenenter"",""0"",""18095""
","
","
","""event"",""trial"",""time""
""fullscreenenter"",""0"",""18095""
","
","null","<p></p>","null","","","","","","","","","","","","","","","","","","","","","","","",""
"","do_recog","187","660400","0.0-102.0-0.0","""event"",""trial"",""time""
""fullscreenenter"",""0"",""18095""
","
","
","""event"",""trial"",""time""
""fullscreenenter"",""0"",""18095""
","
","1864","","","","","","","","56","","","","313","probe-73","","","","","1","[object Object]","73","1","0","","","",""
"","html-keyboard-response","188","661411","0.0-102.0-1.0","""event"",""trial"",""time""
""fullscreenenter"",""0"",""18095""
","
","
","""event"",""trial"",""time""
""fullscreenenter"",""0"",""18095""
","
","null","<p></p>","null","","","","","","","","","","","","","","","","","","","","","","","",""
"","do_trial","189","664623","0.0-103.0-0.0","""event"",""trial"",""time""
""fullscreenenter"",""0"",""18095""
","
","
","""event"",""trial"",""time""
""fullscreenenter"",""0"",""18095""
","
","684.0999999046326","","","","","","","","50","0,0,0","6","blank","314","null","0.48537372596815126","0.3310513516788111","0.1584782068093959","0","","","","","","","","",""
"","html-keyboard-response","190","665632","0.0-103.0-1.0","""event"",""trial"",""time""
""fullscreenenter"",""0"",""18095""
","
","
","""event"",""trial"",""time""
""fullscreenenter"",""0"",""18095""
","
","null","<p></p>","null","","","","","","","","","","","","","","","","","","","","","","","",""
"","do_trial","191","668591","0.0-104.0-0.0","""event"",""trial"",""time""
""fullscreenenter"",""0"",""18095""
","
","
","""event"",""trial"",""time""
""fullscreenenter"",""0"",""18095""
","
","431.90000009536743","","","","","","","","50","0,0,0","6","blank","315","null","0.3880353586566615","0.3103644376099384","0.20215052796276595","0","","","","","","","","",""
"","html-keyboard-response","192","669599","0.0-104.0-1.0","""event"",""trial"",""time""
""fullscreenenter"",""0"",""18095""
","
","
","""event"",""trial"",""time""
""fullscreenenter"",""0"",""18095""
","
","null","<p></p>","null","","","","","","","","","","","","","","","","","","","","","","","",""
"","do_trial","193","672490","0.0-105.0-0.0","""event"",""trial"",""time""
""fullscreenenter"",""0"",""18095""
","
","
","""event"",""trial"",""time""
""fullscreenenter"",""0"",""18095""
","
","352.09999990463257","","","","","","","","49","1,1,0","6","blank","316","null","0.5750554205779783","0.16741191289147325","0.08326041631873521","1","","","","","","","","",""
"","html-keyboard-response","194","673500","0.0-105.0-1.0","""event"",""trial"",""time""
""fullscreenenter"",""0"",""18095""
","
","
","""event"",""trial"",""time""
""fullscreenenter"",""0"",""18095""
","
","null","<p></p>","null","","","","","","","","","","","","","","","","","","","","","","","",""
"","do_trial","195","676602","0.0-106.0-0.0","""event"",""trial"",""time""
""fullscreenenter"",""0"",""18095""
","
","
","""event"",""trial"",""time""
""fullscreenenter"",""0"",""18095""
","
","569.5","","","","","","","","49","0,0,0","6","blank","317","null","0.49240673126747014","0.1640576082038496","0.05893897023067552","0","","","","","","","","",""
"","html-keyboard-response","196","677609","0.0-106.0-1.0","""event"",""trial"",""time""
""fullscreenenter"",""0"",""18095""
","
","
","""event"",""trial"",""time""
""fullscreenenter"",""0"",""18095""
","
","null","<p></p>","null","","","","","","","","","","","","","","","","","","","","","","","",""
"","do_trial","197","680713","0.0-107.0-0.0","""event"",""trial"",""time""
""fullscreenenter"",""0"",""18095""
","
","
","""event"",""trial"",""time""
""fullscreenenter"",""0"",""18095""
","
","568.2000000476837","","","","","","","","50","0,0,0","6","blank","318","null","0.4965175883922229","0.2650707214835728","0.09019574005381044","0","","","","","","","","",""
"","html-keyboard-response","198","681722","0.0-107.0-1.0","""event"",""trial"",""time""
""fullscreenenter"",""0"",""18095""
","
","
","""event"",""trial"",""time""
""fullscreenenter"",""0"",""18095""
","
","null","<p></p>","null","","","","","","","","","","","","","","","","","","","","","","","",""
"","do_trial","199","684718","0.0-108.0-0.0","""event"",""trial"",""time""
""fullscreenenter"",""0"",""18095""
","
","
","""event"",""trial"",""time""
""fullscreenenter"",""0"",""18095""
","
","467.10000014305115","","","","","","","","50","1,0,0","6","blank","319","null","0.43022797454080475","0.19544986896010882","0.11881752301755205","0","","","","","","","","",""
"","html-keyboard-response","200","685724","0.0-108.0-1.0","""event"",""trial"",""time""
""fullscreenenter"",""0"",""18095""
","
","
","""event"",""trial"",""time""
""fullscreenenter"",""0"",""18095""
","
","null","<p></p>","null","","","","","","","","","","","","","","","","","","","","","","","",""
"","do_recog","201","689157","0.0-109.0-0.0","""event"",""trial"",""time""
""fullscreenenter"",""0"",""18095""
","
","
","""event"",""trial"",""time""
""fullscreenenter"",""0"",""18095""
","
","1917.7999999523163","","","","","","","","54","","","","320","probe-05","","","","","1","[object Object]","196","4","1","","","",""
"","html-keyboard-response","202","690167","0.0-109.0-1.0","""event"",""trial"",""time""
""fullscreenenter"",""0"",""18095""
","
","
","""event"",""trial"",""time""
""fullscreenenter"",""0"",""18095""
","
","null","<p></p>","null","","","","","","","","","","","","","","","","","","","","","","","",""
"","do_trial","203","693276","0.0-110.0-0.0","""event"",""trial"",""time""
""fullscreenenter"",""0"",""18095""
","
","
","""event"",""trial"",""time""
""fullscreenenter"",""0"",""18095""
","
","573.4000000953674","","","","","","","","50","0,1,0","6","blank","321","null","0.32091279088735597","0.25922716863993006","0.10447846385565895","1","","","","","","","","",""
"","html-keyboard-response","204","694282","0.0-110.0-1.0","""event"",""trial"",""time""
""fullscreenenter"",""0"",""18095""
","
","
","""event"",""trial"",""time""
""fullscreenenter"",""0"",""18095""
","
","null","<p></p>","null","","","","","","","","","","","","","","","","","","","","","","","",""
"","do_trial","205","697138","0.0-111.0-0.0","""event"",""trial"",""time""
""fullscreenenter"",""0"",""18095""
","
","
","""event"",""trial"",""time""
""fullscreenenter"",""0"",""18095""
","
","322.2000000476837","","","","","","","","50","0,0,0","6","blank","322","null","0.39737475858841337","0.1818450925702815","0.18855746538145282","0","","","","","","","","",""
"","html-keyboard-response","206","698146","0.0-111.0-1.0","""event"",""trial"",""time""
""fullscreenenter"",""0"",""18095""
","
","
","""event"",""trial"",""time""
""fullscreenenter"",""0"",""18095""
","
","null","<p></p>","null","","","","","","","","","","","","","","","","","","","","","","","",""
"","do_trial","207","700995","0.0-112.0-0.0","""event"",""trial"",""time""
""fullscreenenter"",""0"",""18095""
","
","
","""event"",""trial"",""time""
""fullscreenenter"",""0"",""18095""
","
","308.60000014305115","","","","","","","","50","0,1,0","6","blank","323","null","0.3631116281665491","0.17621506528865571","0.12843116412247116","1","","","","","","","","",""
"","html-keyboard-response","208","702002","0.0-112.0-1.0","""event"",""trial"",""time""
""fullscreenenter"",""0"",""18095""
","
","
","""event"",""trial"",""time""
""fullscreenenter"",""0"",""18095""
","
","null","<p></p>","null","","","","","","","","","","","","","","","","","","","","","","","",""
"","do_trial","209","704642","0.0-113.0-0.0","""event"",""trial"",""time""
""fullscreenenter"",""0"",""18095""
","
","
","""event"",""trial"",""time""
""fullscreenenter"",""0"",""18095""
","
","102.70000004768372","","","","","","","","50","1,0,0","6","blank","324","null","0.41992395794865944","0.11533487239796493","0.20876335903478382","0","","","","","","","","",""
"","html-keyboard-response","210","705648","0.0-113.0-1.0","""event"",""trial"",""time""
""fullscreenenter"",""0"",""18095""
","
","
","""event"",""trial"",""time""
""fullscreenenter"",""0"",""18095""
","
","null","<p></p>","null","","","","","","","","","","","","","","","","","","","","","","","",""
"","do_trial","211","708804","0.0-114.0-0.0","""event"",""trial"",""time""
""fullscreenenter"",""0"",""18095""
","
","
","""event"",""trial"",""time""
""fullscreenenter"",""0"",""18095""
","
","623.2999999523163","","","","","","","","50","0,0,0","6","blank","325","null","0.5325576425437586","0.16882778741646348","0.17402044812297987","0","","","","","","","","",""
"","html-keyboard-response","212","709810","0.0-114.0-1.0","""event"",""trial"",""time""
""fullscreenenter"",""0"",""18095""
","
","
","""event"",""trial"",""time""
""fullscreenenter"",""0"",""18095""
","
","null","<p></p>","null","","","","","","","","","","","","","","","","","","","","","","","",""
"","do_trial","213","712731","0.0-115.0-0.0","""event"",""trial"",""time""
""fullscreenenter"",""0"",""18095""
","
","
","""event"",""trial"",""time""
""fullscreenenter"",""0"",""18095""
","
","381.40000009536743","","","","","","","","50","1,0,0","6","blank","326","null","0.6525773037266761","0.18484153347428248","0.1801939885933276","0","","","","","","","","",""
"","html-keyboard-response","214","713747","0.0-115.0-1.0","""event"",""trial"",""time""
""fullscreenenter"",""0"",""18095""
","
","
","""event"",""trial"",""time""
""fullscreenenter"",""0"",""18095""
","
","null","<p></p>","null","","","","","","","","","","","","","","","","","","","","","","","",""
"","do_recog","215","717113","0.0-116.0-0.0","""event"",""trial"",""time""
""fullscreenenter"",""0"",""18095""
","
","
","""event"",""trial"",""time""
""fullscreenenter"",""0"",""18095""
","
","1848.7999999523163","","","","","","","","55","","","","327","probe-75","","","","","1","[object Object]","110","2","0","","","",""
"","html-keyboard-response","216","718123","0.0-116.0-1.0","""event"",""trial"",""time""
""fullscreenenter"",""0"",""18095""
","
","
","""event"",""trial"",""time""
""fullscreenenter"",""0"",""18095""
","
","null","<p></p>","null","","","","","","","","","","","","","","","","","","","","","","","",""
"","do_trial","217","721136","0.0-117.0-0.0","""event"",""trial"",""time""
""fullscreenenter"",""0"",""18095""
","
","
","""event"",""trial"",""time""
""fullscreenenter"",""0"",""18095""
","
","475.5","","","","","","","","50","0,0,1","6","blank","328","null","0.6357109688424154","0.20127534994511984","0.31036086439712085","0","","","","","","","","",""
"","html-keyboard-response","218","722144","0.0-117.0-1.0","""event"",""trial"",""time""
""fullscreenenter"",""0"",""18095""
","
","
","""event"",""trial"",""time""
""fullscreenenter"",""0"",""18095""
","
","null","<p></p>","null","","","","","","","","","","","","","","","","","","","","","","","",""
"","do_recog","219","725406","0.0-118.0-0.0","""event"",""trial"",""time""
""fullscreenenter"",""0"",""18095""
","
","
","""event"",""trial"",""time""
""fullscreenenter"",""0"",""18095""
","
","1748.2999999523163","","","","","","","","55","","","","329","probe-209","","","","","1","[object Object]","35","0","0","","","",""
"","html-keyboard-response","220","726418","0.0-118.0-1.0","""event"",""trial"",""time""
""fullscreenenter"",""0"",""18095""
","
","
","""event"",""trial"",""time""
""fullscreenenter"",""0"",""18095""
","
","null","<p></p>","null","","","","","","","","","","","","","","","","","","","","","","","",""
"","do_trial","221","729587","0.0-119.0-0.0","""event"",""trial"",""time""
""fullscreenenter"",""0"",""18095""
","
","
","""event"",""trial"",""time""
""fullscreenenter"",""0"",""18095""
","
","630.0999999046326","","","","","","","","50","1,0,1","6","blank","330","null","0.6405648347128429","0.27671157307043964","0.3648776015449009","0","","","","","","","","",""
"","html-keyboard-response","222","730597","0.0-119.0-1.0","""event"",""trial"",""time""
""fullscreenenter"",""0"",""18095""
","
","
","""event"",""trial"",""time""
""fullscreenenter"",""0"",""18095""
","
","null","<p></p>","null","","","","","","","","","","","","","","","","","","","","","","","",""
"","do_trial","223","733657","0.0-120.0-0.0","""event"",""trial"",""time""
""fullscreenenter"",""0"",""18095""
","
","
","""event"",""trial"",""time""
""fullscreenenter"",""0"",""18095""
","
","530","","","","","","","","50","0,0,0","6","blank","331","null","0.718457012279157","0.3408926939017416","0.226343879785844","0","","","","","","","","",""
"","html-keyboard-response","224","734666","0.0-120.0-1.0","""event"",""trial"",""time""
""fullscreenenter"",""0"",""18095""
","
","
","""event"",""trial"",""time""
""fullscreenenter"",""0"",""18095""
","
","null","<p></p>","null","","","","","","","","","","","","","","","","","","","","","","","",""
"","do_trial","225","737710","0.0-121.0-0.0","""event"",""trial"",""time""
""fullscreenenter"",""0"",""18095""
","
","
","""event"",""trial"",""time""
""fullscreenenter"",""0"",""18095""
","
","509","","","","","","","","50","1,1,0","6","blank","332","null","0.7437739423615435","0.40467705891679645","0.19007307005406607","1","","","","","","","","",""
"","html-keyboard-response","226","738718","0.0-121.0-1.0","""event"",""trial"",""time""
""fullscreenenter"",""0"",""18095""
","
","
","""event"",""trial"",""time""
""fullscreenenter"",""0"",""18095""
","
","null","<p></p>","null","","","","","","","","","","","","","","","","","","","","","","","",""
"","do_trial","227","741823","0.0-122.0-0.0","""event"",""trial"",""time""
""fullscreenenter"",""0"",""18095""
","
","
","""event"",""trial"",""time""
""fullscreenenter"",""0"",""18095""
","
","571.2999999523163","","","","","","","","50","1,0,0","6","blank","333","null","0.737971452268887","0.5333110807965449","0.088765500761041","0","","","","","","","","",""
"","html-keyboard-response","228","742834","0.0-122.0-1.0","""event"",""trial"",""time""
""fullscreenenter"",""0"",""18095""
","
","
","""event"",""trial"",""time""
""fullscreenenter"",""0"",""18095""
","
","null","<p></p>","null","","","","","","","","","","","","","","","","","","","","","","","",""
"","do_trial","229","747100","0.0-123.0-0.0","""event"",""trial"",""time""
""fullscreenenter"",""0"",""18095""
","
","
","""event"",""trial"",""time""
""fullscreenenter"",""0"",""18095""
","
","1730.3999998569489","","","","","","","","50","1,1,0","6","blank","334","null","0.5144238728901767","0.38581577316581306","0.11004039899725314","1","","","","","","","","",""
"","html-keyboard-response","230","748111","0.0-123.0-1.0","""event"",""trial"",""time""
""fullscreenenter"",""0"",""18095""
","
","
","""event"",""trial"",""time""
""fullscreenenter"",""0"",""18095""
","
","null","<p></p>","null","","","","","","","","","","","","","","","","","","","","","","","",""
"","do_recog","231","752126","0.0-124.0-0.0","""event"",""trial"",""time""
""fullscreenenter"",""0"",""18095""
","
","
","""event"",""trial"",""time""
""fullscreenenter"",""0"",""18095""
","
","2506.5","","","","","","","","56","","","","335","probe-218","","","","","1","[object Object]","155","3","0","","","",""
"","html-keyboard-response","232","753141","0.0-124.0-1.0","""event"",""trial"",""time""
""fullscreenenter"",""0"",""18095""
","
","
","""event"",""trial"",""time""
""fullscreenenter"",""0"",""18095""
","
","null","<p></p>","null","","","","","","","","","","","","","","","","","","","","","","","",""
"","do_trial","233","757327","0.0-125.0-0.0","""event"",""trial"",""time""
""fullscreenenter"",""0"",""18095""
","
","
","""event"",""trial"",""time""
""fullscreenenter"",""0"",""18095""
","
","1656","","","","","","","","50","1,0,0","6","blank","336","null","0.6457510704918172","0.17146523499182878","0.06824289161169021","0","","","","","","","","",""
"","html-keyboard-response","234","758331","0.0-125.0-1.0","""event"",""trial"",""time""
""fullscreenenter"",""0"",""18095""
","
","
","""event"",""trial"",""time""
""fullscreenenter"",""0"",""18095""
","
","null","<p></p>","null","","","","","","","","","","","","","","","","","","","","","","","",""
"","do_trial","235","761206","0.0-126.0-0.0","""event"",""trial"",""time""
""fullscreenenter"",""0"",""18095""
","
","
","""event"",""trial"",""time""
""fullscreenenter"",""0"",""18095""
","
","350.10000014305115","","","","","","","","50","1,0,0","6","blank","337","null","0.6775467753392465","0.13348117377408983","0.06646760108145106","0","","","","","","","","",""
"","html-keyboard-response","236","762217","0.0-126.0-1.0","""event"",""trial"",""time""
""fullscreenenter"",""0"",""18095""
","
","
","""event"",""trial"",""time""
""fullscreenenter"",""0"",""18095""
","
","null","<p></p>","null","","","","","","","","","","","","","","","","","","","","","","","",""
"","do_trial","237","765169","0.0-127.0-0.0","""event"",""trial"",""time""
""fullscreenenter"",""0"",""18095""
","
","
","""event"",""trial"",""time""
""fullscreenenter"",""0"",""18095""
","
","420.7000000476837","","","","","","","","50","0,0,0","6","blank","338","null","0.6430237355298256","0.3321611485017547","0.2182318009380284","0","","","","","","","","",""
"","html-keyboard-response","238","766185","0.0-127.0-1.0","""event"",""trial"",""time""
""fullscreenenter"",""0"",""18095""
","
","
","""event"",""trial"",""time""
""fullscreenenter"",""0"",""18095""
","
","null","<p></p>","null","","","","","","","","","","","","","","","","","","","","","","","",""
"","do_trial","239","770171","0.0-128.0-0.0","""event"",""trial"",""time""
""fullscreenenter"",""0"",""18095""
","
","
","""event"",""trial"",""time""
""fullscreenenter"",""0"",""18095""
","
","1455.2999999523163","","","","","","","","49","0,1,0","6","blank","339","null","0.4879341477700282","0.3588818415108883","0.16992520532061864","0","","","","","","","","",""
"","html-keyboard-response","240","771179","0.0-128.0-1.0","""event"",""trial"",""time""
""fullscreenenter"",""0"",""18095""
","
","
","""event"",""trial"",""time""
""fullscreenenter"",""0"",""18095""
","
","null","<p></p>","null","","","","","","","","","","","","","","","","","","","","","","","",""
"","do_trial","241","774739","0.0-129.0-0.0","""event"",""trial"",""time""
""fullscreenenter"",""0"",""18095""
","
","
","""event"",""trial"",""time""
""fullscreenenter"",""0"",""18095""
","
","1021.0999999046326","","","","","","","","51","0,1,0","6","blank","340","null","0.4221963096414439","0.2713140672506701","0.15912506552197322","0","","","","","","","","",""
"","html-keyboard-response","242","775747","0.0-129.0-1.0","""event"",""trial"",""time""
""fullscreenenter"",""0"",""18095""
","
","
","""event"",""trial"",""time""
""fullscreenenter"",""0"",""18095""
","
","null","<p></p>","null","","","","","","","","","","","","","","","","","","","","","","","",""
"","do_recog","243","779065","0.0-130.0-0.0","""event"",""trial"",""time""
""fullscreenenter"",""0"",""18095""
","
","
","""event"",""trial"",""time""
""fullscreenenter"",""0"",""18095""
","
","1807.7999999523163","","","","","","","","53","","","","341","probe-43","","","","","1","[object Object]","31","0","1","","","",""
"","html-keyboard-response","244","780079","0.0-130.0-1.0","""event"",""trial"",""time""
""fullscreenenter"",""0"",""18095""
","
","
","""event"",""trial"",""time""
""fullscreenenter"",""0"",""18095""
","
","null","<p></p>","null","","","","","","","","","","","","","","","","","","","","","","","",""
"","do_trial","245","783253","0.0-131.0-0.0","""event"",""trial"",""time""
""fullscreenenter"",""0"",""18095""
","
","
","""event"",""trial"",""time""
""fullscreenenter"",""0"",""18095""
","
","641.5999999046326","","","","","","","","50","0,1,0","6","blank","342","null","0.5131748982083637","0.2713784350453849","0.14005590098352158","1","","","","","","","","",""
"","html-keyboard-response","246","784258","0.0-131.0-1.0","""event"",""trial"",""time""
""fullscreenenter"",""0"",""18095""
","
","
","""event"",""trial"",""time""
""fullscreenenter"",""0"",""18095""
","
","null","<p></p>","null","","","","","","","","","","","","","","","","","","","","","","","",""
"","do_trial","247","788071","0.0-132.0-0.0","""event"",""trial"",""time""
""fullscreenenter"",""0"",""18095""
","
","
","""event"",""trial"",""time""
""fullscreenenter"",""0"",""18095""
","
","1286.8999998569489","","","","","","","","50","1,1,1","6","blank","343","null","0.5942638029185379","0.3539041723637141","0.17357125307433016","1","","","","","","","","",""
"","html-keyboard-response","248","789081","0.0-132.0-1.0","""event"",""trial"",""time""
""fullscreenenter"",""0"",""18095""
","
","
","""event"",""trial"",""time""
""fullscreenenter"",""0"",""18095""
","
","null","<p></p>","null","","","","","","","","","","","","","","","","","","","","","","","",""
"","do_trial","249","792231","0.0-133.0-0.0","""event"",""trial"",""time""
""fullscreenenter"",""0"",""18095""
","
","
","""event"",""trial"",""time""
""fullscreenenter"",""0"",""18095""
","
","624.5","","","","","","","","50","1,1,1","6","blank","344","null","0.5088263883410707","0.2603417599833331","0.2359098542326607","1","","","","","","","","",""
"","html-keyboard-response","250","793242","0.0-133.0-1.0","""event"",""trial"",""time""
""fullscreenenter"",""0"",""18095""
","
","
","""event"",""trial"",""time""
""fullscreenenter"",""0"",""18095""
","
","null","<p></p>","null","","","","","","","","","","","","","","","","","","","","","","","",""
"","do_trial","251","796734","0.0-134.0-0.0","""event"",""trial"",""time""
""fullscreenenter"",""0"",""18095""
","
","
","""event"",""trial"",""time""
""fullscreenenter"",""0"",""18095""
","
","966.8999998569489","","","","","","","","50","0,1,0","6","blank","345","null","0.520623038825836","0.32644001480467255","0.20122647287510184","1","","","","","","","","",""
"","html-keyboard-response","252","797743","0.0-134.0-1.0","""event"",""trial"",""time""
""fullscreenenter"",""0"",""18095""
","
","
","""event"",""trial"",""time""
""fullscreenenter"",""0"",""18095""
","
","null","<p></p>","null","","","","","","","","","","","","","","","","","","","","","","","",""
"","do_trial","253","800929","0.0-135.0-0.0","""event"",""trial"",""time""
""fullscreenenter"",""0"",""18095""
","
","
","""event"",""trial"",""time""
""fullscreenenter"",""0"",""18095""
","
","647.5999999046326","","","","","","","","50","1,0,0","6","blank","346","null","0.3870701235505057","0.4674860959813122","0.17786254351286337","0","","","","","","","","",""
"","html-keyboard-response","254","801939","0.0-135.0-1.0","""event"",""trial"",""time""
""fullscreenenter"",""0"",""18095""
","
","
","""event"",""trial"",""time""
""fullscreenenter"",""0"",""18095""
","
","null","<p></p>","null","","","","","","","","","","","","","","","","","","","","","","","",""
"","do_trial","255","804524","0.0-136.0-0.0","""event"",""trial"",""time""
""fullscreenenter"",""0"",""18095""
","
","
","""event"",""trial"",""time""
""fullscreenenter"",""0"",""18095""
","
","51.60000014305115","","","","","","","","50","0,1,1","6","blank","347","null","0.3371935629370948","0.7012709453874445","0.17330937896364515","1","","","","","","","","",""
"","html-keyboard-response","256","805529","0.0-136.0-1.0","""event"",""trial"",""time""
""fullscreenenter"",""0"",""18095""
","
","
","""event"",""trial"",""time""
""fullscreenenter"",""0"",""18095""
","
","null","<p></p>","null","","","","","","","","","","","","","","","","","","","","","","","",""
"","do_trial","257","808421","0.0-137.0-0.0","""event"",""trial"",""time""
""fullscreenenter"",""0"",""18095""
","
","
","""event"",""trial"",""time""
""fullscreenenter"",""0"",""18095""
","
","350.10000014305115","","","","","","","","50","0,0,0","6","blank","348","null","0.23576753028200795","0.6394996043781671","0.13635728605827496","0","","","","","","","","",""
"","html-keyboard-response","258","809431","0.0-137.0-1.0","""event"",""trial"",""time""
""fullscreenenter"",""0"",""18095""
","
","
","""event"",""trial"",""time""
""fullscreenenter"",""0"",""18095""
","
","null","<p></p>","null","","","","","","","","","","","","","","","","","","","","","","","",""
"","break","259","812521","0.0-138.0-0.0","""event"",""trial"",""time""
""fullscreenenter"",""0"",""18095""
","
","
","""event"",""trial"",""time""
""fullscreenenter"",""0"",""18095""
","
","3089.5","<div class='center'><p>Time to take a quick break! You have 2 minutes to rest, but you can move on sooner if you'd like.</p><p> Press the <b>space bar</b> to continue.</p></div>","32","","","","","","","","","","","","","","","","","","","","","","","",""
"","do_recog","260","815902","0.0-138.0-1.0","""event"",""trial"",""time""
""fullscreenenter"",""0"",""18095""
","
","
","""event"",""trial"",""time""
""fullscreenenter"",""0"",""18095""
","
","1874.3999998569489","","","","","","","","53","","","","349","probe-154","","","","","1","[object Object]","159","3","1","","","",""
"","html-keyboard-response","261","816910","0.0-138.0-2.0","""event"",""trial"",""time""
""fullscreenenter"",""0"",""18095""
","
","
","""event"",""trial"",""time""
""fullscreenenter"",""0"",""18095""
","
","null","<p></p>","null","","","","","","","","","","","","","","","","","","","","","","","",""
"","do_trial","262","819752","0.0-139.0-0.0","""event"",""trial"",""time""
""fullscreenenter"",""0"",""18095""
","
","
","""event"",""trial"",""time""
""fullscreenenter"",""0"",""18095""
","
","314.5","","","","","","","","50","1,1,0","6","blank","350","null","0.3130048191212764","0.6426847607274182","0.0734578483692088","1","","","","","","","","",""
"","html-keyboard-response","263","820761","0.0-139.0-1.0","""event"",""trial"",""time""
""fullscreenenter"",""0"",""18095""
","
","
","""event"",""trial"",""time""
""fullscreenenter"",""0"",""18095""
","
","null","<p></p>","null","","","","","","","","","","","","","","","","","","","","","","","",""
"","do_recog","264","823946","0.0-140.0-0.0","""event"",""trial"",""time""
""fullscreenenter"",""0"",""18095""
","
","
","""event"",""trial"",""time""
""fullscreenenter"",""0"",""18095""
","
","1672.1000001430511","","","","","","","","53","","","","351","probe-17","","","","","1","[object Object]","116","2","1","","","",""
"","html-keyboard-response","265","824959","0.0-140.0-1.0","""event"",""trial"",""time""
""fullscreenenter"",""0"",""18095""
","
","
","""event"",""trial"",""time""
""fullscreenenter"",""0"",""18095""
","
","null","<p></p>","null","","","","","","","","","","","","","","","","","","","","","","","",""
"","do_trial","266","828153","0.0-141.0-0.0","""event"",""trial"",""time""
""fullscreenenter"",""0"",""18095""
","
","
","""event"",""trial"",""time""
""fullscreenenter"",""0"",""18095""
","
","665.0999999046326","","","","","","","","50","1,0,0","6","blank","352","null","0.33756392847836275","0.5782656226280328","0.10977681423980304","0","","","","","","","","",""
"","html-keyboard-response","267","829167","0.0-141.0-1.0","""event"",""trial"",""time""
""fullscreenenter"",""0"",""18095""
","
","
","""event"",""trial"",""time""
""fullscreenenter"",""0"",""18095""
","
","null","<p></p>","null","","","","","","","","","","","","","","","","","","","","","","","",""
"","do_trial","268","832605","0.0-142.0-0.0","""event"",""trial"",""time""
""fullscreenenter"",""0"",""18095""
","
","
","""event"",""trial"",""time""
""fullscreenenter"",""0"",""18095""
","
","904","","","","","","","","51","0,1,1","6","blank","353","null","0.22397040295870824","0.6907398023736644","0.20146258219242272","1","","","","","","","","",""
"","html-keyboard-response","269","833615","0.0-142.0-1.0","""event"",""trial"",""time""
""fullscreenenter"",""0"",""18095""
","
","
","""event"",""trial"",""time""
""fullscreenenter"",""0"",""18095""
","
","null","<p></p>","null","","","","","","","","","","","","","","","","","","","","","","","",""
"","do_trial","270","837276","0.0-143.0-0.0","""event"",""trial"",""time""
""fullscreenenter"",""0"",""18095""
","
","
","""event"",""trial"",""time""
""fullscreenenter"",""0"",""18095""
","
","1122","","","","","","","","49","0,1,1","6","blank","354","null","0.1135257774972598","0.5621214273020082","0.20596748363740694","0","","","","","","","","",""
"","html-keyboard-response","271","838288","0.0-143.0-1.0","""event"",""trial"",""time""
""fullscreenenter"",""0"",""18095""
","
","
","""event"",""trial"",""time""
""fullscreenenter"",""0"",""18095""
","
","null","<p></p>","null","","","","","","","","","","","","","","","","","","","","","","","",""
"","do_trial","272","841236","0.0-144.0-0.0","""event"",""trial"",""time""
""fullscreenenter"",""0"",""18095""
","
","
","""event"",""trial"",""time""
""fullscreenenter"",""0"",""18095""
","
","407.59999990463257","","","","","","","","50","0,0,0","6","blank","355","null","0.28274618028521176","0.6977382017458448","0.08646925041502264","0","","","","","","","","",""
"","html-keyboard-response","273","842246","0.0-144.0-1.0","""event"",""trial"",""time""
""fullscreenenter"",""0"",""18095""
","
","
","""event"",""trial"",""time""
""fullscreenenter"",""0"",""18095""
","
","null","<p></p>","null","","","","","","","","","","","","","","","","","","","","","","","",""
"","do_trial","274","845305","0.0-145.0-0.0","""event"",""trial"",""time""
""fullscreenenter"",""0"",""18095""
","
","
","""event"",""trial"",""time""
""fullscreenenter"",""0"",""18095""
","
","519.3999998569489","","","","","","","","50","0,0,0","6","blank","356","null","0.2803758188758741","0.6106222350098787","0.05304147328156253","0","","","","","","","","",""
"","html-keyboard-response","275","846316","0.0-145.0-1.0","""event"",""trial"",""time""
""fullscreenenter"",""0"",""18095""
","
","
","""event"",""trial"",""time""
""fullscreenenter"",""0"",""18095""
","
