"success","trial_type","trial_index","time_elapsed","internal_node_id","interactions","blur_events","focus_events","fullscreenenter_events","fullscreenexit_events","rt","stimulus","key_press","subject_id","participant_id","age","gender","prompt","response","choice_outcomes","context_n","context_img_id","trial_n","probe_img_id","pR_red","pR_white","pR_black","outcome","is_valid","image_to_show","probed_trial","probed_context","correct","probe","probed_trial_n","probed_context_n","context_im"
"true","fullscreen","0","2824","0.0-0.0","""event"",""trial"",""time""
""fullscreenenter"",""0"",""1859""
","
","
","""event"",""trial"",""time""
""fullscreenenter"",""0"",""1859""
","
","","","","","","","","","","","","","","","","","","","","","","","","","","",""
"","pavlovia","1","2834","0.0-1.0","""event"",""trial"",""time""
""fullscreenenter"",""0"",""1859""
","
","
","""event"",""trial"",""time""
""fullscreenenter"",""0"",""1859""
","
","","","","","","","","","","","","","","","","","","","","","","","","","","",""
"","welc_back","2","12707","0.0-2.0","""event"",""trial"",""time""
""fullscreenenter"",""0"",""1859""
","
","
","""event"",""trial"",""time""
""fullscreenenter"",""0"",""1859""
","
","null","run_exp/static/audio/clip_29_welcome_back.m4a","null","437","190","12","Male","<div class='center'><p>Welcome to day 2!</p><p> Yesterday, you were the head captain of a pirate ship. You asked your fellow pirates to rob other ships of their gold across six different islands.</p></div>","","","","","","","","","","","","","","","","","","",""
"","html-keyboard-response","3","13715","0.0-3.0","""event"",""trial"",""time""
""fullscreenenter"",""0"",""1859""
","
","
","""event"",""trial"",""time""
""fullscreenenter"",""0"",""1859""
","
","1000","<div class='center'><p>Welcome to day 2!</p><p> Yesterday, you were the head captain of a pirate ship. You asked your fellow pirates to rob other ships of their gold across six different islands.</p><p><b>[Press the space bar to continue]</b></p></div>","32","","","","","","","","","","","","","","","","","","","","","","","",""
"","day_1_summary_goal","4","31188","0.0-4.0","""event"",""trial"",""time""
""fullscreenenter"",""0"",""1859""
","
","
","""event"",""trial"",""time""
""fullscreenenter"",""0"",""1859""
","
","null","run_exp/static/audio/clip_30_goal_of_game.m4a","null","","","","","<div class='center'><p>Today, like yesterday, you get to pick which pirate you want to rob the next ship.</p><p>If the pirate is successful in robbing a ship, you get gold coins that look like this: </p><p><img src='run_exp/static/images/tutorial/reward.png' height='150'></p><p> If they were not successful in robbing the ship, then you will get no gold coins and you'll see a big red x like this: </p><p><img src='run_exp/static/images/tutorial/reward_no.png' height='150'></p></div>","","","","","","","","","","","","","","","","","","",""
"","html-keyboard-response","5","31318","0.0-5.0","""event"",""trial"",""time""
""fullscreenenter"",""0"",""1859""
","
","
","""event"",""trial"",""time""
""fullscreenenter"",""0"",""1859""
","
","126.90000000037253","<div class='center'><p>Today, like yesterday, you get to pick which pirate you want to rob the next ship.</p><p>If the pirate is successful in robbing a ship, you get gold coins that look like this: </p><p><img src='run_exp/static/images/tutorial/reward.png' height='150'></p><p> If they were not successful in robbing the ship, then you will get no gold coins and you'll see a big red x like this: </p><p><img src='run_exp/static/images/tutorial/reward_no.png' height='150'></p><p><b>[Press the space bar to continue]</b></p></div>","32","","","","","","","","","","","","","","","","","","","","","","","",""
"","day_1_summary_pick","6","46235","0.0-6.0","""event"",""trial"",""time""
""fullscreenenter"",""0"",""1859""
","
","
","""event"",""trial"",""time""
""fullscreenenter"",""0"",""1859""
","
","null","run_exp/static/audio/clip_31_how_to_pick_a_pirate.m4a","null","","","","","<div class='center'><p>Also, just like yesterday, you will use the 1,2,3 keys on your keyboard to pick a pirate. Press '1' to choose red beard, '2' to choose white beard, and '3' to choose black beard . You only have 3 seconds to pick a pirate, so please make a choice quickly!</p></div>","","","","","","","","","","","","","","","","","","",""
"","html-keyboard-response","7","46437","0.0-7.0","""event"",""trial"",""time""
""fullscreenenter"",""0"",""1859""
","
","
","""event"",""trial"",""time""
""fullscreenenter"",""0"",""1859""
","
","198.60000000009313","<div class='center'><p>Also, just like yesterday, you will use the 1,2,3 keys on your keyboard to pick a pirate. Press '1' to choose red beard, '2' to choose white beard, and '3' to choose black beard . You only have 3 seconds to pick a pirate, so please make a choice quickly!</p><p><b>[Press the space bar to continue]</b></p></div>","32","","","","","","","","","","","","","","","","","","","","","","","",""
"","test_phase_begin","8","77071","0.0-8.0","""event"",""trial"",""time""
""fullscreenenter"",""0"",""1859""
","
","
","""event"",""trial"",""time""
""fullscreenenter"",""0"",""1859""
","
","null","run_exp/static/audio/clip_32_final_place.m4a","null","","","","","<div class='center'><p>You’ve arrived at the final island of your journey! Unfortunately, it’s very foggy out, so you won’t be able to see it in the distance like the other islands you've visited.</p><p>You’ll still be deciding which pirate you want to rob a ship like before. However, because of the fog, you also won’t be able to see the ship.</p><p>This means you do not have to remember the ships you rob on this island.</p><p>Unlike yesterday, you won't be visiting multiple islands today. You will stay on this island for the entire game. This game will last ~30 minutes.</p></div>","","","","","","","","","","","","","","","","","","",""
"","html-keyboard-response","9","77212","0.0-9.0","""event"",""trial"",""time""
""fullscreenenter"",""0"",""1859""
","
","
","""event"",""trial"",""time""
""fullscreenenter"",""0"",""1859""
","
","138.8000000002794","<div class='center'><p>You’ve arrived at the final island of your journey! Unfortunately, it’s very foggy out, so you won’t be able to see it in the distance like the other islands you've visited.</p><p>You’ll still be deciding which pirate you want to rob a ship like before. However, because of the fog, you also won’t be able to see the ship.</p><p>This means you do not have to remember the ships you rob on this island.</p><p>Unlike yesterday, you won't be visiting multiple islands today. You will stay on this island for the entire game. This game will last ~30 minutes.</p><p><b>[Press the space bar to continue]</b></p></div>","32","","","","","","","","","","","","","","","","","","","","","","","",""
"","explain_probe_1","10","85155","0.0-10.0","""event"",""trial"",""time""
""fullscreenenter"",""0"",""1859""
","
","
","""event"",""trial"",""time""
""fullscreenenter"",""0"",""1859""
","
","null","run_exp/static/audio/clip_33_recognition_1.m4a","null","","","","","<div class='center'><p> Sometimes you’ll be shown a ship, and you will be asked if you saw this ship on a past island.</p><p> Here is an example of what you will see.</p><p><img src='run_exp/static/images/tutorial/example_recog_trial.png' height='500'></p></div>","","","","","","","","","","","","","","","","","","",""
"","html-keyboard-response","11","86568","0.0-11.0","""event"",""trial"",""time""
""fullscreenenter"",""0"",""1859""
","
","
","""event"",""trial"",""time""
""fullscreenenter"",""0"",""1859""
","
","1409.1999999997206","<div class='center'><p> Sometimes you’ll be shown a ship, and you will be asked if you saw this ship on a past island.</p><p> Here is an example of what you will see.</p><p><img src='run_exp/static/images/tutorial/example_recog_trial.png' height='500'></p><p><b>[Press the space bar to continue]</b></p></div>","32","","","","","","","","","","","","","","","","","","","","","","","",""
"","explain_probe_2","12","108470","0.0-12.0","""event"",""trial"",""time""
""fullscreenenter"",""0"",""1859""
","
","
","""event"",""trial"",""time""
""fullscreenenter"",""0"",""1859""
","
","null","run_exp/static/audio/clip_34_recognition_2.m4a","null","","","","","<div class='center'><p> You will press the 5, 6, 7, 8 keys on your keyboard to respond.</p><p>If you are sure you saw the ship, press <b>5</b> on your keyboard.</p><p> If you think you saw it before but aren't sure, then press <b>6</b>.</p><p> If you think you have <b>not</b> seen it before but aren't sure, then press <b>7</b>.</p><p> If you are sure you did <b>not</b> see the ship before, then press <b>8</b>.</p><p><img src='run_exp/static/images/tutorial/example_recog_trial.png' height='500'></p></div>","","","","","","","","","","","","","","","","","","",""
"","html-keyboard-response","13","109180","0.0-13.0","""event"",""trial"",""time""
""fullscreenenter"",""0"",""1859""
","
","
","""event"",""trial"",""time""
""fullscreenenter"",""0"",""1859""
","
","702.3999999999069","<div class='center'><p> You will press the 5, 6, 7, 8 keys on your keyboard to respond.</p><p>If you are sure you saw the ship, press <b>5</b> on your keyboard.</p><p> If you think you saw it before but aren't sure, then press <b>6</b>.</p><p> If you think you have <b>not</b> seen it before but aren't sure, then press <b>7</b>.</p><p> If you are sure you did <b>not</b> see the ship before, then press <b>8</b>.</p><p><img src='run_exp/static/images/tutorial/example_recog_trial.png' height='500'></p><p><b>[Press the space bar to continue]</b></p></div>","32","","","","","","","","","","","","","","","","","","","","","","","",""
"","explain_outcome","14","126671","0.0-14.0","""event"",""trial"",""time""
""fullscreenenter"",""0"",""1859""
","
","
","""event"",""trial"",""time""
""fullscreenenter"",""0"",""1859""
","
","null","run_exp/static/audio/clip_35_recognition_3.m4a","null","","","","","<div class='center'><p> If you remember correctly, then you’ll get a gold coin like this: </p><p><img src='run_exp/static/images/tutorial/reward_small.png' height='200'></p><p>If you do not remember correctly, then you'll see a red x like this: </p><p><img src='run_exp/static/images/tutorial/reward_no.png' height='200'></p><p>Importantly, when you are shown a ship, take the time to remind yourself which island you saw it on. This will help you in the next part of the study.</p></div>","","","","","","","","","","","","","","","","","","",""
"","html-keyboard-response","15","126724","0.0-15.0","""event"",""trial"",""time""
""fullscreenenter"",""0"",""1859""
","
","
","""event"",""trial"",""time""
""fullscreenenter"",""0"",""1859""
","
","48.60000000009313","<div class='center'><p> If you remember correctly, then you’ll get a gold coin like this: </p><p><img src='run_exp/static/images/tutorial/reward_small.png' height='200'></p><p>If you do not remember correctly, then you'll see a red x like this: </p><p><img src='run_exp/static/images/tutorial/reward_no.png' height='200'></p><p>Importantly, when you are shown a ship, take the time to remind yourself which island you saw it on. This will help you in the next part of the study.</p><p><b>[Press the space bar to continue]</b></p></div>","32","","","","","","","","","","","","","","","","","","","","","","","",""
"","begin_test_phase","16","142741","0.0-16.0","""event"",""trial"",""time""
""fullscreenenter"",""0"",""1859""
","
","
","""event"",""trial"",""time""
""fullscreenenter"",""0"",""1859""
","
","null","run_exp/static/audio/clip_36_begin_final.m4a","null","","","","","<div class='center'><p>Let's go over the important points again. Your job is to: </p><p>1. Pick the pirate who is best at robbing ships and will bring you back gold coins. </p><p>2. Correctly remember whether or not you saw a ship before. If you did see the ship before, remind yourself on which island you saw it. </p></div>","","","","","","","","","","","","","","","","","","",""
"","html-keyboard-response","17","143086","0.0-17.0","""event"",""trial"",""time""
""fullscreenenter"",""0"",""1859""
","
","
","""event"",""trial"",""time""
""fullscreenenter"",""0"",""1859""
","
","160","<div class='center'><p>Let's go over the important points again. Your job is to: </p><p>1. Pick the pirate who is best at robbing ships and will bring you back gold coins. </p><p>2. Correctly remember whether or not you saw a ship before. If you did see the ship before, remind yourself on which island you saw it. </p><p><b>[Press the space bar to continue]</b></p></div>","32","","","","","","","","","","","","","","","","","","","","","","","",""
"","do_welcome","18","147109","0.0-18.0","""event"",""trial"",""time""
""fullscreenenter"",""0"",""1859""
","
","
","""event"",""trial"",""time""
""fullscreenenter"",""0"",""1859""
","
","null","","","","","","","","null","","","","","","","","","","","","","","","","","",""
"","do_trial","19","150305","0.0-19.0-0.0","""event"",""trial"",""time""
""fullscreenenter"",""0"",""1859""
","
","
","""event"",""trial"",""time""
""fullscreenenter"",""0"",""1859""
","
","589.5","","","","","","","","49","1,0,0","6","blank","230","null","0.0883498535379626","0.40979892345472946","0.4099556173788561","1","","","","","","","","",""
"","html-keyboard-response","20","151312","0.0-19.0-1.0","""event"",""trial"",""time""
""fullscreenenter"",""0"",""1859""
","
","
","""event"",""trial"",""time""
""fullscreenenter"",""0"",""1859""
","
","null","<p></p>","null","","","","","","","","","","","","","","","","","","","","","","","",""
"","do_trial","21","154540","0.0-20.0-0.0","""event"",""trial"",""time""
""fullscreenenter"",""0"",""1859""
","
","
","""event"",""trial"",""time""
""fullscreenenter"",""0"",""1859""
","
","625.3999999999069","","","","","","","","49","1,0,0","6","blank","231","null","0.07790837786994877","0.4408001682696062","0.34684121024003645","1","","","","","","","","",""
"","html-keyboard-response","22","155547","0.0-20.0-1.0","""event"",""trial"",""time""
""fullscreenenter"",""0"",""1859""
","
","
","""event"",""trial"",""time""
""fullscreenenter"",""0"",""1859""
","
","null","<p></p>","null","","","","","","","","","","","","","","","","","","","","","","","",""
"","do_trial","23","158365","0.0-21.0-0.0","""event"",""trial"",""time""
""fullscreenenter"",""0"",""1859""
","
","
","""event"",""trial"",""time""
""fullscreenenter"",""0"",""1859""
","
","192.59999999962747","","","","","","","","49","1,1,0","6","blank","232","null","0.12720532463920953","0.5412435404948864","0.24561939041680933","1","","","","","","","","",""
"","html-keyboard-response","24","159371","0.0-21.0-1.0","""event"",""trial"",""time""
""fullscreenenter"",""0"",""1859""
","
","
","""event"",""trial"",""time""
""fullscreenenter"",""0"",""1859""
","
","null","<p></p>","null","","","","","","","","","","","","","","","","","","","","","","","",""
"","do_trial","25","162289","0.0-22.0-0.0","""event"",""trial"",""time""
""fullscreenenter"",""0"",""1859""
","
","
","""event"",""trial"",""time""
""fullscreenenter"",""0"",""1859""
","
","309.20000000018626","","","","","","","","49","0,1,0","6","blank","233","null","0.07782592385328059","0.6416668312372762","0.2929578367403927","0","","","","","","","","",""
"","html-keyboard-response","26","163293","0.0-22.0-1.0","""event"",""trial"",""time""
""fullscreenenter"",""0"",""1859""
","
","
","""event"",""trial"",""time""
""fullscreenenter"",""0"",""1859""
","
","null","<p></p>","null","","","","","","","","","","","","","","","","","","","","","","","",""
"","do_trial","27","166169","0.0-23.0-0.0","""event"",""trial"",""time""
""fullscreenenter"",""0"",""1859""
","
","
","""event"",""trial"",""time""
""fullscreenenter"",""0"",""1859""
","
","263.29999999981374","","","","","","","","49","0,0,0","6","blank","234","null","0.06029450651882962","0.7359443518008536","0.16627685862387387","0","","","","","","","","",""
"","html-keyboard-response","28","167174","0.0-23.0-1.0","""event"",""trial"",""time""
""fullscreenenter"",""0"",""1859""
","
","
","""event"",""trial"",""time""
""fullscreenenter"",""0"",""1859""
","
","null","<p></p>","null","","","","","","","","","","","","","","","","","","","","","","","",""
"","do_trial","29","170449","0.0-24.0-0.0","""event"",""trial"",""time""
""fullscreenenter"",""0"",""1859""
","
","
","""event"",""trial"",""time""
""fullscreenenter"",""0"",""1859""
","
","677.8999999999069","","","","","","","","50","0,0,0","6","blank","235","null","0.07305365134513736","0.718575576299438","0.1306767884021262","0","","","","","","","","",""
"","html-keyboard-response","30","171454","0.0-24.0-1.0","""event"",""trial"",""time""
""fullscreenenter"",""0"",""1859""
","
","
","""event"",""trial"",""time""
""fullscreenenter"",""0"",""1859""
","
","null","<p></p>","null","","","","","","","","","","","","","","","","","","","","","","","",""
"","do_trial","31","174347","0.0-25.0-0.0","""event"",""trial"",""time""
""fullscreenenter"",""0"",""1859""
","
","
","""event"",""trial"",""time""
""fullscreenenter"",""0"",""1859""
","
","281.60000000009313","","","","","","","","50","0,1,1","6","blank","236","null","0.13166141337282078","0.6673263403315882","0.19437964936859398","1","","","","","","","","",""
"","html-keyboard-response","32","175352","0.0-25.0-1.0","""event"",""trial"",""time""
""fullscreenenter"",""0"",""1859""
","
","
","""event"",""trial"",""time""
""fullscreenenter"",""0"",""1859""
","
","null","<p></p>","null","","","","","","","","","","","","","","","","","","","","","","","",""
"","do_trial","33","178190","0.0-26.0-0.0","""event"",""trial"",""time""
""fullscreenenter"",""0"",""1859""
","
","
","""event"",""trial"",""time""
""fullscreenenter"",""0"",""1859""
","
","224.10000000009313","","","","","","","","50","0,0,1","6","blank","237","null","0.21566060182769137","0.6658863218085265","0.2549438066286064","0","","","","","","","","",""
"","html-keyboard-response","34","179195","0.0-26.0-1.0","""event"",""trial"",""time""
""fullscreenenter"",""0"",""1859""
","
","
","""event"",""trial"",""time""
""fullscreenenter"",""0"",""1859""
","
","null","<p></p>","null","","","","","","","","","","","","","","","","","","","","","","","",""
"","do_trial","35","181808","0.0-27.0-0.0","""event"",""trial"",""time""
""fullscreenenter"",""0"",""1859""
","
","
","""event"",""trial"",""time""
""fullscreenenter"",""0"",""1859""
","
","10.399999999906868","","","","","","","","51","0,1,0","6","blank","238","null","0.12973511974221308","0.5955966757641282","0.2954619327769189","0","","","","","","","","",""
"","html-keyboard-response","36","182814","0.0-27.0-1.0","""event"",""trial"",""time""
""fullscreenenter"",""0"",""1859""
","
","
","""event"",""trial"",""time""
""fullscreenenter"",""0"",""1859""
","
","null","<p></p>","null","","","","","","","","","","","","","","","","","","","","","","","",""
"","do_trial","37","185902","0.0-28.0-0.0","""event"",""trial"",""time""
""fullscreenenter"",""0"",""1859""
","
","
","""event"",""trial"",""time""
""fullscreenenter"",""0"",""1859""
","
","474.5","","","","","","","","51","0,1,1","6","blank","239","null","0.19881271491177535","0.611957898254507","0.33079772332766993","1","","","","","","","","",""
"","html-keyboard-response","38","186907","0.0-28.0-1.0","""event"",""trial"",""time""
""fullscreenenter"",""0"",""1859""
","
","
","""event"",""trial"",""time""
""fullscreenenter"",""0"",""1859""
","
","null","<p></p>","null","","","","","","","","","","","","","","","","","","","","","","","",""
"","do_trial","39","189776","0.0-29.0-0.0","""event"",""trial"",""time""
""fullscreenenter"",""0"",""1859""
","
","
","""event"",""trial"",""time""
""fullscreenenter"",""0"",""1859""
","
","255.89999999990687","","","","","","","","51","0,1,0","6","blank","240","null","0.16745543011571393","0.74496817583048","0.419954963953873","0","","","","","","","","",""
"","html-keyboard-response","40","190781","0.0-29.0-1.0","""event"",""trial"",""time""
""fullscreenenter"",""0"",""1859""
","
","
","""event"",""trial"",""time""
""fullscreenenter"",""0"",""1859""
","
","null","<p></p>","null","","","","","","","","","","","","","","","","","","","","","","","",""
"","do_recog","41","196799","0.0-30.0-0.0","""event"",""trial"",""time""
""fullscreenenter"",""0"",""1859""
","
","
","""event"",""trial"",""time""
""fullscreenenter"",""0"",""1859""
","
","null","","","","","","","","null","","","","241","probe-100","","","","","1","[object Object]","112","2","0","","","",""
"","html-keyboard-response","42","197803","0.0-30.0-1.0","""event"",""trial"",""time""
""fullscreenenter"",""0"",""1859""
","
","
","""event"",""trial"",""time""
""fullscreenenter"",""0"",""1859""
","
","null","<p></p>","null","","","","","","","","","","","","","","","","","","","","","","","",""
"","do_trial","43","201422","0.0-31.0-0.0","""event"",""trial"",""time""
""fullscreenenter"",""0"",""1859""
","
","
","""event"",""trial"",""time""
""fullscreenenter"",""0"",""1859""
","
","1017.4000000003725","","","","","","","","49","0,1,0","6","blank","242","null","0.08499786641237624","0.6724271151262583","0.3517934839228734","0","","","","","","","","",""
"","html-keyboard-response","44","202436","0.0-31.0-1.0","""event"",""trial"",""time""
""fullscreenenter"",""0"",""1859""
","
","
","""event"",""trial"",""time""
""fullscreenenter"",""0"",""1859""
","
","null","<p></p>","null","","","","","","","","","","","","","","","","","","","","","","","",""
"","do_recog","45","205797","0.0-32.0-0.0","""event"",""trial"",""time""
""fullscreenenter"",""0"",""1859""
","
","
","""event"",""trial"",""time""
""fullscreenenter"",""0"",""1859""
","
","1842.1999999997206","","","","","","","","56","","","","243","probe-85","","","","","1","[object Object]","159","3","0","","","",""
"","html-keyboard-response","46","206802","0.0-32.0-1.0","""event"",""trial"",""time""
""fullscreenenter"",""0"",""1859""
","
","
","""event"",""trial"",""time""
""fullscreenenter"",""0"",""1859""
","
","null","<p></p>","null","","","","","","","","","","","","","","","","","","","","","","","",""
"","do_trial","47","210199","0.0-33.0-0.0","""event"",""trial"",""time""
""fullscreenenter"",""0"",""1859""
","
","
","""event"",""trial"",""time""
""fullscreenenter"",""0"",""1859""
","
","794.7999999998137","","","","","","","","49","0,0,1","6","blank","244","null","0.14494275641742385","0.47132668965821156","0.4033781276471764","0","","","","","","","","",""
"","html-keyboard-response","48","211202","0.0-33.0-1.0","""event"",""trial"",""time""
""fullscreenenter"",""0"",""1859""
","
","
","""event"",""trial"",""time""
""fullscreenenter"",""0"",""1859""
","
","null","<p></p>","null","","","","","","","","","","","","","","","","","","","","","","","",""
"","do_recog","49","214743","0.0-34.0-0.0","""event"",""trial"",""time""
""fullscreenenter"",""0"",""1859""
","
","
","""event"",""trial"",""time""
""fullscreenenter"",""0"",""1859""
","
","2023.1000000000931","","","","","","","","53","","","","245","probe-250","","","","","0","[object Object]","null","null","0","","","",""
"","html-keyboard-response","50","215748","0.0-34.0-1.0","""event"",""trial"",""time""
""fullscreenenter"",""0"",""1859""
","
","
","""event"",""trial"",""time""
""fullscreenenter"",""0"",""1859""
","
","null","<p></p>","null","","","","","","","","","","","","","","","","","","","","","","","",""
"","do_trial","51","219163","0.0-35.0-0.0","""event"",""trial"",""time""
""fullscreenenter"",""0"",""1859""
","
","
","""event"",""trial"",""time""
""fullscreenenter"",""0"",""1859""
","
","804.3999999999069","","","","","","","","50","0,0,0","6","blank","246","null","0.08178483872051323","0.3768473939589089","0.567610137678417","0","","","","","","","","",""
"","html-keyboard-response","52","220166","0.0-35.0-1.0","""event"",""trial"",""time""
""fullscreenenter"",""0"",""1859""
","
","
","""event"",""trial"",""time""
""fullscreenenter"",""0"",""1859""
","
","null","<p></p>","null","","","","","","","","","","","","","","","","","","","","","","","",""
"","do_trial","53","223474","0.0-36.0-0.0","""event"",""trial"",""time""
""fullscreenenter"",""0"",""1859""
","
","
","""event"",""trial"",""time""
""fullscreenenter"",""0"",""1859""
","
","697.8999999999069","","","","","","","","51","0,1,1","6","blank","247","null","0.2121732549530158","0.4736565815072769","0.5209351787926327","1","","","","","","","","",""
"","html-keyboard-response","54","224479","0.0-36.0-1.0","""event"",""trial"",""time""
""fullscreenenter"",""0"",""1859""
","
","
","""event"",""trial"",""time""
""fullscreenenter"",""0"",""1859""
","
","null","<p></p>","null","","","","","","","","","","","","","","","","","","","","","","","",""
"","do_trial","55","227699","0.0-37.0-0.0","""event"",""trial"",""time""
""fullscreenenter"",""0"",""1859""
","
","
","""event"",""trial"",""time""
""fullscreenenter"",""0"",""1859""
","
","606.3999999999069","","","","","","","","51","0,0,1","6","blank","248","null","0.23709932775558265","0.43801995091720924","0.6293065923626084","1","","","","","","","","",""
"","html-keyboard-response","56","228704","0.0-37.0-1.0","""event"",""trial"",""time""
""fullscreenenter"",""0"",""1859""
","
","
","""event"",""trial"",""time""
""fullscreenenter"",""0"",""1859""
","
","null","<p></p>","null","","","","","","","","","","","","","","","","","","","","","","","",""
"","do_trial","57","232422","0.0-38.0-0.0","""event"",""trial"",""time""
""fullscreenenter"",""0"",""1859""
","
","
","""event"",""trial"",""time""
""fullscreenenter"",""0"",""1859""
","
","1107","","","","","","","","51","0,1,0","6","blank","249","null","0.23921932112967936","0.38238464127978267","0.5457614955127252","0","","","","","","","","",""
"","html-keyboard-response","58","233427","0.0-38.0-1.0","""event"",""trial"",""time""
""fullscreenenter"",""0"",""1859""
","
","
","""event"",""trial"",""time""
""fullscreenenter"",""0"",""1859""
","
","null","<p></p>","null","","","","","","","","","","","","","","","","","","","","","","","",""
"","do_trial","59","236563","0.0-39.0-0.0","""event"",""trial"",""time""
""fullscreenenter"",""0"",""1859""
","
","
","""event"",""trial"",""time""
""fullscreenenter"",""0"",""1859""
","
","523.2999999998137","","","","","","","","49","0,1,0","6","blank","250","null","0.07849291656523415","0.392401471921841","0.5340766818680941","0","","","","","","","","",""
"","html-keyboard-response","60","237566","0.0-39.0-1.0","""event"",""trial"",""time""
""fullscreenenter"",""0"",""1859""
","
","
","""event"",""trial"",""time""
""fullscreenenter"",""0"",""1859""
","
","null","<p></p>","null","","","","","","","","","","","","","","","","","","","","","","","",""
"","do_recog","61","240569","0.0-40.0-0.0","""event"",""trial"",""time""
""fullscreenenter"",""0"",""1859""
","
","
","""event"",""trial"",""time""
""fullscreenenter"",""0"",""1859""
","
","1484.2000000001863","","","","","","","","56","","","","251","probe-145","","","","","1","[object Object]","197","4","0","","","",""
"","html-keyboard-response","62","241573","0.0-40.0-1.0","""event"",""trial"",""time""
""fullscreenenter"",""0"",""1859""
","
","
","""event"",""trial"",""time""
""fullscreenenter"",""0"",""1859""
","
","null","<p></p>","null","","","","","","","","","","","","","","","","","","","","","","","",""
"","do_trial","63","245429","0.0-41.0-0.0","""event"",""trial"",""time""
""fullscreenenter"",""0"",""1859""
","
","
","""event"",""trial"",""time""
""fullscreenenter"",""0"",""1859""
","
","1237.6000000000931","","","","","","","","49","0,0,0","6","blank","252","null","0.07334986741724497","0.34962090867934825","0.558078950384906","0","","","","","","","","",""
"","html-keyboard-response","64","246433","0.0-41.0-1.0","""event"",""trial"",""time""
""fullscreenenter"",""0"",""1859""
","
","
","""event"",""trial"",""time""
""fullscreenenter"",""0"",""1859""
","
","null","<p></p>","null","","","","","","","","","","","","","","","","","","","","","","","",""
"","do_recog","65","248990","0.0-42.0-0.0","""event"",""trial"",""time""
""fullscreenenter"",""0"",""1859""
","
","
","""event"",""trial"",""time""
""fullscreenenter"",""0"",""1859""
","
","1032.8000000002794","","","","","","","","56","","","","253","probe-245","","","","","0","[object Object]","null","null","1","","","",""
"","html-keyboard-response","66","249993","0.0-42.0-1.0","""event"",""trial"",""time""
""fullscreenenter"",""0"",""1859""
","
","
","""event"",""trial"",""time""
""fullscreenenter"",""0"",""1859""
","
","null","<p></p>","null","","","","","","","","","","","","","","","","","","","","","","","",""
"","do_trial","67","253162","0.0-43.0-0.0","""event"",""trial"",""time""
""fullscreenenter"",""0"",""1859""
","
","
","""event"",""trial"",""time""
""fullscreenenter"",""0"",""1859""
","
","563.9000000003725","","","","","","","","49","1,0,0","6","blank","254","null","0.28278869766136555","0.35022332667500555","0.6191894122683282","1","","","","","","","","",""
"","html-keyboard-response","68","254168","0.0-43.0-1.0","""event"",""trial"",""time""
""fullscreenenter"",""0"",""1859""
","
","
","""event"",""trial"",""time""
""fullscreenenter"",""0"",""1859""
","
","null","<p></p>","null","","","","","","","","","","","","","","","","","","","","","","","",""
"","do_recog","69","256828","0.0-44.0-0.0","""event"",""trial"",""time""
""fullscreenenter"",""0"",""1859""
","
","
","""event"",""trial"",""time""
""fullscreenenter"",""0"",""1859""
","
","1136.3999999999069","","","","","","","","56","","","","255","probe-32","","","","","1","[object Object]","158","3","0","","","",""
"","html-keyboard-response","70","257833","0.0-44.0-1.0","""event"",""trial"",""time""
""fullscreenenter"",""0"",""1859""
","
","
","""event"",""trial"",""time""
""fullscreenenter"",""0"",""1859""
","
","null","<p></p>","null","","","","","","","","","","","","","","","","","","","","","","","",""
"","do_trial","71","261149","0.0-45.0-0.0","""event"",""trial"",""time""
""fullscreenenter"",""0"",""1859""
","
","
","""event"",""trial"",""time""
""fullscreenenter"",""0"",""1859""
","
","707","","","","","","","","49","1,0,1","6","blank","256","null","0.17198311653729437","0.41335518236564106","0.5513931088657723","1","","","","","","","","",""
"","html-keyboard-response","72","262155","0.0-45.0-1.0","""event"",""trial"",""time""
""fullscreenenter"",""0"",""1859""
","
","
","""event"",""trial"",""time""
""fullscreenenter"",""0"",""1859""
","
","null","<p></p>","null","","","","","","","","","","","","","","","","","","","","","","","",""
"","do_trial","73","265549","0.0-46.0-0.0","""event"",""trial"",""time""
""fullscreenenter"",""0"",""1859""
","
","
","""event"",""trial"",""time""
""fullscreenenter"",""0"",""1859""
","
","770.8000000002794","","","","","","","","50","0,0,0","6","blank","257","null","0.07037843030783895","0.33775968964328335","0.6017923227165369","0","","","","","","","","",""
"","html-keyboard-response","74","266556","0.0-46.0-1.0","""event"",""trial"",""time""
""fullscreenenter"",""0"",""1859""
","
","
","""event"",""trial"",""time""
""fullscreenenter"",""0"",""1859""
","
","null","<p></p>","null","","","","","","","","","","","","","","","","","","","","","","","",""
"","do_trial","75","269550","0.0-47.0-0.0","""event"",""trial"",""time""
""fullscreenenter"",""0"",""1859""
","
","
","""event"",""trial"",""time""
""fullscreenenter"",""0"",""1859""
","
","385.5","","","","","","","","51","0,0,1","6","blank","258","null","0.12531996534971732","0.383749048576764","0.5884238396672743","1","","","","","","","","",""
"","html-keyboard-response","76","270553","0.0-47.0-1.0","""event"",""trial"",""time""
""fullscreenenter"",""0"",""1859""
","
","
","""event"",""trial"",""time""
""fullscreenenter"",""0"",""1859""
","
","null","<p></p>","null","","","","","","","","","","","","","","","","","","","","","","","",""
"","do_trial","77","273635","0.0-48.0-0.0","""event"",""trial"",""time""
""fullscreenenter"",""0"",""1859""
","
","
","""event"",""trial"",""time""
""fullscreenenter"",""0"",""1859""
","
","472.29999999981374","","","","","","","","51","0,1,1","6","blank","259","null","0.17178752203520106","0.33785851817961493","0.4480698447415","1","","","","","","","","",""
"","html-keyboard-response","78","274638","0.0-48.0-1.0","""event"",""trial"",""time""
""fullscreenenter"",""0"",""1859""
","
","
","""event"",""trial"",""time""
""fullscreenenter"",""0"",""1859""
","
","null","<p></p>","null","","","","","","","","","","","","","","","","","","","","","","","",""
"","do_trial","79","277788","0.0-49.0-0.0","""event"",""trial"",""time""
""fullscreenenter"",""0"",""1859""
","
","
","""event"",""trial"",""time""
""fullscreenenter"",""0"",""1859""
","
","547.2000000001863","","","","","","","","51","0,0,1","6","blank","260","null","0.16091885348125495","0.34565240156763943","0.4530448973722973","1","","","","","","","","",""
"","html-keyboard-response","80","278793","0.0-49.0-1.0","""event"",""trial"",""time""
""fullscreenenter"",""0"",""1859""
","
","
","""event"",""trial"",""time""
""fullscreenenter"",""0"",""1859""
","
","null","<p></p>","null","","","","","","","","","","","","","","","","","","","","","","","",""
"","do_recog","81","283245","0.0-50.0-0.0","""event"",""trial"",""time""
""fullscreenenter"",""0"",""1859""
","
","
","""event"",""trial"",""time""
""fullscreenenter"",""0"",""1859""
","
","2934.2000000001863","","","","","","","","53","","","","261","probe-10","","","","","1","[object Object]","117","2","1","","","",""
"","html-keyboard-response","82","284252","0.0-50.0-1.0","""event"",""trial"",""time""
""fullscreenenter"",""0"",""1859""
","
","
","""event"",""trial"",""time""
""fullscreenenter"",""0"",""1859""
","
","null","<p></p>","null","","","","","","","","","","","","","","","","","","","","","","","",""
"","do_trial","83","287952","0.0-51.0-0.0","""event"",""trial"",""time""
""fullscreenenter"",""0"",""1859""
","
","
","""event"",""trial"",""time""
""fullscreenenter"",""0"",""1859""
","
","1090","","","","","","","","49","0,0,0","6","blank","262","null","0.09077939529380537","0.25625992674017173","0.5178444704710029","0","","","","","","","","",""
"","html-keyboard-response","84","288957","0.0-51.0-1.0","""event"",""trial"",""time""
""fullscreenenter"",""0"",""1859""
","
","
","""event"",""trial"",""time""
""fullscreenenter"",""0"",""1859""
","
","null","<p></p>","null","","","","","","","","","","","","","","","","","","","","","","","",""
"","do_trial","85","292293","0.0-52.0-0.0","""event"",""trial"",""time""
""fullscreenenter"",""0"",""1859""
","
","
","""event"",""trial"",""time""
""fullscreenenter"",""0"",""1859""
","
","718.1999999997206","","","","","","","","51","0,1,0","6","blank","263","null","0.13282047187122903","0.23754240950018393","0.6037264411016947","0","","","","","","","","",""
"","html-keyboard-response","86","293297","0.0-52.0-1.0","""event"",""trial"",""time""
""fullscreenenter"",""0"",""1859""
","
","
","""event"",""trial"",""time""
""fullscreenenter"",""0"",""1859""
","
","null","<p></p>","null","","","","","","","","","","","","","","","","","","","","","","","",""
"","do_trial","87","296182","0.0-53.0-0.0","""event"",""trial"",""time""
""fullscreenenter"",""0"",""1859""
","
","
","""event"",""trial"",""time""
""fullscreenenter"",""0"",""1859""
","
","281.1999999997206","","","","","","","","50","0,0,1","6","blank","264","null","0.0934933658684449","0.2527369152569699","0.6715310715032722","0","","","","","","","","",""
"","html-keyboard-response","88","297187","0.0-53.0-1.0","""event"",""trial"",""time""
""fullscreenenter"",""0"",""1859""
","
","
","""event"",""trial"",""time""
""fullscreenenter"",""0"",""1859""
","
","null","<p></p>","null","","","","","","","","","","","","","","","","","","","","","","","",""
"","do_recog","89","300659","0.0-54.0-0.0","""event"",""trial"",""time""
""fullscreenenter"",""0"",""1859""
","
","
","""event"",""trial"",""time""
""fullscreenenter"",""0"",""1859""
","
","1949.7000000001863","","","","","","","","56","","","","265","probe-29","","","","","1","[object Object]","34","0","0","","","",""
"","html-keyboard-response","90","301665","0.0-54.0-1.0","""event"",""trial"",""time""
""fullscreenenter"",""0"",""1859""
","
","
","""event"",""trial"",""time""
""fullscreenenter"",""0"",""1859""
","
","null","<p></p>","null","","","","","","","","","","","","","","","","","","","","","","","",""
"","do_trial","91","305041","0.0-55.0-0.0","""event"",""trial"",""time""
""fullscreenenter"",""0"",""1859""
","
","
","""event"",""trial"",""time""
""fullscreenenter"",""0"",""1859""
","
","765.2999999998137","","","","","","","","49","0,0,0","6","blank","266","null","0.07310011636085202","0.3204942804734966","0.6946654680662218","0","","","","","","","","",""
"","html-keyboard-response","92","306046","0.0-55.0-1.0","""event"",""trial"",""time""
""fullscreenenter"",""0"",""1859""
","
","
","""event"",""trial"",""time""
""fullscreenenter"",""0"",""1859""
","
","null","<p></p>","null","","","","","","","","","","","","","","","","","","","","","","","",""
"","do_trial","93","309335","0.0-56.0-0.0","""event"",""trial"",""time""
""fullscreenenter"",""0"",""1859""
","
","
","""event"",""trial"",""time""
""fullscreenenter"",""0"",""1859""
","
","678.2999999998137","","","","","","","","49","0,1,1","6","blank","267","null","0.15669775729090427","0.2863811913272181","0.6173167954111255","0","","","","","","","","",""
"","html-keyboard-response","94","310339","0.0-56.0-1.0","""event"",""trial"",""time""
""fullscreenenter"",""0"",""1859""
","
","
","""event"",""trial"",""time""
""fullscreenenter"",""0"",""1859""
","
","null","<p></p>","null","","","","","","","","","","","","","","","","","","","","","","","",""
"","do_trial","95","313521","0.0-57.0-0.0","""event"",""trial"",""time""
""fullscreenenter"",""0"",""1859""
","
","
","""event"",""trial"",""time""
""fullscreenenter"",""0"",""1859""
","
","572.2000000001863","","","","","","","","50","0,0,1","6","blank","268","null","0.13886563599712737","0.28160418753256716","0.6629840324035073","0","","","","","","","","",""
"","html-keyboard-response","96","314527","0.0-57.0-1.0","""event"",""trial"",""time""
""fullscreenenter"",""0"",""1859""
","
","
","""event"",""trial"",""time""
""fullscreenenter"",""0"",""1859""
","
","null","<p></p>","null","","","","","","","","","","","","","","","","","","","","","","","",""
"","break","97","315834","0.0-58.0-0.0","""event"",""trial"",""time""
""fullscreenenter"",""0"",""1859""
","
","
","""event"",""trial"",""time""
""fullscreenenter"",""0"",""1859""
","
","1301.2999999998137","<div class='center'><p>Time to take a quick break! You have 2 minutes to rest, but you can move on sooner if you'd like.</p><p> Press the <b>space bar</b> to continue.</p></div>","32","","","","","","","","","","","","","","","","","","","","","","","",""
"","do_recog","98","319795","0.0-58.0-1.0","""event"",""trial"",""time""
""fullscreenenter"",""0"",""1859""
","
","
","""event"",""trial"",""time""
""fullscreenenter"",""0"",""1859""
","
","2439.7000000001863","","","","","","","","53","","","","269","probe-173","","","","","1","[object Object]","196","4","1","","","",""
"","html-keyboard-response","99","320800","0.0-58.0-2.0","""event"",""trial"",""time""
""fullscreenenter"",""0"",""1859""
","
","
","""event"",""trial"",""time""
""fullscreenenter"",""0"",""1859""
","
","null","<p></p>","null","","","","","","","","","","","","","","","","","","","","","","","",""
"","do_trial","100","324050","0.0-59.0-0.0","""event"",""trial"",""time""
""fullscreenenter"",""0"",""1859""
","
","
","""event"",""trial"",""time""
""fullscreenenter"",""0"",""1859""
","
","643.2000000001863","","","","","","","","50","0,0,1","6","blank","270","null","0.40987997476543236","0.23173704433149966","0.7323218186690528","0","","","","","","","","",""
"","html-keyboard-response","101","325055","0.0-59.0-1.0","""event"",""trial"",""time""
""fullscreenenter"",""0"",""1859""
","
","
","""event"",""trial"",""time""
""fullscreenenter"",""0"",""1859""
","
","null","<p></p>","null","","","","","","","","","","","","","","","","","","","","","","","",""
"","do_recog","102","328314","0.0-60.0-0.0","""event"",""trial"",""time""
""fullscreenenter"",""0"",""1859""
","
","
","""event"",""trial"",""time""
""fullscreenenter"",""0"",""1859""
","
","1736.7999999998137","","","","","","","","56","","","","271","probe-255","","","","","0","[object Object]","null","null","1","","","",""
"","html-keyboard-response","103","329317","0.0-60.0-1.0","""event"",""trial"",""time""
""fullscreenenter"",""0"",""1859""
","
","
","""event"",""trial"",""time""
""fullscreenenter"",""0"",""1859""
","
","null","<p></p>","null","","","","","","","","","","","","","","","","","","","","","","","",""
"","do_trial","104","332365","0.0-61.0-0.0","""event"",""trial"",""time""
""fullscreenenter"",""0"",""1859""
","
","
","""event"",""trial"",""time""
""fullscreenenter"",""0"",""1859""
","
","439.8000000002794","","","","","","","","49","0,1,1","6","blank","272","null","0.4350255041359718","0.19066795914271553","0.8356325352696414","0","","","","","","","","",""
"","html-keyboard-response","105","333370","0.0-61.0-1.0","""event"",""trial"",""time""
""fullscreenenter"",""0"",""1859""
","
","
","""event"",""trial"",""time""
""fullscreenenter"",""0"",""1859""
","
","null","<p></p>","null","","","","","","","","","","","","","","","","","","","","","","","",""
"","do_trial","106","336453","0.0-62.0-0.0","""event"",""trial"",""time""
""fullscreenenter"",""0"",""1859""
","
","
","""event"",""trial"",""time""
""fullscreenenter"",""0"",""1859""
","
","473.39999999990687","","","","","","","","51","0,0,1","6","blank","273","null","0.3265721467805595","0.23473884280678595","0.7299631562240861","1","","","","","","","","",""
"","html-keyboard-response","107","337458","0.0-62.0-1.0","""event"",""trial"",""time""
""fullscreenenter"",""0"",""1859""
","
","
","""event"",""trial"",""time""
""fullscreenenter"",""0"",""1859""
","
","null","<p></p>","null","","","","","","","","","","","","","","","","","","","","","","","",""
"","do_trial","108","340528","0.0-63.0-0.0","""event"",""trial"",""time""
""fullscreenenter"",""0"",""1859""
","
","
","""event"",""trial"",""time""
""fullscreenenter"",""0"",""1859""
","
","468","","","","","","","","51","1,1,0","6","blank","274","null","0.2129939821678155","0.3166300149692292","0.5535794954276797","0","","","","","","","","",""
"","html-keyboard-response","109","341534","0.0-63.0-1.0","""event"",""trial"",""time""
""fullscreenenter"",""0"",""1859""
","
","
","""event"",""trial"",""time""
""fullscreenenter"",""0"",""1859""
","
","null","<p></p>","null","","","","","","","","","","","","","","","","","","","","","","","",""
"","do_trial","110","344743","0.0-64.0-0.0","""event"",""trial"",""time""
""fullscreenenter"",""0"",""1859""
","
","
","""event"",""trial"",""time""
""fullscreenenter"",""0"",""1859""
","
","595.6000000000931","","","","","","","","50","0,0,1","6","blank","275","null","0.17071918255993945","0.4251259510510905","0.6137396818108244","0","","","","","","","","",""
"","html-keyboard-response","111","345748","0.0-64.0-1.0","""event"",""trial"",""time""
""fullscreenenter"",""0"",""1859""
","
","
","""event"",""trial"",""time""
""fullscreenenter"",""0"",""1859""
","
","null","<p></p>","null","","","","","","","","","","","","","","","","","","","","","","","",""
"","do_trial","112","348953","0.0-65.0-0.0","""event"",""trial"",""time""
""fullscreenenter"",""0"",""1859""
","
","
","""event"",""trial"",""time""
""fullscreenenter"",""0"",""1859""
","
","596","","","","","","","","49","0,0,1","6","blank","276","null","0.21686510521528665","0.22807879567346573","0.6576873472713571","0","","","","","","","","",""
"","html-keyboard-response","113","349958","0.0-65.0-1.0","""event"",""trial"",""time""
""fullscreenenter"",""0"",""1859""
","
","
","""event"",""trial"",""time""
""fullscreenenter"",""0"",""1859""
","
","null","<p></p>","null","","","","","","","","","","","","","","","","","","","","","","","",""
"","do_trial","114","352917","0.0-66.0-0.0","""event"",""trial"",""time""
""fullscreenenter"",""0"",""1859""
","
","
","""event"",""trial"",""time""
""fullscreenenter"",""0"",""1859""
","
","353.39999999990687","","","","","","","","49","0,0,0","6","blank","277","null","0.21801354007256776","0.1976058549311355","0.587216541037395","0","","","","","","","","",""
"","html-keyboard-response","115","353922","0.0-66.0-1.0","""event"",""trial"",""time""
""fullscreenenter"",""0"",""1859""
","
","
","""event"",""trial"",""time""
""fullscreenenter"",""0"",""1859""
","
","null","<p></p>","null","","","","","","","","","","","","","","","","","","","","","","","",""
"","do_recog","116","357528","0.0-67.0-0.0","""event"",""trial"",""time""
""fullscreenenter"",""0"",""1859""
","
","
","""event"",""trial"",""time""
""fullscreenenter"",""0"",""1859""
","
","2082.100000000093","","","","","","","","53","","","","278","probe-109","","","","","1","[object Object]","71","1","1","","","",""
"","html-keyboard-response","117","358534","0.0-67.0-1.0","""event"",""trial"",""time""
""fullscreenenter"",""0"",""1859""
","
","
","""event"",""trial"",""time""
""fullscreenenter"",""0"",""1859""
","
","null","<p></p>","null","","","","","","","","","","","","","","","","","","","","","","","",""
"","do_trial","118","361420","0.0-68.0-0.0","""event"",""trial"",""time""
""fullscreenenter"",""0"",""1859""
","
","
","""event"",""trial"",""time""
""fullscreenenter"",""0"",""1859""
","
","275.20000000018626","","","","","","","","49","0,1,1","6","blank","279","null","0.2048970582218745","0.36546846606370736","0.6179139637413773","0","","","","","","","","",""
"","html-keyboard-response","119","362425","0.0-68.0-1.0","""event"",""trial"",""time""
""fullscreenenter"",""0"",""1859""
","
","
","""event"",""trial"",""time""
""fullscreenenter"",""0"",""1859""
","
","null","<p></p>","null","","","","","","","","","","","","","","","","","","","","","","","",""
"","do_trial","120","365268","0.0-69.0-0.0","""event"",""trial"",""time""
""fullscreenenter"",""0"",""1859""
","
","
","""event"",""trial"",""time""
""fullscreenenter"",""0"",""1859""
","
","238.5","","","","","","","","51","0,0,0","6","blank","280","null","0.11827042600342591","0.3139212652098551","0.5477773117686403","0","","","","","","","","",""
"","html-keyboard-response","121","366273","0.0-69.0-1.0","""event"",""trial"",""time""
""fullscreenenter"",""0"",""1859""
","
","
","""event"",""trial"",""time""
""fullscreenenter"",""0"",""1859""
","
","null","<p></p>","null","","","","","","","","","","","","","","","","","","","","","","","",""
"","do_trial","122","369109","0.0-70.0-0.0","""event"",""trial"",""time""
""fullscreenenter"",""0"",""1859""
","
","
","""event"",""trial"",""time""
""fullscreenenter"",""0"",""1859""
","
","228.29999999981374","","","","","","","","51","0,0,1","6","blank","281","null","0.05487276469389329","0.22546886969701416","0.5900534442207317","1","","","","","","","","",""
"","html-keyboard-response","123","370114","0.0-70.0-1.0","""event"",""trial"",""time""
""fullscreenenter"",""0"",""1859""
","
","
","""event"",""trial"",""time""
""fullscreenenter"",""0"",""1859""
","
","null","<p></p>","null","","","","","","","","","","","","","","","","","","","","","","","",""
"","do_trial","124","373139","0.0-71.0-0.0","""event"",""trial"",""time""
""fullscreenenter"",""0"",""1859""
","
","
","""event"",""trial"",""time""
""fullscreenenter"",""0"",""1859""
","
","427.39999999990687","","","","","","","","51","0,1,1","6","blank","282","null","0.1545940546232994","0.26316693997630486","0.517976949587314","1","","","","","","","","",""
"","html-keyboard-response","125","374143","0.0-71.0-1.0","""event"",""trial"",""time""
""fullscreenenter"",""0"",""1859""
","
","
","""event"",""trial"",""time""
""fullscreenenter"",""0"",""1859""
","
","null","<p></p>","null","","","","","","","","","","","","","","","","","","","","","","","",""
"","do_recog","126","377529","0.0-72.0-0.0","""event"",""trial"",""time""
""fullscreenenter"",""0"",""1859""
","
","
","""event"",""trial"",""time""
""fullscreenenter"",""0"",""1859""
","
","1858.3999999999069","","","","","","","","53","","","","283","probe-86","","","","","1","[object Object]","116","2","1","","","",""
"","html-keyboard-response","127","378537","0.0-72.0-1.0","""event"",""trial"",""time""
""fullscreenenter"",""0"",""1859""
","
","
","""event"",""trial"",""time""
""fullscreenenter"",""0"",""1859""
","
","null","<p></p>","null","","","","","","","","","","","","","","","","","","","","","","","",""
"","do_trial","128","381862","0.0-73.0-0.0","""event"",""trial"",""time""
""fullscreenenter"",""0"",""1859""
","
","
","""event"",""trial"",""time""
""fullscreenenter"",""0"",""1859""
","
","716.2000000001863","","","","","","","","51","0,0,0","6","blank","284","null","0.10861609732375786","0.3474477237524095","0.5601450270457616","0","","","","","","","","",""
"","html-keyboard-response","129","382867","0.0-73.0-1.0","""event"",""trial"",""time""
""fullscreenenter"",""0"",""1859""
","
","
","""event"",""trial"",""time""
""fullscreenenter"",""0"",""1859""
","
","null","<p></p>","null","","","","","","","","","","","","","","","","","","","","","","","",""
"","do_trial","130","385739","0.0-74.0-0.0","""event"",""trial"",""time""
""fullscreenenter"",""0"",""1859""
","
","
","""event"",""trial"",""time""
""fullscreenenter"",""0"",""1859""
","
","261.20000000018626","","","","","","","","49","0,1,1","6","blank","285","null","0.07372787858950704","0.4233076500941778","0.630137949599893","0","","","","","","","","",""
"","html-keyboard-response","131","386744","0.0-74.0-1.0","""event"",""trial"",""time""
""fullscreenenter"",""0"",""1859""
","
","
","""event"",""trial"",""time""
""fullscreenenter"",""0"",""1859""
","
","null","<p></p>","null","","","","","","","","","","","","","","","","","","","","","","","",""
"","do_trial","132","389702","0.0-75.0-0.0","""event"",""trial"",""time""
""fullscreenenter"",""0"",""1859""
","
","
","""event"",""trial"",""time""
""fullscreenenter"",""0"",""1859""
","
","345.1999999997206","","","","","","","","49","0,0,0","6","blank","286","null","0.148588318875306","0.3241976230469571","0.5409827568115836","0","","","","","","","","",""
"","html-keyboard-response","133","390707","0.0-75.0-1.0","""event"",""trial"",""time""
""fullscreenenter"",""0"",""1859""
","
","
","""event"",""trial"",""time""
""fullscreenenter"",""0"",""1859""
","
","null","<p></p>","null","","","","","","","","","","","","","","","","","","","","","","","",""
"","do_recog","134","394667","0.0-76.0-0.0","""event"",""trial"",""time""
""fullscreenenter"",""0"",""1859""
","
","
","""event"",""trial"",""time""
""fullscreenenter"",""0"",""1859""
","
","2432.6999999997206","","","","","","","","56","","","","287","probe-169","","","","","1","[object Object]","156","3","0","","","",""
"","html-keyboard-response","135","395672","0.0-76.0-1.0","""event"",""trial"",""time""
""fullscreenenter"",""0"",""1859""
","
","
","""event"",""trial"",""time""
""fullscreenenter"",""0"",""1859""
","
","null","<p></p>","null","","","","","","","","","","","","","","","","","","","","","","","",""
"","do_trial","136","398893","0.0-77.0-0.0","""event"",""trial"",""time""
""fullscreenenter"",""0"",""1859""
","
","
","""event"",""trial"",""time""
""fullscreenenter"",""0"",""1859""
","
","611.5","","","","","","","","49","0,1,0","6","blank","288","null","0.07753778617395787","0.3620197302298332","0.6539371827703001","0","","","","","","","","",""
"","html-keyboard-response","137","399896","0.0-77.0-1.0","""event"",""trial"",""time""
""fullscreenenter"",""0"",""1859""
","
","
","""event"",""trial"",""time""
""fullscreenenter"",""0"",""1859""
","
","null","<p></p>","null","","","","","","","","","","","","","","","","","","","","","","","",""
"","do_trial","138","402586","0.0-78.0-0.0","""event"",""trial"",""time""
""fullscreenenter"",""0"",""1859""
","
","
","""event"",""trial"",""time""
""fullscreenenter"",""0"",""1859""
","
","88.20000000018626","","","","","","","","50","0,0,1","6","blank","289","null","0.12156842541049512","0.34954947583891655","0.7012427709700672","0","","","","","","","","",""
"","html-keyboard-response","139","403593","0.0-78.0-1.0","""event"",""trial"",""time""
""fullscreenenter"",""0"",""1859""
","
","
","""event"",""trial"",""time""
""fullscreenenter"",""0"",""1859""
","
","null","<p></p>","null","","","","","","","","","","","","","","","","","","","","","","","",""
"","do_trial","140","406237","0.0-79.0-0.0","""event"",""trial"",""time""
""fullscreenenter"",""0"",""1859""
","
","
","""event"",""trial"",""time""
""fullscreenenter"",""0"",""1859""
","
","34.799999999813735","","","","","","","","50","0,1,1","6","blank","290","null","0.13340090309057237","0.26519843045725916","0.5818583167251655","1","","","","","","","","",""
"","html-keyboard-response","141","407242","0.0-79.0-1.0","""event"",""trial"",""time""
""fullscreenenter"",""0"",""1859""
","
","
","""event"",""trial"",""time""
""fullscreenenter"",""0"",""1859""
","
","null","<p></p>","null","","","","","","","","","","","","","","","","","","","","","","","",""
"","do_recog","142","413268","0.0-80.0-0.0","""event"",""trial"",""time""
""fullscreenenter"",""0"",""1859""
","
","
","""event"",""trial"",""time""
""fullscreenenter"",""0"",""1859""
","
","null","","","","","","","","null","","","","291","probe-252","","","","","0","[object Object]","null","null","0","","","",""
"","html-keyboard-response","143","414274","0.0-80.0-1.0","""event"",""trial"",""time""
""fullscreenenter"",""0"",""1859""
","
","
","""event"",""trial"",""time""
""fullscreenenter"",""0"",""1859""
","
","null","<p></p>","null","","","","","","","","","","","","","","","","","","","","","","","",""
"","do_trial","144","417381","0.0-81.0-0.0","""event"",""trial"",""time""
""fullscreenenter"",""0"",""1859""
","
","
","""event"",""trial"",""time""
""fullscreenenter"",""0"",""1859""
","
","496.39999999990687","","","","","","","","50","0,1,0","6","blank","292","null","0.2041368491943863","0.12475183697241723","0.5436875156669787","1","","","","","","","","",""
"","html-keyboard-response","145","418386","0.0-81.0-1.0","""event"",""trial"",""time""
""fullscreenenter"",""0"",""1859""
","
","
","""event"",""trial"",""time""
""fullscreenenter"",""0"",""1859""
","
","null","<p></p>","null","","","","","","","","","","","","","","","","","","","","","","","",""
"","do_trial","146","421213","0.0-82.0-0.0","""event"",""trial"",""time""
""fullscreenenter"",""0"",""1859""
","
","
","""event"",""trial"",""time""
""fullscreenenter"",""0"",""1859""
","
","223.5","","","","","","","","50","1,0,0","6","blank","293","null","0.0974593716851911","0.07900337575638586","0.5169551418986883","0","","","","","","","","",""
"","html-keyboard-response","147","422217","0.0-82.0-1.0","""event"",""trial"",""time""
""fullscreenenter"",""0"",""1859""
","
","
","""event"",""trial"",""time""
""fullscreenenter"",""0"",""1859""
","
","null","<p></p>","null","","","","","","","","","","","","","","","","","","","","","","","",""
"","do_trial","148","425029","0.0-83.0-0.0","""event"",""trial"",""time""
""fullscreenenter"",""0"",""1859""
","
","
","""event"",""trial"",""time""
""fullscreenenter"",""0"",""1859""
","
","214.5","","","","","","","","50","0,0,1","6","blank","294","null","0.10116304299206172","0.07625771803410449","0.49377796178762057","0","","","","","","","","",""
"","html-keyboard-response","149","426032","0.0-83.0-1.0","""event"",""trial"",""time""
""fullscreenenter"",""0"",""1859""
","
","
","""event"",""trial"",""time""
""fullscreenenter"",""0"",""1859""
","
","null","<p></p>","null","","","","","","","","","","","","","","","","","","","","","","","",""
"","do_recog","150","429227","0.0-84.0-0.0","""event"",""trial"",""time""
""fullscreenenter"",""0"",""1859""
","
","
","""event"",""trial"",""time""
""fullscreenenter"",""0"",""1859""
","
","1676.1000000000931","","","","","","","","56","","","","295","probe-110","","","","","1","[object Object]","110","2","0","","","",""
"","html-keyboard-response","151","430234","0.0-84.0-1.0","""event"",""trial"",""time""
""fullscreenenter"",""0"",""1859""
","
","
","""event"",""trial"",""time""
""fullscreenenter"",""0"",""1859""
","
","null","<p></p>","null","","","","","","","","","","","","","","","","","","","","","","","",""
"","do_trial","152","433749","0.0-85.0-0.0","""event"",""trial"",""time""
""fullscreenenter"",""0"",""1859""
","
","
","""event"",""trial"",""time""
""fullscreenenter"",""0"",""1859""
","
","906.1000000000931","","","","","","","","49","0,0,1","6","blank","296","null","0.18410371739320014","0.08046498578868543","0.47146206698742876","0","","","","","","","","",""
"","html-keyboard-response","153","434754","0.0-85.0-1.0","""event"",""trial"",""time""
""fullscreenenter"",""0"",""1859""
","
","
","""event"",""trial"",""time""
""fullscreenenter"",""0"",""1859""
","
","null","<p></p>","null","","","","","","","","","","","","","","","","","","","","","","","",""
"","do_trial","154","438128","0.0-86.0-0.0","""event"",""trial"",""time""
""fullscreenenter"",""0"",""1859""
","
","
","""event"",""trial"",""time""
""fullscreenenter"",""0"",""1859""
","
","764.2000000001863","","","","","","","","49","0,1,0","6","blank","297","null","0.36232264759374694","0.291471941411447","0.36261805445987555","0","","","","","","","","",""
"","html-keyboard-response","155","439133","0.0-86.0-1.0","""event"",""trial"",""time""
""fullscreenenter"",""0"",""1859""
","
","
","""event"",""trial"",""time""
""fullscreenenter"",""0"",""1859""
","
","null","<p></p>","null","","","","","","","","","","","","","","","","","","","","","","","",""
"","do_trial","156","442022","0.0-87.0-0.0","""event"",""trial"",""time""
""fullscreenenter"",""0"",""1859""
","
","
","""event"",""trial"",""time""
""fullscreenenter"",""0"",""1859""
","
","285.79999999981374","","","","","","","","49","0,1,0","6","blank","298","null","0.4267020353554227","0.3716564393505769","0.2026823841025277","0","","","","","","","","",""
"","html-keyboard-response","157","443026","0.0-87.0-1.0","""event"",""trial"",""time""
""fullscreenenter"",""0"",""1859""
","
","
","""event"",""trial"",""time""
""fullscreenenter"",""0"",""1859""
","
","null","<p></p>","null","","","","","","","","","","","","","","","","","","","","","","","",""
"","do_recog","158","444787","0.0-88.0-0.0","""event"",""trial"",""time""
""fullscreenenter"",""0"",""1859""
","
","
","""event"",""trial"",""time""
""fullscreenenter"",""0"",""1859""
","
","243.6999999997206","","","","","","","","53","","","","299","probe-69","","","","","1","[object Object]","198","4","1","","","",""
"","html-keyboard-response","159","445793","0.0-88.0-1.0","""event"",""trial"",""time""
""fullscreenenter"",""0"",""1859""
","
","
","""event"",""trial"",""time""
""fullscreenenter"",""0"",""1859""
","
","null","<p></p>","null","","","","","","","","","","","","","","","","","","","","","","","",""
"","do_trial","160","448676","0.0-89.0-0.0","""event"",""trial"",""time""
""fullscreenenter"",""0"",""1859""
","
","
","""event"",""trial"",""time""
""fullscreenenter"",""0"",""1859""
","
","271.59999999962747","","","","","","","","51","0,0,0","6","blank","300","null","0.4098633754888533","0.21505847375973206","0.21789290319811533","0","","","","","","","","",""
"","html-keyboard-response","161","449681","0.0-89.0-1.0","""event"",""trial"",""time""
""fullscreenenter"",""0"",""1859""
","
","
","""event"",""trial"",""time""
""fullscreenenter"",""0"",""1859""
","
","null","<p></p>","null","","","","","","","","","","","","","","","","","","","","","","","",""
"","do_trial","162","452593","0.0-90.0-0.0","""event"",""trial"",""time""
""fullscreenenter"",""0"",""1859""
","
","
","""event"",""trial"",""time""
""fullscreenenter"",""0"",""1859""
","
","308.5","","","","","","","","51","0,1,0","6","blank","301","null","0.4506583571982657","0.48572365860150163","0.15925756467029056","0","","","","","","","","",""
"","html-keyboard-response","163","453598","0.0-90.0-1.0","""event"",""trial"",""time""
""fullscreenenter"",""0"",""1859""
","
","
","""event"",""trial"",""time""
""fullscreenenter"",""0"",""1859""
","
","null","<p></p>","null","","","","","","","","","","","","","","","","","","","","","","","",""
"","do_trial","164","456711","0.0-91.0-0.0","""event"",""trial"",""time""
""fullscreenenter"",""0"",""1859""
","
","
","""event"",""trial"",""time""
""fullscreenenter"",""0"",""1859""
","
","500.09999999962747","","","","","","","","51","1,1,0","6","blank","302","null","0.5553196512346653","0.454774720086423","0.11731465214220155","0","","","","","","","","",""
"","html-keyboard-response","165","457718","0.0-91.0-1.0","""event"",""trial"",""time""
""fullscreenenter"",""0"",""1859""
","
","
","""event"",""trial"",""time""
""fullscreenenter"",""0"",""1859""
","
","null","<p></p>","null","","","","","","","","","","","","","","","","","","","","","","","",""
"","do_trial","166","460698","0.0-92.0-0.0","""event"",""trial"",""time""
""fullscreenenter"",""0"",""1859""
","
","
","""event"",""trial"",""time""
""fullscreenenter"",""0"",""1859""
","
","370.10000000009313","","","","","","","","49","1,1,0","6","blank","303","null","0.5944133137826616","0.215556158103544","0.07980161193626627","1","","","","","","","","",""
"","html-keyboard-response","167","461702","0.0-92.0-1.0","""event"",""trial"",""time""
""fullscreenenter"",""0"",""1859""
","
","
","""event"",""trial"",""time""
""fullscreenenter"",""0"",""1859""
","
","null","<p></p>","null","","","","","","","","","","","","","","","","","","","","","","","",""
"","do_trial","168","464588","0.0-93.0-0.0","""event"",""trial"",""time""
""fullscreenenter"",""0"",""1859""
","
","
","""event"",""trial"",""time""
""fullscreenenter"",""0"",""1859""
","
","274.3000000002794","","","","","","","","51","0,0,0","6","blank","304","null","0.6485973974338747","0.24068015589425343","0.12235448735804937","0","","","","","","","","",""
"","html-keyboard-response","169","465593","0.0-93.0-1.0","""event"",""trial"",""time""
""fullscreenenter"",""0"",""1859""
","
","
","""event"",""trial"",""time""
""fullscreenenter"",""0"",""1859""
","
","null","<p></p>","null","","","","","","","","","","","","","","","","","","","","","","","",""
"","do_trial","170","468393","0.0-94.0-0.0","""event"",""trial"",""time""
""fullscreenenter"",""0"",""1859""
","
","
","""event"",""trial"",""time""
""fullscreenenter"",""0"",""1859""
","
","186.5","","","","","","","","49","1,0,1","6","blank","305","null","0.6095929701889149","0.2560241858376446","0.07726139069589925","1","","","","","","","","",""
"","html-keyboard-response","171","469398","0.0-94.0-1.0","""event"",""trial"",""time""
""fullscreenenter"",""0"",""1859""
","
","
","""event"",""trial"",""time""
""fullscreenenter"",""0"",""1859""
","
","null","<p></p>","null","","","","","","","","","","","","","","","","","","","","","","","",""
"","do_recog","172","472453","0.0-95.0-0.0","""event"",""trial"",""time""
""fullscreenenter"",""0"",""1859""
","
","
","""event"",""trial"",""time""
""fullscreenenter"",""0"",""1859""
","
","1529.3000000002794","","","","","","","","56","","","","306","probe-53","","","","","1","[object Object]","115","2","0","","","",""
"","html-keyboard-response","173","473460","0.0-95.0-1.0","""event"",""trial"",""time""
""fullscreenenter"",""0"",""1859""
","
","
","""event"",""trial"",""time""
""fullscreenenter"",""0"",""1859""
","
","null","<p></p>","null","","","","","","","","","","","","","","","","","","","","","","","",""
"","do_trial","174","476893","0.0-96.0-0.0","""event"",""trial"",""time""
""fullscreenenter"",""0"",""1859""
","
","
","""event"",""trial"",""time""
""fullscreenenter"",""0"",""1859""
","
","824.5","","","","","","","","49","0,1,1","6","blank","307","null","0.5745083363697464","0.21272601506553637","0.06097259540391133","0","","","","","","","","",""
"","html-keyboard-response","175","477898","0.0-96.0-1.0","""event"",""trial"",""time""
""fullscreenenter"",""0"",""1859""
","
","
","""event"",""trial"",""time""
""fullscreenenter"",""0"",""1859""
","
","null","<p></p>","null","","","","","","","","","","","","","","","","","","","","","","","",""
"","do_trial","176","481050","0.0-97.0-0.0","""event"",""trial"",""time""
""fullscreenenter"",""0"",""1859""
","
","
","""event"",""trial"",""time""
""fullscreenenter"",""0"",""1859""
","
","538.3999999999069","","","","","","","","50","1,0,1","6","blank","308","null","0.4502056748141293","0.3656573749575587","0.07807103722174649","0","","","","","","","","",""
"","html-keyboard-response","177","482054","0.0-97.0-1.0","""event"",""trial"",""time""
""fullscreenenter"",""0"",""1859""
","
","
","""event"",""trial"",""time""
""fullscreenenter"",""0"",""1859""
","
","null","<p></p>","null","","","","","","","","","","","","","","","","","","","","","","","",""
"","break","178","483280","0.0-98.0-0.0","""event"",""trial"",""time""
""fullscreenenter"",""0"",""1859""
","
","
","""event"",""trial"",""time""
""fullscreenenter"",""0"",""1859""
","
","1222.2000000001863","<div class='center'><p>Time to take a quick break! You have 2 minutes to rest, but you can move on sooner if you'd like.</p><p> Press the <b>space bar</b> to continue.</p></div>","32","","","","","","","","","","","","","","","","","","","","","","","",""
"","do_recog","179","486492","0.0-98.0-1.0","""event"",""trial"",""time""
""fullscreenenter"",""0"",""1859""
","
","
","""event"",""trial"",""time""
""fullscreenenter"",""0"",""1859""
","
","1688.8999999999069","","","","","","","","56","","","","309","probe-181","","","","","1","[object Object]","73","1","0","","","",""
"","html-keyboard-response","180","487497","0.0-98.0-2.0","""event"",""trial"",""time""
""fullscreenenter"",""0"",""1859""
","
","
","""event"",""trial"",""time""
""fullscreenenter"",""0"",""1859""
","
","null","<p></p>","null","","","","","","","","","","","","","","","","","","","","","","","",""
"","do_trial","181","490528","0.0-99.0-0.0","""event"",""trial"",""time""
""fullscreenenter"",""0"",""1859""
","
","
","""event"",""trial"",""time""
""fullscreenenter"",""0"",""1859""
","
","433.10000000009313","","","","","","","","49","1,1,0","6","blank","310","null","0.4115045131073811","0.3235011679034555","0.10950324285566847","1","","","","","","","","",""
"","html-keyboard-response","182","491534","0.0-99.0-1.0","""event"",""trial"",""time""
""fullscreenenter"",""0"",""1859""
","
","
","""event"",""trial"",""time""
""fullscreenenter"",""0"",""1859""
","
","null","<p></p>","null","","","","","","","","","","","","","","","","","","","","","","","",""
"","do_recog","183","494500","0.0-100.0-0.0","""event"",""trial"",""time""
""fullscreenenter"",""0"",""1859""
","
","
","""event"",""trial"",""time""
""fullscreenenter"",""0"",""1859""
","
","1442.3999999999069","","","","","","","","54","","","","311","probe-96","","","","","1","[object Object]","111","2","1","","","",""
"","html-keyboard-response","184","495504","0.0-100.0-1.0","""event"",""trial"",""time""
""fullscreenenter"",""0"",""1859""
","
","
","""event"",""trial"",""time""
""fullscreenenter"",""0"",""1859""
","
","null","<p></p>","null","","","","","","","","","","","","","","","","","","","","","","","",""
"","do_trial","185","499113","0.0-101.0-0.0","""event"",""trial"",""time""
""fullscreenenter"",""0"",""1859""
","
","
","""event"",""trial"",""time""
""fullscreenenter"",""0"",""1859""
","
","1013.9000000003725","","","","","","","","49","0,1,0","6","blank","312","null","0.547284472430302","0.1771170063936579","0.13543247319868093","0","","","","","","","","",""
"","html-keyboard-response","186","500116","0.0-101.0-1.0","""event"",""trial"",""time""
""fullscreenenter"",""0"",""1859""
","
","
","""event"",""trial"",""time""
""fullscreenenter"",""0"",""1859""
","
","null","<p></p>","null","","","","","","","","","","","","","","","","","","","","","","","",""
"","do_trial","187","503753","0.0-102.0-0.0","""event"",""trial"",""time""
""fullscreenenter"",""0"",""1859""
","
","
","""event"",""trial"",""time""
""fullscreenenter"",""0"",""1859""
","
","1044.4000000003725","","","","","","","","51","1,1,0","6","blank","313","null","0.5419365444105051","0.3971489426769601","0.10247798802717925","0","","","","","","","","",""
"","html-keyboard-response","188","504756","0.0-102.0-1.0","""event"",""trial"",""time""
""fullscreenenter"",""0"",""1859""
","
","
","""event"",""trial"",""time""
""fullscreenenter"",""0"",""1859""
","
","null","<p></p>","null","","","","","","","","","","","","","","","","","","","","","","","",""
"","do_trial","189","507906","0.0-103.0-0.0","""event"",""trial"",""time""
""fullscreenenter"",""0"",""1859""
","
","
","""event"",""trial"",""time""
""fullscreenenter"",""0"",""1859""
","
","538.7999999998137","","","","","","","","51","1,1,0","6","blank","314","null","0.5838062972619195","0.3925662735477764","0.12444374111190042","0","","","","","","","","",""
"","html-keyboard-response","190","508911","0.0-103.0-1.0","""event"",""trial"",""time""
""fullscreenenter"",""0"",""1859""
","
","
","""event"",""trial"",""time""
""fullscreenenter"",""0"",""1859""
","
","null","<p></p>","null","","","","","","","","","","","","","","","","","","","","","","","",""
"","do_trial","191","511760","0.0-104.0-0.0","""event"",""trial"",""time""
""fullscreenenter"",""0"",""1859""
","
","
","""event"",""trial"",""time""
""fullscreenenter"",""0"",""1859""
","
","237.89999999990687","","","","","","","","51","1,0,0","6","blank","315","null","0.679570097917723","0.3744789153576453","0.05920354686543426","0","","","","","","","","",""
"","html-keyboard-response","192","512765","0.0-104.0-1.0","""event"",""trial"",""time""
""fullscreenenter"",""0"",""1859""
","
","
","""event"",""trial"",""time""
""fullscreenenter"",""0"",""1859""
","
","null","<p></p>","null","","","","","","","","","","","","","","","","","","","","","","","",""
"","do_trial","193","515769","0.0-105.0-0.0","""event"",""trial"",""time""
""fullscreenenter"",""0"",""1859""
","
","
","""event"",""trial"",""time""
""fullscreenenter"",""0"",""1859""
","
","393.09999999962747","","","","","","","","49","0,1,1","6","blank","316","null","0.7107216543262393","0.36718891241800494","0.22738380720855042","0","","","","","","","","",""
"","html-keyboard-response","194","516774","0.0-105.0-1.0","""event"",""trial"",""time""
""fullscreenenter"",""0"",""1859""
","
","
","""event"",""trial"",""time""
""fullscreenenter"",""0"",""1859""
","
","null","<p></p>","null","","","","","","","","","","","","","","","","","","","","","","","",""
"","do_recog","195","520340","0.0-106.0-0.0","""event"",""trial"",""time""
""fullscreenenter"",""0"",""1859""
","
","
","""event"",""trial"",""time""
""fullscreenenter"",""0"",""1859""
","
","2043","","","","","","","","53","","","","317","probe-21","","","","","1","[object Object]","35","0","1","","","",""
"","html-keyboard-response","196","521345","0.0-106.0-1.0","""event"",""trial"",""time""
""fullscreenenter"",""0"",""1859""
","
","
","""event"",""trial"",""time""
""fullscreenenter"",""0"",""1859""
","
","null","<p></p>","null","","","","","","","","","","","","","","","","","","","","","","","",""
"","do_trial","197","524390","0.0-107.0-0.0","""event"",""trial"",""time""
""fullscreenenter"",""0"",""1859""
","
","
","""event"",""trial"",""time""
""fullscreenenter"",""0"",""1859""
","
","435","","","","","","","","49","1,1,0","6","blank","318","null","0.6876435379110646","0.2622539641187332","0.2870949405536802","1","","","","","","","","",""
"","html-keyboard-response","198","525395","0.0-107.0-1.0","""event"",""trial"",""time""
""fullscreenenter"",""0"",""1859""
","
","
","""event"",""trial"",""time""
""fullscreenenter"",""0"",""1859""
","
","null","<p></p>","null","","","","","","","","","","","","","","","","","","","","","","","",""
"","do_recog","199","528668","0.0-108.0-0.0","""event"",""trial"",""time""
""fullscreenenter"",""0"",""1859""
","
","
","""event"",""trial"",""time""
""fullscreenenter"",""0"",""1859""
","
","1756.7999999998137","","","","","","","","53","","","","319","probe-203","","","","","1","[object Object]","118","2","1","","","",""
"","html-keyboard-response","200","529672","0.0-108.0-1.0","""event"",""trial"",""time""
""fullscreenenter"",""0"",""1859""
","
","
","""event"",""trial"",""time""
""fullscreenenter"",""0"",""1859""
","
","null","<p></p>","null","","","","","","","","","","","","","","","","","","","","","","","",""
"","do_trial","201","532663","0.0-109.0-0.0","""event"",""trial"",""time""
""fullscreenenter"",""0"",""1859""
","
","
","""event"",""trial"",""time""
""fullscreenenter"",""0"",""1859""
","
","384.5","","","","","","","","49","0,0,0","6","blank","320","null","0.6240649510236728","0.2375202591916095","0.2578924021812547","0","","","","","","","","",""
"","html-keyboard-response","202","533670","0.0-109.0-1.0","""event"",""trial"",""time""
""fullscreenenter"",""0"",""1859""
","
","
","""event"",""trial"",""time""
""fullscreenenter"",""0"",""1859""
","
","null","<p></p>","null","","","","","","","","","","","","","","","","","","","","","","","",""
"","do_trial","203","536682","0.0-110.0-0.0","""event"",""trial"",""time""
""fullscreenenter"",""0"",""1859""
","
","
","""event"",""trial"",""time""
""fullscreenenter"",""0"",""1859""
","
","399.70000000018626","","","","","","","","50","1,0,1","6","blank","321","null","0.6282884285480512","0.30049755764368913","0.1412035942776812","0","","","","","","","","",""
"","html-keyboard-response","204","537687","0.0-110.0-1.0","""event"",""trial"",""time""
""fullscreenenter"",""0"",""1859""
","
","
","""event"",""trial"",""time""
""fullscreenenter"",""0"",""1859""
","
","null","<p></p>","null","","","","","","","","","","","","","","","","","","","","","","","",""
"","do_trial","205","540369","0.0-111.0-0.0","""event"",""trial"",""time""
""fullscreenenter"",""0"",""1859""
","
","
","""event"",""trial"",""time""
""fullscreenenter"",""0"",""1859""
","
","68.70000000018626","","","","","","","","51","0,1,0","6","blank","322","null","0.7020604849145177","0.3462231659906446","0.050191538262245525","0","","","","","","","","",""
"","html-keyboard-response","206","541374","0.0-111.0-1.0","""event"",""trial"",""time""
""fullscreenenter"",""0"",""1859""
","
","
","""event"",""trial"",""time""
""fullscreenenter"",""0"",""1859""
","
","null","<p></p>","null","","","","","","","","","","","","","","","","","","","","","","","",""
"","do_trial","207","544382","0.0-112.0-0.0","""event"",""trial"",""time""
""fullscreenenter"",""0"",""1859""
","
","
","""event"",""trial"",""time""
""fullscreenenter"",""0"",""1859""
","
","406","","","","","","","","49","0,0,0","6","blank","323","null","0.5519152809598249","0.3675920258438643","0.09836213567234058","0","","","","","","","","",""
"","html-keyboard-response","208","545386","0.0-112.0-1.0","""event"",""trial"",""time""
""fullscreenenter"",""0"",""1859""
","
","
","""event"",""trial"",""time""
""fullscreenenter"",""0"",""1859""
","
","null","<p></p>","null","","","","","","","","","","","","","","","","","","","","","","","",""
"","do_trial","209","548179","0.0-113.0-0.0","""event"",""trial"",""time""
""fullscreenenter"",""0"",""1859""
","
","
","""event"",""trial"",""time""
""fullscreenenter"",""0"",""1859""
","
","181.10000000009313","","","","","","","","49","0,0,0","6","blank","324","null","0.5041796270849206","0.2584607773000008","0.10971544671694078","0","","","","","","","","",""
"","html-keyboard-response","210","549185","0.0-113.0-1.0","""event"",""trial"",""time""
""fullscreenenter"",""0"",""1859""
","
","
","""event"",""trial"",""time""
""fullscreenenter"",""0"",""1859""
","
","null","<p></p>","null","","","","","","","","","","","","","","","","","","","","","","","",""
"","do_trial","211","551872","0.0-114.0-0.0","""event"",""trial"",""time""
""fullscreenenter"",""0"",""1859""
","
","
","""event"",""trial"",""time""
""fullscreenenter"",""0"",""1859""
","
","77.6999999997206","","","","","","","","49","1,0,0","6","blank","325","null","0.561917712095722","0.4272861646755852","0.10529355387669855","1","","","","","","","","",""
"","html-keyboard-response","212","552875","0.0-114.0-1.0","""event"",""trial"",""time""
""fullscreenenter"",""0"",""1859""
","
","
","""event"",""trial"",""time""
""fullscreenenter"",""0"",""1859""
","
","null","<p></p>","null","","","","","","","","","","","","","","","","","","","","","","","",""
"","do_trial","213","555793","0.0-115.0-0.0","""event"",""trial"",""time""
""fullscreenenter"",""0"",""1859""
","
","
","""event"",""trial"",""time""
""fullscreenenter"",""0"",""1859""
","
","315.6999999997206","","","","","","","","49","0,1,0","6","blank","326","null","0.5890376769576728","0.41708272505161004","0.16457754248104803","0","","","","","","","","",""
"","html-keyboard-response","214","556799","0.0-115.0-1.0","""event"",""trial"",""time""
""fullscreenenter"",""0"",""1859""
","
","
","""event"",""trial"",""time""
""fullscreenenter"",""0"",""1859""
","
","null","<p></p>","null","","","","","","","","","","","","","","","","","","","","","","","",""
"","do_recog","215","560234","0.0-116.0-0.0","""event"",""trial"",""time""
""fullscreenenter"",""0"",""1859""
","
","
","""event"",""trial"",""time""
""fullscreenenter"",""0"",""1859""
","
","1915","","","","","","","","53","","","","327","probe-40","","","","","1","[object Object]","155","3","1","","","",""
"","html-keyboard-response","216","561239","0.0-116.0-1.0","""event"",""trial"",""time""
""fullscreenenter"",""0"",""1859""
","
","
","""event"",""trial"",""time""
""fullscreenenter"",""0"",""1859""
","
","null","<p></p>","null","","","","","","","","","","","","","","","","","","","","","","","",""
"","do_trial","217","564404","0.0-117.0-0.0","""event"",""trial"",""time""
""fullscreenenter"",""0"",""1859""
","
","
","""event"",""trial"",""time""
""fullscreenenter"",""0"",""1859""
","
","554.7000000001863","","","","","","","","51","0,0,0","6","blank","328","null","0.6281474616112578","0.13817090079904265","0.09733372865599947","0","","","","","","","","",""
"","html-keyboard-response","218","565409","0.0-117.0-1.0","""event"",""trial"",""time""
""fullscreenenter"",""0"",""1859""
","
","
","""event"",""trial"",""time""
""fullscreenenter"",""0"",""1859""
","
","null","<p></p>","null","","","","","","","","","","","","","","","","","","","","","","","",""
"","do_trial","219","568217","0.0-118.0-0.0","""event"",""trial"",""time""
""fullscreenenter"",""0"",""1859""
","
","
","""event"",""trial"",""time""
""fullscreenenter"",""0"",""1859""
","
","205.6999999997206","","","","","","","","50","1,0,0","6","blank","329","null","0.5348681402086265","0.0664204753326359","0.10566188981791634","0","","","","","","","","",""
"","html-keyboard-response","220","569222","0.0-118.0-1.0","""event"",""trial"",""time""
""fullscreenenter"",""0"",""1859""
","
","
","""event"",""trial"",""time""
""fullscreenenter"",""0"",""1859""
","
","null","<p></p>","null","","","","","","","","","","","","","","","","","","","","","","","",""
"","do_recog","221","572777","0.0-119.0-0.0","""event"",""trial"",""time""
""fullscreenenter"",""0"",""1859""
","
","
","""event"",""trial"",""time""
""fullscreenenter"",""0"",""1859""
","
","2031.1999999997206","","","","","","","","56","","","","330","probe-227","","","","","1","[object Object]","70","1","0","","","",""
"","html-keyboard-response","222","573783","0.0-119.0-1.0","""event"",""trial"",""time""
""fullscreenenter"",""0"",""1859""
","
","
","""event"",""trial"",""time""
""fullscreenenter"",""0"",""1859""
","
","null","<p></p>","null","","","","","","","","","","","","","","","","","","","","","","","",""
"","do_trial","223","577245","0.0-120.0-0.0","""event"",""trial"",""time""
""fullscreenenter"",""0"",""1859""
","
","
","""event"",""trial"",""time""
""fullscreenenter"",""0"",""1859""
","
","853.1000000000931","","","","","","","","49","0,0,0","6","blank","331","null","0.440612502496178","0.2798655770432897","0.17772031907868155","0","","","","","","","","",""
"","html-keyboard-response","224","578250","0.0-120.0-1.0","""event"",""trial"",""time""
""fullscreenenter"",""0"",""1859""
","
","
","""event"",""trial"",""time""
""fullscreenenter"",""0"",""1859""
","
","null","<p></p>","null","","","","","","","","","","","","","","","","","","","","","","","",""
"","do_trial","225","581103","0.0-121.0-0.0","""event"",""trial"",""time""
""fullscreenenter"",""0"",""1859""
","
","
","""event"",""trial"",""time""
""fullscreenenter"",""0"",""1859""
","
","241.70000000018626","","","","","","","","49","1,0,0","6","blank","332","null","0.5850122390152529","0.31465043347028426","0.1420291886093292","1","","","","","","","","",""
"","html-keyboard-response","226","582110","0.0-121.0-1.0","""event"",""trial"",""time""
""fullscreenenter"",""0"",""1859""
","
","
","""event"",""trial"",""time""
""fullscreenenter"",""0"",""1859""
","
","null","<p></p>","null","","","","","","","","","","","","","","","","","","","","","","","",""
"","do_trial","227","584762","0.0-122.0-0.0","""event"",""trial"",""time""
""fullscreenenter"",""0"",""1859""
","
","
","""event"",""trial"",""time""
""fullscreenenter"",""0"",""1859""
","
","40.299999999813735","","","","","","","","49","1,0,0","6","blank","333","null","0.6694307057396849","0.22322049078605374","0.12090357303830745","1","","","","","","","","",""
"","html-keyboard-response","228","585769","0.0-122.0-1.0","""event"",""trial"",""time""
""fullscreenenter"",""0"",""1859""
","
","
","""event"",""trial"",""time""
""fullscreenenter"",""0"",""1859""
","
","null","<p></p>","null","","","","","","","","","","","","","","","","","","","","","","","",""
"","do_trial","229","588598","0.0-123.0-0.0","""event"",""trial"",""time""
""fullscreenenter"",""0"",""1859""
","
","
","""event"",""trial"",""time""
""fullscreenenter"",""0"",""1859""
","
","220.39999999990687","","","","","","","","49","1,1,0","6","blank","334","null","0.6602820274317648","0.2619857487954777","0.09273401814367795","1","","","","","","","","",""
"","html-keyboard-response","230","589604","0.0-123.0-1.0","""event"",""trial"",""time""
""fullscreenenter"",""0"",""1859""
","
","
","""event"",""trial"",""time""
""fullscreenenter"",""0"",""1859""
","
","null","<p></p>","null","","","","","","","","","","","","","","","","","","","","","","","",""
"","do_trial","231","592450","0.0-124.0-0.0","""event"",""trial"",""time""
""fullscreenenter"",""0"",""1859""
","
","
","""event"",""trial"",""time""
""fullscreenenter"",""0"",""1859""
","
","235","","","","","","","","49","1,0,0","6","blank","335","null","0.702128735787137","0.14666253696383105","0.1140071467159884","1","","","","","","","","",""
"","html-keyboard-response","232","593454","0.0-124.0-1.0","""event"",""trial"",""time""
""fullscreenenter"",""0"",""1859""
","
","
","""event"",""trial"",""time""
""fullscreenenter"",""0"",""1859""
","
","null","<p></p>","null","","","","","","","","","","","","","","","","","","","","","","","",""
"","do_trial","233","596308","0.0-125.0-0.0","""event"",""trial"",""time""
""fullscreenenter"",""0"",""1859""
","
","
","""event"",""trial"",""time""
""fullscreenenter"",""0"",""1859""
","
","243.20000000018626","","","","","","","","49","0,0,0","6","blank","336","null","0.5840667511991775","0.0979687456175027","0.1278442782181591","0","","","","","","","","",""
"","html-keyboard-response","234","597311","0.0-125.0-1.0","""event"",""trial"",""time""
""fullscreenenter"",""0"",""1859""
","
","
","""event"",""trial"",""time""
""fullscreenenter"",""0"",""1859""
","
","null","<p></p>","null","","","","","","","","","","","","","","","","","","","","","","","",""
"","do_trial","235","599933","0.0-126.0-0.0","""event"",""trial"",""time""
""fullscreenenter"",""0"",""1859""
","
","
","""event"",""trial"",""time""
""fullscreenenter"",""0"",""1859""
","
","11.699999999720603","","","","","","","","49","1,0,1","6","blank","337","null","0.6065073330056547","0.1809960440832503","0.09089921044685716","1","","","","","","","","",""
"","html-keyboard-response","236","600937","0.0-126.0-1.0","""event"",""trial"",""time""
""fullscreenenter"",""0"",""1859""
","
","
","""event"",""trial"",""time""
""fullscreenenter"",""0"",""1859""
","
","null","<p></p>","null","","","","","","","","","","","","","","","","","","","","","","","",""
"","do_recog","237","604200","0.0-127.0-0.0","""event"",""trial"",""time""
""fullscreenenter"",""0"",""1859""
","
","
","""event"",""trial"",""time""
""fullscreenenter"",""0"",""1859""
","
","1742.2999999998137","","","","","","","","56","","","","338","probe-31","","","","","1","[object Object]","199","4","0","","","",""
"","html-keyboard-response","238","605205","0.0-127.0-1.0","""event"",""trial"",""time""
""fullscreenenter"",""0"",""1859""
","
","
","""event"",""trial"",""time""
""fullscreenenter"",""0"",""1859""
","
","null","<p></p>","null","","","","","","","","","","","","","","","","","","","","","","","",""
"","do_trial","239","608242","0.0-128.0-0.0","""event"",""trial"",""time""
""fullscreenenter"",""0"",""1859""
","
","
","""event"",""trial"",""time""
""fullscreenenter"",""0"",""1859""
","
","432.60000000009313","","","","","","","","49","1,0,0","6","blank","339","null","0.6348887800629763","0.2000274515659535","0.07676149312829893","1","","","","","","","","",""
"","html-keyboard-response","240","609248","0.0-128.0-1.0","""event"",""trial"",""time""
""fullscreenenter"",""0"",""1859""
","
","
","""event"",""trial"",""time""
""fullscreenenter"",""0"",""1859""
","
","null","<p></p>","null","","","","","","","","","","","","","","","","","","","","","","","",""
"","do_trial","241","612334","0.0-129.0-0.0","""event"",""trial"",""time""
""fullscreenenter"",""0"",""1859""
","
","
","""event"",""trial"",""time""
""fullscreenenter"",""0"",""1859""
","
","478.3000000002794","","","","","","","","49","0,1,0","6","blank","340","null","0.6142665634023985","0.18269204737467104","0.08520208914779823","0","","","","","","","","",""
"","html-keyboard-response","242","613339","0.0-129.0-1.0","""event"",""trial"",""time""
""fullscreenenter"",""0"",""1859""
","
","
","""event"",""trial"",""time""
""fullscreenenter"",""0"",""1859""
","
","null","<p></p>","null","","","","","","","","","","","","","","","","","","","","","","","",""
"","do_trial","243","616537","0.0-130.0-0.0","""event"",""trial"",""time""
""fullscreenenter"",""0"",""1859""
","
","
","""event"",""trial"",""time""
""fullscreenenter"",""0"",""1859""
","
","587.5","","","","","","","","49","0,0,1","6","blank","341","null","0.5416604716484965","0.150211937037296","0.08386510689915685","0","","","","","","","","",""
"","html-keyboard-response","244","617541","0.0-130.0-1.0","""event"",""trial"",""time""
""fullscreenenter"",""0"",""1859""
","
","
","""event"",""trial"",""time""
""fullscreenenter"",""0"",""1859""
","
","null","<p></p>","null","","","","","","","","","","","","","","","","","","","","","","","",""
"","do_trial","245","620540","0.0-131.0-0.0","""event"",""trial"",""time""
""fullscreenenter"",""0"",""1859""
","
","
","""event"",""trial"",""time""
""fullscreenenter"",""0"",""1859""
","
","397.89999999990687","","","","","","","","49","1,0,0","6","blank","342","null","0.4628526544847803","0.23782224500755064","0.17325031475413255","1","","","","","","","","",""
"","html-keyboard-response","246","621547","0.0-131.0-1.0","""event"",""trial"",""time""
""fullscreenenter"",""0"",""1859""
","
","
","""event"",""trial"",""time""
""fullscreenenter"",""0"",""1859""
","
","null","<p></p>","null","","","","","","","","","","","","","","","","","","","","","","","",""
"","do_recog","247","624777","0.0-132.0-0.0","""event"",""trial"",""time""
""fullscreenenter"",""0"",""1859""
","
","
","""event"",""trial"",""time""
""fullscreenenter"",""0"",""1859""
","
","1711","","","","","","","","53","","","","343","probe-02","","","","","1","[object Object]","192","4","1","","","",""
"","html-keyboard-response","248","625781","0.0-132.0-1.0","""event"",""trial"",""time""
""fullscreenenter"",""0"",""1859""
","
","
","""event"",""trial"",""time""
""fullscreenenter"",""0"",""1859""
","
","null","<p></p>","null","","","","","","","","","","","","","","","","","","","","","","","",""
"","do_trial","249","628487","0.0-133.0-0.0","""event"",""trial"",""time""
""fullscreenenter"",""0"",""1859""
","
","
","""event"",""trial"",""time""
""fullscreenenter"",""0"",""1859""
","
","102.39999999990687","","","","","","","","49","0,0,0","6","blank","344","null","0.5679016925906968","0.31532281256961625","0.16169313997414858","0","","","","","","","","",""
"","html-keyboard-response","250","629492","0.0-133.0-1.0","""event"",""trial"",""time""
""fullscreenenter"",""0"",""1859""
","
","
","""event"",""trial"",""time""
""fullscreenenter"",""0"",""1859""
","
","null","<p></p>","null","","","","","","","","","","","","","","","","","","","","","","","",""
"","do_recog","251","632515","0.0-134.0-0.0","""event"",""trial"",""time""
""fullscreenenter"",""0"",""1859""
","
","
","""event"",""trial"",""time""
""fullscreenenter"",""0"",""1859""
","
","1500.3000000002794","","","","","","","","56","","","","345","probe-160","","","","","1","[object Object]","30","0","0","","","",""
"","html-keyboard-response","252","633519","0.0-134.0-1.0","""event"",""trial"",""time""
""fullscreenenter"",""0"",""1859""
","
","
","""event"",""trial"",""time""
""fullscreenenter"",""0"",""1859""
","
","null","<p></p>","null","","","","","","","","","","","","","","","","","","","","","","","",""
"","do_trial","253","636613","0.0-135.0-0.0","""event"",""trial"",""time""
""fullscreenenter"",""0"",""1859""
","
","
","""event"",""trial"",""time""
""fullscreenenter"",""0"",""1859""
","
","486.90000000037253","","","","","","","","49","1,1,0","6","blank","346","null","0.6308256439869042","0.43644848446832385","0.1950774614498385","1","","","","","","","","",""
"","html-keyboard-response","254","637618","0.0-135.0-1.0","""event"",""trial"",""time""
""fullscreenenter"",""0"",""1859""
","
","
","""event"",""trial"",""time""
""fullscreenenter"",""0"",""1859""
","
","null","<p></p>","null","","","","","","","","","","","","","","","","","","","","","","","",""
"","do_trial","255","640881","0.0-136.0-0.0","""event"",""trial"",""time""
""fullscreenenter"",""0"",""1859""
","
","
","""event"",""trial"",""time""
""fullscreenenter"",""0"",""1859""
","
","665.8999999999069","","","","","","","","49","1,0,0","6","blank","347","null","0.6736285900824766","0.4763407668402732","0.2545380415001658","1","","","","","","","","",""
"","html-keyboard-response","256","641886","0.0-136.0-1.0","""event"",""trial"",""time""
""fullscreenenter"",""0"",""1859""
","
","
","""event"",""trial"",""time""
""fullscreenenter"",""0"",""1859""
","
","null","<p></p>","null","","","","","","","","","","","","","","","","","","","","","","","",""
"","do_trial","257","644864","0.0-137.0-0.0","""event"",""trial"",""time""
""fullscreenenter"",""0"",""1859""
","
","
","""event"",""trial"",""time""
""fullscreenenter"",""0"",""1859""
","
","366.40000000037253","","","","","","","","49","1,1,0","6","blank","348","null","0.5200095140171874","0.2680752107339028","0.3563883650714382","1","","","","","","","","",""
"","html-keyboard-response","258","645868","0.0-137.0-1.0","""event"",""trial"",""time""
""fullscreenenter"",""0"",""1859""
","
","
","""event"",""trial"",""time""
""fullscreenenter"",""0"",""1859""
","
","null","<p></p>","null","","","","","","","","","","","","","","","","","","","","","","","",""
"","break","259","646819","0.0-138.0-0.0","""event"",""trial"",""time""
""fullscreenenter"",""0"",""1859""
","
","
","""event"",""trial"",""time""
""fullscreenenter"",""0"",""1859""
","
","944.5999999996275","<div class='center'><p>Time to take a quick break! You have 2 minutes to rest, but you can move on sooner if you'd like.</p><p> Press the <b>space bar</b> to continue.</p></div>","32","","","","","","","","","","","","","","","","","","","","","","","",""
"","do_trial","260","650597","0.0-138.0-1.0","""event"",""trial"",""time""
""fullscreenenter"",""0"",""1859""
","
","
","""event"",""trial"",""time""
""fullscreenenter"",""0"",""1859""
","
","1171.7999999998137","","","","","","","","49","0,0,0","6","blank","349","null","0.47135787636544285","0.07426548508307428","0.2926159771015934","0","","","","","","","","",""
"","html-keyboard-response","261","651603","0.0-138.0-2.0","""event"",""trial"",""time""
""fullscreenenter"",""0"",""1859""
","
","
","""event"",""trial"",""time""
""fullscreenenter"",""0"",""1859""
","
","null","<p></p>","null","","","","","","","","","","","","","","","","","","","","","","","",""
"","do_trial","262","654215","0.0-139.0-0.0","""event"",""trial"",""time""
""fullscreenenter"",""0"",""1859""
","
","
","""event"",""trial"",""time""
""fullscreenenter"",""0"",""1859""
","
","0.2999999998137355","","","","","","","","51","0,0,0","6","blank","350","null","0.3697821640116387","0.10214085604404999","0.4719959076279638","0","","","","","","","","",""
"","html-keyboard-response","263","655221","0.0-139.0-1.0","""event"",""trial"",""time""
""fullscreenenter"",""0"",""1859""
","
","
","""event"",""trial"",""time""
""fullscreenenter"",""0"",""1859""
","
","null","<p></p>","null","","","","","","","","","","","","","","","","","","","","","","","",""
"","do_trial","264","657887","0.0-140.0-0.0","""event"",""trial"",""time""
""fullscreenenter"",""0"",""1859""
","
","
","""event"",""trial"",""time""
""fullscreenenter"",""0"",""1859""
","
","53.8000000002794","","","","","","","","50","0,0,0","6","blank","351","null","0.3283524484777196","0.11962438680496802","0.6476264621770554","0","","","","","","","","",""
"","html-keyboard-response","265","658892","0.0-140.0-1.0","""event"",""trial"",""time""
""fullscreenenter"",""0"",""1859""
","
","
","""event"",""trial"",""time""
""fullscreenenter"",""0"",""1859""
","
","null","<p></p>","null","","","","","","","","","","","","","","","","","","","","","","","",""
"","do_recog","266","662189","0.0-141.0-0.0","""event"",""trial"",""time""
""fullscreenenter"",""0"",""1859""
","
","
","""event"",""trial"",""time""
""fullscreenenter"",""0"",""1859""
","
","1771.1999999997206","","","","","","","","53","","","","352","probe-217","","","","","1","[object Object]","38","0","1","","","",""
"","html-keyboard-response","267","663196","0.0-141.0-1.0","""event"",""trial"",""time""
""fullscreenenter"",""0"",""1859""
","
","
","""event"",""trial"",""time""
""fullscreenenter"",""0"",""1859""
","
","null","<p></p>","null","","","","","","","","","","","","","","","","","","","","","","","",""
"","do_trial","268","666100","0.0-142.0-0.0","""event"",""trial"",""time""
""fullscreenenter"",""0"",""1859""
","
","
","""event"",""trial"",""time""
""fullscreenenter"",""0"",""1859""
","
","292.89999999990687","","","","","","","","49","1,0,1","6","blank","353","null","0.4107099691432993","0.18485095628580211","0.6253866529569363","1","","","","","","","","",""
"","html-keyboard-response","269","667106","0.0-142.0-1.0","""event"",""trial"",""time""
""fullscreenenter"",""0"",""1859""
","
","
","""event"",""trial"",""time""
""fullscreenenter"",""0"",""1859""
","
","null","<p></p>","null","","","","","","","","","","","","","","","","","","","","","","","",""
"","do_trial","270","669931","0.0-143.0-0.0","""event"",""trial"",""time""
""fullscreenenter"",""0"",""1859""
","
","
","""event"",""trial"",""time""
""fullscreenenter"",""0"",""1859""
","
","216.29999999981374","","","","","","","","49","1,0,1","6","blank","354","null","0.28149804193290684","0.13562988051621896","0.5560642564580263","1","","","","","","","","",""
"","html-keyboard-response","271","670937","0.0-143.0-1.0","""event"",""trial"",""time""
""fullscreenenter"",""0"",""1859""
","
","
","""event"",""trial"",""time""
""fullscreenenter"",""0"",""1859""
","
","null","<p></p>","null","","","","","","","","","","","","","","","","","","","","","","","",""
"","do_recog","272","673794","0.0-144.0-0.0","""event"",""trial"",""time""
""fullscreenenter"",""0"",""1859""
","
","
","""event"",""trial"",""time""
""fullscreenenter"",""0"",""1859""
","
","1332.7999999998137","","","","","","","","53","","","","355","probe-50","","","","","1","[object Object]","150","3","1","","","",""
"","html-keyboard-response","273","674800","0.0-144.0-1.0","""event"",""trial"",""time""
""fullscreenenter"",""0"",""1859""
","
","
","""event"",""trial"",""time""
""fullscreenenter"",""0"",""1859""
","
","null","<p></p>","null","","","","","","","","","","","","","","","","","","","","","","","",""
"","do_trial","274","678055","0.0-145.0-0.0","""event"",""trial"",""time""
""fullscreenenter"",""0"",""1859""
","
","
","""event"",""trial"",""time""
""fullscreenenter"",""0"",""1859""
","
","646","","","","","","","","49","0,0,0","6","blank","356","null","0.31760937795999405","0.08812852930009575","0.5474078741407745","0","","","","","","","","",""
"","html-keyboard-response","275","679060","0.0-145.0-1.0","""event"",""trial"",""time""
""fullscreenenter"",""0"",""1859""
","
","
","""event"",""trial"",""time""
""fullscreenenter"",""0"",""1859""
","
","null","<p></p>","null","","","","","","","","","","","","","","","","","","","","","","","",""
"","do_trial","276","682206","0.0-146.0-0.0","""event"",""trial"",""time""
""fullscreenenter"",""0"",""1859""
","
","
","""event"",""trial"",""time""
""fullscreenenter"",""0"",""1859""
","
","543.1999999997206","","","","","","","","49","0,0,0","6","blank","357","null","0.3781712979208416","0.08350039388890906","0.6446186038612123","0","","","","","","","","",""
"","html-keyboard-response","277","683212","0.0-146.0-1.0","""event"",""trial"",""time""
""fullscreenenter"",""0"",""1859""
","
","
