"success","trial_type","trial_index","time_elapsed","internal_node_id","interactions","blur_events","focus_events","fullscreenenter_events","fullscreenexit_events","rt","stimulus","key_press","subject_id","participant_id","age","gender","prompt","response","choice_outcomes","context_n","context_img_id","trial_n","probe_img_id","pR_red","pR_white","pR_black","outcome","is_valid","image_to_show","probed_trial","probed_context","correct","probe","probed_trial_n","probed_context_n","context_im"
"true","fullscreen","0","8943","0.0-0.0","""event"",""trial"",""time""
""blur"",""0"",""4286""
""focus"",""0"",""7855""
""fullscreenenter"",""0"",""7956""
","""event"",""trial"",""time""
""blur"",""0"",""4286""
","""event"",""trial"",""time""
""focus"",""0"",""7855""
","""event"",""trial"",""time""
""fullscreenenter"",""0"",""7956""
","
","","","","","","","","","","","","","","","","","","","","","","","","","","",""
"","pavlovia","1","8951","0.0-1.0","""event"",""trial"",""time""
""blur"",""0"",""4286""
""focus"",""0"",""7855""
""fullscreenenter"",""0"",""7956""
","""event"",""trial"",""time""
""blur"",""0"",""4286""
","""event"",""trial"",""time""
""focus"",""0"",""7855""
","""event"",""trial"",""time""
""fullscreenenter"",""0"",""7956""
","
","","","","","","","","","","","","","","","","","","","","","","","","","","",""
"","welc_back","2","18745","0.0-2.0","""event"",""trial"",""time""
""blur"",""0"",""4286""
""focus"",""0"",""7855""
""fullscreenenter"",""0"",""7956""
","""event"",""trial"",""time""
""blur"",""0"",""4286""
","""event"",""trial"",""time""
""focus"",""0"",""7855""
","""event"",""trial"",""time""
""fullscreenenter"",""0"",""7956""
","
","null","run_exp/static/audio/clip_29_welcome_back.m4a","null","447","625","10","Male","<div class='center'><p>Welcome to day 2!</p><p> Yesterday, you were the head captain of a pirate ship. You asked your fellow pirates to rob other ships of their gold across six different islands.</p></div>","","","","","","","","","","","","","","","","","","",""
"","html-keyboard-response","3","20012","0.0-3.0","""event"",""trial"",""time""
""blur"",""0"",""4286""
""focus"",""0"",""7855""
""fullscreenenter"",""0"",""7956""
","""event"",""trial"",""time""
""blur"",""0"",""4286""
","""event"",""trial"",""time""
""focus"",""0"",""7855""
","""event"",""trial"",""time""
""fullscreenenter"",""0"",""7956""
","
","1261.5","<div class='center'><p>Welcome to day 2!</p><p> Yesterday, you were the head captain of a pirate ship. You asked your fellow pirates to rob other ships of their gold across six different islands.</p><p><b>[Press the space bar to continue]</b></p></div>","32","","","","","","","","","","","","","","","","","","","","","","","",""
"","day_1_summary_goal","4","37223","0.0-4.0","""event"",""trial"",""time""
""blur"",""0"",""4286""
""focus"",""0"",""7855""
""fullscreenenter"",""0"",""7956""
","""event"",""trial"",""time""
""blur"",""0"",""4286""
","""event"",""trial"",""time""
""focus"",""0"",""7855""
","""event"",""trial"",""time""
""fullscreenenter"",""0"",""7956""
","
","null","run_exp/static/audio/clip_30_goal_of_game.m4a","null","","","","","<div class='center'><p>Today, like yesterday, you get to pick which pirate you want to rob the next ship.</p><p>If the pirate is successful in robbing a ship, you get gold coins that look like this: </p><p><img src='run_exp/static/images/tutorial/reward.png' height='150'></p><p> If they were not successful in robbing the ship, then you will get no gold coins and you'll see a big red x like this: </p><p><img src='run_exp/static/images/tutorial/reward_no.png' height='150'></p></div>","","","","","","","","","","","","","","","","","","",""
"","html-keyboard-response","5","38164","0.0-5.0","""event"",""trial"",""time""
""blur"",""0"",""4286""
""focus"",""0"",""7855""
""fullscreenenter"",""0"",""7956""
","""event"",""trial"",""time""
""blur"",""0"",""4286""
","""event"",""trial"",""time""
""focus"",""0"",""7855""
","""event"",""trial"",""time""
""fullscreenenter"",""0"",""7956""
","
","937.8999999761581","<div class='center'><p>Today, like yesterday, you get to pick which pirate you want to rob the next ship.</p><p>If the pirate is successful in robbing a ship, you get gold coins that look like this: </p><p><img src='run_exp/static/images/tutorial/reward.png' height='150'></p><p> If they were not successful in robbing the ship, then you will get no gold coins and you'll see a big red x like this: </p><p><img src='run_exp/static/images/tutorial/reward_no.png' height='150'></p><p><b>[Press the space bar to continue]</b></p></div>","32","","","","","","","","","","","","","","","","","","","","","","","",""
"","day_1_summary_pick","6","52863","0.0-6.0","""event"",""trial"",""time""
""blur"",""0"",""4286""
""focus"",""0"",""7855""
""fullscreenenter"",""0"",""7956""
","""event"",""trial"",""time""
""blur"",""0"",""4286""
","""event"",""trial"",""time""
""focus"",""0"",""7855""
","""event"",""trial"",""time""
""fullscreenenter"",""0"",""7956""
","
","null","run_exp/static/audio/clip_31_how_to_pick_a_pirate.m4a","null","","","","","<div class='center'><p>Also, just like yesterday, you will use the 1,2,3 keys on your keyboard to pick a pirate. Press '1' to choose red beard, '2' to choose white beard, and '3' to choose black beard . You only have 3 seconds to pick a pirate, so please make a choice quickly!</p></div>","","","","","","","","","","","","","","","","","","",""
"","html-keyboard-response","7","53164","0.0-7.0","""event"",""trial"",""time""
""blur"",""0"",""4286""
""focus"",""0"",""7855""
""fullscreenenter"",""0"",""7956""
","""event"",""trial"",""time""
""blur"",""0"",""4286""
","""event"",""trial"",""time""
""focus"",""0"",""7855""
","""event"",""trial"",""time""
""fullscreenenter"",""0"",""7956""
","
","299.89999997615814","<div class='center'><p>Also, just like yesterday, you will use the 1,2,3 keys on your keyboard to pick a pirate. Press '1' to choose red beard, '2' to choose white beard, and '3' to choose black beard . You only have 3 seconds to pick a pirate, so please make a choice quickly!</p><p><b>[Press the space bar to continue]</b></p></div>","32","","","","","","","","","","","","","","","","","","","","","","","",""
"","test_phase_begin","8","83563","0.0-8.0","""event"",""trial"",""time""
""blur"",""0"",""4286""
""focus"",""0"",""7855""
""fullscreenenter"",""0"",""7956""
","""event"",""trial"",""time""
""blur"",""0"",""4286""
","""event"",""trial"",""time""
""focus"",""0"",""7855""
","""event"",""trial"",""time""
""fullscreenenter"",""0"",""7956""
","
","null","run_exp/static/audio/clip_32_final_place.m4a","null","","","","","<div class='center'><p>You’ve arrived at the final island of your journey! Unfortunately, it’s very foggy out, so you won’t be able to see it in the distance like the other islands you've visited.</p><p>You’ll still be deciding which pirate you want to rob a ship like before. However, because of the fog, you also won’t be able to see the ship.</p><p>This means you do not have to remember the ships you rob on this island.</p><p>Unlike yesterday, you won't be visiting multiple islands today. You will stay on this island for the entire game. This game will last ~30 minutes.</p></div>","","","","","","","","","","","","","","","","","","",""
"","html-keyboard-response","9","84045","0.0-9.0","""event"",""trial"",""time""
""blur"",""0"",""4286""
""focus"",""0"",""7855""
""fullscreenenter"",""0"",""7956""
","""event"",""trial"",""time""
""blur"",""0"",""4286""
","""event"",""trial"",""time""
""focus"",""0"",""7855""
","""event"",""trial"",""time""
""fullscreenenter"",""0"",""7956""
","
","479.5","<div class='center'><p>You’ve arrived at the final island of your journey! Unfortunately, it’s very foggy out, so you won’t be able to see it in the distance like the other islands you've visited.</p><p>You’ll still be deciding which pirate you want to rob a ship like before. However, because of the fog, you also won’t be able to see the ship.</p><p>This means you do not have to remember the ships you rob on this island.</p><p>Unlike yesterday, you won't be visiting multiple islands today. You will stay on this island for the entire game. This game will last ~30 minutes.</p><p><b>[Press the space bar to continue]</b></p></div>","32","","","","","","","","","","","","","","","","","","","","","","","",""
"","explain_probe_1","10","91783","0.0-10.0","""event"",""trial"",""time""
""blur"",""0"",""4286""
""focus"",""0"",""7855""
""fullscreenenter"",""0"",""7956""
","""event"",""trial"",""time""
""blur"",""0"",""4286""
","""event"",""trial"",""time""
""focus"",""0"",""7855""
","""event"",""trial"",""time""
""fullscreenenter"",""0"",""7956""
","
","null","run_exp/static/audio/clip_33_recognition_1.m4a","null","","","","","<div class='center'><p> Sometimes you’ll be shown a ship, and you will be asked if you saw this ship on a past island.</p><p> Here is an example of what you will see.</p><p><img src='run_exp/static/images/tutorial/example_recog_trial.png' height='500'></p></div>","","","","","","","","","","","","","","","","","","",""
"","html-keyboard-response","11","92563","0.0-11.0","""event"",""trial"",""time""
""blur"",""0"",""4286""
""focus"",""0"",""7855""
""fullscreenenter"",""0"",""7956""
","""event"",""trial"",""time""
""blur"",""0"",""4286""
","""event"",""trial"",""time""
""focus"",""0"",""7855""
","""event"",""trial"",""time""
""fullscreenenter"",""0"",""7956""
","
","777.5","<div class='center'><p> Sometimes you’ll be shown a ship, and you will be asked if you saw this ship on a past island.</p><p> Here is an example of what you will see.</p><p><img src='run_exp/static/images/tutorial/example_recog_trial.png' height='500'></p><p><b>[Press the space bar to continue]</b></p></div>","32","","","","","","","","","","","","","","","","","","","","","","","",""
"","explain_probe_2","12","114283","0.0-12.0","""event"",""trial"",""time""
""blur"",""0"",""4286""
""focus"",""0"",""7855""
""fullscreenenter"",""0"",""7956""
","""event"",""trial"",""time""
""blur"",""0"",""4286""
","""event"",""trial"",""time""
""focus"",""0"",""7855""
","""event"",""trial"",""time""
""fullscreenenter"",""0"",""7956""
","
","null","run_exp/static/audio/clip_34_recognition_2.m4a","null","","","","","<div class='center'><p> You will press the 5, 6, 7, 8 keys on your keyboard to respond.</p><p>If you are sure you saw the ship, press <b>5</b> on your keyboard.</p><p> If you think you saw it before but aren't sure, then press <b>6</b>.</p><p> If you think you have <b>not</b> seen it before but aren't sure, then press <b>7</b>.</p><p> If you are sure you did <b>not</b> see the ship before, then press <b>8</b>.</p><p><img src='run_exp/static/images/tutorial/example_recog_trial.png' height='500'></p></div>","","","","","","","","","","","","","","","","","","",""
"","html-keyboard-response","13","116708","0.0-13.0","""event"",""trial"",""time""
""blur"",""0"",""4286""
""focus"",""0"",""7855""
""fullscreenenter"",""0"",""7956""
","""event"",""trial"",""time""
""blur"",""0"",""4286""
","""event"",""trial"",""time""
""focus"",""0"",""7855""
","""event"",""trial"",""time""
""fullscreenenter"",""0"",""7956""
","
","2422.100000023842","<div class='center'><p> You will press the 5, 6, 7, 8 keys on your keyboard to respond.</p><p>If you are sure you saw the ship, press <b>5</b> on your keyboard.</p><p> If you think you saw it before but aren't sure, then press <b>6</b>.</p><p> If you think you have <b>not</b> seen it before but aren't sure, then press <b>7</b>.</p><p> If you are sure you did <b>not</b> see the ship before, then press <b>8</b>.</p><p><img src='run_exp/static/images/tutorial/example_recog_trial.png' height='500'></p><p><b>[Press the space bar to continue]</b></p></div>","32","","","","","","","","","","","","","","","","","","","","","","","",""
"","explain_outcome","14","133923","0.0-14.0","""event"",""trial"",""time""
""blur"",""0"",""4286""
""focus"",""0"",""7855""
""fullscreenenter"",""0"",""7956""
","""event"",""trial"",""time""
""blur"",""0"",""4286""
","""event"",""trial"",""time""
""focus"",""0"",""7855""
","""event"",""trial"",""time""
""fullscreenenter"",""0"",""7956""
","
","null","run_exp/static/audio/clip_35_recognition_3.m4a","null","","","","","<div class='center'><p> If you remember correctly, then you’ll get a gold coin like this: </p><p><img src='run_exp/static/images/tutorial/reward_small.png' height='200'></p><p>If you do not remember correctly, then you'll see a red x like this: </p><p><img src='run_exp/static/images/tutorial/reward_no.png' height='200'></p><p>Importantly, when you are shown a ship, take the time to remind yourself which island you saw it on. This will help you in the next part of the study.</p></div>","","","","","","","","","","","","","","","","","","",""
"","html-keyboard-response","15","135916","0.0-15.0","""event"",""trial"",""time""
""blur"",""0"",""4286""
""focus"",""0"",""7855""
""fullscreenenter"",""0"",""7956""
","""event"",""trial"",""time""
""blur"",""0"",""4286""
","""event"",""trial"",""time""
""focus"",""0"",""7855""
","""event"",""trial"",""time""
""fullscreenenter"",""0"",""7956""
","
","1991","<div class='center'><p> If you remember correctly, then you’ll get a gold coin like this: </p><p><img src='run_exp/static/images/tutorial/reward_small.png' height='200'></p><p>If you do not remember correctly, then you'll see a red x like this: </p><p><img src='run_exp/static/images/tutorial/reward_no.png' height='200'></p><p>Importantly, when you are shown a ship, take the time to remind yourself which island you saw it on. This will help you in the next part of the study.</p><p><b>[Press the space bar to continue]</b></p></div>","32","","","","","","","","","","","","","","","","","","","","","","","",""
"","begin_test_phase","16","151743","0.0-16.0","""event"",""trial"",""time""
""blur"",""0"",""4286""
""focus"",""0"",""7855""
""fullscreenenter"",""0"",""7956""
","""event"",""trial"",""time""
""blur"",""0"",""4286""
","""event"",""trial"",""time""
""focus"",""0"",""7855""
","""event"",""trial"",""time""
""fullscreenenter"",""0"",""7956""
","
","null","run_exp/static/audio/clip_36_begin_final.m4a","null","","","","","<div class='center'><p>Let's go over the important points again. Your job is to: </p><p>1. Pick the pirate who is best at robbing ships and will bring you back gold coins. </p><p>2. Correctly remember whether or not you saw a ship before. If you did see the ship before, remind yourself on which island you saw it. </p></div>","","","","","","","","","","","","","","","","","","",""
"","html-keyboard-response","17","152658","0.0-17.0","""event"",""trial"",""time""
""blur"",""0"",""4286""
""focus"",""0"",""7855""
""fullscreenenter"",""0"",""7956""
","""event"",""trial"",""time""
""blur"",""0"",""4286""
","""event"",""trial"",""time""
""focus"",""0"",""7855""
","""event"",""trial"",""time""
""fullscreenenter"",""0"",""7956""
","
","854.4000000357628","<div class='center'><p>Let's go over the important points again. Your job is to: </p><p>1. Pick the pirate who is best at robbing ships and will bring you back gold coins. </p><p>2. Correctly remember whether or not you saw a ship before. If you did see the ship before, remind yourself on which island you saw it. </p><p><b>[Press the space bar to continue]</b></p></div>","32","","","","","","","","","","","","","","","","","","","","","","","",""
"","do_welcome","18","156682","0.0-18.0","""event"",""trial"",""time""
""blur"",""0"",""4286""
""focus"",""0"",""7855""
""fullscreenenter"",""0"",""7956""
","""event"",""trial"",""time""
""blur"",""0"",""4286""
","""event"",""trial"",""time""
""focus"",""0"",""7855""
","""event"",""trial"",""time""
""fullscreenenter"",""0"",""7956""
","
","null","","","","","","","","null","","","","","","","","","","","","","","","","","",""
"","do_trial","19","160546","0.0-19.0-0.0","""event"",""trial"",""time""
""blur"",""0"",""4286""
""focus"",""0"",""7855""
""fullscreenenter"",""0"",""7956""
","""event"",""trial"",""time""
""blur"",""0"",""4286""
","""event"",""trial"",""time""
""focus"",""0"",""7855""
","""event"",""trial"",""time""
""fullscreenenter"",""0"",""7956""
","
","1274.1000000238419","","","","","","","","49","0,1,0","6","blank","230","null","0.18950414033315974","0.7350186796167505","0.3417747308386634","0","","","","","","","","",""
"","html-keyboard-response","20","161556","0.0-19.0-1.0","""event"",""trial"",""time""
""blur"",""0"",""4286""
""focus"",""0"",""7855""
""fullscreenenter"",""0"",""7956""
","""event"",""trial"",""time""
""blur"",""0"",""4286""
","""event"",""trial"",""time""
""focus"",""0"",""7855""
","""event"",""trial"",""time""
""fullscreenenter"",""0"",""7956""
","
","null","<p></p>","null","","","","","","","","","","","","","","","","","","","","","","","",""
"","do_trial","21","164132","0.0-20.0-0.0","""event"",""trial"",""time""
""blur"",""0"",""4286""
""focus"",""0"",""7855""
""fullscreenenter"",""0"",""7956""
","""event"",""trial"",""time""
""blur"",""0"",""4286""
","""event"",""trial"",""time""
""focus"",""0"",""7855""
","""event"",""trial"",""time""
""fullscreenenter"",""0"",""7956""
","
","0.10000002384185791","","","","","","","","49","0,1,0","6","blank","231","null","0.10785669831846142","0.5372810742937697","0.45648103223240816","0","","","","","","","","",""
"","html-keyboard-response","22","165135","0.0-20.0-1.0","""event"",""trial"",""time""
""blur"",""0"",""4286""
""focus"",""0"",""7855""
""fullscreenenter"",""0"",""7956""
","""event"",""trial"",""time""
""blur"",""0"",""4286""
","""event"",""trial"",""time""
""focus"",""0"",""7855""
","""event"",""trial"",""time""
""fullscreenenter"",""0"",""7956""
","
","null","<p></p>","null","","","","","","","","","","","","","","","","","","","","","","","",""
"","do_trial","23","167697","0.0-21.0-0.0","""event"",""trial"",""time""
""blur"",""0"",""4286""
""focus"",""0"",""7855""
""fullscreenenter"",""0"",""7956""
","""event"",""trial"",""time""
""blur"",""0"",""4286""
","""event"",""trial"",""time""
""focus"",""0"",""7855""
","""event"",""trial"",""time""
""fullscreenenter"",""0"",""7956""
","
","0","","","","","","","","50","0,1,0","6","blank","232","null","0.19776767455149982","0.6797544094200001","0.38480254622109783","1","","","","","","","","",""
"","html-keyboard-response","24","168705","0.0-21.0-1.0","""event"",""trial"",""time""
""blur"",""0"",""4286""
""focus"",""0"",""7855""
""fullscreenenter"",""0"",""7956""
","""event"",""trial"",""time""
""blur"",""0"",""4286""
","""event"",""trial"",""time""
""focus"",""0"",""7855""
","""event"",""trial"",""time""
""fullscreenenter"",""0"",""7956""
","
","null","<p></p>","null","","","","","","","","","","","","","","","","","","","","","","","",""
"","do_trial","25","171323","0.0-22.0-0.0","""event"",""trial"",""time""
""blur"",""0"",""4286""
""focus"",""0"",""7855""
""fullscreenenter"",""0"",""7956""
","""event"",""trial"",""time""
""blur"",""0"",""4286""
","""event"",""trial"",""time""
""focus"",""0"",""7855""
","""event"",""trial"",""time""
""fullscreenenter"",""0"",""7956""
","
","8.899999976158142","","","","","","","","50","0,1,0","6","blank","233","null","0.06678345163620575","0.7249159868196167","0.34090166830268276","1","","","","","","","","",""
"","html-keyboard-response","26","172332","0.0-22.0-1.0","""event"",""trial"",""time""
""blur"",""0"",""4286""
""focus"",""0"",""7855""
""fullscreenenter"",""0"",""7956""
","""event"",""trial"",""time""
""blur"",""0"",""4286""
","""event"",""trial"",""time""
""focus"",""0"",""7855""
","""event"",""trial"",""time""
""fullscreenenter"",""0"",""7956""
","
","null","<p></p>","null","","","","","","","","","","","","","","","","","","","","","","","",""
"","do_trial","27","174955","0.0-23.0-0.0","""event"",""trial"",""time""
""blur"",""0"",""4286""
""focus"",""0"",""7855""
""fullscreenenter"",""0"",""7956""
","""event"",""trial"",""time""
""blur"",""0"",""4286""
","""event"",""trial"",""time""
""focus"",""0"",""7855""
","""event"",""trial"",""time""
""fullscreenenter"",""0"",""7956""
","
","53.80000001192093","","","","","","","","50","0,1,1","6","blank","234","null","0.1959245277111945","0.6119249777994145","0.4313216928171631","1","","","","","","","","",""
"","html-keyboard-response","28","175961","0.0-23.0-1.0","""event"",""trial"",""time""
""blur"",""0"",""4286""
""focus"",""0"",""7855""
""fullscreenenter"",""0"",""7956""
","""event"",""trial"",""time""
""blur"",""0"",""4286""
","""event"",""trial"",""time""
""focus"",""0"",""7855""
","""event"",""trial"",""time""
""fullscreenenter"",""0"",""7956""
","
","null","<p></p>","null","","","","","","","","","","","","","","","","","","","","","","","",""
"","do_trial","29","178612","0.0-24.0-0.0","""event"",""trial"",""time""
""blur"",""0"",""4286""
""focus"",""0"",""7855""
""fullscreenenter"",""0"",""7956""
","""event"",""trial"",""time""
""blur"",""0"",""4286""
","""event"",""trial"",""time""
""focus"",""0"",""7855""
","""event"",""trial"",""time""
""fullscreenenter"",""0"",""7956""
","
","83","","","","","","","","50","0,1,0","6","blank","235","null","0.24886843020594182","0.6941865178350761","0.24132307339334694","1","","","","","","","","",""
"","html-keyboard-response","30","179618","0.0-24.0-1.0","""event"",""trial"",""time""
""blur"",""0"",""4286""
""focus"",""0"",""7855""
""fullscreenenter"",""0"",""7956""
","""event"",""trial"",""time""
""blur"",""0"",""4286""
","""event"",""trial"",""time""
""focus"",""0"",""7855""
","""event"",""trial"",""time""
""fullscreenenter"",""0"",""7956""
","
","null","<p></p>","null","","","","","","","","","","","","","","","","","","","","","","","",""
"","do_trial","31","182193","0.0-25.0-0.0","""event"",""trial"",""time""
""blur"",""0"",""4286""
""focus"",""0"",""7855""
""fullscreenenter"",""0"",""7956""
","""event"",""trial"",""time""
""blur"",""0"",""4286""
","""event"",""trial"",""time""
""focus"",""0"",""7855""
","""event"",""trial"",""time""
""fullscreenenter"",""0"",""7956""
","
","4","","","","","","","","50","1,1,0","6","blank","236","null","0.19930490968892955","0.6149600767370228","0.10219295948083534","1","","","","","","","","",""
"","html-keyboard-response","32","183197","0.0-25.0-1.0","""event"",""trial"",""time""
""blur"",""0"",""4286""
""focus"",""0"",""7855""
""fullscreenenter"",""0"",""7956""
","""event"",""trial"",""time""
""blur"",""0"",""4286""
","""event"",""trial"",""time""
""focus"",""0"",""7855""
","""event"",""trial"",""time""
""fullscreenenter"",""0"",""7956""
","
","null","<p></p>","null","","","","","","","","","","","","","","","","","","","","","","","",""
"","do_trial","33","185781","0.0-26.0-0.0","""event"",""trial"",""time""
""blur"",""0"",""4286""
""focus"",""0"",""7855""
""fullscreenenter"",""0"",""7956""
","""event"",""trial"",""time""
""blur"",""0"",""4286""
","""event"",""trial"",""time""
""focus"",""0"",""7855""
","""event"",""trial"",""time""
""fullscreenenter"",""0"",""7956""
","
","0.09999996423721313","","","","","","","","50","0,0,0","6","blank","237","null","0.15068811605012664","0.4523144040163895","0.16327789678197507","0","","","","","","","","",""
"","html-keyboard-response","34","186789","0.0-26.0-1.0","""event"",""trial"",""time""
""blur"",""0"",""4286""
""focus"",""0"",""7855""
""fullscreenenter"",""0"",""7956""
","""event"",""trial"",""time""
""blur"",""0"",""4286""
","""event"",""trial"",""time""
""focus"",""0"",""7855""
","""event"",""trial"",""time""
""fullscreenenter"",""0"",""7956""
","
","null","<p></p>","null","","","","","","","","","","","","","","","","","","","","","","","",""
"","do_trial","35","189470","0.0-27.0-0.0","""event"",""trial"",""time""
""blur"",""0"",""4286""
""focus"",""0"",""7855""
""fullscreenenter"",""0"",""7956""
","""event"",""trial"",""time""
""blur"",""0"",""4286""
","""event"",""trial"",""time""
""focus"",""0"",""7855""
","""event"",""trial"",""time""
""fullscreenenter"",""0"",""7956""
","
","115.10000002384186","","","","","","","","50","0,0,0","6","blank","238","null","0.1371474334329231","0.4381914384461695","0.1914693520397848","0","","","","","","","","",""
"","html-keyboard-response","36","190479","0.0-27.0-1.0","""event"",""trial"",""time""
""blur"",""0"",""4286""
""focus"",""0"",""7855""
""fullscreenenter"",""0"",""7956""
","""event"",""trial"",""time""
""blur"",""0"",""4286""
","""event"",""trial"",""time""
""focus"",""0"",""7855""
","""event"",""trial"",""time""
""fullscreenenter"",""0"",""7956""
","
","null","<p></p>","null","","","","","","","","","","","","","","","","","","","","","","","",""
"","do_trial","37","193137","0.0-28.0-0.0","""event"",""trial"",""time""
""blur"",""0"",""4286""
""focus"",""0"",""7855""
""fullscreenenter"",""0"",""7956""
","""event"",""trial"",""time""
""blur"",""0"",""4286""
","""event"",""trial"",""time""
""focus"",""0"",""7855""
","""event"",""trial"",""time""
""fullscreenenter"",""0"",""7956""
","
","91.39999997615814","","","","","","","","50","0,1,1","6","blank","239","null","0.0735944221118721","0.6061454184440804","0.24070417000669506","1","","","","","","","","",""
"","html-keyboard-response","38","194144","0.0-28.0-1.0","""event"",""trial"",""time""
""blur"",""0"",""4286""
""focus"",""0"",""7855""
""fullscreenenter"",""0"",""7956""
","""event"",""trial"",""time""
""blur"",""0"",""4286""
","""event"",""trial"",""time""
""focus"",""0"",""7855""
","""event"",""trial"",""time""
""fullscreenenter"",""0"",""7956""
","
","null","<p></p>","null","","","","","","","","","","","","","","","","","","","","","","","",""
"","do_trial","39","197186","0.0-29.0-0.0","""event"",""trial"",""time""
""blur"",""0"",""4286""
""focus"",""0"",""7855""
""fullscreenenter"",""0"",""7956""
","""event"",""trial"",""time""
""blur"",""0"",""4286""
","""event"",""trial"",""time""
""focus"",""0"",""7855""
","""event"",""trial"",""time""
""fullscreenenter"",""0"",""7956""
","
","448","","","","","","","","50","0,1,0","6","blank","240","null","0.16230830334798685","0.5515092934483067","0.24707392575241394","1","","","","","","","","",""
"","html-keyboard-response","40","198193","0.0-29.0-1.0","""event"",""trial"",""time""
""blur"",""0"",""4286""
""focus"",""0"",""7855""
""fullscreenenter"",""0"",""7956""
","""event"",""trial"",""time""
""blur"",""0"",""4286""
","""event"",""trial"",""time""
""focus"",""0"",""7855""
","""event"",""trial"",""time""
""fullscreenenter"",""0"",""7956""
","
","null","<p></p>","null","","","","","","","","","","","","","","","","","","","","","","","",""
"","do_recog","41","204216","0.0-30.0-0.0","""event"",""trial"",""time""
""blur"",""0"",""4286""
""focus"",""0"",""7855""
""fullscreenenter"",""0"",""7956""
","""event"",""trial"",""time""
""blur"",""0"",""4286""
","""event"",""trial"",""time""
""focus"",""0"",""7855""
","""event"",""trial"",""time""
""fullscreenenter"",""0"",""7956""
","
","null","","","","","","","","null","","","","241","probe-137","","","","","1","[object Object]","157","3","0","","","",""
"","html-keyboard-response","42","205223","0.0-30.0-1.0","""event"",""trial"",""time""
""blur"",""0"",""4286""
""focus"",""0"",""7855""
""fullscreenenter"",""0"",""7956""
","""event"",""trial"",""time""
""blur"",""0"",""4286""
","""event"",""trial"",""time""
""focus"",""0"",""7855""
","""event"",""trial"",""time""
""fullscreenenter"",""0"",""7956""
","
","null","<p></p>","null","","","","","","","","","","","","","","","","","","","","","","","",""
"","do_trial","43","208997","0.0-31.0-0.0","""event"",""trial"",""time""
""blur"",""0"",""4286""
""focus"",""0"",""7855""
""fullscreenenter"",""0"",""7956""
","""event"",""trial"",""time""
""blur"",""0"",""4286""
","""event"",""trial"",""time""
""focus"",""0"",""7855""
","""event"",""trial"",""time""
""fullscreenenter"",""0"",""7956""
","
","1189.3999999761581","","","","","","","","50","0,1,0","6","blank","242","null","0.13994397694603586","0.5160810156124199","0.2922126001841819","1","","","","","","","","",""
"","html-keyboard-response","44","210004","0.0-31.0-1.0","""event"",""trial"",""time""
""blur"",""0"",""4286""
""focus"",""0"",""7855""
""fullscreenenter"",""0"",""7956""
","""event"",""trial"",""time""
""blur"",""0"",""4286""
","""event"",""trial"",""time""
""focus"",""0"",""7855""
","""event"",""trial"",""time""
""fullscreenenter"",""0"",""7956""
","
","null","<p></p>","null","","","","","","","","","","","","","","","","","","","","","","","",""
"","do_trial","45","212610","0.0-32.0-0.0","""event"",""trial"",""time""
""blur"",""0"",""4286""
""focus"",""0"",""7855""
""fullscreenenter"",""0"",""7956""
","""event"",""trial"",""time""
""blur"",""0"",""4286""
","""event"",""trial"",""time""
""focus"",""0"",""7855""
","""event"",""trial"",""time""
""fullscreenenter"",""0"",""7956""
","
","33.90000003576279","","","","","","","","50","1,0,1","6","blank","243","null","0.13090140922216936","0.33319760660770115","0.30810206365942416","0","","","","","","","","",""
"","html-keyboard-response","46","213620","0.0-32.0-1.0","""event"",""trial"",""time""
""blur"",""0"",""4286""
""focus"",""0"",""7855""
""fullscreenenter"",""0"",""7956""
","""event"",""trial"",""time""
""blur"",""0"",""4286""
","""event"",""trial"",""time""
""focus"",""0"",""7855""
","""event"",""trial"",""time""
""fullscreenenter"",""0"",""7956""
","
","null","<p></p>","null","","","","","","","","","","","","","","","","","","","","","","","",""
"","do_trial","47","216286","0.0-33.0-0.0","""event"",""trial"",""time""
""blur"",""0"",""4286""
""focus"",""0"",""7855""
""fullscreenenter"",""0"",""7956""
","""event"",""trial"",""time""
""blur"",""0"",""4286""
","""event"",""trial"",""time""
""focus"",""0"",""7855""
","""event"",""trial"",""time""
""fullscreenenter"",""0"",""7956""
","
","75.89999997615814","","","","","","","","50","1,0,0","6","blank","244","null","0.4226097827033025","0.21726953641478733","0.21131423548738115","0","","","","","","","","",""
"","html-keyboard-response","48","217296","0.0-33.0-1.0","""event"",""trial"",""time""
""blur"",""0"",""4286""
""focus"",""0"",""7855""
""fullscreenenter"",""0"",""7956""
","""event"",""trial"",""time""
""blur"",""0"",""4286""
","""event"",""trial"",""time""
""focus"",""0"",""7855""
","""event"",""trial"",""time""
""fullscreenenter"",""0"",""7956""
","
","null","<p></p>","null","","","","","","","","","","","","","","","","","","","","","","","",""
"","do_recog","49","220673","0.0-34.0-0.0","""event"",""trial"",""time""
""blur"",""0"",""4286""
""focus"",""0"",""7855""
""fullscreenenter"",""0"",""7956""
","""event"",""trial"",""time""
""blur"",""0"",""4286""
","""event"",""trial"",""time""
""focus"",""0"",""7855""
","""event"",""trial"",""time""
""fullscreenenter"",""0"",""7956""
","
","1856.0999999642372","","","","","","","","53","","","","245","probe-226","","","","","1","[object Object]","78","1","1","","","",""
"","html-keyboard-response","50","221679","0.0-34.0-1.0","""event"",""trial"",""time""
""blur"",""0"",""4286""
""focus"",""0"",""7855""
""fullscreenenter"",""0"",""7956""
","""event"",""trial"",""time""
""blur"",""0"",""4286""
","""event"",""trial"",""time""
""focus"",""0"",""7855""
","""event"",""trial"",""time""
""fullscreenenter"",""0"",""7956""
","
","null","<p></p>","null","","","","","","","","","","","","","","","","","","","","","","","",""
"","do_trial","51","226261","0.0-35.0-0.0","""event"",""trial"",""time""
""blur"",""0"",""4286""
""focus"",""0"",""7855""
""fullscreenenter"",""0"",""7956""
","""event"",""trial"",""time""
""blur"",""0"",""4286""
","""event"",""trial"",""time""
""focus"",""0"",""7855""
","""event"",""trial"",""time""
""fullscreenenter"",""0"",""7956""
","
","1988.6000000238419","","","","","","","","49","0,0,0","6","blank","246","null","0.19948696989362322","0.24553253757423563","0.43180883946541976","0","","","","","","","","",""
"","html-keyboard-response","52","227265","0.0-35.0-1.0","""event"",""trial"",""time""
""blur"",""0"",""4286""
""focus"",""0"",""7855""
""fullscreenenter"",""0"",""7956""
","""event"",""trial"",""time""
""blur"",""0"",""4286""
","""event"",""trial"",""time""
""focus"",""0"",""7855""
","""event"",""trial"",""time""
""fullscreenenter"",""0"",""7956""
","
","null","<p></p>","null","","","","","","","","","","","","","","","","","","","","","","","",""
"","do_trial","53","229926","0.0-36.0-0.0","""event"",""trial"",""time""
""blur"",""0"",""4286""
""focus"",""0"",""7855""
""fullscreenenter"",""0"",""7956""
","""event"",""trial"",""time""
""blur"",""0"",""4286""
","""event"",""trial"",""time""
""focus"",""0"",""7855""
","""event"",""trial"",""time""
""fullscreenenter"",""0"",""7956""
","
","88","","","","","","","","50","0,0,1","6","blank","247","null","0.22711360432485173","0.06217912370851252","0.3645367012655287","0","","","","","","","","",""
"","html-keyboard-response","54","230932","0.0-36.0-1.0","""event"",""trial"",""time""
""blur"",""0"",""4286""
""focus"",""0"",""7855""
""fullscreenenter"",""0"",""7956""
","""event"",""trial"",""time""
""blur"",""0"",""4286""
","""event"",""trial"",""time""
""focus"",""0"",""7855""
","""event"",""trial"",""time""
""fullscreenenter"",""0"",""7956""
","
","null","<p></p>","null","","","","","","","","","","","","","","","","","","","","","","","",""
"","do_trial","55","233519","0.0-37.0-0.0","""event"",""trial"",""time""
""blur"",""0"",""4286""
""focus"",""0"",""7855""
""fullscreenenter"",""0"",""7956""
","""event"",""trial"",""time""
""blur"",""0"",""4286""
","""event"",""trial"",""time""
""focus"",""0"",""7855""
","""event"",""trial"",""time""
""fullscreenenter"",""0"",""7956""
","
","4.900000035762787","","","","","","","","50","0,0,0","6","blank","248","null","0.3514081232730738","0.23238592313118753","0.25499603074641775","0","","","","","","","","",""
"","html-keyboard-response","56","234526","0.0-37.0-1.0","""event"",""trial"",""time""
""blur"",""0"",""4286""
""focus"",""0"",""7855""
""fullscreenenter"",""0"",""7956""
","""event"",""trial"",""time""
""blur"",""0"",""4286""
","""event"",""trial"",""time""
""focus"",""0"",""7855""
","""event"",""trial"",""time""
""fullscreenenter"",""0"",""7956""
","
","null","<p></p>","null","","","","","","","","","","","","","","","","","","","","","","","",""
"","do_trial","57","237294","0.0-38.0-0.0","""event"",""trial"",""time""
""blur"",""0"",""4286""
""focus"",""0"",""7855""
""fullscreenenter"",""0"",""7956""
","""event"",""trial"",""time""
""blur"",""0"",""4286""
","""event"",""trial"",""time""
""focus"",""0"",""7855""
","""event"",""trial"",""time""
""fullscreenenter"",""0"",""7956""
","
","186.4000000357628","","","","","","","","51","0,0,0","6","blank","249","null","0.44947954657456785","0.12158416766166681","0.380668768361834","0","","","","","","","","",""
"","html-keyboard-response","58","238309","0.0-38.0-1.0","""event"",""trial"",""time""
""blur"",""0"",""4286""
""focus"",""0"",""7855""
""fullscreenenter"",""0"",""7956""
","""event"",""trial"",""time""
""blur"",""0"",""4286""
","""event"",""trial"",""time""
""focus"",""0"",""7855""
","""event"",""trial"",""time""
""fullscreenenter"",""0"",""7956""
","
","null","<p></p>","null","","","","","","","","","","","","","","","","","","","","","","","",""
"","do_trial","59","240930","0.0-39.0-0.0","""event"",""trial"",""time""
""blur"",""0"",""4286""
""focus"",""0"",""7855""
""fullscreenenter"",""0"",""7956""
","""event"",""trial"",""time""
""blur"",""0"",""4286""
","""event"",""trial"",""time""
""focus"",""0"",""7855""
","""event"",""trial"",""time""
""fullscreenenter"",""0"",""7956""
","
","43.60000002384186","","","","","","","","50","1,1,0","6","blank","250","null","0.5346748980460722","0.22516285697916388","0.3898483673992926","1","","","","","","","","",""
"","html-keyboard-response","60","241935","0.0-39.0-1.0","""event"",""trial"",""time""
""blur"",""0"",""4286""
""focus"",""0"",""7855""
""fullscreenenter"",""0"",""7956""
","""event"",""trial"",""time""
""blur"",""0"",""4286""
","""event"",""trial"",""time""
""focus"",""0"",""7855""
","""event"",""trial"",""time""
""fullscreenenter"",""0"",""7956""
","
","null","<p></p>","null","","","","","","","","","","","","","","","","","","","","","","","",""
"","do_trial","61","244526","0.0-40.0-0.0","""event"",""trial"",""time""
""blur"",""0"",""4286""
""focus"",""0"",""7855""
""fullscreenenter"",""0"",""7956""
","""event"",""trial"",""time""
""blur"",""0"",""4286""
","""event"",""trial"",""time""
""focus"",""0"",""7855""
","""event"",""trial"",""time""
""fullscreenenter"",""0"",""7956""
","
","0","","","","","","","","50","0,1,0","6","blank","251","null","0.45937632321693145","0.14763472191950672","0.307415141490532","1","","","","","","","","",""
"","html-keyboard-response","62","245538","0.0-40.0-1.0","""event"",""trial"",""time""
""blur"",""0"",""4286""
""focus"",""0"",""7855""
""fullscreenenter"",""0"",""7956""
","""event"",""trial"",""time""
""blur"",""0"",""4286""
","""event"",""trial"",""time""
""focus"",""0"",""7855""
","""event"",""trial"",""time""
""fullscreenenter"",""0"",""7956""
","
","null","<p></p>","null","","","","","","","","","","","","","","","","","","","","","","","",""
"","do_recog","63","251564","0.0-41.0-0.0","""event"",""trial"",""time""
""blur"",""0"",""4286""
""focus"",""0"",""7855""
""fullscreenenter"",""0"",""7956""
","""event"",""trial"",""time""
""blur"",""0"",""4286""
","""event"",""trial"",""time""
""focus"",""0"",""7855""
","""event"",""trial"",""time""
""fullscreenenter"",""0"",""7956""
","
","null","","","","","","","","null","","","","252","probe-32","","","","","1","[object Object]","156","3","0","","","",""
"","html-keyboard-response","64","252573","0.0-41.0-1.0","""event"",""trial"",""time""
""blur"",""0"",""4286""
""focus"",""0"",""7855""
""fullscreenenter"",""0"",""7956""
","""event"",""trial"",""time""
""blur"",""0"",""4286""
","""event"",""trial"",""time""
""focus"",""0"",""7855""
","""event"",""trial"",""time""
""fullscreenenter"",""0"",""7956""
","
","null","<p></p>","null","","","","","","","","","","","","","","","","","","","","","","","",""
"","do_trial","65","255204","0.0-42.0-0.0","""event"",""trial"",""time""
""blur"",""0"",""4286""
""focus"",""0"",""7855""
""fullscreenenter"",""0"",""7956""
","""event"",""trial"",""time""
""blur"",""0"",""4286""
","""event"",""trial"",""time""
""focus"",""0"",""7855""
","""event"",""trial"",""time""
""fullscreenenter"",""0"",""7956""
","
","56.10000002384186","","","","","","","","50","0,0,0","6","blank","253","null","0.5707552391399376","0.11162311507962618","0.415915808458386","0","","","","","","","","",""
"","html-keyboard-response","66","256211","0.0-42.0-1.0","""event"",""trial"",""time""
""blur"",""0"",""4286""
""focus"",""0"",""7855""
""fullscreenenter"",""0"",""7956""
","""event"",""trial"",""time""
""blur"",""0"",""4286""
","""event"",""trial"",""time""
""focus"",""0"",""7855""
","""event"",""trial"",""time""
""fullscreenenter"",""0"",""7956""
","
","null","<p></p>","null","","","","","","","","","","","","","","","","","","","","","","","",""
"","do_recog","67","259873","0.0-43.0-0.0","""event"",""trial"",""time""
""blur"",""0"",""4286""
""focus"",""0"",""7855""
""fullscreenenter"",""0"",""7956""
","""event"",""trial"",""time""
""blur"",""0"",""4286""
","""event"",""trial"",""time""
""focus"",""0"",""7855""
","""event"",""trial"",""time""
""fullscreenenter"",""0"",""7956""
","
","2135.300000011921","","","","","","","","56","","","","254","probe-233","","","","","0","[object Object]","null","null","1","","","",""
"","html-keyboard-response","68","260878","0.0-43.0-1.0","""event"",""trial"",""time""
""blur"",""0"",""4286""
""focus"",""0"",""7855""
""fullscreenenter"",""0"",""7956""
","""event"",""trial"",""time""
""blur"",""0"",""4286""
","""event"",""trial"",""time""
""focus"",""0"",""7855""
","""event"",""trial"",""time""
""fullscreenenter"",""0"",""7956""
","
","null","<p></p>","null","","","","","","","","","","","","","","","","","","","","","","","",""
"","do_trial","69","263948","0.0-44.0-0.0","""event"",""trial"",""time""
""blur"",""0"",""4286""
""focus"",""0"",""7855""
""fullscreenenter"",""0"",""7956""
","""event"",""trial"",""time""
""blur"",""0"",""4286""
","""event"",""trial"",""time""
""focus"",""0"",""7855""
","""event"",""trial"",""time""
""fullscreenenter"",""0"",""7956""
","
","488.80000001192093","","","","","","","","50","1,0,1","6","blank","255","null","0.6595720208513919","0.05604537204273734","0.3050050235619245","0","","","","","","","","",""
"","html-keyboard-response","70","264955","0.0-44.0-1.0","""event"",""trial"",""time""
""blur"",""0"",""4286""
""focus"",""0"",""7855""
""fullscreenenter"",""0"",""7956""
","""event"",""trial"",""time""
""blur"",""0"",""4286""
","""event"",""trial"",""time""
""focus"",""0"",""7855""
","""event"",""trial"",""time""
""fullscreenenter"",""0"",""7956""
","
","null","<p></p>","null","","","","","","","","","","","","","","","","","","","","","","","",""
"","do_recog","71","268676","0.0-45.0-0.0","""event"",""trial"",""time""
""blur"",""0"",""4286""
""focus"",""0"",""7855""
""fullscreenenter"",""0"",""7956""
","""event"",""trial"",""time""
""blur"",""0"",""4286""
","""event"",""trial"",""time""
""focus"",""0"",""7855""
","""event"",""trial"",""time""
""fullscreenenter"",""0"",""7956""
","
","2199.600000023842","","","","","","","","56","","","","256","probe-191","","","","","1","[object Object]","114","2","0","","","",""
"","html-keyboard-response","72","269685","0.0-45.0-1.0","""event"",""trial"",""time""
""blur"",""0"",""4286""
""focus"",""0"",""7855""
""fullscreenenter"",""0"",""7956""
","""event"",""trial"",""time""
""blur"",""0"",""4286""
","""event"",""trial"",""time""
""focus"",""0"",""7855""
","""event"",""trial"",""time""
""fullscreenenter"",""0"",""7956""
","
","null","<p></p>","null","","","","","","","","","","","","","","","","","","","","","","","",""
"","do_trial","73","272285","0.0-46.0-0.0","""event"",""trial"",""time""
""blur"",""0"",""4286""
""focus"",""0"",""7855""
""fullscreenenter"",""0"",""7956""
","""event"",""trial"",""time""
""blur"",""0"",""4286""
","""event"",""trial"",""time""
""focus"",""0"",""7855""
","""event"",""trial"",""time""
""fullscreenenter"",""0"",""7956""
","
","0.10000002384185791","","","","","","","","50","1,0,0","6","blank","257","null","0.5838313521527397","0.09164940603330343","0.059954951930181154","0","","","","","","","","",""
"","html-keyboard-response","74","273294","0.0-46.0-1.0","""event"",""trial"",""time""
""blur"",""0"",""4286""
""focus"",""0"",""7855""
""fullscreenenter"",""0"",""7956""
","""event"",""trial"",""time""
""blur"",""0"",""4286""
","""event"",""trial"",""time""
""focus"",""0"",""7855""
","""event"",""trial"",""time""
""fullscreenenter"",""0"",""7956""
","
","null","<p></p>","null","","","","","","","","","","","","","","","","","","","","","","","",""
"","do_recog","75","277239","0.0-47.0-0.0","""event"",""trial"",""time""
""blur"",""0"",""4286""
""focus"",""0"",""7855""
""fullscreenenter"",""0"",""7956""
","""event"",""trial"",""time""
""blur"",""0"",""4286""
","""event"",""trial"",""time""
""focus"",""0"",""7855""
","""event"",""trial"",""time""
""fullscreenenter"",""0"",""7956""
","
","2422.300000011921","","","","","","","","54","","","","258","probe-12","","","","","1","[object Object]","118","2","1","","","",""
"","html-keyboard-response","76","278247","0.0-47.0-1.0","""event"",""trial"",""time""
""blur"",""0"",""4286""
""focus"",""0"",""7855""
""fullscreenenter"",""0"",""7956""
","""event"",""trial"",""time""
""blur"",""0"",""4286""
","""event"",""trial"",""time""
""focus"",""0"",""7855""
","""event"",""trial"",""time""
""fullscreenenter"",""0"",""7956""
","
","null","<p></p>","null","","","","","","","","","","","","","","","","","","","","","","","",""
"","do_trial","77","281381","0.0-48.0-0.0","""event"",""trial"",""time""
""blur"",""0"",""4286""
""focus"",""0"",""7855""
""fullscreenenter"",""0"",""7956""
","""event"",""trial"",""time""
""blur"",""0"",""4286""
","""event"",""trial"",""time""
""focus"",""0"",""7855""
","""event"",""trial"",""time""
""fullscreenenter"",""0"",""7956""
","
","564.6000000238419","","","","","","","","50","1,0,1","6","blank","259","null","0.6083544263014373","0.05388184577427738","0.19378982402721875","0","","","","","","","","",""
"","html-keyboard-response","78","282386","0.0-48.0-1.0","""event"",""trial"",""time""
""blur"",""0"",""4286""
""focus"",""0"",""7855""
""fullscreenenter"",""0"",""7956""
","""event"",""trial"",""time""
""blur"",""0"",""4286""
","""event"",""trial"",""time""
""focus"",""0"",""7855""
","""event"",""trial"",""time""
""fullscreenenter"",""0"",""7956""
","
","null","<p></p>","null","","","","","","","","","","","","","","","","","","","","","","","",""
"","do_trial","79","284988","0.0-49.0-0.0","""event"",""trial"",""time""
""blur"",""0"",""4286""
""focus"",""0"",""7855""
""fullscreenenter"",""0"",""7956""
","""event"",""trial"",""time""
""blur"",""0"",""4286""
","""event"",""trial"",""time""
""focus"",""0"",""7855""
","""event"",""trial"",""time""
""fullscreenenter"",""0"",""7956""
","
","4","","","","","","","","50","1,0,0","6","blank","260","null","0.589997359436166","0.12133487136991584","0.3114807159928739","0","","","","","","","","",""
"","html-keyboard-response","80","285996","0.0-49.0-1.0","""event"",""trial"",""time""
""blur"",""0"",""4286""
""focus"",""0"",""7855""
""fullscreenenter"",""0"",""7956""
","""event"",""trial"",""time""
""blur"",""0"",""4286""
","""event"",""trial"",""time""
""focus"",""0"",""7855""
","""event"",""trial"",""time""
""fullscreenenter"",""0"",""7956""
","
","null","<p></p>","null","","","","","","","","","","","","","","","","","","","","","","","",""
"","do_recog","81","289441","0.0-50.0-0.0","""event"",""trial"",""time""
""blur"",""0"",""4286""
""focus"",""0"",""7855""
""fullscreenenter"",""0"",""7956""
","""event"",""trial"",""time""
""blur"",""0"",""4286""
","""event"",""trial"",""time""
""focus"",""0"",""7855""
","""event"",""trial"",""time""
""fullscreenenter"",""0"",""7956""
","
","1925.699999988079","","","","","","","","56","","","","261","probe-249","","","","","0","[object Object]","null","null","1","","","",""
"","html-keyboard-response","82","290450","0.0-50.0-1.0","""event"",""trial"",""time""
""blur"",""0"",""4286""
""focus"",""0"",""7855""
""fullscreenenter"",""0"",""7956""
","""event"",""trial"",""time""
""blur"",""0"",""4286""
","""event"",""trial"",""time""
""focus"",""0"",""7855""
","""event"",""trial"",""time""
""fullscreenenter"",""0"",""7956""
","
","null","<p></p>","null","","","","","","","","","","","","","","","","","","","","","","","",""
"","do_trial","83","293553","0.0-51.0-0.0","""event"",""trial"",""time""
""blur"",""0"",""4286""
""focus"",""0"",""7855""
""fullscreenenter"",""0"",""7956""
","""event"",""trial"",""time""
""blur"",""0"",""4286""
","""event"",""trial"",""time""
""focus"",""0"",""7855""
","""event"",""trial"",""time""
""fullscreenenter"",""0"",""7956""
","
","508.4000000357628","","","","","","","","50","1,0,0","6","blank","262","null","0.6681645793116092","0.13307071069452384","0.2529036623766958","0","","","","","","","","",""
"","html-keyboard-response","84","294556","0.0-51.0-1.0","""event"",""trial"",""time""
""blur"",""0"",""4286""
""focus"",""0"",""7855""
""fullscreenenter"",""0"",""7956""
","""event"",""trial"",""time""
""blur"",""0"",""4286""
","""event"",""trial"",""time""
""focus"",""0"",""7855""
","""event"",""trial"",""time""
""fullscreenenter"",""0"",""7956""
","
","null","<p></p>","null","","","","","","","","","","","","","","","","","","","","","","","",""
"","do_trial","85","297229","0.0-52.0-0.0","""event"",""trial"",""time""
""blur"",""0"",""4286""
""focus"",""0"",""7855""
""fullscreenenter"",""0"",""7956""
","""event"",""trial"",""time""
""blur"",""0"",""4286""
","""event"",""trial"",""time""
""focus"",""0"",""7855""
","""event"",""trial"",""time""
""fullscreenenter"",""0"",""7956""
","
","92.80000001192093","","","","","","","","50","0,0,1","6","blank","263","null","0.5423302950284399","0.1211621400841671","0.22330570018080592","0","","","","","","","","",""
"","html-keyboard-response","86","298237","0.0-52.0-1.0","""event"",""trial"",""time""
""blur"",""0"",""4286""
""focus"",""0"",""7855""
""fullscreenenter"",""0"",""7956""
","""event"",""trial"",""time""
""blur"",""0"",""4286""
","""event"",""trial"",""time""
""focus"",""0"",""7855""
","""event"",""trial"",""time""
""fullscreenenter"",""0"",""7956""
","
","null","<p></p>","null","","","","","","","","","","","","","","","","","","","","","","","",""
"","do_trial","87","300843","0.0-53.0-0.0","""event"",""trial"",""time""
""blur"",""0"",""4286""
""focus"",""0"",""7855""
""fullscreenenter"",""0"",""7956""
","""event"",""trial"",""time""
""blur"",""0"",""4286""
","""event"",""trial"",""time""
""focus"",""0"",""7855""
","""event"",""trial"",""time""
""fullscreenenter"",""0"",""7956""
","
","44.59999996423721","","","","","","","","51","1,0,1","6","blank","264","null","0.6293067877025001","0.07460177016164667","0.1637757046836157","1","","","","","","","","",""
"","html-keyboard-response","88","301848","0.0-53.0-1.0","""event"",""trial"",""time""
""blur"",""0"",""4286""
""focus"",""0"",""7855""
""fullscreenenter"",""0"",""7956""
","""event"",""trial"",""time""
""blur"",""0"",""4286""
","""event"",""trial"",""time""
""focus"",""0"",""7855""
","""event"",""trial"",""time""
""fullscreenenter"",""0"",""7956""
","
","null","<p></p>","null","","","","","","","","","","","","","","","","","","","","","","","",""
"","do_trial","89","304458","0.0-54.0-0.0","""event"",""trial"",""time""
""blur"",""0"",""4286""
""focus"",""0"",""7855""
""fullscreenenter"",""0"",""7956""
","""event"",""trial"",""time""
""blur"",""0"",""4286""
","""event"",""trial"",""time""
""focus"",""0"",""7855""
","""event"",""trial"",""time""
""fullscreenenter"",""0"",""7956""
","
","25.30000001192093","","","","","","","","51","1,0,0","6","blank","265","null","0.6872527766568763","0.12157634510655803","0.12407029251496221","0","","","","","","","","",""
"","html-keyboard-response","90","305465","0.0-54.0-1.0","""event"",""trial"",""time""
""blur"",""0"",""4286""
""focus"",""0"",""7855""
""fullscreenenter"",""0"",""7956""
","""event"",""trial"",""time""
""blur"",""0"",""4286""
","""event"",""trial"",""time""
""focus"",""0"",""7855""
","""event"",""trial"",""time""
""fullscreenenter"",""0"",""7956""
","
","null","<p></p>","null","","","","","","","","","","","","","","","","","","","","","","","",""
"","do_recog","91","309509","0.0-55.0-0.0","""event"",""trial"",""time""
""blur"",""0"",""4286""
""focus"",""0"",""7855""
""fullscreenenter"",""0"",""7956""
","""event"",""trial"",""time""
""blur"",""0"",""4286""
","""event"",""trial"",""time""
""focus"",""0"",""7855""
","""event"",""trial"",""time""
""fullscreenenter"",""0"",""7956""
","
","2529.800000011921","","","","","","","","55","","","","266","probe-205","","","","","1","[object Object]","158","3","0","","","",""
"","html-keyboard-response","92","310513","0.0-55.0-1.0","""event"",""trial"",""time""
""blur"",""0"",""4286""
""focus"",""0"",""7855""
""fullscreenenter"",""0"",""7956""
","""event"",""trial"",""time""
""blur"",""0"",""4286""
","""event"",""trial"",""time""
""focus"",""0"",""7855""
","""event"",""trial"",""time""
""fullscreenenter"",""0"",""7956""
","
","null","<p></p>","null","","","","","","","","","","","","","","","","","","","","","","","",""
"","do_trial","93","313773","0.0-56.0-0.0","""event"",""trial"",""time""
""blur"",""0"",""4286""
""focus"",""0"",""7855""
""fullscreenenter"",""0"",""7956""
","""event"",""trial"",""time""
""blur"",""0"",""4286""
","""event"",""trial"",""time""
""focus"",""0"",""7855""
","""event"",""trial"",""time""
""fullscreenenter"",""0"",""7956""
","
","648.2999999523163","","","","","","","","50","0,0,0","6","blank","267","null","0.6243497174169969","0.07761204615636301","0.12203193219551432","0","","","","","","","","",""
"","html-keyboard-response","94","314779","0.0-56.0-1.0","""event"",""trial"",""time""
""blur"",""0"",""4286""
""focus"",""0"",""7855""
""fullscreenenter"",""0"",""7956""
","""event"",""trial"",""time""
""blur"",""0"",""4286""
","""event"",""trial"",""time""
""focus"",""0"",""7855""
","""event"",""trial"",""time""
""fullscreenenter"",""0"",""7956""
","
","null","<p></p>","null","","","","","","","","","","","","","","","","","","","","","","","",""
"","do_trial","95","317376","0.0-57.0-0.0","""event"",""trial"",""time""
""blur"",""0"",""4286""
""focus"",""0"",""7855""
""fullscreenenter"",""0"",""7956""
","""event"",""trial"",""time""
""blur"",""0"",""4286""
","""event"",""trial"",""time""
""focus"",""0"",""7855""
","""event"",""trial"",""time""
""fullscreenenter"",""0"",""7956""
","
","29.69999998807907","","","","","","","","49","0,0,0","6","blank","268","null","0.5986168287605045","0.05013509616559879","0.1364453802944977","0","","","","","","","","",""
"","html-keyboard-response","96","318386","0.0-57.0-1.0","""event"",""trial"",""time""
""blur"",""0"",""4286""
""focus"",""0"",""7855""
""fullscreenenter"",""0"",""7956""
","""event"",""trial"",""time""
""blur"",""0"",""4286""
","""event"",""trial"",""time""
""focus"",""0"",""7855""
","""event"",""trial"",""time""
""fullscreenenter"",""0"",""7956""
","
","null","<p></p>","null","","","","","","","","","","","","","","","","","","","","","","","",""
"","break","97","319819","0.0-58.0-0.0","""event"",""trial"",""time""
""blur"",""0"",""4286""
""focus"",""0"",""7855""
""fullscreenenter"",""0"",""7956""
","""event"",""trial"",""time""
""blur"",""0"",""4286""
","""event"",""trial"",""time""
""focus"",""0"",""7855""
","""event"",""trial"",""time""
""fullscreenenter"",""0"",""7956""
","
","1432","<div class='center'><p>Time to take a quick break! You have 2 minutes to rest, but you can move on sooner if you'd like.</p><p> Press the <b>space bar</b> to continue.</p></div>","32","","","","","","","","","","","","","","","","","","","","","","","",""
"","do_trial","98","323081","0.0-58.0-1.0","""event"",""trial"",""time""
""blur"",""0"",""4286""
""focus"",""0"",""7855""
""fullscreenenter"",""0"",""7956""
","""event"",""trial"",""time""
""blur"",""0"",""4286""
","""event"",""trial"",""time""
""focus"",""0"",""7855""
","""event"",""trial"",""time""
""fullscreenenter"",""0"",""7956""
","
","670","","","","","","","","49","0,0,0","6","blank","269","null","0.7258675606696936","0.11465209382998393","0.2998574248923703","0","","","","","","","","",""
"","html-keyboard-response","99","324094","0.0-58.0-2.0","""event"",""trial"",""time""
""blur"",""0"",""4286""
""focus"",""0"",""7855""
""fullscreenenter"",""0"",""7956""
","""event"",""trial"",""time""
""blur"",""0"",""4286""
","""event"",""trial"",""time""
""focus"",""0"",""7855""
","""event"",""trial"",""time""
""fullscreenenter"",""0"",""7956""
","
","null","<p></p>","null","","","","","","","","","","","","","","","","","","","","","","","",""
"","do_trial","100","326898","0.0-59.0-0.0","""event"",""trial"",""time""
""blur"",""0"",""4286""
""focus"",""0"",""7855""
""fullscreenenter"",""0"",""7956""
","""event"",""trial"",""time""
""blur"",""0"",""4286""
","""event"",""trial"",""time""
""focus"",""0"",""7855""
","""event"",""trial"",""time""
""fullscreenenter"",""0"",""7956""
","
","267.30000001192093","","","","","","","","49","0,0,0","6","blank","270","null","0.6803268877603309","0.13143323707478072","0.278872883468607","0","","","","","","","","",""
"","html-keyboard-response","101","327911","0.0-59.0-1.0","""event"",""trial"",""time""
""blur"",""0"",""4286""
""focus"",""0"",""7855""
""fullscreenenter"",""0"",""7956""
","""event"",""trial"",""time""
""blur"",""0"",""4286""
","""event"",""trial"",""time""
""focus"",""0"",""7855""
","""event"",""trial"",""time""
""fullscreenenter"",""0"",""7956""
","
","null","<p></p>","null","","","","","","","","","","","","","","","","","","","","","","","",""
"","do_trial","102","330524","0.0-60.0-0.0","""event"",""trial"",""time""
""blur"",""0"",""4286""
""focus"",""0"",""7855""
""fullscreenenter"",""0"",""7956""
","""event"",""trial"",""time""
""blur"",""0"",""4286""
","""event"",""trial"",""time""
""focus"",""0"",""7855""
","""event"",""trial"",""time""
""fullscreenenter"",""0"",""7956""
","
","75.80000001192093","","","","","","","","49","1,1,1","6","blank","271","null","0.6704964892849005","0.05242894246848383","0.2625124740925464","1","","","","","","","","",""
"","html-keyboard-response","103","331531","0.0-60.0-1.0","""event"",""trial"",""time""
""blur"",""0"",""4286""
""focus"",""0"",""7855""
""fullscreenenter"",""0"",""7956""
","""event"",""trial"",""time""
""blur"",""0"",""4286""
","""event"",""trial"",""time""
""focus"",""0"",""7855""
","""event"",""trial"",""time""
""fullscreenenter"",""0"",""7956""
","
","null","<p></p>","null","","","","","","","","","","","","","","","","","","","","","","","",""
"","do_recog","104","335302","0.0-61.0-0.0","""event"",""trial"",""time""
""blur"",""0"",""4286""
""focus"",""0"",""7855""
""fullscreenenter"",""0"",""7956""
","""event"",""trial"",""time""
""blur"",""0"",""4286""
","""event"",""trial"",""time""
""focus"",""0"",""7855""
","""event"",""trial"",""time""
""fullscreenenter"",""0"",""7956""
","
","2251.900000035763","","","","","","","","53","","","","272","probe-162","","","","","1","[object Object]","191","4","1","","","",""
"","html-keyboard-response","105","336309","0.0-61.0-1.0","""event"",""trial"",""time""
""blur"",""0"",""4286""
""focus"",""0"",""7855""
""fullscreenenter"",""0"",""7956""
","""event"",""trial"",""time""
""blur"",""0"",""4286""
","""event"",""trial"",""time""
""focus"",""0"",""7855""
","""event"",""trial"",""time""
""fullscreenenter"",""0"",""7956""
","
","null","<p></p>","null","","","","","","","","","","","","","","","","","","","","","","","",""
"","do_trial","106","339591","0.0-62.0-0.0","""event"",""trial"",""time""
""blur"",""0"",""4286""
""focus"",""0"",""7855""
""fullscreenenter"",""0"",""7956""
","""event"",""trial"",""time""
""blur"",""0"",""4286""
","""event"",""trial"",""time""
""focus"",""0"",""7855""
","""event"",""trial"",""time""
""fullscreenenter"",""0"",""7956""
","
","701.7999999523163","","","","","","","","49","1,1,1","6","blank","273","null","0.6572368327080181","0.06380720010724741","0.35995271170920595","1","","","","","","","","",""
"","html-keyboard-response","107","340601","0.0-62.0-1.0","""event"",""trial"",""time""
""blur"",""0"",""4286""
""focus"",""0"",""7855""
""fullscreenenter"",""0"",""7956""
","""event"",""trial"",""time""
""blur"",""0"",""4286""
","""event"",""trial"",""time""
""focus"",""0"",""7855""
","""event"",""trial"",""time""
""fullscreenenter"",""0"",""7956""
","
","null","<p></p>","null","","","","","","","","","","","","","","","","","","","","","","","",""
"","do_trial","108","343469","0.0-63.0-0.0","""event"",""trial"",""time""
""blur"",""0"",""4286""
""focus"",""0"",""7855""
""fullscreenenter"",""0"",""7956""
","""event"",""trial"",""time""
""blur"",""0"",""4286""
","""event"",""trial"",""time""
""focus"",""0"",""7855""
","""event"",""trial"",""time""
""fullscreenenter"",""0"",""7956""
","
","287.89999997615814","","","","","","","","49","1,0,1","6","blank","274","null","0.5889111875622471","0.11163124274437619","0.34381762895945756","1","","","","","","","","",""
"","html-keyboard-response","109","344475","0.0-63.0-1.0","""event"",""trial"",""time""
""blur"",""0"",""4286""
""focus"",""0"",""7855""
""fullscreenenter"",""0"",""7956""
","""event"",""trial"",""time""
""blur"",""0"",""4286""
","""event"",""trial"",""time""
""focus"",""0"",""7855""
","""event"",""trial"",""time""
""fullscreenenter"",""0"",""7956""
","
","null","<p></p>","null","","","","","","","","","","","","","","","","","","","","","","","",""
"","do_trial","110","347918","0.0-64.0-0.0","""event"",""trial"",""time""
""blur"",""0"",""4286""
""focus"",""0"",""7855""
""fullscreenenter"",""0"",""7956""
","""event"",""trial"",""time""
""blur"",""0"",""4286""
","""event"",""trial"",""time""
""focus"",""0"",""7855""
","""event"",""trial"",""time""
""fullscreenenter"",""0"",""7956""
","
","875.6999999880791","","","","","","","","49","1,0,0","6","blank","275","null","0.7183567598974482","0.10518513967428439","0.3288672872073871","1","","","","","","","","",""
"","html-keyboard-response","111","348926","0.0-64.0-1.0","""event"",""trial"",""time""
""blur"",""0"",""4286""
""focus"",""0"",""7855""
""fullscreenenter"",""0"",""7956""
","""event"",""trial"",""time""
""blur"",""0"",""4286""
","""event"",""trial"",""time""
""focus"",""0"",""7855""
","""event"",""trial"",""time""
""fullscreenenter"",""0"",""7956""
","
","null","<p></p>","null","","","","","","","","","","","","","","","","","","","","","","","",""
"","do_trial","112","352202","0.0-65.0-0.0","""event"",""trial"",""time""
""blur"",""0"",""4286""
""focus"",""0"",""7855""
""fullscreenenter"",""0"",""7956""
","""event"",""trial"",""time""
""blur"",""0"",""4286""
","""event"",""trial"",""time""
""focus"",""0"",""7855""
","""event"",""trial"",""time""
""fullscreenenter"",""0"",""7956""
","
","703.9000000357628","","","","","","","","49","0,0,0","6","blank","276","null","0.6213473269042862","0.1754544411349568","0.25942945792863614","0","","","","","","","","",""
"","html-keyboard-response","113","353210","0.0-65.0-1.0","""event"",""trial"",""time""
""blur"",""0"",""4286""
""focus"",""0"",""7855""
""fullscreenenter"",""0"",""7956""
","""event"",""trial"",""time""
""blur"",""0"",""4286""
","""event"",""trial"",""time""
""focus"",""0"",""7855""
","""event"",""trial"",""time""
""fullscreenenter"",""0"",""7956""
","
","null","<p></p>","null","","","","","","","","","","","","","","","","","","","","","","","",""
"","do_trial","114","355958","0.0-66.0-0.0","""event"",""trial"",""time""
""blur"",""0"",""4286""
""focus"",""0"",""7855""
""fullscreenenter"",""0"",""7956""
","""event"",""trial"",""time""
""blur"",""0"",""4286""
","""event"",""trial"",""time""
""focus"",""0"",""7855""
","""event"",""trial"",""time""
""fullscreenenter"",""0"",""7956""
","
","132.80000001192093","","","","","","","","49","0,0,1","6","blank","277","null","0.5908916204685835","0.18124418813759313","0.3137104994755904","0","","","","","","","","",""
"","html-keyboard-response","115","356964","0.0-66.0-1.0","""event"",""trial"",""time""
""blur"",""0"",""4286""
""focus"",""0"",""7855""
""fullscreenenter"",""0"",""7956""
","""event"",""trial"",""time""
""blur"",""0"",""4286""
","""event"",""trial"",""time""
""focus"",""0"",""7855""
","""event"",""trial"",""time""
""fullscreenenter"",""0"",""7956""
","
","null","<p></p>","null","","","","","","","","","","","","","","","","","","","","","","","",""
"","do_recog","116","361133","0.0-67.0-0.0","""event"",""trial"",""time""
""blur"",""0"",""4286""
""focus"",""0"",""7855""
""fullscreenenter"",""0"",""7956""
","""event"",""trial"",""time""
""blur"",""0"",""4286""
","""event"",""trial"",""time""
""focus"",""0"",""7855""
","""event"",""trial"",""time""
""fullscreenenter"",""0"",""7956""
","
","2647.600000023842","","","","","","","","56","","","","278","probe-165","","","","","1","[object Object]","115","2","0","","","",""
"","html-keyboard-response","117","362145","0.0-67.0-1.0","""event"",""trial"",""time""
""blur"",""0"",""4286""
""focus"",""0"",""7855""
""fullscreenenter"",""0"",""7956""
","""event"",""trial"",""time""
""blur"",""0"",""4286""
","""event"",""trial"",""time""
""focus"",""0"",""7855""
","""event"",""trial"",""time""
""fullscreenenter"",""0"",""7956""
","
","null","<p></p>","null","","","","","","","","","","","","","","","","","","","","","","","",""
"","do_trial","118","366177","0.0-68.0-0.0","""event"",""trial"",""time""
""blur"",""0"",""4286""
""focus"",""0"",""7855""
""fullscreenenter"",""0"",""7956""
","""event"",""trial"",""time""
""blur"",""0"",""4286""
","""event"",""trial"",""time""
""focus"",""0"",""7855""
","""event"",""trial"",""time""
""fullscreenenter"",""0"",""7956""
","
","1445.3999999761581","","","","","","","","50","1,0,1","6","blank","279","null","0.6936269669070544","0.06913078651752487","0.26561971657982825","0","","","","","","","","",""
"","html-keyboard-response","119","367185","0.0-68.0-1.0","""event"",""trial"",""time""
""blur"",""0"",""4286""
""focus"",""0"",""7855""
""fullscreenenter"",""0"",""7956""
","""event"",""trial"",""time""
""blur"",""0"",""4286""
","""event"",""trial"",""time""
""focus"",""0"",""7855""
","""event"",""trial"",""time""
""fullscreenenter"",""0"",""7956""
","
","null","<p></p>","null","","","","","","","","","","","","","","","","","","","","","","","",""
"","do_trial","120","370535","0.0-69.0-0.0","""event"",""trial"",""time""
""blur"",""0"",""4286""
""focus"",""0"",""7855""
""fullscreenenter"",""0"",""7956""
","""event"",""trial"",""time""
""blur"",""0"",""4286""
","""event"",""trial"",""time""
""focus"",""0"",""7855""
","""event"",""trial"",""time""
""fullscreenenter"",""0"",""7956""
","
","779","","","","","","","","50","1,0,0","6","blank","280","null","0.7950281191397257","0.07753493341702411","0.3901363102426821","0","","","","","","","","",""
"","html-keyboard-response","121","371548","0.0-69.0-1.0","""event"",""trial"",""time""
""blur"",""0"",""4286""
""focus"",""0"",""7855""
""fullscreenenter"",""0"",""7956""
","""event"",""trial"",""time""
""blur"",""0"",""4286""
","""event"",""trial"",""time""
""focus"",""0"",""7855""
","""event"",""trial"",""time""
""fullscreenenter"",""0"",""7956""
","
","null","<p></p>","null","","","","","","","","","","","","","","","","","","","","","","","",""
"","do_trial","122","374126","0.0-70.0-0.0","""event"",""trial"",""time""
""blur"",""0"",""4286""
""focus"",""0"",""7855""
""fullscreenenter"",""0"",""7956""
","""event"",""trial"",""time""
""blur"",""0"",""4286""
","""event"",""trial"",""time""
""focus"",""0"",""7855""
","""event"",""trial"",""time""
""fullscreenenter"",""0"",""7956""
","
","0","","","","","","","","49","1,0,0","6","blank","281","null","0.7616901668906714","0.224303373948336","0.30088828783251453","1","","","","","","","","",""
"","html-keyboard-response","123","375131","0.0-70.0-1.0","""event"",""trial"",""time""
""blur"",""0"",""4286""
""focus"",""0"",""7855""
""fullscreenenter"",""0"",""7956""
","""event"",""trial"",""time""
""blur"",""0"",""4286""
","""event"",""trial"",""time""
""focus"",""0"",""7855""
","""event"",""trial"",""time""
""fullscreenenter"",""0"",""7956""
","
","null","<p></p>","null","","","","","","","","","","","","","","","","","","","","","","","",""
"","do_trial","124","377799","0.0-71.0-0.0","""event"",""trial"",""time""
""blur"",""0"",""4286""
""focus"",""0"",""7855""
""fullscreenenter"",""0"",""7956""
","""event"",""trial"",""time""
""blur"",""0"",""4286""
","""event"",""trial"",""time""
""focus"",""0"",""7855""
","""event"",""trial"",""time""
""fullscreenenter"",""0"",""7956""
","
","107.89999997615814","","","","","","","","49","1,1,0","6","blank","282","null","0.5697468021805526","0.15226078916700483","0.2301156177783367","1","","","","","","","","",""
"","html-keyboard-response","125","378809","0.0-71.0-1.0","""event"",""trial"",""time""
""blur"",""0"",""4286""
""focus"",""0"",""7855""
""fullscreenenter"",""0"",""7956""
","""event"",""trial"",""time""
""blur"",""0"",""4286""
","""event"",""trial"",""time""
""focus"",""0"",""7855""
","""event"",""trial"",""time""
""fullscreenenter"",""0"",""7956""
","
","null","<p></p>","null","","","","","","","","","","","","","","","","","","","","","","","",""
"","do_trial","126","381819","0.0-72.0-0.0","""event"",""trial"",""time""
""blur"",""0"",""4286""
""focus"",""0"",""7855""
""fullscreenenter"",""0"",""7956""
","""event"",""trial"",""time""
""blur"",""0"",""4286""
","""event"",""trial"",""time""
""focus"",""0"",""7855""
","""event"",""trial"",""time""
""fullscreenenter"",""0"",""7956""
","
","431.19999998807907","","","","","","","","50","0,0,0","6","blank","283","null","0.5834603785716932","0.3120261735891374","0.20788836381045378","0","","","","","","","","",""
"","html-keyboard-response","127","382827","0.0-72.0-1.0","""event"",""trial"",""time""
""blur"",""0"",""4286""
""focus"",""0"",""7855""
""fullscreenenter"",""0"",""7956""
","""event"",""trial"",""time""
""blur"",""0"",""4286""
","""event"",""trial"",""time""
""focus"",""0"",""7855""
","""event"",""trial"",""time""
""fullscreenenter"",""0"",""7956""
","
","null","<p></p>","null","","","","","","","","","","","","","","","","","","","","","","","",""
"","do_trial","128","385631","0.0-73.0-0.0","""event"",""trial"",""time""
""blur"",""0"",""4286""
""focus"",""0"",""7855""
""fullscreenenter"",""0"",""7956""
","""event"",""trial"",""time""
""blur"",""0"",""4286""
","""event"",""trial"",""time""
""focus"",""0"",""7855""
","""event"",""trial"",""time""
""fullscreenenter"",""0"",""7956""
","
","232.10000002384186","","","","","","","","51","1,0,0","6","blank","284","null","0.8248430030988692","0.1231339872917098","0.3041969825013573","0","","","","","","","","",""
"","html-keyboard-response","129","386638","0.0-73.0-1.0","""event"",""trial"",""time""
""blur"",""0"",""4286""
""focus"",""0"",""7855""
""fullscreenenter"",""0"",""7956""
","""event"",""trial"",""time""
""blur"",""0"",""4286""
","""event"",""trial"",""time""
""focus"",""0"",""7855""
","""event"",""trial"",""time""
""fullscreenenter"",""0"",""7956""
","
","null","<p></p>","null","","","","","","","","","","","","","","","","","","","","","","","",""
"","do_recog","130","390586","0.0-74.0-0.0","""event"",""trial"",""time""
""blur"",""0"",""4286""
""focus"",""0"",""7855""
""fullscreenenter"",""0"",""7956""
","""event"",""trial"",""time""
""blur"",""0"",""4286""
","""event"",""trial"",""time""
""focus"",""0"",""7855""
","""event"",""trial"",""time""
""fullscreenenter"",""0"",""7956""
","
","2427.899999976158","","","","","","","","55","","","","285","probe-15","","","","","1","[object Object]","112","2","0","","","",""
"","html-keyboard-response","131","391595","0.0-74.0-1.0","""event"",""trial"",""time""
""blur"",""0"",""4286""
""focus"",""0"",""7855""
""fullscreenenter"",""0"",""7956""
","""event"",""trial"",""time""
""blur"",""0"",""4286""
","""event"",""trial"",""time""
""focus"",""0"",""7855""
","""event"",""trial"",""time""
""fullscreenenter"",""0"",""7956""
","
","null","<p></p>","null","","","","","","","","","","","","","","","","","","","","","","","",""
"","do_trial","132","395294","0.0-75.0-0.0","""event"",""trial"",""time""
""blur"",""0"",""4286""
""focus"",""0"",""7855""
""fullscreenenter"",""0"",""7956""
","""event"",""trial"",""time""
""blur"",""0"",""4286""
","""event"",""trial"",""time""
""focus"",""0"",""7855""
","""event"",""trial"",""time""
""fullscreenenter"",""0"",""7956""
","
","1113.3999999761581","","","","","","","","49","0,0,0","6","blank","286","null","0.6629435428770287","0.2021594202101624","0.2972680184691833","0","","","","","","","","",""
"","html-keyboard-response","133","396304","0.0-75.0-1.0","""event"",""trial"",""time""
""blur"",""0"",""4286""
""focus"",""0"",""7855""
""fullscreenenter"",""0"",""7956""
","""event"",""trial"",""time""
""blur"",""0"",""4286""
","""event"",""trial"",""time""
""focus"",""0"",""7855""
","""event"",""trial"",""time""
""fullscreenenter"",""0"",""7956""
","
","null","<p></p>","null","","","","","","","","","","","","","","","","","","","","","","","",""
"","do_recog","134","400220","0.0-76.0-0.0","""event"",""trial"",""time""
""blur"",""0"",""4286""
""focus"",""0"",""7855""
""fullscreenenter"",""0"",""7956""
","""event"",""trial"",""time""
""blur"",""0"",""4286""
","""event"",""trial"",""time""
""focus"",""0"",""7855""
","""event"",""trial"",""time""
""fullscreenenter"",""0"",""7956""
","
","2399.399999976158","","","","","","","","56","","","","287","probe-254","","","","","0","[object Object]","null","null","1","","","",""
"","html-keyboard-response","135","401229","0.0-76.0-1.0","""event"",""trial"",""time""
""blur"",""0"",""4286""
""focus"",""0"",""7855""
""fullscreenenter"",""0"",""7956""
","""event"",""trial"",""time""
""blur"",""0"",""4286""
","""event"",""trial"",""time""
""focus"",""0"",""7855""
","""event"",""trial"",""time""
""fullscreenenter"",""0"",""7956""
","
","null","<p></p>","null","","","","","","","","","","","","","","","","","","","","","","","",""
"","do_trial","136","404921","0.0-77.0-0.0","""event"",""trial"",""time""
""blur"",""0"",""4286""
""focus"",""0"",""7855""
""fullscreenenter"",""0"",""7956""
","""event"",""trial"",""time""
""blur"",""0"",""4286""
","""event"",""trial"",""time""
""focus"",""0"",""7855""
","""event"",""trial"",""time""
""fullscreenenter"",""0"",""7956""
","
","1117.800000011921","","","","","","","","51","1,1,0","6","blank","288","null","0.6007641491827554","0.1561502321775443","0.26628740200389883","0","","","","","","","","",""
"","html-keyboard-response","137","405929","0.0-77.0-1.0","""event"",""trial"",""time""
""blur"",""0"",""4286""
""focus"",""0"",""7855""
""fullscreenenter"",""0"",""7956""
","""event"",""trial"",""time""
""blur"",""0"",""4286""
","""event"",""trial"",""time""
""focus"",""0"",""7855""
","""event"",""trial"",""time""
""fullscreenenter"",""0"",""7956""
","
","null","<p></p>","null","","","","","","","","","","","","","","","","","","","","","","","",""
"","do_trial","138","408615","0.0-78.0-0.0","""event"",""trial"",""time""
""blur"",""0"",""4286""
""focus"",""0"",""7855""
""fullscreenenter"",""0"",""7956""
","""event"",""trial"",""time""
""blur"",""0"",""4286""
","""event"",""trial"",""time""
""focus"",""0"",""7855""
","""event"",""trial"",""time""
""fullscreenenter"",""0"",""7956""
","
","89.5","","","","","","","","50","1,0,0","6","blank","289","null","0.44251305977184024","0.14712129044307176","0.2874584154094596","0","","","","","","","","",""
"","html-keyboard-response","139","409623","0.0-78.0-1.0","""event"",""trial"",""time""
""blur"",""0"",""4286""
""focus"",""0"",""7855""
""fullscreenenter"",""0"",""7956""
","""event"",""trial"",""time""
""blur"",""0"",""4286""
","""event"",""trial"",""time""
""focus"",""0"",""7855""
","""event"",""trial"",""time""
""fullscreenenter"",""0"",""7956""
","
","null","<p></p>","null","","","","","","","","","","","","","","","","","","","","","","","",""
"","do_trial","140","412339","0.0-79.0-0.0","""event"",""trial"",""time""
""blur"",""0"",""4286""
""focus"",""0"",""7855""
""fullscreenenter"",""0"",""7956""
","""event"",""trial"",""time""
""blur"",""0"",""4286""
","""event"",""trial"",""time""
""focus"",""0"",""7855""
","""event"",""trial"",""time""
""fullscreenenter"",""0"",""7956""
","
","149","","","","","","","","49","1,0,0","6","blank","290","null","0.6051630671384571","0.1445856349559921","0.13322043959826085","1","","","","","","","","",""
"","html-keyboard-response","141","413348","0.0-79.0-1.0","""event"",""trial"",""time""
""blur"",""0"",""4286""
""focus"",""0"",""7855""
""fullscreenenter"",""0"",""7956""
","""event"",""trial"",""time""
""blur"",""0"",""4286""
","""event"",""trial"",""time""
""focus"",""0"",""7855""
","""event"",""trial"",""time""
""fullscreenenter"",""0"",""7956""
","
","null","<p></p>","null","","","","","","","","","","","","","","","","","","","","","","","",""
"","do_recog","142","417381","0.0-80.0-0.0","""event"",""trial"",""time""
""blur"",""0"",""4286""
""focus"",""0"",""7855""
""fullscreenenter"",""0"",""7956""
","""event"",""trial"",""time""
""blur"",""0"",""4286""
","""event"",""trial"",""time""
""focus"",""0"",""7855""
","""event"",""trial"",""time""
""fullscreenenter"",""0"",""7956""
","
","2517.199999988079","","","","","","","","55","","","","291","probe-33","","","","","1","[object Object]","196","4","0","","","",""
"","html-keyboard-response","143","418389","0.0-80.0-1.0","""event"",""trial"",""time""
""blur"",""0"",""4286""
""focus"",""0"",""7855""
""fullscreenenter"",""0"",""7956""
","""event"",""trial"",""time""
""blur"",""0"",""4286""
","""event"",""trial"",""time""
""focus"",""0"",""7855""
","""event"",""trial"",""time""
""fullscreenenter"",""0"",""7956""
","
","null","<p></p>","null","","","","","","","","","","","","","","","","","","","","","","","",""
"","do_trial","144","421746","0.0-81.0-0.0","""event"",""trial"",""time""
""blur"",""0"",""4286""
""focus"",""0"",""7855""
""fullscreenenter"",""0"",""7956""
","""event"",""trial"",""time""
""blur"",""0"",""4286""
","""event"",""trial"",""time""
""focus"",""0"",""7855""
","""event"",""trial"",""time""
""fullscreenenter"",""0"",""7956""
","
","782.3999999761581","","","","","","","","49","0,0,1","6","blank","292","null","0.6456517974734459","0.07371752463847325","0.1478250640781207","0","","","","","","","","",""
"","html-keyboard-response","145","422754","0.0-81.0-1.0","""event"",""trial"",""time""
""blur"",""0"",""4286""
""focus"",""0"",""7855""
""fullscreenenter"",""0"",""7956""
","""event"",""trial"",""time""
""blur"",""0"",""4286""
","""event"",""trial"",""time""
""focus"",""0"",""7855""
","""event"",""trial"",""time""
""fullscreenenter"",""0"",""7956""
","
","null","<p></p>","null","","","","","","","","","","","","","","","","","","","","","","","",""
"","do_trial","146","425728","0.0-82.0-0.0","""event"",""trial"",""time""
""blur"",""0"",""4286""
""focus"",""0"",""7855""
""fullscreenenter"",""0"",""7956""
","""event"",""trial"",""time""
""blur"",""0"",""4286""
","""event"",""trial"",""time""
""focus"",""0"",""7855""
","""event"",""trial"",""time""
""fullscreenenter"",""0"",""7956""
","
","399.19999998807907","","","","","","","","50","1,0,0","6","blank","293","null","0.6690640207465965","0.05442838935164055","0.13980511946142693","0","","","","","","","","",""
"","html-keyboard-response","147","426735","0.0-82.0-1.0","""event"",""trial"",""time""
""blur"",""0"",""4286""
""focus"",""0"",""7855""
""fullscreenenter"",""0"",""7956""
","""event"",""trial"",""time""
""blur"",""0"",""4286""
","""event"",""trial"",""time""
""focus"",""0"",""7855""
","""event"",""trial"",""time""
""fullscreenenter"",""0"",""7956""
","
","null","<p></p>","null","","","","","","","","","","","","","","","","","","","","","","","",""
"","do_trial","148","429762","0.0-83.0-0.0","""event"",""trial"",""time""
""blur"",""0"",""4286""
""focus"",""0"",""7855""
""fullscreenenter"",""0"",""7956""
","""event"",""trial"",""time""
""blur"",""0"",""4286""
","""event"",""trial"",""time""
""focus"",""0"",""7855""
","""event"",""trial"",""time""
""fullscreenenter"",""0"",""7956""
","
","446","","","","","","","","50","1,0,0","6","blank","294","null","0.694894051723201","0.15471465028859624","0.08448727325210197","0","","","","","","","","",""
"","html-keyboard-response","149","430771","0.0-83.0-1.0","""event"",""trial"",""time""
""blur"",""0"",""4286""
""focus"",""0"",""7855""
""fullscreenenter"",""0"",""7956""
","""event"",""trial"",""time""
""blur"",""0"",""4286""
","""event"",""trial"",""time""
""focus"",""0"",""7855""
","""event"",""trial"",""time""
""fullscreenenter"",""0"",""7956""
","
","null","<p></p>","null","","","","","","","","","","","","","","","","","","","","","","","",""
"","do_recog","150","434737","0.0-84.0-0.0","""event"",""trial"",""time""
""blur"",""0"",""4286""
""focus"",""0"",""7855""
""fullscreenenter"",""0"",""7956""
","""event"",""trial"",""time""
""blur"",""0"",""4286""
","""event"",""trial"",""time""
""focus"",""0"",""7855""
","""event"",""trial"",""time""
""fullscreenenter"",""0"",""7956""
","
","2440.199999988079","","","","","","","","55","","","","295","probe-252","","","","","0","[object Object]","null","null","1","","","",""
"","html-keyboard-response","151","435750","0.0-84.0-1.0","""event"",""trial"",""time""
""blur"",""0"",""4286""
""focus"",""0"",""7855""
""fullscreenenter"",""0"",""7956""
","""event"",""trial"",""time""
""blur"",""0"",""4286""
","""event"",""trial"",""time""
""focus"",""0"",""7855""
","""event"",""trial"",""time""
""fullscreenenter"",""0"",""7956""
","
","null","<p></p>","null","","","","","","","","","","","","","","","","","","","","","","","",""
"","do_trial","152","438876","0.0-85.0-0.0","""event"",""trial"",""time""
""blur"",""0"",""4286""
""focus"",""0"",""7855""
""fullscreenenter"",""0"",""7956""
","""event"",""trial"",""time""
""blur"",""0"",""4286""
","""event"",""trial"",""time""
""focus"",""0"",""7855""
","""event"",""trial"",""time""
""fullscreenenter"",""0"",""7956""
","
","544.8000000119209","","","","","","","","50","0,1,1","6","blank","296","null","0.39768468411659114","0.38100597891931404","0.06835249529028309","1","","","","","","","","",""
"","html-keyboard-response","153","439889","0.0-85.0-1.0","""event"",""trial"",""time""
""blur"",""0"",""4286""
""focus"",""0"",""7855""
""fullscreenenter"",""0"",""7956""
","""event"",""trial"",""time""
""blur"",""0"",""4286""
","""event"",""trial"",""time""
""focus"",""0"",""7855""
","""event"",""trial"",""time""
""fullscreenenter"",""0"",""7956""
","
","null","<p></p>","null","","","","","","","","","","","","","","","","","","","","","","","",""
"","do_trial","154","442834","0.0-86.0-0.0","""event"",""trial"",""time""
""blur"",""0"",""4286""
""focus"",""0"",""7855""
""fullscreenenter"",""0"",""7956""
","""event"",""trial"",""time""
""blur"",""0"",""4286""
","""event"",""trial"",""time""
""focus"",""0"",""7855""
","""event"",""trial"",""time""
""fullscreenenter"",""0"",""7956""
","
","364.5999999642372","","","","","","","","50","0,0,1","6","blank","297","null","0.21610784157802576","0.5172422267608965","0.23263641530328055","0","","","","","","","","",""
"","html-keyboard-response","155","443839","0.0-86.0-1.0","""event"",""trial"",""time""
""blur"",""0"",""4286""
""focus"",""0"",""7855""
""fullscreenenter"",""0"",""7956""
","""event"",""trial"",""time""
""blur"",""0"",""4286""
","""event"",""trial"",""time""
""focus"",""0"",""7855""
","""event"",""trial"",""time""
""fullscreenenter"",""0"",""7956""
","
","null","<p></p>","null","","","","","","","","","","","","","","","","","","","","","","","",""
"","do_trial","156","446465","0.0-87.0-0.0","""event"",""trial"",""time""
""blur"",""0"",""4286""
""focus"",""0"",""7855""
""fullscreenenter"",""0"",""7956""
","""event"",""trial"",""time""
""blur"",""0"",""4286""
","""event"",""trial"",""time""
""focus"",""0"",""7855""
","""event"",""trial"",""time""
""fullscreenenter"",""0"",""7956""
","
","64.70000004768372","","","","","","","","50","0,1,1","6","blank","298","null","0.14367666181919994","0.6701141281939517","0.3445344073921528","1","","","","","","","","",""
"","html-keyboard-response","157","447473","0.0-87.0-1.0","""event"",""trial"",""time""
""blur"",""0"",""4286""
""focus"",""0"",""7855""
""fullscreenenter"",""0"",""7956""
","""event"",""trial"",""time""
""blur"",""0"",""4286""
","""event"",""trial"",""time""
""focus"",""0"",""7855""
","""event"",""trial"",""time""
""fullscreenenter"",""0"",""7956""
","
","null","<p></p>","null","","","","","","","","","","","","","","","","","","","","","","","",""
"","do_trial","158","450133","0.0-88.0-0.0","""event"",""trial"",""time""
""blur"",""0"",""4286""
""focus"",""0"",""7855""
""fullscreenenter"",""0"",""7956""
","""event"",""trial"",""time""
""blur"",""0"",""4286""
","""event"",""trial"",""time""
""focus"",""0"",""7855""
","""event"",""trial"",""time""
""fullscreenenter"",""0"",""7956""
","
","76","","","","","","","","50","0,1,0","6","blank","299","null","0.24952939359522922","0.6459472580045594","0.2673733822055005","1","","","","","","","","",""
"","html-keyboard-response","159","451141","0.0-88.0-1.0","""event"",""trial"",""time""
""blur"",""0"",""4286""
""focus"",""0"",""7855""
""fullscreenenter"",""0"",""7956""
","""event"",""trial"",""time""
""blur"",""0"",""4286""
","""event"",""trial"",""time""
""focus"",""0"",""7855""
","""event"",""trial"",""time""
""fullscreenenter"",""0"",""7956""
","
","null","<p></p>","null","","","","","","","","","","","","","","","","","","","","","","","",""
"","do_recog","160","457167","0.0-89.0-0.0","""event"",""trial"",""time""
""blur"",""0"",""4286""
""focus"",""0"",""7855""
""fullscreenenter"",""0"",""7956""
","""event"",""trial"",""time""
""blur"",""0"",""4286""
","""event"",""trial"",""time""
""focus"",""0"",""7855""
","""event"",""trial"",""time""
""fullscreenenter"",""0"",""7956""
","
","null","","","","","","","","null","","","","300","probe-126","","","","","1","[object Object]","152","3","0","","","",""
"","html-keyboard-response","161","458177","0.0-89.0-1.0","""event"",""trial"",""time""
""blur"",""0"",""4286""
""focus"",""0"",""7855""
""fullscreenenter"",""0"",""7956""
","""event"",""trial"",""time""
""blur"",""0"",""4286""
","""event"",""trial"",""time""
""focus"",""0"",""7855""
","""event"",""trial"",""time""
""fullscreenenter"",""0"",""7956""
","
","null","<p></p>","null","","","","","","","","","","","","","","","","","","","","","","","",""
"","do_trial","162","460863","0.0-90.0-0.0","""event"",""trial"",""time""
""blur"",""0"",""4286""
""focus"",""0"",""7855""
""fullscreenenter"",""0"",""7956""
","""event"",""trial"",""time""
""blur"",""0"",""4286""
","""event"",""trial"",""time""
""focus"",""0"",""7855""
","""event"",""trial"",""time""
""fullscreenenter"",""0"",""7956""
","
","96.39999997615814","","","","","","","","49","0,0,0","6","blank","301","null","0.052449856150937","0.5582672954849592","0.2712856657272772","0","","","","","","","","",""
"","html-keyboard-response","163","461867","0.0-90.0-1.0","""event"",""trial"",""time""
""blur"",""0"",""4286""
""focus"",""0"",""7855""
""fullscreenenter"",""0"",""7956""
","""event"",""trial"",""time""
""blur"",""0"",""4286""
","""event"",""trial"",""time""
""focus"",""0"",""7855""
","""event"",""trial"",""time""
""fullscreenenter"",""0"",""7956""
","
","null","<p></p>","null","","","","","","","","","","","","","","","","","","","","","","","",""
"","do_trial","164","465424","0.0-91.0-0.0","""event"",""trial"",""time""
""blur"",""0"",""4286""
""focus"",""0"",""7855""
""fullscreenenter"",""0"",""7956""
","""event"",""trial"",""time""
""blur"",""0"",""4286""
","""event"",""trial"",""time""
""focus"",""0"",""7855""
","""event"",""trial"",""time""
""fullscreenenter"",""0"",""7956""
","
","965.1000000238419","","","","","","","","49","0,0,1","6","blank","302","null","0.1255406790786932","0.7001536876550363","0.3500472986741316","0","","","","","","","","",""
"","html-keyboard-response","165","466434","0.0-91.0-1.0","""event"",""trial"",""time""
""blur"",""0"",""4286""
""focus"",""0"",""7855""
""fullscreenenter"",""0"",""7956""
","""event"",""trial"",""time""
""blur"",""0"",""4286""
","""event"",""trial"",""time""
""focus"",""0"",""7855""
","""event"",""trial"",""time""
""fullscreenenter"",""0"",""7956""
","
","null","<p></p>","null","","","","","","","","","","","","","","","","","","","","","","","",""
"","do_trial","166","469383","0.0-92.0-0.0","""event"",""trial"",""time""
""blur"",""0"",""4286""
""focus"",""0"",""7855""
""fullscreenenter"",""0"",""7956""
","""event"",""trial"",""time""
""blur"",""0"",""4286""
","""event"",""trial"",""time""
""focus"",""0"",""7855""
","""event"",""trial"",""time""
""fullscreenenter"",""0"",""7956""
","
","369.7000000476837","","","","","","","","49","0,0,0","6","blank","303","null","0.19915837651678062","0.6770114165065916","0.26473350405178275","0","","","","","","","","",""
"","html-keyboard-response","167","470392","0.0-92.0-1.0","""event"",""trial"",""time""
""blur"",""0"",""4286""
""focus"",""0"",""7855""
""fullscreenenter"",""0"",""7956""
","""event"",""trial"",""time""
""blur"",""0"",""4286""
","""event"",""trial"",""time""
""focus"",""0"",""7855""
","""event"",""trial"",""time""
""fullscreenenter"",""0"",""7956""
","
","null","<p></p>","null","","","","","","","","","","","","","","","","","","","","","","","",""
"","do_trial","168","473034","0.0-93.0-0.0","""event"",""trial"",""time""
""blur"",""0"",""4286""
""focus"",""0"",""7855""
""fullscreenenter"",""0"",""7956""
","""event"",""trial"",""time""
""blur"",""0"",""4286""
","""event"",""trial"",""time""
""focus"",""0"",""7855""
","""event"",""trial"",""time""
""fullscreenenter"",""0"",""7956""
","
","59.89999997615814","","","","","","","","50","1,1,0","6","blank","304","null","0.2385227192098706","0.7854182885523134","0.3064695143344221","1","","","","","","","","",""
"","html-keyboard-response","169","474043","0.0-93.0-1.0","""event"",""trial"",""time""
""blur"",""0"",""4286""
""focus"",""0"",""7855""
""fullscreenenter"",""0"",""7956""
","""event"",""trial"",""time""
""blur"",""0"",""4286""
","""event"",""trial"",""time""
""focus"",""0"",""7855""
","""event"",""trial"",""time""
""fullscreenenter"",""0"",""7956""
","
","null","<p></p>","null","","","","","","","","","","","","","","","","","","","","","","","",""
"","do_trial","170","477185","0.0-94.0-0.0","""event"",""trial"",""time""
""blur"",""0"",""4286""
""focus"",""0"",""7855""
""fullscreenenter"",""0"",""7956""
","""event"",""trial"",""time""
""blur"",""0"",""4286""
","""event"",""trial"",""time""
""focus"",""0"",""7855""
","""event"",""trial"",""time""
""fullscreenenter"",""0"",""7956""
","
","547.5999999642372","","","","","","","","50","0,1,0","6","blank","305","null","0.2880844038102567","0.8580998722364995","0.2345150722921598","1","","","","","","","","",""
"","html-keyboard-response","171","478195","0.0-94.0-1.0","""event"",""trial"",""time""
""blur"",""0"",""4286""
""focus"",""0"",""7855""
""fullscreenenter"",""0"",""7956""
","""event"",""trial"",""time""
""blur"",""0"",""4286""
","""event"",""trial"",""time""
""focus"",""0"",""7855""
","""event"",""trial"",""time""
""fullscreenenter"",""0"",""7956""
","
","null","<p></p>","null","","","","","","","","","","","","","","","","","","","","","","","",""
"","do_recog","172","482016","0.0-95.0-0.0","""event"",""trial"",""time""
""blur"",""0"",""4286""
""focus"",""0"",""7855""
""fullscreenenter"",""0"",""7956""
","""event"",""trial"",""time""
""blur"",""0"",""4286""
","""event"",""trial"",""time""
""focus"",""0"",""7855""
","""event"",""trial"",""time""
""fullscreenenter"",""0"",""7956""
","
","2296.5","","","","","","","","55","","","","306","probe-122","","","","","1","[object Object]","198","4","0","","","",""
"","html-keyboard-response","173","483026","0.0-95.0-1.0","""event"",""trial"",""time""
""blur"",""0"",""4286""
""focus"",""0"",""7855""
""fullscreenenter"",""0"",""7956""
","""event"",""trial"",""time""
""blur"",""0"",""4286""
","""event"",""trial"",""time""
""focus"",""0"",""7855""
","""event"",""trial"",""time""
""fullscreenenter"",""0"",""7956""
","
","null","<p></p>","null","","","","","","","","","","","","","","","","","","","","","","","",""
"","do_trial","174","486765","0.0-96.0-0.0","""event"",""trial"",""time""
""blur"",""0"",""4286""
""focus"",""0"",""7855""
""fullscreenenter"",""0"",""7956""
","""event"",""trial"",""time""
""blur"",""0"",""4286""
","""event"",""trial"",""time""
""focus"",""0"",""7855""
","""event"",""trial"",""time""
""fullscreenenter"",""0"",""7956""
","
","1138.9000000357628","","","","","","","","50","0,1,0","6","blank","307","null","0.07061020771753558","0.7991171567409263","0.263987753733197","1","","","","","","","","",""
"","html-keyboard-response","175","487771","0.0-96.0-1.0","""event"",""trial"",""time""
""blur"",""0"",""4286""
""focus"",""0"",""7855""
""fullscreenenter"",""0"",""7956""
","""event"",""trial"",""time""
""blur"",""0"",""4286""
","""event"",""trial"",""time""
""focus"",""0"",""7855""
","""event"",""trial"",""time""
""fullscreenenter"",""0"",""7956""
","
","null","<p></p>","null","","","","","","","","","","","","","","","","","","","","","","","",""
"","do_trial","176","490481","0.0-97.0-0.0","""event"",""trial"",""time""
""blur"",""0"",""4286""
""focus"",""0"",""7855""
""fullscreenenter"",""0"",""7956""
","""event"",""trial"",""time""
""blur"",""0"",""4286""
","""event"",""trial"",""time""
""focus"",""0"",""7855""
","""event"",""trial"",""time""
""fullscreenenter"",""0"",""7956""
","
","126.60000002384186","","","","","","","","50","0,1,1","6","blank","308","null","0.05770125035884595","0.7575482284030917","0.1563140870241898","1","","","","","","","","",""
"","html-keyboard-response","177","491487","0.0-97.0-1.0","""event"",""trial"",""time""
""blur"",""0"",""4286""
""focus"",""0"",""7855""
""fullscreenenter"",""0"",""7956""
","""event"",""trial"",""time""
""blur"",""0"",""4286""
","""event"",""trial"",""time""
""focus"",""0"",""7855""
","""event"",""trial"",""time""
""fullscreenenter"",""0"",""7956""
","
","null","<p></p>","null","","","","","","","","","","","","","","","","","","","","","","","",""
"","break","178","492241","0.0-98.0-0.0","""event"",""trial"",""time""
""blur"",""0"",""4286""
""focus"",""0"",""7855""
""fullscreenenter"",""0"",""7956""
","""event"",""trial"",""time""
""blur"",""0"",""4286""
","""event"",""trial"",""time""
""focus"",""0"",""7855""
","""event"",""trial"",""time""
""fullscreenenter"",""0"",""7956""
","
","752.1999999880791","<div class='center'><p>Time to take a quick break! You have 2 minutes to rest, but you can move on sooner if you'd like.</p><p> Press the <b>space bar</b> to continue.</p></div>","32","","","","","","","","","","","","","","","","","","","","","","","",""
"","do_trial","179","495619","0.0-98.0-1.0","""event"",""trial"",""time""
""blur"",""0"",""4286""
""focus"",""0"",""7855""
""fullscreenenter"",""0"",""7956""
","""event"",""trial"",""time""
""blur"",""0"",""4286""
","""event"",""trial"",""time""
""focus"",""0"",""7855""
","""event"",""trial"",""time""
""fullscreenenter"",""0"",""7956""
","
","774.3000000119209","","","","","","","","50","0,1,0","6","blank","309","null","0.06360741435534666","0.5721396380489187","0.20650331319097034","1","","","","","","","","",""
"","html-keyboard-response","180","496625","0.0-98.0-2.0","""event"",""trial"",""time""
""blur"",""0"",""4286""
""focus"",""0"",""7855""
""fullscreenenter"",""0"",""7956""
","""event"",""trial"",""time""
""blur"",""0"",""4286""
","""event"",""trial"",""time""
""focus"",""0"",""7855""
","""event"",""trial"",""time""
""fullscreenenter"",""0"",""7956""
","
","null","<p></p>","null","","","","","","","","","","","","","","","","","","","","","","","",""
"","do_trial","181","499245","0.0-99.0-0.0","""event"",""trial"",""time""
""blur"",""0"",""4286""
""focus"",""0"",""7855""
""fullscreenenter"",""0"",""7956""
","""event"",""trial"",""time""
""blur"",""0"",""4286""
","""event"",""trial"",""time""
""focus"",""0"",""7855""
","""event"",""trial"",""time""
""fullscreenenter"",""0"",""7956""
","
","14.100000023841858","","","","","","","","50","0,1,1","6","blank","310","null","0.21964184368384007","0.6069070677233644","0.2931093045516007","1","","","","","","","","",""
"","html-keyboard-response","182","500254","0.0-99.0-1.0","""event"",""trial"",""time""
""blur"",""0"",""4286""
""focus"",""0"",""7855""
""fullscreenenter"",""0"",""7956""
","""event"",""trial"",""time""
""blur"",""0"",""4286""
","""event"",""trial"",""time""
""focus"",""0"",""7855""
","""event"",""trial"",""time""
""fullscreenenter"",""0"",""7956""
","
","null","<p></p>","null","","","","","","","","","","","","","","","","","","","","","","","",""
"","do_trial","183","503441","0.0-100.0-0.0","""event"",""trial"",""time""
""blur"",""0"",""4286""
""focus"",""0"",""7855""
""fullscreenenter"",""0"",""7956""
","""event"",""trial"",""time""
""blur"",""0"",""4286""
","""event"",""trial"",""time""
""focus"",""0"",""7855""
","""event"",""trial"",""time""
""fullscreenenter"",""0"",""7956""
","
","603.8000000119209","","","","","","","","50","0,0,0","6","blank","311","null","0.08474328358676524","0.5327974585503489","0.24975636597454717","0","","","","","","","","",""
"","html-keyboard-response","184","504451","0.0-100.0-1.0","""event"",""trial"",""time""
""blur"",""0"",""4286""
""focus"",""0"",""7855""
""fullscreenenter"",""0"",""7956""
","""event"",""trial"",""time""
""blur"",""0"",""4286""
","""event"",""trial"",""time""
""focus"",""0"",""7855""
","""event"",""trial"",""time""
""fullscreenenter"",""0"",""7956""
","
","null","<p></p>","null","","","","","","","","","","","","","","","","","","","","","","","",""
"","do_trial","185","507087","0.0-101.0-0.0","""event"",""trial"",""time""
""blur"",""0"",""4286""
""focus"",""0"",""7855""
""fullscreenenter"",""0"",""7956""
","""event"",""trial"",""time""
""blur"",""0"",""4286""
","""event"",""trial"",""time""
""focus"",""0"",""7855""
","""event"",""trial"",""time""
""fullscreenenter"",""0"",""7956""
","
","67.30000001192093","","","","","","","","49","0,0,0","6","blank","312","null","0.19281673675617356","0.4948562004550505","0.3239348696950865","0","","","","","","","","",""
"","html-keyboard-response","186","508093","0.0-101.0-1.0","""event"",""trial"",""time""
""blur"",""0"",""4286""
""focus"",""0"",""7855""
""fullscreenenter"",""0"",""7956""
","""event"",""trial"",""time""
""blur"",""0"",""4286""
","""event"",""trial"",""time""
""focus"",""0"",""7855""
","""event"",""trial"",""time""
""fullscreenenter"",""0"",""7956""
","
","null","<p></p>","null","","","","","","","","","","","","","","","","","","","","","","","",""
"","do_trial","187","510777","0.0-102.0-0.0","""event"",""trial"",""time""
""blur"",""0"",""4286""
""focus"",""0"",""7855""
""fullscreenenter"",""0"",""7956""
","""event"",""trial"",""time""
""blur"",""0"",""4286""
","""event"",""trial"",""time""
""focus"",""0"",""7855""
","""event"",""trial"",""time""
""fullscreenenter"",""0"",""7956""
","
","96.20000004768372","","","","","","","","51","0,0,0","6","blank","313","null","0.08721133568841266","0.5206962368079501","0.28072840362248974","0","","","","","","","","",""
"","html-keyboard-response","188","511783","0.0-102.0-1.0","""event"",""trial"",""time""
""blur"",""0"",""4286""
""focus"",""0"",""7855""
""fullscreenenter"",""0"",""7956""
","""event"",""trial"",""time""
""blur"",""0"",""4286""
","""event"",""trial"",""time""
""focus"",""0"",""7855""
","""event"",""trial"",""time""
""fullscreenenter"",""0"",""7956""
","
