"success","trial_type","trial_index","time_elapsed","internal_node_id","interactions","blur_events","focus_events","fullscreenenter_events","fullscreenexit_events","rt","stimulus","key_press","subject_id","participant_id","age","gender","prompt","response","choice_outcomes","context_n","context_img_id","trial_n","probe_img_id","pR_red","pR_white","pR_black","outcome","is_valid","image_to_show","probed_trial","probed_context","correct","probe","probed_trial_n","probed_context_n","context_im"
"true","fullscreen","0","22683","0.0-0.0","""event"",""trial"",""time""
""fullscreenenter"",""0"",""21711""
","
","
","""event"",""trial"",""time""
""fullscreenenter"",""0"",""21711""
","
","","","","","","","","","","","","","","","","","","","","","","","","","","",""
"","pavlovia","1","22693","0.0-1.0","""event"",""trial"",""time""
""fullscreenenter"",""0"",""21711""
","
","
","""event"",""trial"",""time""
""fullscreenenter"",""0"",""21711""
","
","","","","","","","","","","","","","","","","","","","","","","","","","","",""
"","welc_back","2","32547","0.0-2.0","""event"",""trial"",""time""
""fullscreenenter"",""0"",""21711""
","
","
","""event"",""trial"",""time""
""fullscreenenter"",""0"",""21711""
","
","null","run_exp/static/audio/clip_29_welcome_back.m4a","null","417","534","23","Female","<div class='center'><p>Welcome to day 2!</p><p> Yesterday, you were the head captain of a pirate ship. You asked your fellow pirates to rob other ships of their gold across six different islands.</p></div>","","","","","","","","","","","","","","","","","","",""
"","html-keyboard-response","3","34207","0.0-3.0","""event"",""trial"",""time""
""fullscreenenter"",""0"",""21711""
","
","
","""event"",""trial"",""time""
""fullscreenenter"",""0"",""21711""
","
","1657.5999999642372","<div class='center'><p>Welcome to day 2!</p><p> Yesterday, you were the head captain of a pirate ship. You asked your fellow pirates to rob other ships of their gold across six different islands.</p><p><b>[Press the space bar to continue]</b></p></div>","32","","","","","","","","","","","","","","","","","","","","","","","",""
"","day_1_summary_goal","4","51405","0.0-4.0","""event"",""trial"",""time""
""fullscreenenter"",""0"",""21711""
","
","
","""event"",""trial"",""time""
""fullscreenenter"",""0"",""21711""
","
","null","run_exp/static/audio/clip_30_goal_of_game.m4a","null","","","","","<div class='center'><p>Today, like yesterday, you get to pick which pirate you want to rob the next ship.</p><p>If the pirate is successful in robbing a ship, you get gold coins that look like this: </p><p><img src='run_exp/static/images/tutorial/reward.png' height='150'></p><p> If they were not successful in robbing the ship, then you will get no gold coins and you'll see a big red x like this: </p><p><img src='run_exp/static/images/tutorial/reward_no.png' height='150'></p></div>","","","","","","","","","","","","","","","","","","",""
"","html-keyboard-response","5","51612","0.0-5.0","""event"",""trial"",""time""
""fullscreenenter"",""0"",""21711""
","
","
","""event"",""trial"",""time""
""fullscreenenter"",""0"",""21711""
","
","204","<div class='center'><p>Today, like yesterday, you get to pick which pirate you want to rob the next ship.</p><p>If the pirate is successful in robbing a ship, you get gold coins that look like this: </p><p><img src='run_exp/static/images/tutorial/reward.png' height='150'></p><p> If they were not successful in robbing the ship, then you will get no gold coins and you'll see a big red x like this: </p><p><img src='run_exp/static/images/tutorial/reward_no.png' height='150'></p><p><b>[Press the space bar to continue]</b></p></div>","32","","","","","","","","","","","","","","","","","","","","","","","",""
"","day_1_summary_pick","6","66317","0.0-6.0","""event"",""trial"",""time""
""fullscreenenter"",""0"",""21711""
","
","
","""event"",""trial"",""time""
""fullscreenenter"",""0"",""21711""
","
","null","run_exp/static/audio/clip_31_how_to_pick_a_pirate.m4a","null","","","","","<div class='center'><p>Also, just like yesterday, you will use the 1,2,3 keys on your keyboard to pick a pirate. Press '1' to choose red beard, '2' to choose white beard, and '3' to choose black beard . You only have 3 seconds to pick a pirate, so please make a choice quickly!</p></div>","","","","","","","","","","","","","","","","","","",""
"","html-keyboard-response","7","66684","0.0-7.0","""event"",""trial"",""time""
""fullscreenenter"",""0"",""21711""
","
","
","""event"",""trial"",""time""
""fullscreenenter"",""0"",""21711""
","
","365.10000002384186","<div class='center'><p>Also, just like yesterday, you will use the 1,2,3 keys on your keyboard to pick a pirate. Press '1' to choose red beard, '2' to choose white beard, and '3' to choose black beard . You only have 3 seconds to pick a pirate, so please make a choice quickly!</p><p><b>[Press the space bar to continue]</b></p></div>","32","","","","","","","","","","","","","","","","","","","","","","","",""
"","test_phase_begin","8","97080","0.0-8.0","""event"",""trial"",""time""
""fullscreenenter"",""0"",""21711""
","
","
","""event"",""trial"",""time""
""fullscreenenter"",""0"",""21711""
","
","null","run_exp/static/audio/clip_32_final_place.m4a","null","","","","","<div class='center'><p>You’ve arrived at the final island of your journey! Unfortunately, it’s very foggy out, so you won’t be able to see it in the distance like the other islands you've visited.</p><p>You’ll still be deciding which pirate you want to rob a ship like before. However, because of the fog, you also won’t be able to see the ship.</p><p>This means you do not have to remember the ships you rob on this island.</p><p>Unlike yesterday, you won't be visiting multiple islands today. You will stay on this island for the entire game. This game will last ~30 minutes.</p></div>","","","","","","","","","","","","","","","","","","",""
"","html-keyboard-response","9","98959","0.0-9.0","""event"",""trial"",""time""
""fullscreenenter"",""0"",""21711""
","
","
","""event"",""trial"",""time""
""fullscreenenter"",""0"",""21711""
","
","1877.800000011921","<div class='center'><p>You’ve arrived at the final island of your journey! Unfortunately, it’s very foggy out, so you won’t be able to see it in the distance like the other islands you've visited.</p><p>You’ll still be deciding which pirate you want to rob a ship like before. However, because of the fog, you also won’t be able to see the ship.</p><p>This means you do not have to remember the ships you rob on this island.</p><p>Unlike yesterday, you won't be visiting multiple islands today. You will stay on this island for the entire game. This game will last ~30 minutes.</p><p><b>[Press the space bar to continue]</b></p></div>","32","","","","","","","","","","","","","","","","","","","","","","","",""
"","explain_probe_1","10","106658","0.0-10.0","""event"",""trial"",""time""
""fullscreenenter"",""0"",""21711""
","
","
","""event"",""trial"",""time""
""fullscreenenter"",""0"",""21711""
","
","null","run_exp/static/audio/clip_33_recognition_1.m4a","null","","","","","<div class='center'><p> Sometimes you’ll be shown a ship, and you will be asked if you saw this ship on a past island.</p><p> Here is an example of what you will see.</p><p><img src='run_exp/static/images/tutorial/example_recog_trial.png' height='500'></p></div>","","","","","","","","","","","","","","","","","","",""
"","html-keyboard-response","11","107741","0.0-11.0","""event"",""trial"",""time""
""fullscreenenter"",""0"",""21711""
","
","
","""event"",""trial"",""time""
""fullscreenenter"",""0"",""21711""
","
","1080.4000000357628","<div class='center'><p> Sometimes you’ll be shown a ship, and you will be asked if you saw this ship on a past island.</p><p> Here is an example of what you will see.</p><p><img src='run_exp/static/images/tutorial/example_recog_trial.png' height='500'></p><p><b>[Press the space bar to continue]</b></p></div>","32","","","","","","","","","","","","","","","","","","","","","","","",""
"","explain_probe_2","12","129463","0.0-12.0","""event"",""trial"",""time""
""fullscreenenter"",""0"",""21711""
","
","
","""event"",""trial"",""time""
""fullscreenenter"",""0"",""21711""
","
","null","run_exp/static/audio/clip_34_recognition_2.m4a","null","","","","","<div class='center'><p> You will press the 5, 6, 7, 8 keys on your keyboard to respond.</p><p>If you are sure you saw the ship, press <b>5</b> on your keyboard.</p><p> If you think you saw it before but aren't sure, then press <b>6</b>.</p><p> If you think you have <b>not</b> seen it before but aren't sure, then press <b>7</b>.</p><p> If you are sure you did <b>not</b> see the ship before, then press <b>8</b>.</p><p><img src='run_exp/static/images/tutorial/example_recog_trial.png' height='500'></p></div>","","","","","","","","","","","","","","","","","","",""
"","html-keyboard-response","13","134809","0.0-13.0","""event"",""trial"",""time""
""fullscreenenter"",""0"",""21711""
","
","
","""event"",""trial"",""time""
""fullscreenenter"",""0"",""21711""
","
","5343.699999988079","<div class='center'><p> You will press the 5, 6, 7, 8 keys on your keyboard to respond.</p><p>If you are sure you saw the ship, press <b>5</b> on your keyboard.</p><p> If you think you saw it before but aren't sure, then press <b>6</b>.</p><p> If you think you have <b>not</b> seen it before but aren't sure, then press <b>7</b>.</p><p> If you are sure you did <b>not</b> see the ship before, then press <b>8</b>.</p><p><img src='run_exp/static/images/tutorial/example_recog_trial.png' height='500'></p><p><b>[Press the space bar to continue]</b></p></div>","32","","","","","","","","","","","","","","","","","","","","","","","",""
"","explain_outcome","14","152013","0.0-14.0","""event"",""trial"",""time""
""fullscreenenter"",""0"",""21711""
","
","
","""event"",""trial"",""time""
""fullscreenenter"",""0"",""21711""
","
","null","run_exp/static/audio/clip_35_recognition_3.m4a","null","","","","","<div class='center'><p> If you remember correctly, then you’ll get a gold coin like this: </p><p><img src='run_exp/static/images/tutorial/reward_small.png' height='200'></p><p>If you do not remember correctly, then you'll see a red x like this: </p><p><img src='run_exp/static/images/tutorial/reward_no.png' height='200'></p><p>Importantly, when you are shown a ship, take the time to remind yourself which island you saw it on. This will help you in the next part of the study.</p></div>","","","","","","","","","","","","","","","","","","",""
"","html-keyboard-response","15","154547","0.0-15.0","""event"",""trial"",""time""
""fullscreenenter"",""0"",""21711""
","
","
","""event"",""trial"",""time""
""fullscreenenter"",""0"",""21711""
","
","2532.5","<div class='center'><p> If you remember correctly, then you’ll get a gold coin like this: </p><p><img src='run_exp/static/images/tutorial/reward_small.png' height='200'></p><p>If you do not remember correctly, then you'll see a red x like this: </p><p><img src='run_exp/static/images/tutorial/reward_no.png' height='200'></p><p>Importantly, when you are shown a ship, take the time to remind yourself which island you saw it on. This will help you in the next part of the study.</p><p><b>[Press the space bar to continue]</b></p></div>","32","","","","","","","","","","","","","","","","","","","","","","","",""
"","begin_test_phase","16","170359","0.0-16.0","""event"",""trial"",""time""
""fullscreenenter"",""0"",""21711""
","
","
","""event"",""trial"",""time""
""fullscreenenter"",""0"",""21711""
","
","null","run_exp/static/audio/clip_36_begin_final.m4a","null","","","","","<div class='center'><p>Let's go over the important points again. Your job is to: </p><p>1. Pick the pirate who is best at robbing ships and will bring you back gold coins. </p><p>2. Correctly remember whether or not you saw a ship before. If you did see the ship before, remind yourself on which island you saw it. </p></div>","","","","","","","","","","","","","","","","","","",""
"","html-keyboard-response","17","176617","0.0-17.0","""event"",""trial"",""time""
""fullscreenenter"",""0"",""21711""
","
","
","""event"",""trial"",""time""
""fullscreenenter"",""0"",""21711""
","
","6212.899999976158","<div class='center'><p>Let's go over the important points again. Your job is to: </p><p>1. Pick the pirate who is best at robbing ships and will bring you back gold coins. </p><p>2. Correctly remember whether or not you saw a ship before. If you did see the ship before, remind yourself on which island you saw it. </p><p><b>[Press the space bar to continue]</b></p></div>","32","","","","","","","","","","","","","","","","","","","","","","","",""
"","do_welcome","18","180628","0.0-18.0","""event"",""trial"",""time""
""fullscreenenter"",""0"",""21711""
","
","
","""event"",""trial"",""time""
""fullscreenenter"",""0"",""21711""
","
","null","","","","","","","","null","","","","","","","","","","","","","","","","","",""
"","do_trial","19","184341","0.0-19.0-0.0","""event"",""trial"",""time""
""fullscreenenter"",""0"",""21711""
","
","
","""event"",""trial"",""time""
""fullscreenenter"",""0"",""21711""
","
","1160.9000000357628","","","","","","","","49","0,0,1","6","blank","230","null","0.23888297691632004","0.2821341540963407","0.7149776520904838","0","","","","","","","","",""
"","html-keyboard-response","20","185349","0.0-19.0-1.0","""event"",""trial"",""time""
""fullscreenenter"",""0"",""21711""
","
","
","""event"",""trial"",""time""
""fullscreenenter"",""0"",""21711""
","
","null","<p></p>","null","","","","","","","","","","","","","","","","","","","","","","","",""
"","do_trial","21","188185","0.0-20.0-0.0","""event"",""trial"",""time""
""fullscreenenter"",""0"",""21711""
","
","
","""event"",""trial"",""time""
""fullscreenenter"",""0"",""21711""
","
","280.69999998807907","","","","","","","","49","0,1,1","6","blank","231","null","0.05163945934898656","0.28524368641083336","0.6112084405258023","0","","","","","","","","",""
"","html-keyboard-response","22","189193","0.0-20.0-1.0","""event"",""trial"",""time""
""fullscreenenter"",""0"",""21711""
","
","
","""event"",""trial"",""time""
""fullscreenenter"",""0"",""21711""
","
","null","<p></p>","null","","","","","","","","","","","","","","","","","","","","","","","",""
"","do_trial","23","192164","0.0-21.0-0.0","""event"",""trial"",""time""
""fullscreenenter"",""0"",""21711""
","
","
","""event"",""trial"",""time""
""fullscreenenter"",""0"",""21711""
","
","413.60000002384186","","","","","","","","49","0,1,1","6","blank","232","null","0.06640423656825634","0.27471075815693224","0.5601586048356217","0","","","","","","","","",""
"","html-keyboard-response","24","193171","0.0-21.0-1.0","""event"",""trial"",""time""
""fullscreenenter"",""0"",""21711""
","
","
","""event"",""trial"",""time""
""fullscreenenter"",""0"",""21711""
","
","null","<p></p>","null","","","","","","","","","","","","","","","","","","","","","","","",""
"","do_trial","25","196099","0.0-22.0-0.0","""event"",""trial"",""time""
""fullscreenenter"",""0"",""21711""
","
","
","""event"",""trial"",""time""
""fullscreenenter"",""0"",""21711""
","
","375.5","","","","","","","","50","0,0,1","6","blank","233","null","0.05736620034131452","0.29013499291670125","0.621873927728574","0","","","","","","","","",""
"","html-keyboard-response","26","197107","0.0-22.0-1.0","""event"",""trial"",""time""
""fullscreenenter"",""0"",""21711""
","
","
","""event"",""trial"",""time""
""fullscreenenter"",""0"",""21711""
","
","null","<p></p>","null","","","","","","","","","","","","","","","","","","","","","","","",""
"","do_trial","27","199939","0.0-23.0-0.0","""event"",""trial"",""time""
""fullscreenenter"",""0"",""21711""
","
","
","""event"",""trial"",""time""
""fullscreenenter"",""0"",""21711""
","
","279.89999997615814","","","","","","","","50","0,1,1","6","blank","234","null","0.06126478946073302","0.3948502941440839","0.568638137432266","1","","","","","","","","",""
"","html-keyboard-response","28","200944","0.0-23.0-1.0","""event"",""trial"",""time""
""fullscreenenter"",""0"",""21711""
","
","
","""event"",""trial"",""time""
""fullscreenenter"",""0"",""21711""
","
","null","<p></p>","null","","","","","","","","","","","","","","","","","","","","","","","",""
"","do_trial","29","203763","0.0-24.0-0.0","""event"",""trial"",""time""
""fullscreenenter"",""0"",""21711""
","
","
","""event"",""trial"",""time""
""fullscreenenter"",""0"",""21711""
","
","263.9000000357628","","","","","","","","50","0,0,0","6","blank","235","null","0.11577779015068872","0.30588227510948046","0.646590431146059","0","","","","","","","","",""
"","html-keyboard-response","30","204771","0.0-24.0-1.0","""event"",""trial"",""time""
""fullscreenenter"",""0"",""21711""
","
","
","""event"",""trial"",""time""
""fullscreenenter"",""0"",""21711""
","
","null","<p></p>","null","","","","","","","","","","","","","","","","","","","","","","","",""
"","do_trial","31","207613","0.0-25.0-0.0","""event"",""trial"",""time""
""fullscreenenter"",""0"",""21711""
","
","
","""event"",""trial"",""time""
""fullscreenenter"",""0"",""21711""
","
","287.5","","","","","","","","51","0,0,0","6","blank","236","null","0.09981176175387874","0.35695162060209695","0.6927125872866442","0","","","","","","","","",""
"","html-keyboard-response","32","208616","0.0-25.0-1.0","""event"",""trial"",""time""
""fullscreenenter"",""0"",""21711""
","
","
","""event"",""trial"",""time""
""fullscreenenter"",""0"",""21711""
","
","null","<p></p>","null","","","","","","","","","","","","","","","","","","","","","","","",""
"","do_trial","33","211416","0.0-26.0-0.0","""event"",""trial"",""time""
""fullscreenenter"",""0"",""21711""
","
","
","""event"",""trial"",""time""
""fullscreenenter"",""0"",""21711""
","
","241.5","","","","","","","","51","0,0,1","6","blank","237","null","0.07596332172370304","0.28183800327108544","0.5977225244322637","1","","","","","","","","",""
"","html-keyboard-response","34","212419","0.0-26.0-1.0","""event"",""trial"",""time""
""fullscreenenter"",""0"",""21711""
","
","
","""event"",""trial"",""time""
""fullscreenenter"",""0"",""21711""
","
","null","<p></p>","null","","","","","","","","","","","","","","","","","","","","","","","",""
"","do_trial","35","215349","0.0-27.0-0.0","""event"",""trial"",""time""
""fullscreenenter"",""0"",""21711""
","
","
","""event"",""trial"",""time""
""fullscreenenter"",""0"",""21711""
","
","374.9000000357628","","","","","","","","51","0,0,0","6","blank","238","null","0.14353595300386365","0.32137418986260147","0.5145449114642692","0","","","","","","","","",""
"","html-keyboard-response","36","216354","0.0-27.0-1.0","""event"",""trial"",""time""
""fullscreenenter"",""0"",""21711""
","
","
","""event"",""trial"",""time""
""fullscreenenter"",""0"",""21711""
","
","null","<p></p>","null","","","","","","","","","","","","","","","","","","","","","","","",""
"","do_trial","37","219160","0.0-28.0-0.0","""event"",""trial"",""time""
""fullscreenenter"",""0"",""21711""
","
","
","""event"",""trial"",""time""
""fullscreenenter"",""0"",""21711""
","
","251.39999997615814","","","","","","","","50","0,1,1","6","blank","239","null","0.20631019945620538","0.21271918074537602","0.6542760785844929","1","","","","","","","","",""
"","html-keyboard-response","38","220168","0.0-28.0-1.0","""event"",""trial"",""time""
""fullscreenenter"",""0"",""21711""
","
","
","""event"",""trial"",""time""
""fullscreenenter"",""0"",""21711""
","
","null","<p></p>","null","","","","","","","","","","","","","","","","","","","","","","","",""
"","do_trial","39","223055","0.0-29.0-0.0","""event"",""trial"",""time""
""fullscreenenter"",""0"",""21711""
","
","
","""event"",""trial"",""time""
""fullscreenenter"",""0"",""21711""
","
","332","","","","","","","","50","0,0,0","6","blank","240","null","0.11092215698305323","0.14853689425332448","0.5935192589692234","0","","","","","","","","",""
"","html-keyboard-response","40","224061","0.0-29.0-1.0","""event"",""trial"",""time""
""fullscreenenter"",""0"",""21711""
","
","
","""event"",""trial"",""time""
""fullscreenenter"",""0"",""21711""
","
","null","<p></p>","null","","","","","","","","","","","","","","","","","","","","","","","",""
"","do_trial","41","227090","0.0-30.0-0.0","""event"",""trial"",""time""
""fullscreenenter"",""0"",""21711""
","
","
","""event"",""trial"",""time""
""fullscreenenter"",""0"",""21711""
","
","471","","","","","","","","51","0,0,1","6","blank","241","null","0.10119508632494612","0.246850033007877","0.5936862846353045","1","","","","","","","","",""
"","html-keyboard-response","42","228098","0.0-30.0-1.0","""event"",""trial"",""time""
""fullscreenenter"",""0"",""21711""
","
","
","""event"",""trial"",""time""
""fullscreenenter"",""0"",""21711""
","
","null","<p></p>","null","","","","","","","","","","","","","","","","","","","","","","","",""
"","do_trial","43","230966","0.0-31.0-0.0","""event"",""trial"",""time""
""fullscreenenter"",""0"",""21711""
","
","
","""event"",""trial"",""time""
""fullscreenenter"",""0"",""21711""
","
","315.0999999642372","","","","","","","","51","0,0,1","6","blank","242","null","0.2778217283513693","0.23125305204708796","0.3533619549456769","1","","","","","","","","",""
"","html-keyboard-response","44","231971","0.0-31.0-1.0","""event"",""trial"",""time""
""fullscreenenter"",""0"",""21711""
","
","
","""event"",""trial"",""time""
""fullscreenenter"",""0"",""21711""
","
","null","<p></p>","null","","","","","","","","","","","","","","","","","","","","","","","",""
"","do_recog","45","237986","0.0-32.0-0.0","""event"",""trial"",""time""
""fullscreenenter"",""0"",""21711""
","
","
","""event"",""trial"",""time""
""fullscreenenter"",""0"",""21711""
","
","null","","","","","","","","null","","","","243","probe-223","","","","","1","[object Object]","114","2","0","","","",""
"","html-keyboard-response","46","238993","0.0-32.0-1.0","""event"",""trial"",""time""
""fullscreenenter"",""0"",""21711""
","
","
","""event"",""trial"",""time""
""fullscreenenter"",""0"",""21711""
","
","null","<p></p>","null","","","","","","","","","","","","","","","","","","","","","","","",""
"","do_trial","47","242604","0.0-33.0-0.0","""event"",""trial"",""time""
""fullscreenenter"",""0"",""21711""
","
","
","""event"",""trial"",""time""
""fullscreenenter"",""0"",""21711""
","
","1053.1000000238419","","","","","","","","51","0,0,1","6","blank","244","null","0.41180420394812856","0.11272858042551881","0.44174875644915523","1","","","","","","","","",""
"","html-keyboard-response","48","243610","0.0-33.0-1.0","""event"",""trial"",""time""
""fullscreenenter"",""0"",""21711""
","
","
","""event"",""trial"",""time""
""fullscreenenter"",""0"",""21711""
","
","null","<p></p>","null","","","","","","","","","","","","","","","","","","","","","","","",""
"","do_trial","49","246447","0.0-34.0-0.0","""event"",""trial"",""time""
""fullscreenenter"",""0"",""21711""
","
","
","""event"",""trial"",""time""
""fullscreenenter"",""0"",""21711""
","
","279.5999999642372","","","","","","","","51","1,0,0","6","blank","245","null","0.4407087471146048","0.2184835409316739","0.44345507138203616","0","","","","","","","","",""
"","html-keyboard-response","50","247451","0.0-34.0-1.0","""event"",""trial"",""time""
""fullscreenenter"",""0"",""21711""
","
","
","""event"",""trial"",""time""
""fullscreenenter"",""0"",""21711""
","
","null","<p></p>","null","","","","","","","","","","","","","","","","","","","","","","","",""
"","do_recog","51","251921","0.0-35.0-0.0","""event"",""trial"",""time""
""fullscreenenter"",""0"",""21711""
","
","
","""event"",""trial"",""time""
""fullscreenenter"",""0"",""21711""
","
","2956.399999976158","","","","","","","","53","","","","246","probe-125","","","","","1","[object Object]","190","4","1","","","",""
"","html-keyboard-response","52","252928","0.0-35.0-1.0","""event"",""trial"",""time""
""fullscreenenter"",""0"",""21711""
","
","
","""event"",""trial"",""time""
""fullscreenenter"",""0"",""21711""
","
","null","<p></p>","null","","","","","","","","","","","","","","","","","","","","","","","",""
"","do_trial","53","256102","0.0-36.0-0.0","""event"",""trial"",""time""
""fullscreenenter"",""0"",""21711""
","
","
","""event"",""trial"",""time""
""fullscreenenter"",""0"",""21711""
","
","618","","","","","","","","51","0,0,0","6","blank","247","null","0.5309799449919301","0.24964217261717714","0.5145361237163774","0","","","","","","","","",""
"","html-keyboard-response","54","257106","0.0-36.0-1.0","""event"",""trial"",""time""
""fullscreenenter"",""0"",""21711""
","
","
","""event"",""trial"",""time""
""fullscreenenter"",""0"",""21711""
","
","null","<p></p>","null","","","","","","","","","","","","","","","","","","","","","","","",""
"","do_trial","55","259963","0.0-37.0-0.0","""event"",""trial"",""time""
""fullscreenenter"",""0"",""21711""
","
","
","""event"",""trial"",""time""
""fullscreenenter"",""0"",""21711""
","
","299","","","","","","","","51","1,0,0","6","blank","248","null","0.49600820163950177","0.257009427129715","0.4980876460533049","0","","","","","","","","",""
"","html-keyboard-response","56","260971","0.0-37.0-1.0","""event"",""trial"",""time""
""fullscreenenter"",""0"",""21711""
","
","
","""event"",""trial"",""time""
""fullscreenenter"",""0"",""21711""
","
","null","<p></p>","null","","","","","","","","","","","","","","","","","","","","","","","",""
"","do_trial","57","263909","0.0-38.0-0.0","""event"",""trial"",""time""
""fullscreenenter"",""0"",""21711""
","
","
","""event"",""trial"",""time""
""fullscreenenter"",""0"",""21711""
","
","384.39999997615814","","","","","","","","51","0,0,1","6","blank","249","null","0.48868123538964287","0.2101249618411982","0.5053207723947193","1","","","","","","","","",""
"","html-keyboard-response","58","264912","0.0-38.0-1.0","""event"",""trial"",""time""
""fullscreenenter"",""0"",""21711""
","
","
","""event"",""trial"",""time""
""fullscreenenter"",""0"",""21711""
","
","null","<p></p>","null","","","","","","","","","","","","","","","","","","","","","","","",""
"","do_trial","59","268426","0.0-39.0-0.0","""event"",""trial"",""time""
""fullscreenenter"",""0"",""21711""
","
","
","""event"",""trial"",""time""
""fullscreenenter"",""0"",""21711""
","
","963.2999999523163","","","","","","","","51","0,0,1","6","blank","250","null","0.4857185872777383","0.14204303626873502","0.4200908024992622","1","","","","","","","","",""
"","html-keyboard-response","60","269434","0.0-39.0-1.0","""event"",""trial"",""time""
""fullscreenenter"",""0"",""21711""
","
","
","""event"",""trial"",""time""
""fullscreenenter"",""0"",""21711""
","
","null","<p></p>","null","","","","","","","","","","","","","","","","","","","","","","","",""
"","do_trial","61","272810","0.0-40.0-0.0","""event"",""trial"",""time""
""fullscreenenter"",""0"",""21711""
","
","
","""event"",""trial"",""time""
""fullscreenenter"",""0"",""21711""
","
","823.8000000119209","","","","","","","","51","1,0,1","6","blank","251","null","0.5570437215600861","0.13959824836498036","0.3235255259499796","1","","","","","","","","",""
"","html-keyboard-response","62","273813","0.0-40.0-1.0","""event"",""trial"",""time""
""fullscreenenter"",""0"",""21711""
","
","
","""event"",""trial"",""time""
""fullscreenenter"",""0"",""21711""
","
","null","<p></p>","null","","","","","","","","","","","","","","","","","","","","","","","",""
"","do_recog","63","278197","0.0-41.0-0.0","""event"",""trial"",""time""
""fullscreenenter"",""0"",""21711""
","
","
","""event"",""trial"",""time""
""fullscreenenter"",""0"",""21711""
","
","2875.399999976158","","","","","","","","54","","","","252","probe-51","","","","","1","[object Object]","115","2","1","","","",""
"","html-keyboard-response","64","279204","0.0-41.0-1.0","""event"",""trial"",""time""
""fullscreenenter"",""0"",""21711""
","
","
","""event"",""trial"",""time""
""fullscreenenter"",""0"",""21711""
","
","null","<p></p>","null","","","","","","","","","","","","","","","","","","","","","","","",""
"","do_trial","65","282308","0.0-42.0-0.0","""event"",""trial"",""time""
""fullscreenenter"",""0"",""21711""
","
","
","""event"",""trial"",""time""
""fullscreenenter"",""0"",""21711""
","
","549.2999999523163","","","","","","","","51","1,0,0","6","blank","253","null","0.6615794703742366","0.28710645842476135","0.3914432318986677","0","","","","","","","","",""
"","html-keyboard-response","66","283316","0.0-42.0-1.0","""event"",""trial"",""time""
""fullscreenenter"",""0"",""21711""
","
","
","""event"",""trial"",""time""
""fullscreenenter"",""0"",""21711""
","
","null","<p></p>","null","","","","","","","","","","","","","","","","","","","","","","","",""
"","do_trial","67","286388","0.0-43.0-0.0","""event"",""trial"",""time""
""fullscreenenter"",""0"",""21711""
","
","
","""event"",""trial"",""time""
""fullscreenenter"",""0"",""21711""
","
","516.2999999523163","","","","","","","","51","0,0,1","6","blank","254","null","0.7424330994910037","0.4308926996082713","0.48224221706809967","1","","","","","","","","",""
"","html-keyboard-response","68","287396","0.0-43.0-1.0","""event"",""trial"",""time""
""fullscreenenter"",""0"",""21711""
","
","
","""event"",""trial"",""time""
""fullscreenenter"",""0"",""21711""
","
","null","<p></p>","null","","","","","","","","","","","","","","","","","","","","","","","",""
"","do_trial","69","290529","0.0-44.0-0.0","""event"",""trial"",""time""
""fullscreenenter"",""0"",""21711""
","
","
","""event"",""trial"",""time""
""fullscreenenter"",""0"",""21711""
","
","576.9000000357628","","","","","","","","51","0,0,1","6","blank","255","null","0.6184974095313462","0.2685507666721836","0.554103202130853","1","","","","","","","","",""
"","html-keyboard-response","70","291535","0.0-44.0-1.0","""event"",""trial"",""time""
""fullscreenenter"",""0"",""21711""
","
","
","""event"",""trial"",""time""
""fullscreenenter"",""0"",""21711""
","
","null","<p></p>","null","","","","","","","","","","","","","","","","","","","","","","","",""
"","do_trial","71","294590","0.0-45.0-0.0","""event"",""trial"",""time""
""fullscreenenter"",""0"",""21711""
","
","
","""event"",""trial"",""time""
""fullscreenenter"",""0"",""21711""
","
","499.69999998807907","","","","","","","","51","1,0,0","6","blank","256","null","0.6056651056281462","0.30079543176491386","0.40992603067665967","0","","","","","","","","",""
"","html-keyboard-response","72","295594","0.0-45.0-1.0","""event"",""trial"",""time""
""fullscreenenter"",""0"",""21711""
","
","
","""event"",""trial"",""time""
""fullscreenenter"",""0"",""21711""
","
","null","<p></p>","null","","","","","","","","","","","","","","","","","","","","","","","",""
"","do_recog","73","299505","0.0-46.0-0.0","""event"",""trial"",""time""
""fullscreenenter"",""0"",""21711""
","
","
","""event"",""trial"",""time""
""fullscreenenter"",""0"",""21711""
","
","2398","","","","","","","","55","","","","257","probe-128","","","","","1","[object Object]","77","1","0","","","",""
"","html-keyboard-response","74","300510","0.0-46.0-1.0","""event"",""trial"",""time""
""fullscreenenter"",""0"",""21711""
","
","
","""event"",""trial"",""time""
""fullscreenenter"",""0"",""21711""
","
","null","<p></p>","null","","","","","","","","","","","","","","","","","","","","","","","",""
"","do_trial","75","303427","0.0-47.0-0.0","""event"",""trial"",""time""
""fullscreenenter"",""0"",""21711""
","
","
","""event"",""trial"",""time""
""fullscreenenter"",""0"",""21711""
","
","357.7000000476837","","","","","","","","51","0,0,0","6","blank","258","null","0.6665736624448414","0.19661831043716418","0.42144461760974167","0","","","","","","","","",""
"","html-keyboard-response","76","304432","0.0-47.0-1.0","""event"",""trial"",""time""
""fullscreenenter"",""0"",""21711""
","
","
","""event"",""trial"",""time""
""fullscreenenter"",""0"",""21711""
","
","null","<p></p>","null","","","","","","","","","","","","","","","","","","","","","","","",""
"","do_trial","77","307251","0.0-48.0-0.0","""event"",""trial"",""time""
""fullscreenenter"",""0"",""21711""
","
","
","""event"",""trial"",""time""
""fullscreenenter"",""0"",""21711""
","
","260.5","","","","","","","","50","1,1,0","6","blank","259","null","0.6738455291949603","0.11276721564395914","0.41098051604072233","1","","","","","","","","",""
"","html-keyboard-response","78","308259","0.0-48.0-1.0","""event"",""trial"",""time""
""fullscreenenter"",""0"",""21711""
","
","
","""event"",""trial"",""time""
""fullscreenenter"",""0"",""21711""
","
","null","<p></p>","null","","","","","","","","","","","","","","","","","","","","","","","",""
"","do_recog","79","312574","0.0-49.0-0.0","""event"",""trial"",""time""
""fullscreenenter"",""0"",""21711""
","
","
","""event"",""trial"",""time""
""fullscreenenter"",""0"",""21711""
","
","2800.399999976158","","","","","","","","54","","","","260","probe-163","","","","","1","[object Object]","37","0","1","","","",""
"","html-keyboard-response","80","313581","0.0-49.0-1.0","""event"",""trial"",""time""
""fullscreenenter"",""0"",""21711""
","
","
","""event"",""trial"",""time""
""fullscreenenter"",""0"",""21711""
","
","null","<p></p>","null","","","","","","","","","","","","","","","","","","","","","","","",""
"","do_trial","81","316558","0.0-50.0-0.0","""event"",""trial"",""time""
""fullscreenenter"",""0"",""21711""
","
","
","""event"",""trial"",""time""
""fullscreenenter"",""0"",""21711""
","
","421.5999999642372","","","","","","","","51","1,0,0","6","blank","261","null","0.6562414940449055","0.06732872490357923","0.374538455870784","0","","","","","","","","",""
"","html-keyboard-response","82","317565","0.0-50.0-1.0","""event"",""trial"",""time""
""fullscreenenter"",""0"",""21711""
","
","
","""event"",""trial"",""time""
""fullscreenenter"",""0"",""21711""
","
","null","<p></p>","null","","","","","","","","","","","","","","","","","","","","","","","",""
"","do_recog","83","321144","0.0-51.0-0.0","""event"",""trial"",""time""
""fullscreenenter"",""0"",""21711""
","
","
","""event"",""trial"",""time""
""fullscreenenter"",""0"",""21711""
","
","2068.300000011921","","","","","","","","53","","","","262","probe-129","","","","","1","[object Object]","197","4","1","","","",""
"","html-keyboard-response","84","322152","0.0-51.0-1.0","""event"",""trial"",""time""
""fullscreenenter"",""0"",""21711""
","
","
","""event"",""trial"",""time""
""fullscreenenter"",""0"",""21711""
","
","null","<p></p>","null","","","","","","","","","","","","","","","","","","","","","","","",""
"","do_trial","85","325176","0.0-52.0-0.0","""event"",""trial"",""time""
""fullscreenenter"",""0"",""21711""
","
","
","""event"",""trial"",""time""
""fullscreenenter"",""0"",""21711""
","
","467.9000000357628","","","","","","","","50","0,0,1","6","blank","263","null","0.5637255519755717","0.11279574003432556","0.4176210712465499","0","","","","","","","","",""
"","html-keyboard-response","86","326184","0.0-52.0-1.0","""event"",""trial"",""time""
""fullscreenenter"",""0"",""21711""
","
","
","""event"",""trial"",""time""
""fullscreenenter"",""0"",""21711""
","
","null","<p></p>","null","","","","","","","","","","","","","","","","","","","","","","","",""
"","do_recog","87","329576","0.0-53.0-0.0","""event"",""trial"",""time""
""fullscreenenter"",""0"",""21711""
","
","
","""event"",""trial"",""time""
""fullscreenenter"",""0"",""21711""
","
","1880","","","","","","","","54","","","","264","probe-147","","","","","1","[object Object]","71","1","1","","","",""
"","html-keyboard-response","88","330583","0.0-53.0-1.0","""event"",""trial"",""time""
""fullscreenenter"",""0"",""21711""
","
","
","""event"",""trial"",""time""
""fullscreenenter"",""0"",""21711""
","
","null","<p></p>","null","","","","","","","","","","","","","","","","","","","","","","","",""
"","do_trial","89","333613","0.0-54.0-0.0","""event"",""trial"",""time""
""fullscreenenter"",""0"",""21711""
","
","
","""event"",""trial"",""time""
""fullscreenenter"",""0"",""21711""
","
","471.9000000357628","","","","","","","","50","1,0,1","6","blank","265","null","0.6330585842962969","0.14486146108835296","0.4153965104449304","0","","","","","","","","",""
"","html-keyboard-response","90","334620","0.0-54.0-1.0","""event"",""trial"",""time""
""fullscreenenter"",""0"",""21711""
","
","
","""event"",""trial"",""time""
""fullscreenenter"",""0"",""21711""
","
","null","<p></p>","null","","","","","","","","","","","","","","","","","","","","","","","",""
"","do_trial","91","337538","0.0-55.0-0.0","""event"",""trial"",""time""
""fullscreenenter"",""0"",""21711""
","
","
","""event"",""trial"",""time""
""fullscreenenter"",""0"",""21711""
","
","362.39999997615814","","","","","","","","50","0,0,0","6","blank","266","null","0.5707261227746834","0.24624094230614332","0.2984850571709477","0","","","","","","","","",""
"","html-keyboard-response","92","338546","0.0-55.0-1.0","""event"",""trial"",""time""
""fullscreenenter"",""0"",""21711""
","
","
","""event"",""trial"",""time""
""fullscreenenter"",""0"",""21711""
","
","null","<p></p>","null","","","","","","","","","","","","","","","","","","","","","","","",""
"","do_trial","93","341719","0.0-56.0-0.0","""event"",""trial"",""time""
""fullscreenenter"",""0"",""21711""
","
","
","""event"",""trial"",""time""
""fullscreenenter"",""0"",""21711""
","
","618.8999999761581","","","","","","","","51","1,0,0","6","blank","267","null","0.5961294756299983","0.1507391946143609","0.2789310456241986","0","","","","","","","","",""
"","html-keyboard-response","94","342725","0.0-56.0-1.0","""event"",""trial"",""time""
""fullscreenenter"",""0"",""21711""
","
","
","""event"",""trial"",""time""
""fullscreenenter"",""0"",""21711""
","
","null","<p></p>","null","","","","","","","","","","","","","","","","","","","","","","","",""
"","do_recog","95","346642","0.0-57.0-0.0","""event"",""trial"",""time""
""fullscreenenter"",""0"",""21711""
","
","
","""event"",""trial"",""time""
""fullscreenenter"",""0"",""21711""
","
","2403.399999976158","","","","","","","","54","","","","268","probe-11","","","","","1","[object Object]","32","0","1","","","",""
"","html-keyboard-response","96","347649","0.0-57.0-1.0","""event"",""trial"",""time""
""fullscreenenter"",""0"",""21711""
","
","
","""event"",""trial"",""time""
""fullscreenenter"",""0"",""21711""
","
","null","<p></p>","null","","","","","","","","","","","","","","","","","","","","","","","",""
"","break","97","381932","0.0-58.0-0.0","""event"",""trial"",""time""
""fullscreenenter"",""0"",""21711""
","
","
","""event"",""trial"",""time""
""fullscreenenter"",""0"",""21711""
","
","34282.59999996424","<div class='center'><p>Time to take a quick break! You have 2 minutes to rest, but you can move on sooner if you'd like.</p><p> Press the <b>space bar</b> to continue.</p></div>","32","","","","","","","","","","","","","","","","","","","","","","","",""
"","do_trial","98","385845","0.0-58.0-1.0","""event"",""trial"",""time""
""fullscreenenter"",""0"",""21711""
","
","
","""event"",""trial"",""time""
""fullscreenenter"",""0"",""21711""
","
","1362.199999988079","","","","","","","","51","1,0,0","6","blank","269","null","0.6469247415742863","0.08110111312920384","0.33573447304648457","0","","","","","","","","",""
"","html-keyboard-response","99","386853","0.0-58.0-2.0","""event"",""trial"",""time""
""fullscreenenter"",""0"",""21711""
","
","
","""event"",""trial"",""time""
""fullscreenenter"",""0"",""21711""
","
","null","<p></p>","null","","","","","","","","","","","","","","","","","","","","","","","",""
"","do_trial","100","389906","0.0-59.0-0.0","""event"",""trial"",""time""
""fullscreenenter"",""0"",""21711""
","
","
","""event"",""trial"",""time""
""fullscreenenter"",""0"",""21711""
","
","502.30000001192093","","","","","","","","50","1,1,1","6","blank","270","null","0.6966893210244023","0.1610410882439552","0.2281007524766788","1","","","","","","","","",""
"","html-keyboard-response","101","390910","0.0-59.0-1.0","""event"",""trial"",""time""
""fullscreenenter"",""0"",""21711""
","
","
","""event"",""trial"",""time""
""fullscreenenter"",""0"",""21711""
","
","null","<p></p>","null","","","","","","","","","","","","","","","","","","","","","","","",""
"","do_trial","102","394676","0.0-60.0-0.0","""event"",""trial"",""time""
""fullscreenenter"",""0"",""21711""
","
","
","""event"",""trial"",""time""
""fullscreenenter"",""0"",""21711""
","
","1225","","","","","","","","50","0,0,0","6","blank","271","null","0.6279929290369478","0.18419954025932733","0.2757068065625738","0","","","","","","","","",""
"","html-keyboard-response","103","395684","0.0-60.0-1.0","""event"",""trial"",""time""
""fullscreenenter"",""0"",""21711""
","
","
","""event"",""trial"",""time""
""fullscreenenter"",""0"",""21711""
","
","null","<p></p>","null","","","","","","","","","","","","","","","","","","","","","","","",""
"","do_trial","104","400761","0.0-61.0-0.0","""event"",""trial"",""time""
""fullscreenenter"",""0"",""21711""
","
","
","""event"",""trial"",""time""
""fullscreenenter"",""0"",""21711""
","
","2524.399999976158","","","","","","","","51","1,0,0","6","blank","272","null","0.4922244995428774","0.0579924450980103","0.4439254333166005","0","","","","","","","","",""
"","html-keyboard-response","105","401769","0.0-61.0-1.0","""event"",""trial"",""time""
""fullscreenenter"",""0"",""21711""
","
","
","""event"",""trial"",""time""
""fullscreenenter"",""0"",""21711""
","
","null","<p></p>","null","","","","","","","","","","","","","","","","","","","","","","","",""
"","do_recog","106","407780","0.0-62.0-0.0","""event"",""trial"",""time""
""fullscreenenter"",""0"",""21711""
","
","
","""event"",""trial"",""time""
""fullscreenenter"",""0"",""21711""
","
","null","","","","","","","","null","","","","273","probe-91","","","","","1","[object Object]","116","2","0","","","",""
"","html-keyboard-response","107","408787","0.0-62.0-1.0","""event"",""trial"",""time""
""fullscreenenter"",""0"",""21711""
","
","
","""event"",""trial"",""time""
""fullscreenenter"",""0"",""21711""
","
","null","<p></p>","null","","","","","","","","","","","","","","","","","","","","","","","",""
"","do_trial","108","412137","0.0-63.0-0.0","""event"",""trial"",""time""
""fullscreenenter"",""0"",""21711""
","
","
","""event"",""trial"",""time""
""fullscreenenter"",""0"",""21711""
","
","796.5","","","","","","","","51","1,0,0","6","blank","274","null","0.6604508389415014","0.20221564764679628","0.37310867999566427","0","","","","","","","","",""
"","html-keyboard-response","109","413145","0.0-63.0-1.0","""event"",""trial"",""time""
""fullscreenenter"",""0"",""21711""
","
","
","""event"",""trial"",""time""
""fullscreenenter"",""0"",""21711""
","
","null","<p></p>","null","","","","","","","","","","","","","","","","","","","","","","","",""
"","do_trial","110","415939","0.0-64.0-0.0","""event"",""trial"",""time""
""fullscreenenter"",""0"",""21711""
","
","
","""event"",""trial"",""time""
""fullscreenenter"",""0"",""21711""
","
","236","","","","","","","","50","1,1,1","6","blank","275","null","0.7646536990893122","0.21730241452632418","0.3095033906619719","1","","","","","","","","",""
"","html-keyboard-response","111","416945","0.0-64.0-1.0","""event"",""trial"",""time""
""fullscreenenter"",""0"",""21711""
","
","
","""event"",""trial"",""time""
""fullscreenenter"",""0"",""21711""
","
","null","<p></p>","null","","","","","","","","","","","","","","","","","","","","","","","",""
"","do_trial","112","419795","0.0-65.0-0.0","""event"",""trial"",""time""
""fullscreenenter"",""0"",""21711""
","
","
","""event"",""trial"",""time""
""fullscreenenter"",""0"",""21711""
","
","297","","","","","","","","50","1,0,0","6","blank","276","null","0.6100099402418931","0.2126865910676711","0.2127344167997503","0","","","","","","","","",""
"","html-keyboard-response","113","420803","0.0-65.0-1.0","""event"",""trial"",""time""
""fullscreenenter"",""0"",""21711""
","
","
","""event"",""trial"",""time""
""fullscreenenter"",""0"",""21711""
","
","null","<p></p>","null","","","","","","","","","","","","","","","","","","","","","","","",""
"","do_trial","114","423704","0.0-66.0-0.0","""event"",""trial"",""time""
""fullscreenenter"",""0"",""21711""
","
","
","""event"",""trial"",""time""
""fullscreenenter"",""0"",""21711""
","
","341.69999998807907","","","","","","","","50","1,0,0","6","blank","277","null","0.7200741343062944","0.2235140916344476","0.15081319288872913","0","","","","","","","","",""
"","html-keyboard-response","115","424712","0.0-66.0-1.0","""event"",""trial"",""time""
""fullscreenenter"",""0"",""21711""
","
","
","""event"",""trial"",""time""
""fullscreenenter"",""0"",""21711""
","
","null","<p></p>","null","","","","","","","","","","","","","","","","","","","","","","","",""
"","do_recog","116","428243","0.0-67.0-0.0","""event"",""trial"",""time""
""fullscreenenter"",""0"",""21711""
","
","
","""event"",""trial"",""time""
""fullscreenenter"",""0"",""21711""
","
","2017.1000000238419","","","","","","","","53","","","","278","probe-249","","","","","0","[object Object]","null","null","0","","","",""
"","html-keyboard-response","117","429251","0.0-67.0-1.0","""event"",""trial"",""time""
""fullscreenenter"",""0"",""21711""
","
","
","""event"",""trial"",""time""
""fullscreenenter"",""0"",""21711""
","
","null","<p></p>","null","","","","","","","","","","","","","","","","","","","","","","","",""
"","do_trial","118","433629","0.0-68.0-0.0","""event"",""trial"",""time""
""fullscreenenter"",""0"",""21711""
","
","
","""event"",""trial"",""time""
""fullscreenenter"",""0"",""21711""
","
","1820.8999999761581","","","","","","","","51","0,1,0","6","blank","279","null","0.6758986172568394","0.13886990520986872","0.08857005269724891","0","","","","","","","","",""
"","html-keyboard-response","119","434636","0.0-68.0-1.0","""event"",""trial"",""time""
""fullscreenenter"",""0"",""21711""
","
","
","""event"",""trial"",""time""
""fullscreenenter"",""0"",""21711""
","
","null","<p></p>","null","","","","","","","","","","","","","","","","","","","","","","","",""
"","do_trial","120","437464","0.0-69.0-0.0","""event"",""trial"",""time""
""fullscreenenter"",""0"",""21711""
","
","
","""event"",""trial"",""time""
""fullscreenenter"",""0"",""21711""
","
","272.4000000357628","","","","","","","","50","1,1,0","6","blank","280","null","0.6741520887523114","0.05294738473058299","0.29059622219311454","1","","","","","","","","",""
"","html-keyboard-response","121","438472","0.0-69.0-1.0","""event"",""trial"",""time""
""fullscreenenter"",""0"",""21711""
","
","
","""event"",""trial"",""time""
""fullscreenenter"",""0"",""21711""
","
","null","<p></p>","null","","","","","","","","","","","","","","","","","","","","","","","",""
"","do_trial","122","442026","0.0-70.0-0.0","""event"",""trial"",""time""
""fullscreenenter"",""0"",""21711""
","
","
","""event"",""trial"",""time""
""fullscreenenter"",""0"",""21711""
","
","1000.0999999642372","","","","","","","","50","1,0,0","6","blank","281","null","0.6425289445893262","0.13296137294127786","0.35531570625917247","0","","","","","","","","",""
"","html-keyboard-response","123","443031","0.0-70.0-1.0","""event"",""trial"",""time""
""fullscreenenter"",""0"",""21711""
","
","
","""event"",""trial"",""time""
""fullscreenenter"",""0"",""21711""
","
","null","<p></p>","null","","","","","","","","","","","","","","","","","","","","","","","",""
"","do_trial","124","445986","0.0-71.0-0.0","""event"",""trial"",""time""
""fullscreenenter"",""0"",""21711""
","
","
","""event"",""trial"",""time""
""fullscreenenter"",""0"",""21711""
","
","401","","","","","","","","50","0,0,0","6","blank","282","null","0.5489981823107418","0.08028436042382701","0.21162919522858684","0","","","","","","","","",""
"","html-keyboard-response","125","446993","0.0-71.0-1.0","""event"",""trial"",""time""
""fullscreenenter"",""0"",""21711""
","
","
","""event"",""trial"",""time""
""fullscreenenter"",""0"",""21711""
","
","null","<p></p>","null","","","","","","","","","","","","","","","","","","","","","","","",""
"","do_trial","126","450204","0.0-72.0-0.0","""event"",""trial"",""time""
""fullscreenenter"",""0"",""21711""
","
","
","""event"",""trial"",""time""
""fullscreenenter"",""0"",""21711""
","
","658.8000000119209","","","","","","","","50","0,0,0","6","blank","283","null","0.4973750894986479","0.09874886031682924","0.2719043960346695","0","","","","","","","","",""
"","html-keyboard-response","127","451209","0.0-72.0-1.0","""event"",""trial"",""time""
""fullscreenenter"",""0"",""21711""
","
","
","""event"",""trial"",""time""
""fullscreenenter"",""0"",""21711""
","
","null","<p></p>","null","","","","","","","","","","","","","","","","","","","","","","","",""
"","do_trial","128","455356","0.0-73.0-0.0","""event"",""trial"",""time""
""fullscreenenter"",""0"",""21711""
","
","
","""event"",""trial"",""time""
""fullscreenenter"",""0"",""21711""
","
","1615.1000000238419","","","","","","","","50","0,0,1","6","blank","284","null","0.6241018801595488","0.16901517082902215","0.32747132225305936","0","","","","","","","","",""
"","html-keyboard-response","129","456364","0.0-73.0-1.0","""event"",""trial"",""time""
""fullscreenenter"",""0"",""21711""
","
","
","""event"",""trial"",""time""
""fullscreenenter"",""0"",""21711""
","
","null","<p></p>","null","","","","","","","","","","","","","","","","","","","","","","","",""
"","do_recog","130","459958","0.0-74.0-0.0","""event"",""trial"",""time""
""fullscreenenter"",""0"",""21711""
","
","
","""event"",""trial"",""time""
""fullscreenenter"",""0"",""21711""
","
","2084.800000011921","","","","","","","","55","","","","285","probe-231","","","","","0","[object Object]","null","null","1","","","",""
"","html-keyboard-response","131","460966","0.0-74.0-1.0","""event"",""trial"",""time""
""fullscreenenter"",""0"",""21711""
","
","
","""event"",""trial"",""time""
""fullscreenenter"",""0"",""21711""
","
","null","<p></p>","null","","","","","","","","","","","","","","","","","","","","","","","",""
"","do_trial","132","464474","0.0-75.0-0.0","""event"",""trial"",""time""
""fullscreenenter"",""0"",""21711""
","
","
","""event"",""trial"",""time""
""fullscreenenter"",""0"",""21711""
","
","948.1999999880791","","","","","","","","51","1,0,1","6","blank","286","null","0.6966888451971694","0.21036853762080146","0.30356432460348365","1","","","","","","","","",""
"","html-keyboard-response","133","465478","0.0-75.0-1.0","""event"",""trial"",""time""
""fullscreenenter"",""0"",""21711""
","
","
","""event"",""trial"",""time""
""fullscreenenter"",""0"",""21711""
","
","null","<p></p>","null","","","","","","","","","","","","","","","","","","","","","","","",""
"","do_recog","134","469025","0.0-76.0-0.0","""event"",""trial"",""time""
""fullscreenenter"",""0"",""21711""
","
","
","""event"",""trial"",""time""
""fullscreenenter"",""0"",""21711""
","
","2034","","","","","","","","54","","","","287","probe-10","","","","","1","[object Object]","79","1","1","","","",""
"","html-keyboard-response","135","470032","0.0-76.0-1.0","""event"",""trial"",""time""
""fullscreenenter"",""0"",""21711""
","
","
","""event"",""trial"",""time""
""fullscreenenter"",""0"",""21711""
","
","null","<p></p>","null","","","","","","","","","","","","","","","","","","","","","","","",""
"","do_trial","136","474657","0.0-77.0-0.0","""event"",""trial"",""time""
""fullscreenenter"",""0"",""21711""
","
","
","""event"",""trial"",""time""
""fullscreenenter"",""0"",""21711""
","
","2068","","","","","","","","51","1,0,0","6","blank","288","null","0.7584100960386028","0.11336288623221766","0.3876307898763565","0","","","","","","","","",""
"","html-keyboard-response","137","475664","0.0-77.0-1.0","""event"",""trial"",""time""
""fullscreenenter"",""0"",""21711""
","
","
","""event"",""trial"",""time""
""fullscreenenter"",""0"",""21711""
","
","null","<p></p>","null","","","","","","","","","","","","","","","","","","","","","","","",""
"","do_trial","138","478486","0.0-78.0-0.0","""event"",""trial"",""time""
""fullscreenenter"",""0"",""21711""
","
","
","""event"",""trial"",""time""
""fullscreenenter"",""0"",""21711""
","
","265.19999998807907","","","","","","","","50","1,0,1","6","blank","289","null","0.8918861891841453","0.1104471562406746","0.32099666996252885","0","","","","","","","","",""
"","html-keyboard-response","139","479493","0.0-78.0-1.0","""event"",""trial"",""time""
""fullscreenenter"",""0"",""21711""
","
","
","""event"",""trial"",""time""
""fullscreenenter"",""0"",""21711""
","
","null","<p></p>","null","","","","","","","","","","","","","","","","","","","","","","","",""
"","do_trial","140","482379","0.0-79.0-0.0","""event"",""trial"",""time""
""fullscreenenter"",""0"",""21711""
","
","
","""event"",""trial"",""time""
""fullscreenenter"",""0"",""21711""
","
","331.7999999523163","","","","","","","","49","1,0,0","6","blank","290","null","0.7799037816244875","0.17353613399146914","0.2858444172001824","1","","","","","","","","",""
"","html-keyboard-response","141","483387","0.0-79.0-1.0","""event"",""trial"",""time""
""fullscreenenter"",""0"",""21711""
","
","
","""event"",""trial"",""time""
""fullscreenenter"",""0"",""21711""
","
","null","<p></p>","null","","","","","","","","","","","","","","","","","","","","","","","",""
"","do_trial","142","486297","0.0-80.0-0.0","""event"",""trial"",""time""
""fullscreenenter"",""0"",""21711""
","
","
","""event"",""trial"",""time""
""fullscreenenter"",""0"",""21711""
","
","354","","","","","","","","49","1,0,0","6","blank","291","null","0.8020780997544833","0.07245927711932088","0.2210300010322763","1","","","","","","","","",""
"","html-keyboard-response","143","487301","0.0-80.0-1.0","""event"",""trial"",""time""
""fullscreenenter"",""0"",""21711""
","
","
","""event"",""trial"",""time""
""fullscreenenter"",""0"",""21711""
","
","null","<p></p>","null","","","","","","","","","","","","","","","","","","","","","","","",""
"","do_trial","144","490173","0.0-81.0-0.0","""event"",""trial"",""time""
""fullscreenenter"",""0"",""21711""
","
","
","""event"",""trial"",""time""
""fullscreenenter"",""0"",""21711""
","
","315.10000002384186","","","","","","","","49","1,0,1","6","blank","292","null","0.8087005220867722","0.07428082833577576","0.28674133259853346","1","","","","","","","","",""
"","html-keyboard-response","145","491178","0.0-81.0-1.0","""event"",""trial"",""time""
""fullscreenenter"",""0"",""21711""
","
","
","""event"",""trial"",""time""
""fullscreenenter"",""0"",""21711""
","
","null","<p></p>","null","","","","","","","","","","","","","","","","","","","","","","","",""
"","do_recog","146","494651","0.0-82.0-0.0","""event"",""trial"",""time""
""fullscreenenter"",""0"",""21711""
","
","
","""event"",""trial"",""time""
""fullscreenenter"",""0"",""21711""
","
","1958.3999999761581","","","","","","","","54","","","","293","probe-183","","","","","1","[object Object]","155","3","1","","","",""
"","html-keyboard-response","147","495658","0.0-82.0-1.0","""event"",""trial"",""time""
""fullscreenenter"",""0"",""21711""
","
","
","""event"",""trial"",""time""
""fullscreenenter"",""0"",""21711""
","
","null","<p></p>","null","","","","","","","","","","","","","","","","","","","","","","","",""
"","do_trial","148","499173","0.0-83.0-0.0","""event"",""trial"",""time""
""fullscreenenter"",""0"",""21711""
","
","
","""event"",""trial"",""time""
""fullscreenenter"",""0"",""21711""
","
","955","","","","","","","","49","1,0,0","6","blank","294","null","0.625633934095184","0.3826475524077925","0.3421845681388811","1","","","","","","","","",""
"","html-keyboard-response","149","500181","0.0-83.0-1.0","""event"",""trial"",""time""
""fullscreenenter"",""0"",""21711""
","
","
","""event"",""trial"",""time""
""fullscreenenter"",""0"",""21711""
","
","null","<p></p>","null","","","","","","","","","","","","","","","","","","","","","","","",""
"","do_recog","150","503738","0.0-84.0-0.0","""event"",""trial"",""time""
""fullscreenenter"",""0"",""21711""
","
","
","""event"",""trial"",""time""
""fullscreenenter"",""0"",""21711""
","
","2044.7000000476837","","","","","","","","54","","","","295","probe-121","","","","","1","[object Object]","111","2","1","","","",""
"","html-keyboard-response","151","504746","0.0-84.0-1.0","""event"",""trial"",""time""
""fullscreenenter"",""0"",""21711""
","
","
","""event"",""trial"",""time""
""fullscreenenter"",""0"",""21711""
","
","null","<p></p>","null","","","","","","","","","","","","","","","","","","","","","","","",""
"","do_trial","152","508111","0.0-85.0-0.0","""event"",""trial"",""time""
""fullscreenenter"",""0"",""21711""
","
","
","""event"",""trial"",""time""
""fullscreenenter"",""0"",""21711""
","
","808.6999999880791","","","","","","","","49","1,0,0","6","blank","296","null","0.5132315255400046","0.32674459287286417","0.2558729109281065","1","","","","","","","","",""
"","html-keyboard-response","153","509119","0.0-85.0-1.0","""event"",""trial"",""time""
""fullscreenenter"",""0"",""21711""
","
","
","""event"",""trial"",""time""
""fullscreenenter"",""0"",""21711""
","
","null","<p></p>","null","","","","","","","","","","","","","","","","","","","","","","","",""
"","do_trial","154","512297","0.0-86.0-0.0","""event"",""trial"",""time""
""fullscreenenter"",""0"",""21711""
","
","
","""event"",""trial"",""time""
""fullscreenenter"",""0"",""21711""
","
","622.8000000119209","","","","","","","","49","1,1,0","6","blank","297","null","0.5098603391255313","0.39478255732802253","0.26901786634994496","1","","","","","","","","",""
"","html-keyboard-response","155","513305","0.0-86.0-1.0","""event"",""trial"",""time""
""fullscreenenter"",""0"",""21711""
","
","
","""event"",""trial"",""time""
""fullscreenenter"",""0"",""21711""
","
","null","<p></p>","null","","","","","","","","","","","","","","","","","","","","","","","",""
"","do_recog","156","517124","0.0-87.0-0.0","""event"",""trial"",""time""
""fullscreenenter"",""0"",""21711""
","
","
","""event"",""trial"",""time""
""fullscreenenter"",""0"",""21711""
","
","2307.5","","","","","","","","54","","","","298","probe-15","","","","","1","[object Object]","34","0","1","","","",""
"","html-keyboard-response","157","518132","0.0-87.0-1.0","""event"",""trial"",""time""
""fullscreenenter"",""0"",""21711""
","
","
","""event"",""trial"",""time""
""fullscreenenter"",""0"",""21711""
","
","null","<p></p>","null","","","","","","","","","","","","","","","","","","","","","","","",""
"","do_trial","158","521235","0.0-88.0-0.0","""event"",""trial"",""time""
""fullscreenenter"",""0"",""21711""
","
","
","""event"",""trial"",""time""
""fullscreenenter"",""0"",""21711""
","
","545.1000000238419","","","","","","","","49","0,1,0","6","blank","299","null","0.4752723203625401","0.40635043426654427","0.09600599872665729","0","","","","","","","","",""
"","html-keyboard-response","159","522239","0.0-88.0-1.0","""event"",""trial"",""time""
""fullscreenenter"",""0"",""21711""
","
","
","""event"",""trial"",""time""
""fullscreenenter"",""0"",""21711""
","
","null","<p></p>","null","","","","","","","","","","","","","","","","","","","","","","","",""
"","do_recog","160","525545","0.0-89.0-0.0","""event"",""trial"",""time""
""fullscreenenter"",""0"",""21711""
","
","
","""event"",""trial"",""time""
""fullscreenenter"",""0"",""21711""
","
","1793.699999988079","","","","","","","","55","","","","300","probe-05","","","","","1","[object Object]","76","1","0","","","",""
"","html-keyboard-response","161","526553","0.0-89.0-1.0","""event"",""trial"",""time""
""fullscreenenter"",""0"",""21711""
","
","
","""event"",""trial"",""time""
""fullscreenenter"",""0"",""21711""
","
","null","<p></p>","null","","","","","","","","","","","","","","","","","","","","","","","",""
"","do_trial","162","529513","0.0-90.0-0.0","""event"",""trial"",""time""
""fullscreenenter"",""0"",""21711""
","
","
","""event"",""trial"",""time""
""fullscreenenter"",""0"",""21711""
","
","402.5","","","","","","","","49","0,0,0","6","blank","301","null","0.47982532345257756","0.538129914494832","0.08124371369937179","0","","","","","","","","",""
"","html-keyboard-response","163","530520","0.0-90.0-1.0","""event"",""trial"",""time""
""fullscreenenter"",""0"",""21711""
","
","
","""event"",""trial"",""time""
""fullscreenenter"",""0"",""21711""
","
","null","<p></p>","null","","","","","","","","","","","","","","","","","","","","","","","",""
"","do_trial","164","533390","0.0-91.0-0.0","""event"",""trial"",""time""
""fullscreenenter"",""0"",""21711""
","
","
","""event"",""trial"",""time""
""fullscreenenter"",""0"",""21711""
","
","316.60000002384186","","","","","","","","49","1,1,0","6","blank","302","null","0.5879229864813798","0.4151919355565526","0.05964191082041708","1","","","","","","","","",""
"","html-keyboard-response","165","534398","0.0-91.0-1.0","""event"",""trial"",""time""
""fullscreenenter"",""0"",""21711""
","
","
","""event"",""trial"",""time""
""fullscreenenter"",""0"",""21711""
","
","null","<p></p>","null","","","","","","","","","","","","","","","","","","","","","","","",""
"","do_trial","166","537544","0.0-92.0-0.0","""event"",""trial"",""time""
""fullscreenenter"",""0"",""21711""
","
","
","""event"",""trial"",""time""
""fullscreenenter"",""0"",""21711""
","
","587.2000000476837","","","","","","","","49","1,0,0","6","blank","303","null","0.412618602381784","0.5452743435806879","0.14643836896715878","1","","","","","","","","",""
"","html-keyboard-response","167","538550","0.0-92.0-1.0","""event"",""trial"",""time""
""fullscreenenter"",""0"",""21711""
","
","
","""event"",""trial"",""time""
""fullscreenenter"",""0"",""21711""
","
","null","<p></p>","null","","","","","","","","","","","","","","","","","","","","","","","",""
"","do_trial","168","541523","0.0-93.0-0.0","""event"",""trial"",""time""
""fullscreenenter"",""0"",""21711""
","
","
","""event"",""trial"",""time""
""fullscreenenter"",""0"",""21711""
","
","418","","","","","","","","49","0,1,1","6","blank","304","null","0.22441480506099482","0.5893483006444159","0.15363971148568037","0","","","","","","","","",""
"","html-keyboard-response","169","542530","0.0-93.0-1.0","""event"",""trial"",""time""
""fullscreenenter"",""0"",""21711""
","
","
","""event"",""trial"",""time""
""fullscreenenter"",""0"",""21711""
","
","null","<p></p>","null","","","","","","","","","","","","","","","","","","","","","","","",""
"","do_recog","170","545928","0.0-94.0-0.0","""event"",""trial"",""time""
""fullscreenenter"",""0"",""21711""
","
","
","""event"",""trial"",""time""
""fullscreenenter"",""0"",""21711""
","
","1885.699999988079","","","","","","","","53","","","","305","probe-35","","","","","1","[object Object]","38","0","1","","","",""
"","html-keyboard-response","171","546934","0.0-94.0-1.0","""event"",""trial"",""time""
""fullscreenenter"",""0"",""21711""
","
","
","""event"",""trial"",""time""
""fullscreenenter"",""0"",""21711""
","
","null","<p></p>","null","","","","","","","","","","","","","","","","","","","","","","","",""
"","do_trial","172","549778","0.0-95.0-0.0","""event"",""trial"",""time""
""fullscreenenter"",""0"",""21711""
","
","
","""event"",""trial"",""time""
""fullscreenenter"",""0"",""21711""
","
","295.5","","","","","","","","49","0,1,0","6","blank","306","null","0.1835992880594924","0.6077547982312657","0.05848684855739084","0","","","","","","","","",""
"","html-keyboard-response","173","550786","0.0-95.0-1.0","""event"",""trial"",""time""
""fullscreenenter"",""0"",""21711""
","
","
","""event"",""trial"",""time""
""fullscreenenter"",""0"",""21711""
","
","null","<p></p>","null","","","","","","","","","","","","","","","","","","","","","","","",""
"","do_recog","174","554320","0.0-96.0-0.0","""event"",""trial"",""time""
""fullscreenenter"",""0"",""21711""
","
","
","""event"",""trial"",""time""
""fullscreenenter"",""0"",""21711""
","
","2021.5999999642372","","","","","","","","55","","","","307","probe-27","","","","","1","[object Object]","112","2","0","","","",""
"","html-keyboard-response","175","555324","0.0-96.0-1.0","""event"",""trial"",""time""
""fullscreenenter"",""0"",""21711""
","
","
","""event"",""trial"",""time""
""fullscreenenter"",""0"",""21711""
","
","null","<p></p>","null","","","","","","","","","","","","","","","","","","","","","","","",""
"","do_trial","176","558322","0.0-97.0-0.0","""event"",""trial"",""time""
""fullscreenenter"",""0"",""21711""
","
","
","""event"",""trial"",""time""
""fullscreenenter"",""0"",""21711""
","
","444.5","","","","","","","","49","0,1,1","6","blank","308","null","0.1739819214875042","0.7022207834491602","0.10387791961779956","0","","","","","","","","",""
"","html-keyboard-response","177","559330","0.0-97.0-1.0","""event"",""trial"",""time""
""fullscreenenter"",""0"",""21711""
","
","
","""event"",""trial"",""time""
""fullscreenenter"",""0"",""21711""
","
","null","<p></p>","null","","","","","","","","","","","","","","","","","","","","","","","",""
"","break","178","627826","0.0-98.0-0.0","""event"",""trial"",""time""
""fullscreenenter"",""0"",""21711""
","
","
","""event"",""trial"",""time""
""fullscreenenter"",""0"",""21711""
","
","68496.40000003576","<div class='center'><p>Time to take a quick break! You have 2 minutes to rest, but you can move on sooner if you'd like.</p><p> Press the <b>space bar</b> to continue.</p></div>","32","","","","","","","","","","","","","","","","","","","","","","","",""
"","do_recog","179","633838","0.0-98.0-1.0","""event"",""trial"",""time""
""fullscreenenter"",""0"",""21711""
","
","
","""event"",""trial"",""time""
""fullscreenenter"",""0"",""21711""
","
","null","","","","","","","","null","","","","309","probe-205","","","","","1","[object Object]","150","3","0","","","",""
"","html-keyboard-response","180","634841","0.0-98.0-2.0","""event"",""trial"",""time""
""fullscreenenter"",""0"",""21711""
","
","
","""event"",""trial"",""time""
""fullscreenenter"",""0"",""21711""
","
","null","<p></p>","null","","","","","","","","","","","","","","","","","","","","","","","",""
"","do_trial","181","638931","0.0-99.0-0.0","""event"",""trial"",""time""
""fullscreenenter"",""0"",""21711""
","
","
","""event"",""trial"",""time""
""fullscreenenter"",""0"",""21711""
","
","1535.3999999761581","","","","","","","","49","0,1,0","6","blank","310","null","0.2717607479001323","0.7442683435211125","0.07647362313830136","0","","","","","","","","",""
"","html-keyboard-response","182","639939","0.0-99.0-1.0","""event"",""trial"",""time""
""fullscreenenter"",""0"",""21711""
","
","
","""event"",""trial"",""time""
""fullscreenenter"",""0"",""21711""
","
","null","<p></p>","null","","","","","","","","","","","","","","","","","","","","","","","",""
"","do_recog","183","643193","0.0-100.0-0.0","""event"",""trial"",""time""
""fullscreenenter"",""0"",""21711""
","
","
","""event"",""trial"",""time""
""fullscreenenter"",""0"",""21711""
","
","1743.8999999761581","","","","","","","","55","","","","311","probe-137","","","","","1","[object Object]","191","4","0","","","",""
"","html-keyboard-response","184","644200","0.0-100.0-1.0","""event"",""trial"",""time""
""fullscreenenter"",""0"",""21711""
","
","
","""event"",""trial"",""time""
""fullscreenenter"",""0"",""21711""
","
","null","<p></p>","null","","","","","","","","","","","","","","","","","","","","","","","",""
"","do_trial","185","647560","0.0-101.0-0.0","""event"",""trial"",""time""
""fullscreenenter"",""0"",""21711""
","
","
","""event"",""trial"",""time""
""fullscreenenter"",""0"",""21711""
","
","807.8000000119209","","","","","","","","49","0,1,0","6","blank","312","null","0.2583741375212889","0.6578988785738231","0.13840400465295666","0","","","","","","","","",""
"","html-keyboard-response","186","648568","0.0-101.0-1.0","""event"",""trial"",""time""
""fullscreenenter"",""0"",""21711""
","
","
","""event"",""trial"",""time""
""fullscreenenter"",""0"",""21711""
","
","null","<p></p>","null","","","","","","","","","","","","","","","","","","","","","","","",""
"","do_trial","187","652082","0.0-102.0-0.0","""event"",""trial"",""time""
""fullscreenenter"",""0"",""21711""
","
","
","""event"",""trial"",""time""
""fullscreenenter"",""0"",""21711""
","
","959.8000000119209","","","","","","","","49","0,1,1","6","blank","313","null","0.29337338692541776","0.4602915299483701","0.12309278758132373","0","","","","","","","","",""
"","html-keyboard-response","188","653088","0.0-102.0-1.0","""event"",""trial"",""time""
""fullscreenenter"",""0"",""21711""
","
","
","""event"",""trial"",""time""
""fullscreenenter"",""0"",""21711""
","
","null","<p></p>","null","","","","","","","","","","","","","","","","","","","","","","","",""
"","do_recog","189","656173","0.0-103.0-0.0","""event"",""trial"",""time""
""fullscreenenter"",""0"",""21711""
","
","
","""event"",""trial"",""time""
""fullscreenenter"",""0"",""21711""
","
","1571.699999988079","","","","","","","","54","","","","314","probe-86","","","","","1","[object Object]","31","0","1","","","",""
"","html-keyboard-response","190","657181","0.0-103.0-1.0","""event"",""trial"",""time""
""fullscreenenter"",""0"",""21711""
","
","
","""event"",""trial"",""time""
""fullscreenenter"",""0"",""21711""
","
","null","<p></p>","null","","","","","","","","","","","","","","","","","","","","","","","",""
"","do_trial","191","660818","0.0-104.0-0.0","""event"",""trial"",""time""
""fullscreenenter"",""0"",""21711""
","
","
","""event"",""trial"",""time""
""fullscreenenter"",""0"",""21711""
","
","1082.800000011921","","","","","","","","49","0,0,0","6","blank","315","null","0.30628266534453635","0.5255757126082505","0.08252714024608332","0","","","","","","","","",""
"","html-keyboard-response","192","661826","0.0-104.0-1.0","""event"",""trial"",""time""
""fullscreenenter"",""0"",""21711""
","
","
","""event"",""trial"",""time""
""fullscreenenter"",""0"",""21711""
","
","null","<p></p>","null","","","","","","","","","","","","","","","","","","","","","","","",""
"","do_trial","193","664737","0.0-105.0-0.0","""event"",""trial"",""time""
""fullscreenenter"",""0"",""21711""
","
","
","""event"",""trial"",""time""
""fullscreenenter"",""0"",""21711""
","
","350.80000001192093","","","","","","","","50","0,1,0","6","blank","316","null","0.29537593939941525","0.6394562390878389","0.12956007447071474","1","","","","","","","","",""
"","html-keyboard-response","194","665742","0.0-105.0-1.0","""event"",""trial"",""time""
""fullscreenenter"",""0"",""21711""
","
","
","""event"",""trial"",""time""
""fullscreenenter"",""0"",""21711""
","
","null","<p></p>","null","","","","","","","","","","","","","","","","","","","","","","","",""
"","do_trial","195","668621","0.0-106.0-0.0","""event"",""trial"",""time""
""fullscreenenter"",""0"",""21711""
","
","
","""event"",""trial"",""time""
""fullscreenenter"",""0"",""21711""
","
","325.19999998807907","","","","","","","","50","0,0,0","6","blank","317","null","0.45023108832432335","0.5014402298811167","0.1367046856148379","0","","","","","","","","",""
"","html-keyboard-response","196","669628","0.0-106.0-1.0","""event"",""trial"",""time""
""fullscreenenter"",""0"",""21711""
","
","
","""event"",""trial"",""time""
""fullscreenenter"",""0"",""21711""
","
","null","<p></p>","null","","","","","","","","","","","","","","","","","","","","","","","",""
"","do_trial","197","672642","0.0-107.0-0.0","""event"",""trial"",""time""
""fullscreenenter"",""0"",""21711""
","
","
","""event"",""trial"",""time""
""fullscreenenter"",""0"",""21711""
","
","459.5","","","","","","","","50","0,1,0","6","blank","318","null","0.3668996987894571","0.5941693665351089","0.09179105479604033","1","","","","","","","","",""
"","html-keyboard-response","198","673650","0.0-107.0-1.0","""event"",""trial"",""time""
""fullscreenenter"",""0"",""21711""
","
","
","""event"",""trial"",""time""
""fullscreenenter"",""0"",""21711""
","
","null","<p></p>","null","","","","","","","","","","","","","","","","","","","","","","","",""
"","do_trial","199","677137","0.0-108.0-0.0","""event"",""trial"",""time""
""fullscreenenter"",""0"",""21711""
","
","
","""event"",""trial"",""time""
""fullscreenenter"",""0"",""21711""
","
","936.8000000119209","","","","","","","","50","0,1,0","6","blank","319","null","0.4429757090527964","0.583361283024961","0.11579147214699165","1","","","","","","","","",""
"","html-keyboard-response","200","678143","0.0-108.0-1.0","""event"",""trial"",""time""
""fullscreenenter"",""0"",""21711""
","
","
","""event"",""trial"",""time""
""fullscreenenter"",""0"",""21711""
","
","null","<p></p>","null","","","","","","","","","","","","","","","","","","","","","","","",""
"","do_trial","201","681013","0.0-109.0-0.0","""event"",""trial"",""time""
""fullscreenenter"",""0"",""21711""
","
","
","""event"",""trial"",""time""
""fullscreenenter"",""0"",""21711""
","
","312.30000001192093","","","","","","","","50","0,1,0","6","blank","320","null","0.37527142019966725","0.5529291078702593","0.11591755865852481","1","","","","","","","","",""
"","html-keyboard-response","202","682017","0.0-109.0-1.0","""event"",""trial"",""time""
""fullscreenenter"",""0"",""21711""
","
","
","""event"",""trial"",""time""
""fullscreenenter"",""0"",""21711""
","
","null","<p></p>","null","","","","","","","","","","","","","","","","","","","","","","","",""
"","do_recog","203","685758","0.0-110.0-0.0","""event"",""trial"",""time""
""fullscreenenter"",""0"",""21711""
","
","
","""event"",""trial"",""time""
""fullscreenenter"",""0"",""21711""
","
","2228","","","","","","","","55","","","","321","probe-25","","","","","1","[object Object]","195","4","0","","","",""
"","html-keyboard-response","204","686764","0.0-110.0-1.0","""event"",""trial"",""time""
""fullscreenenter"",""0"",""21711""
","
","
","""event"",""trial"",""time""
""fullscreenenter"",""0"",""21711""
","
","null","<p></p>","null","","","","","","","","","","","","","","","","","","","","","","","",""
"","do_trial","205","690006","0.0-111.0-0.0","""event"",""trial"",""time""
""fullscreenenter"",""0"",""21711""
","
","
","""event"",""trial"",""time""
""fullscreenenter"",""0"",""21711""
","
","687.6999999880791","","","","","","","","50","0,1,0","6","blank","322","null","0.2673566562653866","0.6327532606896079","0.09685311483980198","1","","","","","","","","",""
"","html-keyboard-response","206","691014","0.0-111.0-1.0","""event"",""trial"",""time""
""fullscreenenter"",""0"",""21711""
","
","
","""event"",""trial"",""time""
""fullscreenenter"",""0"",""21711""
","
","null","<p></p>","null","","","","","","","","","","","","","","","","","","","","","","","",""
"","do_trial","207","695089","0.0-112.0-0.0","""event"",""trial"",""time""
""fullscreenenter"",""0"",""21711""
","
","
","""event"",""trial"",""time""
""fullscreenenter"",""0"",""21711""
","
","1522.8999999761581","","","","","","","","50","0,0,0","6","blank","323","null","0.2903457799903285","0.5437851112349553","0.09487145420955649","0","","","","","","","","",""
"","html-keyboard-response","208","696096","0.0-112.0-1.0","""event"",""trial"",""time""
""fullscreenenter"",""0"",""21711""
","
","
","""event"",""trial"",""time""
""fullscreenenter"",""0"",""21711""
","
","null","<p></p>","null","","","","","","","","","","","","","","","","","","","","","","","",""
"","do_trial","209","698986","0.0-113.0-0.0","""event"",""trial"",""time""
""fullscreenenter"",""0"",""21711""
","
","
","""event"",""trial"",""time""
""fullscreenenter"",""0"",""21711""
","
","331.89999997615814","","","","","","","","50","1,0,0","6","blank","324","null","0.3753585910170344","0.6172591392350749","0.05432229736359217","0","","","","","","","","",""
"","html-keyboard-response","210","699990","0.0-113.0-1.0","""event"",""trial"",""time""
""fullscreenenter"",""0"",""21711""
","
","
","""event"",""trial"",""time""
""fullscreenenter"",""0"",""21711""
","
","null","<p></p>","null","","","","","","","","","","","","","","","","","","","","","","","",""
"","do_trial","211","702939","0.0-114.0-0.0","""event"",""trial"",""time""
""fullscreenenter"",""0"",""21711""
","
","
","""event"",""trial"",""time""
""fullscreenenter"",""0"",""21711""
","
","394.80000001192093","","","","","","","","51","0,1,0","6","blank","325","null","0.4630774429135501","0.5840903263361288","0.056027745215033675","0","","","","","","","","",""
"","html-keyboard-response","212","703946","0.0-114.0-1.0","""event"",""trial"",""time""
""fullscreenenter"",""0"",""21711""
","
","
","""event"",""trial"",""time""
""fullscreenenter"",""0"",""21711""
","
","null","<p></p>","null","","","","","","","","","","","","","","","","","","","","","","","",""
"","do_trial","213","706795","0.0-115.0-0.0","""event"",""trial"",""time""
""fullscreenenter"",""0"",""21711""
","
","
","""event"",""trial"",""time""
""fullscreenenter"",""0"",""21711""
","
","294.10000002384186","","","","","","","","50","1,1,0","6","blank","326","null","0.3640562067196318","0.584828609000847","0.1377172816685853","1","","","","","","","","",""
"","html-keyboard-response","214","707803","0.0-115.0-1.0","""event"",""trial"",""time""
""fullscreenenter"",""0"",""21711""
","
","
","""event"",""trial"",""time""
""fullscreenenter"",""0"",""21711""
","
","null","<p></p>","null","","","","","","","","","","","","","","","","","","","","","","","",""
"","do_trial","215","710896","0.0-116.0-0.0","""event"",""trial"",""time""
""fullscreenenter"",""0"",""21711""
","
","
","""event"",""trial"",""time""
""fullscreenenter"",""0"",""21711""
","
","541.3000000119209","","","","","","","","50","1,0,0","6","blank","327","null","0.32770329599391057","0.6624550463230954","0.1524943820642654","0","","","","","","","","",""
"","html-keyboard-response","216","711904","0.0-116.0-1.0","""event"",""trial"",""time""
""fullscreenenter"",""0"",""21711""
","
","
","""event"",""trial"",""time""
""fullscreenenter"",""0"",""21711""
","
","null","<p></p>","null","","","","","","","","","","","","","","","","","","","","","","","",""
"","do_recog","217","715760","0.0-117.0-0.0","""event"",""trial"",""time""
""fullscreenenter"",""0"",""21711""
","
","
","""event"",""trial"",""time""
""fullscreenenter"",""0"",""21711""
","
","2344.100000023842","","","","","","","","54","","","","328","probe-138","","","","","1","[object Object]","156","3","1","","","",""
"","html-keyboard-response","218","716762","0.0-117.0-1.0","""event"",""trial"",""time""
""fullscreenenter"",""0"",""21711""
","
","
","""event"",""trial"",""time""
""fullscreenenter"",""0"",""21711""
","
","null","<p></p>","null","","","","","","","","","","","","","","","","","","","","","","","",""
"","do_trial","219","720127","0.0-118.0-0.0","""event"",""trial"",""time""
""fullscreenenter"",""0"",""21711""
","
","
","""event"",""trial"",""time""
""fullscreenenter"",""0"",""21711""
","
","813.0999999642372","","","","","","","","50","1,1,0","6","blank","329","null","0.4341570510737142","0.6716463444761982","0.08111544797917204","1","","","","","","","","",""
"","html-keyboard-response","220","721135","0.0-118.0-1.0","""event"",""trial"",""time""
""fullscreenenter"",""0"",""21711""
","
","
","""event"",""trial"",""time""
""fullscreenenter"",""0"",""21711""
","
","null","<p></p>","null","","","","","","","","","","","","","","","","","","","","","","","",""
"","do_trial","221","724213","0.0-119.0-0.0","""event"",""trial"",""time""
""fullscreenenter"",""0"",""21711""
","
","
","""event"",""trial"",""time""
""fullscreenenter"",""0"",""21711""
","
","522","","","","","","","","50","1,1,0","6","blank","330","null","0.41953390387368644","0.6953037106662309","0.14615939301825753","1","","","","","","","","",""
"","html-keyboard-response","222","725220","0.0-119.0-1.0","""event"",""trial"",""time""
""fullscreenenter"",""0"",""21711""
","
","
","""event"",""trial"",""time""
""fullscreenenter"",""0"",""21711""
","
","null","<p></p>","null","","","","","","","","","","","","","","","","","","","","","","","",""
"","do_trial","223","728683","0.0-120.0-0.0","""event"",""trial"",""time""
""fullscreenenter"",""0"",""21711""
","
","
","""event"",""trial"",""time""
""fullscreenenter"",""0"",""21711""
","
","908.6000000238419","","","","","","","","50","0,1,0","6","blank","331","null","0.4110145593959274","0.7765184838212897","0.15418466932687694","1","","","","","","","","",""
"","html-keyboard-response","224","729683","0.0-120.0-1.0","""event"",""trial"",""time""
""fullscreenenter"",""0"",""21711""
","
","
","""event"",""trial"",""time""
""fullscreenenter"",""0"",""21711""
","
","null","<p></p>","null","","","","","","","","","","","","","","","","","","","","","","","",""
"","do_trial","225","732506","0.0-121.0-0.0","""event"",""trial"",""time""
""fullscreenenter"",""0"",""21711""
","
","
","""event"",""trial"",""time""
""fullscreenenter"",""0"",""21711""
","
","297.80000001192093","","","","","","","","50","1,1,0","6","blank","332","null","0.4159599330188082","0.6822372436061181","0.09206977609374435","1","","","","","","","","",""
"","html-keyboard-response","226","733513","0.0-121.0-1.0","""event"",""trial"",""time""
""fullscreenenter"",""0"",""21711""
","
","
","""event"",""trial"",""time""
""fullscreenenter"",""0"",""21711""
","
","null","<p></p>","null","","","","","","","","","","","","","","","","","","","","","","","",""
"","do_trial","227","736372","0.0-122.0-0.0","""event"",""trial"",""time""
""fullscreenenter"",""0"",""21711""
","
","
","""event"",""trial"",""time""
""fullscreenenter"",""0"",""21711""
","
","303","","","","","","","","50","0,1,0","6","blank","333","null","0.2749641894444488","0.6901285140249094","0.07509838812848295","1","","","","","","","","",""
"","html-keyboard-response","228","737380","0.0-122.0-1.0","""event"",""trial"",""time""
""fullscreenenter"",""0"",""21711""
","
","
","""event"",""trial"",""time""
""fullscreenenter"",""0"",""21711""
","
","null","<p></p>","null","","","","","","","","","","","","","","","","","","","","","","","",""
"","do_trial","229","740964","0.0-123.0-0.0","""event"",""trial"",""time""
""fullscreenenter"",""0"",""21711""
","
","
","""event"",""trial"",""time""
""fullscreenenter"",""0"",""21711""
","
","1028.5","","","","","","","","50","0,1,0","6","blank","334","null","0.36674095628891534","0.6375095338208315","0.05021147747027804","1","","","","","","","","",""
"","html-keyboard-response","230","741972","0.0-123.0-1.0","""event"",""trial"",""time""
""fullscreenenter"",""0"",""21711""
","
","
","""event"",""trial"",""time""
""fullscreenenter"",""0"",""21711""
","
","null","<p></p>","null","","","","","","","","","","","","","","","","","","","","","","","",""
"","do_recog","231","745439","0.0-124.0-0.0","""event"",""trial"",""time""
""fullscreenenter"",""0"",""21711""
","
","
","""event"",""trial"",""time""
""fullscreenenter"",""0"",""21711""
","
","1952.7999999523163","","","","","","","","55","","","","335","probe-196","","","","","1","[object Object]","193","4","0","","","",""
"","html-keyboard-response","232","746446","0.0-124.0-1.0","""event"",""trial"",""time""
""fullscreenenter"",""0"",""21711""
","
","
","""event"",""trial"",""time""
""fullscreenenter"",""0"",""21711""
","
","null","<p></p>","null","","","","","","","","","","","","","","","","","","","","","","","",""
"","do_trial","233","749336","0.0-125.0-0.0","""event"",""trial"",""time""
""fullscreenenter"",""0"",""21711""
","
","
","""event"",""trial"",""time""
""fullscreenenter"",""0"",""21711""
","
","336.10000002384186","","","","","","","","50","1,1,0","6","blank","336","null","0.4584027292447766","0.6186122699844893","0.09166826217279883","1","","","","","","","","",""
"","html-keyboard-response","234","750344","0.0-125.0-1.0","""event"",""trial"",""time""
""fullscreenenter"",""0"",""21711""
","
","
","""event"",""trial"",""time""
""fullscreenenter"",""0"",""21711""
","
","null","<p></p>","null","","","","","","","","","","","","","","","","","","","","","","","",""
"","do_trial","235","753182","0.0-126.0-0.0","""event"",""trial"",""time""
""fullscreenenter"",""0"",""21711""
","
","
","""event"",""trial"",""time""
""fullscreenenter"",""0"",""21711""
","
","291.9000000357628","","","","","","","","50","0,1,0","6","blank","337","null","0.45280319949031256","0.6532680136345214","0.13317227425967987","1","","","","","","","","",""
"","html-keyboard-response","236","754190","0.0-126.0-1.0","""event"",""trial"",""time""
""fullscreenenter"",""0"",""21711""
","
","
","""event"",""trial"",""time""
""fullscreenenter"",""0"",""21711""
","
","null","<p></p>","null","","","","","","","","","","","","","","","","","","","","","","","",""
"","do_trial","237","757144","0.0-127.0-0.0","""event"",""trial"",""time""
""fullscreenenter"",""0"",""21711""
","
","
","""event"",""trial"",""time""
""fullscreenenter"",""0"",""21711""
","
","399","","","","","","","","50","1,0,0","6","blank","338","null","0.34664853672105606","0.6448057970932112","0.12518039913049264","0","","","","","","","","",""
"","html-keyboard-response","238","758147","0.0-127.0-1.0","""event"",""trial"",""time""
""fullscreenenter"",""0"",""21711""
","
","
","""event"",""trial"",""time""
""fullscreenenter"",""0"",""21711""
","
","null","<p></p>","null","","","","","","","","","","","","","","","","","","","","","","","",""
"","do_trial","239","760932","0.0-128.0-0.0","""event"",""trial"",""time""
""fullscreenenter"",""0"",""21711""
","
","
","""event"",""trial"",""time""
""fullscreenenter"",""0"",""21711""
","
","229.30000001192093","","","","","","","","50","0,0,0","6","blank","339","null","0.12282472301227525","0.538143722547666","0.056370818194639474","0","","","","","","","","",""
"","html-keyboard-response","240","761939","0.0-128.0-1.0","""event"",""trial"",""time""
""fullscreenenter"",""0"",""21711""
","
","
","""event"",""trial"",""time""
""fullscreenenter"",""0"",""21711""
","
","null","<p></p>","null","","","","","","","","","","","","","","","","","","","","","","","",""
"","do_recog","241","765751","0.0-129.0-0.0","""event"",""trial"",""time""
""fullscreenenter"",""0"",""21711""
","
","
","""event"",""trial"",""time""
""fullscreenenter"",""0"",""21711""
","
","2300.2000000476837","","","","","","","","54","","","","340","probe-75","","","","","1","[object Object]","158","3","1","","","",""
"","html-keyboard-response","242","766756","0.0-129.0-1.0","""event"",""trial"",""time""
""fullscreenenter"",""0"",""21711""
","
","
","""event"",""trial"",""time""
""fullscreenenter"",""0"",""21711""
","
","null","<p></p>","null","","","","","","","","","","","","","","","","","","","","","","","",""
"","do_trial","243","769800","0.0-130.0-0.0","""event"",""trial"",""time""
""fullscreenenter"",""0"",""21711""
","
","
","""event"",""trial"",""time""
""fullscreenenter"",""0"",""21711""
","
","485.2000000476837","","","","","","","","51","0,1,0","6","blank","341","null","0.23156070106651927","0.5552509085068755","0.10086388165842866","0","","","","","","","","",""
"","html-keyboard-response","244","770807","0.0-130.0-1.0","""event"",""trial"",""time""
""fullscreenenter"",""0"",""21711""
","
","
","""event"",""trial"",""time""
""fullscreenenter"",""0"",""21711""
","
","null","<p></p>","null","","","","","","","","","","","","","","","","","","","","","","","",""
"","do_trial","245","773639","0.0-131.0-0.0","""event"",""trial"",""time""
""fullscreenenter"",""0"",""21711""
","
","
","""event"",""trial"",""time""
""fullscreenenter"",""0"",""21711""
","
","300.7000000476837","","","","","","","","49","1,0,0","6","blank","342","null","0.17322927860951837","0.47057499552534443","0.07516891237410213","1","","","","","","","","",""
"","html-keyboard-response","246","774642","0.0-131.0-1.0","""event"",""trial"",""time""
""fullscreenenter"",""0"",""21711""
","
","
","""event"",""trial"",""time""
""fullscreenenter"",""0"",""21711""
","
","null","<p></p>","null","","","","","","","","","","","","","","","","","","","","","","","",""
"","do_trial","247","777473","0.0-132.0-0.0","""event"",""trial"",""time""
""fullscreenenter"",""0"",""21711""
","
","
","""event"",""trial"",""time""
""fullscreenenter"",""0"",""21711""
","
","274.69999998807907","","","","","","","","49","0,1,0","6","blank","343","null","0.3883471975577511","0.4428600371873308","0.11110377492403949","0","","","","","","","","",""
"","html-keyboard-response","248","778479","0.0-132.0-1.0","""event"",""trial"",""time""
""fullscreenenter"",""0"",""21711""
","
","
","""event"",""trial"",""time""
""fullscreenenter"",""0"",""21711""
","
","null","<p></p>","null","","","","","","","","","","","","","","","","","","","","","","","",""
"","do_trial","249","781276","0.0-133.0-0.0","""event"",""trial"",""time""
""fullscreenenter"",""0"",""21711""
","
","
","""event"",""trial"",""time""
""fullscreenenter"",""0"",""21711""
","
","262.2999999523163","","","","","","","","50","1,1,0","6","blank","344","null","0.32256498181537296","0.5230072870602301","0.300460227484136","1","","","","","","","","",""
"","html-keyboard-response","250","782284","0.0-133.0-1.0","""event"",""trial"",""time""
""fullscreenenter"",""0"",""21711""
","
","
","""event"",""trial"",""time""
""fullscreenenter"",""0"",""21711""
","
","null","<p></p>","null","","","","","","","","","","","","","","","","","","","","","","","",""
"","do_trial","251","785457","0.0-134.0-0.0","""event"",""trial"",""time""
""fullscreenenter"",""0"",""21711""
","
","
","""event"",""trial"",""time""
""fullscreenenter"",""0"",""21711""
","
","614.4000000357628","","","","","","","","50","0,1,1","6","blank","345","null","0.37378003390061965","0.5331996945380619","0.4641552265991613","1","","","","","","","","",""
"","html-keyboard-response","252","786460","0.0-134.0-1.0","""event"",""trial"",""time""
""fullscreenenter"",""0"",""21711""
","
","
","""event"",""trial"",""time""
""fullscreenenter"",""0"",""21711""
","
","null","<p></p>","null","","","","","","","","","","","","","","","","","","","","","","","",""
"","do_trial","253","789702","0.0-135.0-0.0","""event"",""trial"",""time""
""fullscreenenter"",""0"",""21711""
","
","
","""event"",""trial"",""time""
""fullscreenenter"",""0"",""21711""
","
","689.3999999761581","","","","","","","","50","0,0,0","6","blank","346","null","0.3550285233818656","0.5238912099727743","0.3200243479540379","0","","","","","","","","",""
"","html-keyboard-response","254","790708","0.0-135.0-1.0","""event"",""trial"",""time""
""fullscreenenter"",""0"",""21711""
","
","
","""event"",""trial"",""time""
""fullscreenenter"",""0"",""21711""
","
","null","<p></p>","null","","","","","","","","","","","","","","","","","","","","","","","",""
"","do_recog","255","794130","0.0-136.0-0.0","""event"",""trial"",""time""
""fullscreenenter"",""0"",""21711""
","
","
","""event"",""trial"",""time""
""fullscreenenter"",""0"",""21711""
","
","1910.6000000238419","","","","","","","","55","","","","347","probe-132","","","","","1","[object Object]","36","0","0","","","",""
"","html-keyboard-response","256","795137","0.0-136.0-1.0","""event"",""trial"",""time""
""fullscreenenter"",""0"",""21711""
","
","
","""event"",""trial"",""time""
""fullscreenenter"",""0"",""21711""
","
","null","<p></p>","null","","","","","","","","","","","","","","","","","","","","","","","",""
"","do_trial","257","798300","0.0-137.0-0.0","""event"",""trial"",""time""
""fullscreenenter"",""0"",""21711""
","
","
","""event"",""trial"",""time""
""fullscreenenter"",""0"",""21711""
","
","606.4000000357628","","","","","","","","50","1,0,0","6","blank","348","null","0.4001641455063617","0.19590884824040505","0.3586897788513052","0","","","","","","","","",""
"","html-keyboard-response","258","799308","0.0-137.0-1.0","""event"",""trial"",""time""
""fullscreenenter"",""0"",""21711""
","
","
","""event"",""trial"",""time""
""fullscreenenter"",""0"",""21711""
","
","null","<p></p>","null","","","","","","","","","","","","","","","","","","","","","","","",""
"","break","259","800813","0.0-138.0-0.0","""event"",""trial"",""time""
""fullscreenenter"",""0"",""21711""
","
","
","""event"",""trial"",""time""
""fullscreenenter"",""0"",""21711""
","
","1503.699999988079","<div class='center'><p>Time to take a quick break! You have 2 minutes to rest, but you can move on sooner if you'd like.</p><p> Press the <b>space bar</b> to continue.</p></div>","32","","","","","","","","","","","","","","","","","","","","","","","",""
"","do_recog","260","804843","0.0-138.0-1.0","""event"",""trial"",""time""
""fullscreenenter"",""0"",""21711""
","
","
","""event"",""trial"",""time""
""fullscreenenter"",""0"",""21711""
","
","2523.5","","","","","","","","54","","","","349","probe-195","","","","","1","[object Object]","78","1","1","","","",""
"","html-keyboard-response","261","805845","0.0-138.0-2.0","""event"",""trial"",""time""
""fullscreenenter"",""0"",""21711""
","
","
","""event"",""trial"",""time""
""fullscreenenter"",""0"",""21711""
","
","null","<p></p>","null","","","","","","","","","","","","","","","","","","","","","","","",""
"","do_trial","262","809226","0.0-139.0-0.0","""event"",""trial"",""time""
""fullscreenenter"",""0"",""21711""
","
","
","""event"",""trial"",""time""
""fullscreenenter"",""0"",""21711""
","
","847.3999999761581","","","","","","","","50","1,1,1","6","blank","350","null","0.4907556868019124","0.08197714331390923","0.20513984176028338","1","","","","","","","","",""
"","html-keyboard-response","263","810231","0.0-139.0-1.0","""event"",""trial"",""time""
""fullscreenenter"",""0"",""21711""
","
","
","""event"",""trial"",""time""
""fullscreenenter"",""0"",""21711""
","
","null","<p></p>","null","","","","","","","","","","","","","","","","","","","","","","","",""
"","do_trial","264","813141","0.0-140.0-0.0","""event"",""trial"",""time""
""fullscreenenter"",""0"",""21711""
","
","
","""event"",""trial"",""time""
""fullscreenenter"",""0"",""21711""
","
","356.30000001192093","","","","","","","","50","1,0,0","6","blank","351","null","0.5793017701529748","0.07926854878622275","0.20422879221637977","0","","","","","","","","",""
"","html-keyboard-response","265","814144","0.0-140.0-1.0","""event"",""trial"",""time""
""fullscreenenter"",""0"",""21711""
","
","
","""event"",""trial"",""time""
""fullscreenenter"",""0"",""21711""
","
","null","<p></p>","null","","","","","","","","","","","","","","","","","","","","","","","",""
"","do_recog","266","817632","0.0-141.0-0.0","""event"",""trial"",""time""
""fullscreenenter"",""0"",""21711""
","
","
","""event"",""trial"",""time""
""fullscreenenter"",""0"",""21711""
","
","1978.199999988079","","","","","","","","53","","","","352","probe-159","","","","","1","[object Object]","117","2","1","","","",""
"","html-keyboard-response","267","818637","0.0-141.0-1.0","""event"",""trial"",""time""
""fullscreenenter"",""0"",""21711""
","
","
","""event"",""trial"",""time""
""fullscreenenter"",""0"",""21711""
","
","null","<p></p>","null","","","","","","","","","","","","","","","","","","","","","","","",""
"","do_trial","268","821525","0.0-142.0-0.0","""event"",""trial"",""time""
""fullscreenenter"",""0"",""21711""
","
","
","""event"",""trial"",""time""
""fullscreenenter"",""0"",""21711""
","
","358.60000002384186","","","","","","","","50","1,0,0","6","blank","353","null","0.47634022933581954","0.07778594453633632","0.2916077757436647","0","","","","","","","","",""
"","html-keyboard-response","269","822532","0.0-142.0-1.0","""event"",""trial"",""time""
""fullscreenenter"",""0"",""21711""
","
","
","""event"",""trial"",""time""
""fullscreenenter"",""0"",""21711""
","
","null","<p></p>","null","","","","","","","","","","","","","","","","","","","","","","","",""
"","do_recog","270","826018","0.0-143.0-0.0","""event"",""trial"",""time""
""fullscreenenter"",""0"",""21711""
","
","
","""event"",""trial"",""time""
""fullscreenenter"",""0"",""21711""
","
","1977.5","","","","","","","","55","","","","354","probe-204","","","","","1","[object Object]","119","2","0","","","",""
"","html-keyboard-response","271","827023","0.0-143.0-1.0","""event"",""trial"",""time""
""fullscreenenter"",""0"",""21711""
","
","
","""event"",""trial"",""time""
""fullscreenenter"",""0"",""21711""
","
","null","<p></p>","null","","","","","","","","","","","","","","","","","","","","","","","",""
"","do_trial","272","829930","0.0-144.0-0.0","""event"",""trial"",""time""
""fullscreenenter"",""0"",""21711""
","
","
","""event"",""trial"",""time""
""fullscreenenter"",""0"",""21711""
","
","374.39999997615814","","","","","","","","50","0,0,1","6","blank","355","null","0.46183151448783205","0.05651400430315794","0.43548589799935294","0","","","","","","","","",""
"","html-keyboard-response","273","830938","0.0-144.0-1.0","""event"",""trial"",""time""
""fullscreenenter"",""0"",""21711""
","
","
","""event"",""trial"",""time""
""fullscreenenter"",""0"",""21711""
","
","null","<p></p>","null","","","","","","","","","","","","","","","","","","","","","","","",""
"","do_recog","274","834549","0.0-145.0-0.0","""event"",""trial"",""time""
""fullscreenenter"",""0"",""21711""
","
","
","""event"",""trial"",""time""
""fullscreenenter"",""0"",""21711""
","
","2100","","","","","","","","53","","","","356","probe-46","","","","","1","[object Object]","153","3","1","","","",""
"","html-keyboard-response","275","835556","0.0-145.0-1.0","""event"",""trial"",""time""
""fullscreenenter"",""0"",""21711""
","
","
","""event"",""trial"",""time""
""fullscreenenter"",""0"",""21711""
","
","null","<p></p>","null","","","","","","","","","","","","","","","","","","","","","","","",""
"","do_trial","276","838396","0.0-146.0-0.0","""event"",""trial"",""time""
""fullscreenenter"",""0"",""21711""
","
","
","""event"",""trial"",""time""
