"success","trial_type","trial_index","time_elapsed","internal_node_id","rt","stimulus","key_press","subject_id","participant_id","age","gender","prompt","response","choice_outcomes","context_n","context_img_id","trial_n","probe_img_id","pR_red","pR_white","pR_black","outcome","is_valid","image_to_show","probed_trial","probed_context","correct","probe","probed_trial_n","probed_context_n"
"true","fullscreen","0","4311","0.0-0.0","","","","","","","","","","","","","","","","","","","","","","","","","",""
"","pavlovia","1","4317","0.0-1.0","","","","","","","","","","","","","","","","","","","","","","","","","",""
"","welc_back","2","16980","0.0-2.0","null","run_exp/static/audio/clip_29_welcome_back.m4a","null","162","749","12","Female","<div class='center'><p>Welcome to day 2!</p><p> Yesterday, you were the head captain of a pirate ship. You and your fellow pirates robbed ships for their gold and traveled to six different islands .</p></div>","","","","","","","","","","","","","","","","","",""
"","html-keyboard-response","3","17472","0.0-3.0","489.30000001192093","<div class='center'><p>Welcome to day 2!</p><p> Yesterday, you were the head captain of a pirate ship. You and your fellow pirates robbed ships for their gold and traveled to six different islands .</p><p><b>[Press the space bar to continue]</b></p></div>","32","","","","","","","","","","","","","","","","","","","","","","",""
"","day_1_summary_goal","4","37440","0.0-4.0","null","run_exp/static/audio/clip_30_goal_of_game.m4a","null","","","","","<div class='center'><p>Today, like yesterday, you get to pick which pirate you want to rob the next ship.</p><p>If the pirate is successful in robbing a ship, you get gold coins that look like this: </p><p><img src='run_exp/static/images/tutorial/reward.png' height='150'></p><p> If they were not successful in robbing the ship, then you will get no gold coins and you'll see a big red x like this: </p><p><img src='run_exp/static/images/tutorial/reward_no.png' height='150'></p></div>","","","","","","","","","","","","","","","","","",""
"","html-keyboard-response","5","38190","0.0-5.0","748.1999999880791","<div class='center'><p>Today, like yesterday, you get to pick which pirate you want to rob the next ship.</p><p>If the pirate is successful in robbing a ship, you get gold coins that look like this: </p><p><img src='run_exp/static/images/tutorial/reward.png' height='150'></p><p> If they were not successful in robbing the ship, then you will get no gold coins and you'll see a big red x like this: </p><p><img src='run_exp/static/images/tutorial/reward_no.png' height='150'></p><p><b>[Press the space bar to continue]</b></p></div>","32","","","","","","","","","","","","","","","","","","","","","","",""
"","day_1_summary_pick","6","56019","0.0-6.0","null","run_exp/static/audio/clip_31_how_to_pick_a_pirate.m4a","null","","","","","<div class='center'><p>Also, just like yesterday, you will use the 1,2,3 keys on your keyboard to pick a pirate. Press '1' to choose red beard, '2' to choose white beard, and '3' to choose black beard . You only have 3 seconds to pick a pirate, so please make a choice quickly!</p></div>","","","","","","","","","","","","","","","","","",""
"","html-keyboard-response","7","62450","0.0-7.0","6429.700000047684","<div class='center'><p>Also, just like yesterday, you will use the 1,2,3 keys on your keyboard to pick a pirate. Press '1' to choose red beard, '2' to choose white beard, and '3' to choose black beard . You only have 3 seconds to pick a pirate, so please make a choice quickly!</p><p><b>[Press the space bar to continue]</b></p></div>","32","","","","","","","","","","","","","","","","","","","","","","",""
"","test_phase_begin","8","95738","0.0-8.0","null","run_exp/static/audio/clip_32_final_place.m4a","null","","","","","<div class='center'><p>You’ve arrived at the final island of your journey! Unfortunately, it’s very foggy out, so you won’t be able to see it in the distance like the other islands you've visited.</p><p>You’ll still be deciding which pirate you want to rob a ship like before. However, because of the fog, you also won’t be able to see the ship.</p><p>This means you do not have to remember the ships you rob on this island.</p><p>Unlike yesterday, you won't be visiting multiple islands today. You will stay on this island for the entire game. This game will last ~30 minutes.</p></div>","","","","","","","","","","","","","","","","","",""
"","html-keyboard-response","9","96669","0.0-9.0","929.6000000238419","<div class='center'><p>You’ve arrived at the final island of your journey! Unfortunately, it’s very foggy out, so you won’t be able to see it in the distance like the other islands you've visited.</p><p>You’ll still be deciding which pirate you want to rob a ship like before. However, because of the fog, you also won’t be able to see the ship.</p><p>This means you do not have to remember the ships you rob on this island.</p><p>Unlike yesterday, you won't be visiting multiple islands today. You will stay on this island for the entire game. This game will last ~30 minutes.</p><p><b>[Press the space bar to continue]</b></p></div>","32","","","","","","","","","","","","","","","","","","","","","","",""
"","explain_probe_1","10","106098","0.0-10.0","null","run_exp/static/audio/clip_33_recognition_1.m4a","null","","","","","<div class='center'><p> Sometimes you’ll be shown a ship, and you will be asked if you saw this ship on a past island.</p><p> Here is an example of what you will see.</p><p><img src='run_exp/static/images/tutorial/example_recog_trial.png' height='500'></p></div>","","","","","","","","","","","","","","","","","",""
"","html-keyboard-response","11","108884","0.0-11.0","2784.300000011921","<div class='center'><p> Sometimes you’ll be shown a ship, and you will be asked if you saw this ship on a past island.</p><p> Here is an example of what you will see.</p><p><img src='run_exp/static/images/tutorial/example_recog_trial.png' height='500'></p><p><b>[Press the space bar to continue]</b></p></div>","32","","","","","","","","","","","","","","","","","","","","","","",""
"","explain_probe_2","12","135718","0.0-12.0","null","run_exp/static/audio/clip_34_recognition_2.m4a","null","","","","","<div class='center'><p> You will press the 5, 6, 7, 8 keys on your keyboard to respond.</p><p>If you are very sure saw the ship, press <b>5</b> on your keyboard.</p><p> If you think you  saw it before but are not sure, then press <b>6</b>.</p><p> If you think you have <b>not</b> seen it before but are not sure, then press <b>7</b>.</p><p> If you are sure you did <b>not</b> see the ship before, then press <b>8</b>.</p><p><img src='run_exp/static/images/tutorial/example_recog_trial.png' height='500'></p></div>","","","","","","","","","","","","","","","","","",""
"","html-keyboard-response","13","137725","0.0-13.0","2005.300000011921","<div class='center'><p> You will press the 5, 6, 7, 8 keys on your keyboard to respond.</p><p>If you are very sure saw the ship, press <b>5</b> on your keyboard.</p><p> If you think you  saw it before but are not sure, then press <b>6</b>.</p><p> If you think you have <b>not</b> seen it before but are not sure, then press <b>7</b>.</p><p> If you are sure you did <b>not</b> see the ship before, then press <b>8</b>.</p><p><img src='run_exp/static/images/tutorial/example_recog_trial.png' height='500'></p><p><b>[Press the space bar to continue]</b></p></div>","32","","","","","","","","","","","","","","","","","","","","","","",""
"","explain_outcome","14","159280","0.0-14.0","null","run_exp/static/audio/clip_35_recognition_3.m4a","null","","","","","<div class='center'><p> If you remember correctly, then you’ll get a gold coin like this: </p><p><img src='run_exp/static/images/tutorial/reward_small.png' height='200'></p><p>If you do not remember correctly, then you'll see a red x like this: </p><p><img src='run_exp/static/images/tutorial/reward_no.png' height='200'></p><p>Importantly, when you are shown a ship, take the time to remind yourself which island you saw it on. This will help you in the next part of the study.</p></div>","","","","","","","","","","","","","","","","","",""
"","html-keyboard-response","15","160316","0.0-15.0","1034.7000000476837","<div class='center'><p> If you remember correctly, then you’ll get a gold coin like this: </p><p><img src='run_exp/static/images/tutorial/reward_small.png' height='200'></p><p>If you do not remember correctly, then you'll see a red x like this: </p><p><img src='run_exp/static/images/tutorial/reward_no.png' height='200'></p><p>Importantly, when you are shown a ship, take the time to remind yourself which island you saw it on. This will help you in the next part of the study.</p><p><b>[Press the space bar to continue]</b></p></div>","32","","","","","","","","","","","","","","","","","","","","","","",""
"","begin_test_phase","16","184839","0.0-16.0","null","run_exp/static/audio/clip_36_begin_final.m4a","null","","","","","<div class='center'><p>Let's go over the important points again. Your job is to: </p><p>1. Pick the pirate who is best at robbing ships and will bring you back gold coins. </p><p>2. Correctly remember whether or not you saw a ship before. If you did see the ship before, remind yourself on which island you saw the ship. </p></div>","","","","","","","","","","","","","","","","","",""
"","html-keyboard-response","17","185968","0.0-17.0","1076.6000000238419","<div class='center'><p>Let's go over the important points again. Your job is to: </p><p>1. Pick the pirate who is best at robbing ships and will bring you back gold coins. </p><p>2. Correctly remember whether or not you saw a ship before. If you did see the ship before, remind yourself on which island you saw the ship. </p><p><b>[Press the space bar to continue]</b></p></div>","32","","","","","","","","","","","","","","","","","","","","","","",""
"","do_welcome","18","189979","0.0-18.0","null","","","","","","","","null","","","","","","","","","","","","","","","","",""
"","do_trial","19","194106","0.0-19.0-0.0","1570.5","","","","","","","","49","0,0,0","6","blank","230","null","0.7315445693007899","0.18499145587442428","0.20616918895456554","0","","","","","","","",""
"","html-keyboard-response","20","195114","0.0-19.0-1.0","null","<p></p>","null","","","","","","","","","","","","","","","","","","","","","","",""
"","do_trial","21","198600","0.0-20.0-0.0","941.1000000238419","","","","","","","","50","1,0,0","6","blank","231","null","0.7604955535982474","0.1070511850624","0.22302912246855308","0","","","","","","","",""
"","html-keyboard-response","22","199614","0.0-20.0-1.0","null","<p></p>","null","","","","","","","","","","","","","","","","","","","","","","",""
"","do_trial","23","202461","0.0-21.0-0.0","300.5999999642372","","","","","","","","51","0,0,0","6","blank","232","null","0.6373069446574141","0.11563249562302387","0.16986868796422402","0","","","","","","","",""
"","html-keyboard-response","24","203474","0.0-21.0-1.0","null","<p></p>","null","","","","","","","","","","","","","","","","","","","","","","",""
"","do_trial","25","206581","0.0-22.0-0.0","559.8999999761581","","","","","","","","49","0,1,0","6","blank","233","null","0.49512633221962576","0.13456543633394147","0.29652023425384644","0","","","","","","","",""
"","html-keyboard-response","26","207588","0.0-22.0-1.0","null","<p></p>","null","","","","","","","","","","","","","","","","","","","","","","",""
"","do_trial","27","210376","0.0-23.0-0.0","245.80000001192093","","","","","","","","50","1,0,1","6","blank","234","null","0.6526187015799733","0.25219742590021127","0.39726279124753106","0","","","","","","","",""
"","html-keyboard-response","28","211385","0.0-23.0-1.0","null","<p></p>","null","","","","","","","","","","","","","","","","","","","","","","",""
"","do_trial","29","214194","0.0-24.0-0.0","264.9000000357628","","","","","","","","51","1,0,1","6","blank","235","null","0.5883582371817825","0.30286758955200993","0.3623936951836686","1","","","","","","","",""
"","html-keyboard-response","30","215205","0.0-24.0-1.0","null","<p></p>","null","","","","","","","","","","","","","","","","","","","","","","",""
"","do_trial","31","218230","0.0-25.0-0.0","478.89999997615814","","","","","","","","51","1,0,0","6","blank","236","null","0.6572110184935752","0.4080169117020156","0.3182429826716138","0","","","","","","","",""
"","html-keyboard-response","32","219240","0.0-25.0-1.0","null","<p></p>","null","","","","","","","","","","","","","","","","","","","","","","",""
"","do_trial","33","222101","0.0-26.0-0.0","315.5","","","","","","","","49","1,0,1","6","blank","237","null","0.6071217163126987","0.06933694739968121","0.2783034152697053","1","","","","","","","",""
"","html-keyboard-response","34","223116","0.0-26.0-1.0","null","<p></p>","null","","","","","","","","","","","","","","","","","","","","","","",""
"","do_trial","35","226065","0.0-27.0-0.0","396.69999998807907","","","","","","","","50","1,0,0","6","blank","238","null","0.48228777893199837","0.07584948982397034","0.273008443334811","0","","","","","","","",""
"","html-keyboard-response","36","227074","0.0-27.0-1.0","null","<p></p>","null","","","","","","","","","","","","","","","","","","","","","","",""
"","do_trial","37","230524","0.0-28.0-0.0","902.8999999761581","","","","","","","","51","0,0,0","6","blank","239","null","0.4599600480034708","0.0790938999561784","0.32182366130476725","0","","","","","","","",""
"","html-keyboard-response","38","231538","0.0-28.0-1.0","null","<p></p>","null","","","","","","","","","","","","","","","","","","","","","","",""
"","do_trial","39","234396","0.0-29.0-0.0","312.19999998807907","","","","","","","","49","0,0,0","6","blank","240","null","0.362265081078382","0.059884148731192646","0.38875753308991834","0","","","","","","","",""
"","html-keyboard-response","40","235411","0.0-29.0-1.0","null","<p></p>","null","","","","","","","","","","","","","","","","","","","","","","",""
"","do_trial","41","238213","0.0-30.0-0.0","260.5","","","","","","","","50","1,0,0","6","blank","241","null","0.3638718748497552","0.1224870734276489","0.3229799450768088","0","","","","","","","",""
"","html-keyboard-response","42","239222","0.0-30.0-1.0","null","<p></p>","null","","","","","","","","","","","","","","","","","","","","","","",""
"","do_trial","43","242095","0.0-31.0-0.0","333.2999999523163","","","","","","","","51","1,0,0","6","blank","242","null","0.33591540392914654","0.1237638006269584","0.42514274269199653","0","","","","","","","",""
"","html-keyboard-response","44","243106","0.0-31.0-1.0","null","<p></p>","null","","","","","","","","","","","","","","","","","","","","","","",""
"","do_trial","45","246018","0.0-32.0-0.0","362.19999998807907","","","","","","","","50","0,0,1","6","blank","243","null","0.2752403902747433","0.19696801797771243","0.5040453688998374","0","","","","","","","",""
"","html-keyboard-response","46","247027","0.0-32.0-1.0","null","<p></p>","null","","","","","","","","","","","","","","","","","","","","","","",""
"","do_trial","47","249744","0.0-33.0-0.0","168.70000004768372","","","","","","","","49","1,0,1","6","blank","244","null","0.3669361248642588","0.14942871042970685","0.6897798016781826","1","","","","","","","",""
"","html-keyboard-response","48","250758","0.0-33.0-1.0","null","<p></p>","null","","","","","","","","","","","","","","","","","","","","","","",""
"","do_recog","49","256773","0.0-34.0-0.0","null","","","","","","","","null","","","","245","probe-118","","","","","1","[object Object]","209","5","0","","",""
"","html-keyboard-response","50","257783","0.0-34.0-1.0","null","<p></p>","null","","","","","","","","","","","","","","","","","","","","","","",""
"","do_trial","51","261257","0.0-35.0-0.0","925.6999999880791","","","","","","","","49","1,0,1","6","blank","246","null","0.29919298538405625","0.24747890857307767","0.7845801971007554","1","","","","","","","",""
"","html-keyboard-response","52","262271","0.0-35.0-1.0","null","<p></p>","null","","","","","","","","","","","","","","","","","","","","","","",""
"","do_recog","53","264786","0.0-36.0-0.0","995.4000000357628","","","","","","","","54","","","","247","probe-249","","","","","0","[object Object]","null","null","0","","",""
"","html-keyboard-response","54","265798","0.0-36.0-1.0","null","<p></p>","null","","","","","","","","","","","","","","","","","","","","","","",""
"","do_trial","55","269582","0.0-37.0-0.0","1224.800000011921","","","","","","","","49","0,0,1","6","blank","248","null","0.4126959124454755","0.08990675490660674","0.7235527017397791","0","","","","","","","",""
"","html-keyboard-response","56","270598","0.0-37.0-1.0","null","<p></p>","null","","","","","","","","","","","","","","","","","","","","","","",""
"","do_trial","57","273548","0.0-38.0-0.0","407.19999998807907","","","","","","","","50","0,0,0","6","blank","249","null","0.2977836092949394","0.0743842535223902","0.6180730963944706","0","","","","","","","",""
"","html-keyboard-response","58","274561","0.0-38.0-1.0","null","<p></p>","null","","","","","","","","","","","","","","","","","","","","","","",""
"","do_trial","59","277448","0.0-39.0-0.0","342.19999998807907","","","","","","","","49","0,0,0","6","blank","250","null","0.1987272498601539","0.061387796967803235","0.5920370370080211","0","","","","","","","",""
"","html-keyboard-response","60","278458","0.0-39.0-1.0","null","<p></p>","null","","","","","","","","","","","","","","","","","","","","","","",""
"","do_trial","61","281404","0.0-40.0-0.0","394.69999998807907","","","","","","","","51","0,0,0","6","blank","251","null","0.084109637340513","0.06051981164359794","0.5578216818067887","0","","","","","","","",""
"","html-keyboard-response","62","282417","0.0-40.0-1.0","null","<p></p>","null","","","","","","","","","","","","","","","","","","","","","","",""
"","do_recog","63","284424","0.0-41.0-0.0","495.19999998807907","","","","","","","","56","","","","252","probe-136","","","","","1","[object Object]","85","2","0","","",""
"","html-keyboard-response","64","285437","0.0-41.0-1.0","null","<p></p>","null","","","","","","","","","","","","","","","","","","","","","","",""
"","do_trial","65","288561","0.0-42.0-0.0","568.3999999761581","","","","","","","","50","0,0,0","6","blank","253","null","0.08064759903588044","0.12302707275517916","0.4048631378133222","0","","","","","","","",""
"","html-keyboard-response","66","289577","0.0-42.0-1.0","null","<p></p>","null","","","","","","","","","","","","","","","","","","","","","","",""
"","do_trial","67","292712","0.0-43.0-0.0","591.6000000238419","","","","","","","","50","0,0,1","6","blank","254","null","0.13969181276580472","0.1662148153099722","0.5199075800283239","0","","","","","","","",""
"","html-keyboard-response","68","293726","0.0-43.0-1.0","null","<p></p>","null","","","","","","","","","","","","","","","","","","","","","","",""
"","do_recog","69","296678","0.0-44.0-0.0","1441","","","","","","","","54","","","","255","probe-159","","","","","1","[object Object]","83","2","1","","",""
"","html-keyboard-response","70","297692","0.0-44.0-1.0","null","<p></p>","null","","","","","","","","","","","","","","","","","","","","","","",""
"","do_trial","71","300713","0.0-45.0-0.0","477.89999997615814","","","","","","","","50","0,0,0","6","blank","256","null","0.1621370750788503","0.08367737197639982","0.7412305899480307","0","","","","","","","",""
"","html-keyboard-response","72","301728","0.0-45.0-1.0","null","<p></p>","null","","","","","","","","","","","","","","","","","","","","","","",""
"","do_recog","73","303765","0.0-46.0-0.0","523.5","","","","","","","","54","","","","257","probe-80","","","","","1","[object Object]","207","5","1","","",""
"","html-keyboard-response","74","304780","0.0-46.0-1.0","null","<p></p>","null","","","","","","","","","","","","","","","","","","","","","","",""
"","do_trial","75","307986","0.0-47.0-0.0","654.3000000119209","","","","","","","","50","0,0,1","6","blank","258","null","0.07570466935534054","0.05976761232410357","0.7590739444270114","0","","","","","","","",""
"","html-keyboard-response","76","308998","0.0-47.0-1.0","null","<p></p>","null","","","","","","","","","","","","","","","","","","","","","","",""
"","do_trial","77","312042","0.0-48.0-0.0","494.9000000357628","","","","","","","","50","1,0,1","6","blank","259","null","0.259079209639917","0.07116539074973738","0.5141639272624206","0","","","","","","","",""
"","html-keyboard-response","78","313055","0.0-48.0-1.0","null","<p></p>","null","","","","","","","","","","","","","","","","","","","","","","",""
"","do_trial","79","316333","0.0-49.0-0.0","725.8999999761581","","","","","","","","50","0,1,1","6","blank","260","null","0.2612745640958754","0.08023377269191877","0.6076669326326324","1","","","","","","","",""
"","html-keyboard-response","80","317334","0.0-49.0-1.0","null","<p></p>","null","","","","","","","","","","","","","","","","","","","","","","",""
"","do_trial","81","320549","0.0-50.0-0.0","664.6000000238419","","","","","","","","50","0,0,0","6","blank","261","null","0.41811697660012914","0.20084014828139488","0.6331646177783159","0","","","","","","","",""
"","html-keyboard-response","82","321559","0.0-50.0-1.0","null","<p></p>","null","","","","","","","","","","","","","","","","","","","","","","",""
"","do_recog","83","324117","0.0-51.0-0.0","1036","","","","","","","","55","","","","262","probe-172","","","","","1","[object Object]","40","1","0","","",""
"","html-keyboard-response","84","325130","0.0-51.0-1.0","null","<p></p>","null","","","","","","","","","","","","","","","","","","","","","","",""
"","do_trial","85","328105","0.0-52.0-0.0","426.5","","","","","","","","49","0,1,0","6","blank","263","null","0.38195963396140675","0.33516390424962367","0.6698341283106034","0","","","","","","","",""
"","html-keyboard-response","86","329110","0.0-52.0-1.0","null","<p></p>","null","","","","","","","","","","","","","","","","","","","","","","",""
"","do_trial","87","331700","0.0-53.0-0.0","42.40000003576279","","","","","","","","51","0,0,1","6","blank","264","null","0.32750252051688855","0.3053188069002609","0.5954598861411295","1","","","","","","","",""
"","html-keyboard-response","88","332705","0.0-53.0-1.0","null","<p></p>","null","","","","","","","","","","","","","","","","","","","","","","",""
"","do_recog","89","334747","0.0-54.0-0.0","523.1999999880791","","","","","","","","55","","","","265","probe-43","","","","","1","[object Object]","167","4","0","","",""
"","html-keyboard-response","90","335751","0.0-54.0-1.0","null","<p></p>","null","","","","","","","","","","","","","","","","","","","","","","",""
"","do_trial","91","338701","0.0-55.0-0.0","398.39999997615814","","","","","","","","49","0,0,1","6","blank","266","null","0.4796165003930241","0.16303632229098977","0.5414819106482768","0","","","","","","","",""
"","html-keyboard-response","92","339710","0.0-55.0-1.0","null","<p></p>","null","","","","","","","","","","","","","","","","","","","","","","",""
"","do_recog","93","341755","0.0-56.0-0.0","533.1000000238419","","","","","","","","53","","","","267","probe-78","","","","","1","[object Object]","165","4","1","","",""
"","html-keyboard-response","94","342759","0.0-56.0-1.0","null","<p></p>","null","","","","","","","","","","","","","","","","","","","","","","",""
"","do_trial","95","345777","0.0-57.0-0.0","466","","","","","","","","51","1,0,1","6","blank","268","null","0.35662374658480334","0.14609460186619408","0.5681155185226182","1","","","","","","","",""
"","html-keyboard-response","96","346781","0.0-57.0-1.0","null","<p></p>","null","","","","","","","","","","","","","","","","","","","","","","",""
"","break","97","401341","0.0-57.0-2.0","54558.30000001192","<div class='center'><p>Time to take a quick break! You have 2 minutes to rest, but you can move on sooner if you'd like.</p><p> Press the <b>space bar</b> to continue.</p></div>","32","","","","","","","","","","","","","","","","","","","","","","",""
"","do_trial","98","404985","0.0-57.0-3.0","1088.5","","","","","","","","49","1,0,1","6","blank","269","null","0.25221040642709397","0.0584916318169512","0.6995504049204011","1","","","","","","","",""
"","html-keyboard-response","99","405998","0.0-57.0-4.0","null","<p></p>","null","","","","","","","","","","","","","","","","","","","","","","",""
"","do_trial","100","408831","0.0-58.0-0.0","278.30000001192093","","","","","","","","51","0,0,0","6","blank","270","null","0.4572601978961924","0.06840390916260512","0.7732684895214871","0","","","","","","","",""
"","html-keyboard-response","101","409846","0.0-58.0-1.0","null","<p></p>","null","","","","","","","","","","","","","","","","","","","","","","",""
"","do_trial","102","412973","0.0-59.0-0.0","575.3999999761581","","","","","","","","51","0,0,0","6","blank","271","null","0.4859605645773599","0.058205455503521505","0.6161814663650018","0","","","","","","","",""
"","html-keyboard-response","103","413974","0.0-59.0-1.0","null","<p></p>","null","","","","","","","","","","","","","","","","","","","","","","",""
"","do_recog","104","415973","0.0-60.0-0.0","478.5999999642372","","","","","","","","53","","","","272","probe-194","","","","","1","[object Object]","204","5","1","","",""
"","html-keyboard-response","105","416987","0.0-60.0-1.0","null","<p></p>","null","","","","","","","","","","","","","","","","","","","","","","",""
"","do_trial","106","419792","0.0-61.0-0.0","264.0999999642372","","","","","","","","50","0,0,1","6","blank","273","null","0.3921412455570701","0.14954646787519862","0.6045310697085483","0","","","","","","","",""
"","html-keyboard-response","107","420794","0.0-61.0-1.0","null","<p></p>","null","","","","","","","","","","","","","","","","","","","","","","",""
"","do_trial","108","423703","0.0-62.0-0.0","353.19999998807907","","","","","","","","50","0,0,1","6","blank","274","null","0.38817798242948215","0.22147122785327022","0.536152184080988","0","","","","","","","",""
"","html-keyboard-response","109","424705","0.0-62.0-1.0","null","<p></p>","null","","","","","","","","","","","","","","","","","","","","","","",""
"","do_recog","110","426556","0.0-63.0-0.0","335.30000001192093","","","","","","","","54","","","","275","probe-164","","","","","1","[object Object]","161","4","1","","",""
"","html-keyboard-response","111","427565","0.0-63.0-1.0","null","<p></p>","null","","","","","","","","","","","","","","","","","","","","","","",""
"","do_trial","112","430667","0.0-64.0-0.0","557.5","","","","","","","","50","1,0,1","6","blank","276","null","0.30538062174082553","0.09933717423643526","0.48524741198186866","0","","","","","","","",""
"","html-keyboard-response","113","431681","0.0-64.0-1.0","null","<p></p>","null","","","","","","","","","","","","","","","","","","","","","","",""
"","do_trial","114","434831","0.0-65.0-0.0","603.8999999761581","","","","","","","","51","0,0,1","6","blank","277","null","0.22321145987830476","0.08040567862918031","0.5758356031168931","1","","","","","","","",""
"","html-keyboard-response","115","435844","0.0-65.0-1.0","null","<p></p>","null","","","","","","","","","","","","","","","","","","","","","","",""
"","do_trial","116","438668","0.0-66.0-0.0","278.10000002384186","","","","","","","","49","0,0,1","6","blank","278","null","0.2949823338975474","0.16130347535111836","0.5767260893617773","0","","","","","","","",""
"","html-keyboard-response","117","439681","0.0-66.0-1.0","null","<p></p>","null","","","","","","","","","","","","","","","","","","","","","","",""
"","do_trial","118","442770","0.0-67.0-0.0","525.8999999761581","","","","","","","","50","0,0,0","6","blank","279","null","0.322493299642608","0.1805288520978053","0.536895127222936","0","","","","","","","",""
"","html-keyboard-response","119","443784","0.0-67.0-1.0","null","<p></p>","null","","","","","","","","","","","","","","","","","","","","","","",""
"","do_trial","120","446701","0.0-68.0-0.0","362.30000001192093","","","","","","","","51","0,0,1","6","blank","280","null","0.39015501083889753","0.10460041135487493","0.6489959916642734","1","","","","","","","",""
"","html-keyboard-response","121","447708","0.0-68.0-1.0","null","<p></p>","null","","","","","","","","","","","","","","","","","","","","","","",""
"","do_trial","122","450649","0.0-69.0-0.0","382.39999997615814","","","","","","","","49","0,0,1","6","blank","281","null","0.2634677232242638","0.18032269479691543","0.6425482668800508","0","","","","","","","",""
"","html-keyboard-response","123","451661","0.0-69.0-1.0","null","<p></p>","null","","","","","","","","","","","","","","","","","","","","","","",""
"","do_recog","124","453650","0.0-70.0-0.0","476.39999997615814","","","","","","","","54","","","","282","probe-174","","","","","1","[object Object]","206","5","1","","",""
"","html-keyboard-response","125","454652","0.0-70.0-1.0","null","<p></p>","null","","","","","","","","","","","","","","","","","","","","","","",""
"","do_trial","126","457690","0.0-71.0-0.0","489.5","","","","","","","","50","0,0,1","6","blank","283","null","0.2950622156059749","0.06432829211529967","0.6913953545237547","0","","","","","","","",""
"","html-keyboard-response","127","458700","0.0-71.0-1.0","null","<p></p>","null","","","","","","","","","","","","","","","","","","","","","","",""
"","do_trial","128","461539","0.0-72.0-0.0","297","","","","","","","","49","0,0,0","6","blank","284","null","0.2611690350007568","0.07439209834498643","0.6550769421260428","0","","","","","","","",""
"","html-keyboard-response","129","462553","0.0-72.0-1.0","null","<p></p>","null","","","","","","","","","","","","","","","","","","","","","","",""
"","do_trial","130","465409","0.0-73.0-0.0","303","","","","","","","","50","1,0,0","6","blank","285","null","0.33659485148069934","0.05399966327392796","0.6798608225258286","0","","","","","","","",""
"","html-keyboard-response","131","466425","0.0-73.0-1.0","null","<p></p>","null","","","","","","","","","","","","","","","","","","","","","","",""
"","do_trial","132","469516","0.0-74.0-0.0","534.3999999761581","","","","","","","","50","0,0,1","6","blank","286","null","0.26983413119133814","0.05488023250777619","0.6736375117167372","0","","","","","","","",""
"","html-keyboard-response","133","470518","0.0-74.0-1.0","null","<p></p>","null","","","","","","","","","","","","","","","","","","","","","","",""
"","do_recog","134","472591","0.0-75.0-0.0","562.1999999880791","","","","","","","","55","","","","287","probe-53","","","","","1","[object Object]","164","4","0","","",""
"","html-keyboard-response","135","473605","0.0-75.0-1.0","null","<p></p>","null","","","","","","","","","","","","","","","","","","","","","","",""
"","do_trial","136","476739","0.0-76.0-0.0","583.2000000476837","","","","","","","","49","0,0,1","6","blank","288","null","0.19131017946277326","0.1635508491728908","0.6232128314719378","0","","","","","","","",""
"","html-keyboard-response","137","477751","0.0-76.0-1.0","null","<p></p>","null","","","","","","","","","","","","","","","","","","","","","","",""
"","do_trial","138","480730","0.0-77.0-0.0","429.10000002384186","","","","","","","","50","1,0,0","6","blank","289","null","0.2607387524171189","0.12268145230382226","0.7176758414579991","0","","","","","","","",""
"","html-keyboard-response","139","481745","0.0-77.0-1.0","null","<p></p>","null","","","","","","","","","","","","","","","","","","","","","","",""
"","do_trial","140","484584","0.0-78.0-0.0","287.30000001192093","","","","","","","","49","0,1,0","6","blank","290","null","0.26549916956403574","0.17140432143853251","0.7198047960556087","0","","","","","","","",""
"","html-keyboard-response","141","485601","0.0-78.0-1.0","null","<p></p>","null","","","","","","","","","","","","","","","","","","","","","","",""
"","do_trial","142","488441","0.0-79.0-0.0","291.10000002384186","","","","","","","","51","0,0,1","6","blank","291","null","0.1975338362712843","0.052228446817045936","0.707835959575636","1","","","","","","","",""
"","html-keyboard-response","143","489457","0.0-79.0-1.0","null","<p></p>","null","","","","","","","","","","","","","","","","","","","","","","",""
"","do_recog","144","491577","0.0-80.0-0.0","600.3000000119209","","","","","","","","55","","","","292","probe-108","","","","","1","[object Object]","48","1","0","","",""
"","html-keyboard-response","145","492591","0.0-80.0-1.0","null","<p></p>","null","","","","","","","","","","","","","","","","","","","","","","",""
"","do_trial","146","496147","0.0-81.0-0.0","999.9000000357628","","","","","","","","51","1,1,1","6","blank","293","null","0.3868440592129045","0.10229324849907773","0.6499599764234014","1","","","","","","","",""
"","html-keyboard-response","147","497162","0.0-81.0-1.0","null","<p></p>","null","","","","","","","","","","","","","","","","","","","","","","",""
"","do_trial","148","500047","0.0-82.0-0.0","339.5","","","","","","","","49","1,0,0","6","blank","294","null","0.37730551155927783","0.10084964169055045","0.5925197341558781","1","","","","","","","",""
"","html-keyboard-response","149","501060","0.0-82.0-1.0","null","<p></p>","null","","","","","","","","","","","","","","","","","","","","","","",""
"","do_recog","150","503179","0.0-83.0-0.0","612.3999999761581","","","","","","","","53","","","","295","probe-120","","","","","1","[object Object]","123","3","1","","",""
"","html-keyboard-response","151","504195","0.0-83.0-1.0","null","<p></p>","null","","","","","","","","","","","","","","","","","","","","","","",""
"","do_trial","152","507130","0.0-84.0-0.0","396.30000001192093","","","","","","","","50","0,1,0","6","blank","296","null","0.35812337257342086","0.27839437259537037","0.3466061290781107","1","","","","","","","",""
"","html-keyboard-response","153","508144","0.0-84.0-1.0","null","<p></p>","null","","","","","","","","","","","","","","","","","","","","","","",""
"","do_trial","154","510971","0.0-85.0-0.0","281.30000001192093","","","","","","","","49","0,1,0","6","blank","297","null","0.45106718636804355","0.38416809874865876","0.12845527577494437","0","","","","","","","",""
"","html-keyboard-response","155","511987","0.0-85.0-1.0","null","<p></p>","null","","","","","","","","","","","","","","","","","","","","","","",""
"","do_trial","156","515151","0.0-86.0-0.0","613","","","","","","","","51","1,0,0","6","blank","298","null","0.3953227813179915","0.42437389475082365","0.10506321243425941","0","","","","","","","",""
"","html-keyboard-response","157","516159","0.0-86.0-1.0","null","<p></p>","null","","","","","","","","","","","","","","","","","","","","","","",""
"","do_trial","158","519238","0.0-87.0-0.0","531.3999999761581","","","","","","","","50","0,0,0","6","blank","299","null","0.2479505390231991","0.48121738840247996","0.1014272438946218","0","","","","","","","",""
"","html-keyboard-response","159","520251","0.0-87.0-1.0","null","<p></p>","null","","","","","","","","","","","","","","","","","","","","","","",""
"","do_trial","160","523480","0.0-88.0-0.0","675.5","","","","","","","","50","0,0,0","6","blank","300","null","0.15116374913216438","0.41724645780639075","0.1881617218610846","0","","","","","","","",""
"","html-keyboard-response","161","524495","0.0-88.0-1.0","null","<p></p>","null","","","","","","","","","","","","","","","","","","","","","","",""
"","do_trial","162","527470","0.0-89.0-0.0","425.89999997615814","","","","","","","","49","0,1,0","6","blank","301","null","0.1238092021342565","0.5391965747335612","0.16366868544684568","0","","","","","","","",""
"","html-keyboard-response","163","528483","0.0-89.0-1.0","null","<p></p>","null","","","","","","","","","","","","","","","","","","","","","","",""
"","do_recog","164","531156","0.0-90.0-0.0","1167.800000011921","","","","","","","","54","","","","302","probe-148","","","","","1","[object Object]","208","5","1","","",""
"","html-keyboard-response","165","532170","0.0-90.0-1.0","null","<p></p>","null","","","","","","","","","","","","","","","","","","","","","","",""
"","do_trial","166","535367","0.0-91.0-0.0","646.5","","","","","","","","50","0,0,0","6","blank","303","null","0.1382806223595997","0.4864809120370402","0.25008105880239556","0","","","","","","","",""
"","html-keyboard-response","167","536379","0.0-91.0-1.0","null","<p></p>","null","","","","","","","","","","","","","","","","","","","","","","",""
"","do_trial","168","539501","0.0-92.0-0.0","577.1999999880791","","","","","","","","50","1,1,0","6","blank","304","null","0.132642078930565","0.5556637431851135","0.1037897504196451","1","","","","","","","",""
"","html-keyboard-response","169","540513","0.0-92.0-1.0","null","<p></p>","null","","","","","","","","","","","","","","","","","","","","","","",""
"","do_trial","170","543086","0.0-93.0-0.0","35.30000001192093","","","","","","","","49","0,1,0","6","blank","305","null","0.22292941820885262","0.6843708518994893","0.20819409128948366","0","","","","","","","",""
"","html-keyboard-response","171","544102","0.0-93.0-1.0","null","<p></p>","null","","","","","","","","","","","","","","","","","","","","","","",""
"","do_trial","172","546959","0.0-94.0-0.0","316","","","","","","","","50","0,0,0","6","blank","306","null","0.35134291287865976","0.731630253006199","0.25001656091338076","0","","","","","","","",""
"","html-keyboard-response","173","547970","0.0-94.0-1.0","null","<p></p>","null","","","","","","","","","","","","","","","","","","","","","","",""
"","do_trial","174","550856","0.0-95.0-0.0","326.4000000357628","","","","","","","","51","0,1,0","6","blank","307","null","0.19297921323972247","0.7231830484615043","0.13156885594679105","0","","","","","","","",""
"","html-keyboard-response","175","551866","0.0-95.0-1.0","null","<p></p>","null","","","","","","","","","","","","","","","","","","","","","","",""
"","break","176","553523","0.0-96.0-0.0","1656.0999999642372","<div class='center'><p>Time to take a quick break! You have 2 minutes to rest, but you can move on sooner if you'd like.</p><p> Press the <b>space bar</b> to continue.</p></div>","32","","","","","","","","","","","","","","","","","","","","","","",""
"","do_recog","177","555783","0.0-96.0-1.0","743","","","","","","","","54","","","","308","probe-155","","","","","1","[object Object]","84","2","1","","",""
"","html-keyboard-response","178","556784","0.0-96.0-2.0","null","<p></p>","null","","","","","","","","","","","","","","","","","","","","","","",""
"","do_trial","179","559432","0.0-97.0-0.0","99.60000002384186","","","","","","","","50","0,1,0","6","blank","309","null","0.32446843074327064","0.7981834758652943","0.10599386469882624","1","","","","","","","",""
"","html-keyboard-response","180","560447","0.0-97.0-1.0","null","<p></p>","null","","","","","","","","","","","","","","","","","","","","","","",""
"","do_trial","181","563582","0.0-98.0-0.0","582.8000000119209","","","","","","","","49","1,1,1","6","blank","310","null","0.2636128343609643","0.6821133954191956","0.11662533420845582","1","","","","","","","",""
"","html-keyboard-response","182","564598","0.0-98.0-1.0","null","<p></p>","null","","","","","","","","","","","","","","","","","","","","","","",""
"","do_trial","183","567456","0.0-99.0-0.0","302.89999997615814","","","","","","","","51","1,1,0","6","blank","311","null","0.4503421651831424","0.6271732666253366","0.16103110242395485","0","","","","","","","",""
"","html-keyboard-response","184","568468","0.0-99.0-1.0","null","<p></p>","null","","","","","","","","","","","","","","","","","","","","","","",""
"","do_trial","185","571327","0.0-100.0-0.0","309.0999999642372","","","","","","","","49","0,1,0","6","blank","312","null","0.561418917885257","0.5832951664676204","0.45761799896263855","0","","","","","","","",""
"","html-keyboard-response","186","572339","0.0-100.0-1.0","null","<p></p>","null","","","","","","","","","","","","","","","","","","","","","","",""
"","do_recog","187","574319","0.0-101.0-0.0","467.9000000357628","","","","","","","","54","","","","313","probe-204","","","","","1","[object Object]","169","4","1","","",""
"","html-keyboard-response","188","575333","0.0-101.0-1.0","null","<p></p>","null","","","","","","","","","","","","","","","","","","","","","","",""
"","do_trial","189","578233","0.0-102.0-0.0","344.80000001192093","","","","","","","","51","0,1,0","6","blank","314","null","0.40847425194596154","0.7024522916018314","0.3622464197761332","0","","","","","","","",""
"","html-keyboard-response","190","579244","0.0-102.0-1.0","null","<p></p>","null","","","","","","","","","","","","","","","","","","","","","","",""
"","do_recog","191","581320","0.0-103.0-0.0","562","","","","","","","","56","","","","315","probe-230","","","","","1","[object Object]","163","4","0","","",""
"","html-keyboard-response","192","582332","0.0-103.0-1.0","null","<p></p>","null","","","","","","","","","","","","","","","","","","","","","","",""
"","do_trial","193","585887","0.0-104.0-0.0","1004.9000000357628","","","","","","","","50","0,0,1","6","blank","316","null","0.44229665121715","0.71715241722776","0.364190653296956","0","","","","","","","",""
"","html-keyboard-response","194","586901","0.0-104.0-1.0","null","<p></p>","null","","","","","","","","","","","","","","","","","","","","","","",""
"","do_recog","195","589055","0.0-105.0-0.0","642.3000000119209","","","","","","","","54","","","","317","probe-93","","","","","1","[object Object]","87","2","1","","",""
"","html-keyboard-response","196","590068","0.0-105.0-1.0","null","<p></p>","null","","","","","","","","","","","","","","","","","","","","","","",""
"","do_trial","197","593126","0.0-106.0-0.0","515.4000000357628","","","","","","","","49","1,0,0","6","blank","318","null","0.4851507725336442","0.6604483491336467","0.192520395963521","1","","","","","","","",""
"","html-keyboard-response","198","594142","0.0-106.0-1.0","null","<p></p>","null","","","","","","","","","","","","","","","","","","","","","","",""
"","do_trial","199","596979","0.0-107.0-0.0","285.5","","","","","","","","49","1,1,1","6","blank","319","null","0.43079926736082697","0.6527540917945329","0.25837479348105336","1","","","","","","","",""
"","html-keyboard-response","200","597995","0.0-107.0-1.0","null","<p></p>","null","","","","","","","","","","","","","","","","","","","","","","",""
"","do_trial","201","601033","0.0-108.0-0.0","483.30000001192093","","","","","","","","50","1,0,0","6","blank","320","null","0.4522643482870047","0.5413446709650375","0.09677833429462779","0","","","","","","","",""
"","html-keyboard-response","202","602046","0.0-108.0-1.0","null","<p></p>","null","","","","","","","","","","","","","","","","","","","","","","",""
"","do_trial","203","604867","0.0-109.0-0.0","282.30000001192093","","","","","","","","49","1,1,1","6","blank","321","null","0.4392370772952366","0.6578713121034682","0.06080434421265807","1","","","","","","","",""
"","html-keyboard-response","204","605869","0.0-109.0-1.0","null","<p></p>","null","","","","","","","","","","","","","","","","","","","","","","",""
"","do_recog","205","607976","0.0-110.0-0.0","591.1000000238419","","","","","","","","54","","","","322","probe-81","","","","","1","[object Object]","120","3","1","","",""
"","html-keyboard-response","206","608992","0.0-110.0-1.0","null","<p></p>","null","","","","","","","","","","","","","","","","","","","","","","",""
"","do_trial","207","612128","0.0-111.0-0.0","586.8999999761581","","","","","","","","49","0,0,0","6","blank","323","null","0.26476927288763313","0.6010663564844183","0.10910198632071111","0","","","","","","","",""
"","html-keyboard-response","208","613129","0.0-111.0-1.0","null","<p></p>","null","","","","","","","","","","","","","","","","","","","","","","",""
"","do_recog","209","615247","0.0-112.0-0.0","599.8999999761581","","","","","","","","55","","","","324","probe-74","","","","","1","[object Object]","127","3","0","","",""
"","html-keyboard-response","210","616258","0.0-112.0-1.0","null","<p></p>","null","","","","","","","","","","","","","","","","","","","","","","",""
"","do_trial","211","619246","0.0-113.0-0.0","433.30000001192093","","","","","","","","49","0,1,0","6","blank","325","null","0.25836933818708063","0.5630366031425119","0.059805287529262306","0","","","","","","","",""
"","html-keyboard-response","212","620260","0.0-113.0-1.0","null","<p></p>","null","","","","","","","","","","","","","","","","","","","","","","",""
"","do_trial","213","623347","0.0-114.0-0.0","547.9000000357628","","","","","","","","49","0,0,0","6","blank","326","null","0.28840363144894293","0.48780235074575123","0.15382239922586083","0","","","","","","","",""
"","html-keyboard-response","214","624349","0.0-114.0-1.0","null","<p></p>","null","","","","","","","","","","","","","","","","","","","","","","",""
"","do_trial","215","627333","0.0-115.0-0.0","430.19999998807907","","","","","","","","51","0,1,0","6","blank","327","null","0.22286971260711202","0.47402041746314966","0.1950102850050777","0","","","","","","","",""
"","html-keyboard-response","216","628347","0.0-115.0-1.0","null","<p></p>","null","","","","","","","","","","","","","","","","","","","","","","",""
"","do_trial","217","631371","0.0-116.0-0.0","477.5999999642372","","","","","","","","49","0,1,0","6","blank","328","null","0.3954650264387445","0.6844230172276576","0.2028236120770265","0","","","","","","","",""
"","html-keyboard-response","218","632385","0.0-116.0-1.0","null","<p></p>","null","","","","","","","","","","","","","","","","","","","","","","",""
"","do_recog","219","634289","0.0-117.0-0.0","387","","","","","","","","55","","","","329","probe-42","","","","","1","[object Object]","45","1","0","","",""
"","html-keyboard-response","220","635304","0.0-117.0-1.0","null","<p></p>","null","","","","","","","","","","","","","","","","","","","","","","",""
"","do_trial","221","638591","0.0-118.0-0.0","742.4000000357628","","","","","","","","49","0,1,0","6","blank","330","null","0.30141667916768905","0.710559601460232","0.23373308137658547","0","","","","","","","",""
"","html-keyboard-response","222","639602","0.0-118.0-1.0","null","<p></p>","null","","","","","","","","","","","","","","","","","","","","","","",""
"","do_recog","223","641534","0.0-119.0-0.0","422.5","","","","","","","","53","","","","331","probe-19","","","","","1","[object Object]","168","4","1","","",""
"","html-keyboard-response","224","642540","0.0-119.0-1.0","null","<p></p>","null","","","","","","","","","","","","","","","","","","","","","","",""
"","do_trial","225","648594","0.0-120.0-0.0","null","","","","","","","","null","0,1,1","6","blank","332","null","0.28210717511063443","0.7325745155157738","0.2207233454352562","","","","","","","","",""
"","html-keyboard-response","226","649596","0.0-120.0-1.0","null","<p></p>","null","","","","","","","","","","","","","","","","","","","","","","",""
"","do_trial","227","652448","0.0-121.0-0.0","292.69999998807907","","","","","","","","50","0,1,0","6","blank","333","null","0.17968610137051877","0.7028827705989588","0.15508693430464077","1","","","","","","","",""
"","html-keyboard-response","228","653459","0.0-121.0-1.0","null","<p></p>","null","","","","","","","","","","","","","","","","","","","","","","",""
"","do_trial","229","656952","0.0-122.0-0.0","945.1999999880791","","","","","","","","50","0,0,0","6","blank","334","null","0.12512652714626848","0.6735654783651718","0.22348101690026054","0","","","","","","","",""
"","html-keyboard-response","230","657959","0.0-122.0-1.0","null","<p></p>","null","","","","","","","","","","","","","","","","","","","","","","",""
"","do_trial","231","661127","0.0-123.0-0.0","611.6999999880791","","","","","","","","49","0,1,0","6","blank","335","null","0.24870321583053137","0.6019949802269134","0.11498307848287372","0","","","","","","","",""
"","html-keyboard-response","232","662145","0.0-123.0-1.0","null","<p></p>","null","","","","","","","","","","","","","","","","","","","","","","",""
"","do_trial","233","665165","0.0-124.0-0.0","470.5","","","","","","","","49","0,0,0","6","blank","336","null","0.3137277552054611","0.5690533685856822","0.10559379624939991","0","","","","","","","",""
"","html-keyboard-response","234","666169","0.0-124.0-1.0","null","<p></p>","null","","","","","","","","","","","","","","","","","","","","","","",""
"","do_trial","235","668786","0.0-125.0-0.0","75.89999997615814","","","","","","","","50","0,0,0","6","blank","337","null","0.18636382882758187","0.4915790051484502","0.1333307544134201","0","","","","","","","",""
"","html-keyboard-response","236","669789","0.0-125.0-1.0","null","<p></p>","null","","","","","","","","","","","","","","","","","","","","","","",""
"","do_recog","237","671861","0.0-126.0-0.0","565.0999999642372","","","","","","","","53","","","","338","probe-26","","","","","1","[object Object]","41","1","1","","",""
"","html-keyboard-response","238","672872","0.0-126.0-1.0","null","<p></p>","null","","","","","","","","","","","","","","","","","","","","","","",""
"","do_trial","239","676134","0.0-127.0-0.0","712.1000000238419","","","","","","","","49","0,1,0","6","blank","339","null","0.2396538677889257","0.6123999870836724","0.08200581090527266","0","","","","","","","",""
"","html-keyboard-response","240","677144","0.0-127.0-1.0","null","<p></p>","null","","","","","","","","","","","","","","","","","","","","","","",""
"","do_recog","241","679232","0.0-128.0-0.0","573.2000000476837","","","","","","","","54","","","","340","probe-27","","","","","1","[object Object]","89","2","1","","",""
"","html-keyboard-response","242","680247","0.0-128.0-1.0","null","<p></p>","null","","","","","","","","","","","","","","","","","","","","","","",""
"","do_trial","243","683360","0.0-129.0-0.0","564.1999999880791","","","","","","","","50","1,1,0","6","blank","341","null","0.18953467110651953","0.6101760673327745","0.1410332284279461","1","","","","","","","",""
"","html-keyboard-response","244","684374","0.0-129.0-1.0","null","<p></p>","null","","","","","","","","","","","","","","","","","","","","","","",""
"","do_recog","245","686338","0.0-130.0-0.0","443","","","","","","","","55","","","","342","probe-04","","","","","1","[object Object]","42","1","0","","",""
"","html-keyboard-response","246","687348","0.0-130.0-1.0","null","<p></p>","null","","","","","","","","","","","","","","","","","","","","","","",""
"","do_trial","247","690527","0.0-131.0-0.0","633.8999999761581","","","","","","","","51","1,1,0","6","blank","343","null","0.2485358579749196","0.55495460688673","0.05224578738634321","0","","","","","","","",""
"","html-keyboard-response","248","691538","0.0-131.0-1.0","null","<p></p>","null","","","","","","","","","","","","","","","","","","","","","","",""
"","do_trial","249","694812","0.0-132.0-0.0","731.1999999880791","","","","","","","","50","0,0,1","6","blank","344","null","0.24436273263865643","0.5880495935122722","0.1261188880007927","0","","","","","","","",""
"","html-keyboard-response","250","695823","0.0-132.0-1.0","null","<p></p>","null","","","","","","","","","","","","","","","","","","","","","","",""
"","do_trial","251","698784","0.0-133.0-0.0","410.39999997615814","","","","","","","","50","0,1,0","6","blank","345","null","0.27510202924428084","0.6362829125052717","0.16768737300212547","1","","","","","","","",""
"","html-keyboard-response","252","699797","0.0-133.0-1.0","null","<p></p>","null","","","","","","","","","","","","","","","","","","","","","","",""
"","do_trial","253","702976","0.0-134.0-0.0","633.6999999880791","","","","","","","","49","0,1,0","6","blank","346","null","0.3293073865324185","0.5597840406629473","0.13226631756652238","0","","","","","","","",""
"","html-keyboard-response","254","703977","0.0-134.0-1.0","null","<p></p>","null","","","","","","","","","","","","","","","","","","","","","","",""
"","do_trial","255","706796","0.0-135.0-0.0","267.0999999642372","","","","","","","","51","0,0,1","6","blank","347","null","0.3868183934327905","0.3850848403691438","0.14980660331288478","1","","","","","","","",""
"","html-keyboard-response","256","707809","0.0-135.0-1.0","null","<p></p>","null","","","","","","","","","","","","","","","","","","","","","","",""
"","break","257","709340","0.0-135.0-2.0","1528.9000000357628","<div class='center'><p>Time to take a quick break! You have 2 minutes to rest, but you can move on sooner if you'd like.</p><p> Press the <b>space bar</b> to continue.</p></div>","32","","","","","","","","","","","","","","","","","","","","","","",""
"","do_trial","258","712442","0.0-135.0-3.0","558","","","","","","","","49","1,0,0","6","blank","348","null","0.5284094266926422","0.25342327506032036","0.25205142694930244","1","","","","","","","",""
"","html-keyboard-response","259","713458","0.0-135.0-4.0","null","<p></p>","null","","","","","","","","","","","","","","","","","","","","","","",""
"","do_trial","260","716458","0.0-136.0-0.0","457.5","","","","","","","","51","0,0,0","6","blank","349","null","0.34557585699096666","0.12509898727611202","0.20028601124708767","0","","","","","","","",""
"","html-keyboard-response","261","717473","0.0-136.0-1.0","null","<p></p>","null","","","","","","","","","","","","","","","","","","","","","","",""
"","do_recog","262","719609","0.0-137.0-0.0","626.2000000476837","","","","","","","","55","","","","350","probe-156","","","","","1","[object Object]","202","5","0","","",""
"","html-keyboard-response","263","720622","0.0-137.0-1.0","null","<p></p>","null","","","","","","","","","","","","","","","","","","","","","","",""
"","do_trial","264","723617","0.0-138.0-0.0","435.2000000476837","","","","","","","","49","0,1,0","6","blank","351","null","0.4521373020670339","0.07089561321700615","0.2506722308482181","0","","","","","","","",""
"","html-keyboard-response","265","724631","0.0-138.0-1.0","null","<p></p>","null","","","","","","","","","","","","","","","","","","","","","","",""
"","do_trial","266","727948","0.0-139.0-0.0","765.8999999761581","","","","","","","","49","1,0,0","6","blank","352","null","0.6919559277048956","0.07715972328712088","0.23799837834495946","1","","","","","","","",""
"","html-keyboard-response","267","728961","0.0-139.0-1.0","null","<p></p>","null","","","","","","","","","","","","","","","","","","","","","","",""
"","do_recog","268","731110","0.0-140.0-0.0","630","","","","","","","","55","","","","353","probe-32","","","","","1","[object Object]","82","2","0","","",""
"","html-keyboard-response","269","732124","0.0-140.0-1.0","null","<p></p>","null","","","","","","","","","","","","","","","","","","","","","","",""
"","do_trial","270","735755","0.0-141.0-0.0","1077.300000011921","","","","","","","","50","1,0,0","6","blank","354","null","0.6935852345901714","0.192156462999578","0.4561817874163087","0","","","","","","","",""
"","html-keyboard-response","271","736767","0.0-141.0-1.0","null","<p></p>","null","","","","","","","","","","","","","","","","","","","","","","",""
"","do_trial","272","739685","0.0-142.0-0.0","355.80000001192093","","","","","","","","51","0,0,1","6","blank","355","null","0.6793077182487687","0.20022023195717634","0.36131003249968346","1","","","","","","","",""
"","html-keyboard-response","273","740698","0.0-142.0-1.0","null","<p></p>","null","","","","","","","","","","","","","","","","","","","","","","",""
"","do_recog","274","742883","0.0-143.0-0.0","669.3000000119209","","","","","","","","56","","","","356","probe-123","","","","","1","[object Object]","122","3","0","","",""
"","html-keyboard-response","275","743895","0.0-143.0-1.0","null","<p></p>","null","","","","","","","","","","","","","","","","","","","","","","",""
"","do_trial","276","746942","0.0-144.0-0.0","491.5","","","","","","","","50","0,1,0","6","blank","357","null","0.7116651229994674","0.23545678974643505","0.35231654302843224","1","","","","","","","",""
"","html-keyboard-response","277","747951","0.0-144.0-1.0","null","<p></p>","null","","","","","","","","","","","","","","","","","","","","","","",""
"","do_recog","278","750014","0.0-145.0-0.0","546.5","","","","","","","","53","","","","358","probe-232","","","","","0","[object Object]","null","null","0","","",""
"","html-keyboard-response","279","751025","0.0-145.0-1.0","null","<p></p>","null","","","","","","","","","","","","","","","","","","","","","","",""
"","do_trial","280","754140","0.0-146.0-0.0","574.8000000119209","","","","","","","","51","0,0,0","6","blank","359","null","0.6423084781323886","0.2015118376360068","0.2465195618940914","0","","","","","","","",""
"","html-keyboard-response","281","755153","0.0-146.0-1.0","null","<p></p>","null","","","","","","","","","","","","","","","","","","","","","","",""
"","do_recog","282","757518","0.0-147.0-0.0","855.5","","","","","","","","54","","","","360","probe-247","","","","","0","[object Object]","null","null","0","","",""
"","html-keyboard-response","283","758527","0.0-147.0-1.0","null","<p></p>","null","","","","","","","","","","","","","","","","","","","","","","",""
"","do_trial","284","762061","0.0-148.0-0.0","986.3000000119209","","","","","","","","51","1,0,0","6","blank","361","null","0.750678844352551","0.05236685525175057","0.27016826796175347","0","","","","","","","",""
"","html-keyboard-response","285","763076","0.0-148.0-1.0","null","<p></p>","null","","","","","","","","","","","","","","","","","","","","","","",""
"","do_recog","286","765385","0.0-149.0-0.0","791.5","","","","","","","","54","","","","362","probe-200","","","","","1","[object Object]","162","4","1","","",""
"","html-keyboard-response","287","766397","0.0-149.0-1.0","null","<p></p>","null","","","","","","","","","","","","","","","","","","","","","","",""
"","do_trial","288","769360","0.0-150.0-0.0","412.89999997615814","","","","","","","","49","1,0,0","6","blank","363","null","0.6518410566894473","0.07691724786440297","0.3431127163741154","1","","","","","","","",""
"","html-keyboard-response","289","770372","0.0-150.0-1.0","null","<p></p>","null","","","","","","","","","","","","","","","","","","","","","","",""
"","do_trial","290","773256","0.0-151.0-0.0","330.0999999642372","","","","","","","","51","1,0,0","6","blank","364","null","0.7569998642967392","0.05096381019801574","0.40166554295273627","0","","","","","","","",""
"","html-keyboard-response","291","774268","0.0-151.0-1.0","null","<p></p>","null","","","","","","","","","","","","","","","","","","","","","","",""
"","do_trial","292","776823","0.0-152.0-0.0","4.699999988079071","","","","","","","","49","0,0,0","6","blank","365","null","0.7228911284503193","0.0698042411087134","0.1768643629424248","0","","","","","","","",""
"","html-keyboard-response","293","777824","0.0-152.0-1.0","null","<p></p>","null","","","","","","","","","","","","","","","","","","","","","","",""
"","do_trial","294","780582","0.0-153.0-0.0","210.5","","","","","","","","49","1,0,0","6","blank","366","null","0.6876647596206225","0.12026269750006133","0.24226610266376472","1","","","","","","","",""
"","html-keyboard-response","295","781595","0.0-153.0-1.0","null","<p></p>","null","","","","","","","","","","","","","","","","","","","","","","",""
"","do_trial","296","784449","0.0-154.0-0.0","307.39999997615814","","","","","","","","49","0,0,1","6","blank","367","null","0.6737169112133311","0.07212202250232372","0.36529197819411025","0","","","","","","","",""
"","html-keyboard-response","297","785459","0.0-154.0-1.0","null","<p></p>","null","","","","","","","","","","","","","","","","","","","","","","",""
"","do_trial","298","788435","0.0-155.0-0.0","437.9000000357628","","","","","","","","49","1,0,1","6","blank","368","null","0.5833430924101749","0.12020936719776279","0.28600368694024886","1","","","","","","","",""
"","html-keyboard-response","299","789451","0.0-155.0-1.0","null","<p></p>","null","","","","","","","","","","","","","","","","","","","","","","",""
"","do_trial","300","792292","0.0-156.0-0.0","295.89999997615814","","","","","","","","49","1,0,0","6","blank","369","null","0.6489367479929102","0.10973751246464683","0.3724487534160021","1","","","","","","","",""
"","html-keyboard-response","301","793306","0.0-156.0-1.0","null","<p></p>","null","","","","","","","","","","","","","","","","","","","","","","",""
"","do_recog","302","795409","0.0-157.0-0.0","588.7999999523163","","","","","","","","54","","","","370","probe-79","","","","","1","[object Object]","166","4","1","","",""
"","html-keyboard-response","303","796423","0.0-157.0-1.0","null","<p></p>","null","","","","","","","","","","","","","","","","","","","","","","",""
"","do_trial","304","799233","0.0-158.0-0.0","261.10000002384186","","","","","","","","49","1,0,1","6","blank","371","null","0.7188755913421079","0.16400933629670733","0.4807261945241407","1","","","","","","","",""
"","html-keyboard-response","305","800237","0.0-158.0-1.0","null","<p></p>","null","","","","","","","","","","","","","","","","","","","","","","",""
"","do_trial","306","803155","0.0-159.0-0.0","372","","","","","","","","49","0,0,0","6","blank","372","null","0.44479766867006876","0.18328871026161","0.46223661440764674","0","","","","","","","",""
"","html-keyboard-response","307","804169","0.0-159.0-1.0","null","<p></p>","null","","","","","","","","","","","","","","","","","","","","","","",""
"","do_trial","308","806982","0.0-160.0-0.0","269.60000002384186","","","","","","","","49","0,0,1","6","blank","373","null","0.6890512894808006","0.12035196126643818","0.3293219679887994","0","","","","","","","",""
"","html-keyboard-response","309","807997","0.0-160.0-1.0","null","<p></p>","null","","","","","","","","","","","","","","","","","","","","","","",""
"","do_trial","310","810620","0.0-161.0-0.0","70.80000001192093","","","","","","","","50","1,0,0","6","blank","374","null","0.5865984795954359","0.1816772920539748","0.2862804773102986","0","","","","","","","",""
"","html-keyboard-response","311","811635","0.0-161.0-1.0","null","<p></p>","null","","","","","","","","","","","","","","","","","","","","","","",""
"","do_trial","312","814380","0.0-162.0-0.0","200.39999997615814","","","","","","","","51","1,0,0","6","blank","375","null","0.5701838975591492","0.06662333447010099","0.2988270209579596","0","","","","","","","",""
"","html-keyboard-response","313","815384","0.0-162.0-1.0","null","<p></p>","null","","","","","","","","","","","","","","","","","","","","","","",""
"","do_trial","314","818631","0.0-163.0-0.0","692.6999999880791","","","","","","","","50","0,0,0","6","blank","376","null","0.6044306349628441","0.1867084755856142","0.39408632927101694","0","","","","","","","",""
"","html-keyboard-response","315","819634","0.0-163.0-1.0","null","<p></p>","null","","","","","","","","","","","","","","","","","","","","","","",""
"","do_recog","316","821698","0.0-164.0-0.0","545","","","","","","","","55","","","","377","probe-113","","","","","1","[object Object]","129","3","0","","",""
"","html-keyboard-response","317","822712","0.0-164.0-1.0","null","<p></p>","null","","","","","","","","","","","","","","","","","","","","","","",""
"","do_trial","318","825624","0.0-165.0-0.0","358.7999999523163","","","","","","","","49","0,0,0","6","blank","378","null","0.6197597445132332","0.11508491560994764","0.3079445059113815","0","","","","","","","",""
"","html-keyboard-response","319","826635","0.0-165.0-1.0","null","<p></p>","null","","","","","","","","","","","","","","","","","","","","","","",""
"","do_trial","320","829437","0.0-166.0-0.0","260.2999999523163","","","","","","","","49","1,0,0","6","blank","379","null","0.676462270521845","0.09446044612328526","0.4248000352894822","1","","","","","","","",""
"","html-keyboard-response","321","830449","0.0-166.0-1.0","null","<p></p>","null","","","","","","","","","","","","","","","","","","","","","","",""
"","do_trial","322","833286","0.0-167.0-0.0","288.9000000357628","","","","","","","","49","0,0,1","6","blank","380","null","0.6310416719385349","0.17752277041792336","0.26878457309456183","0","","","","","","","",""
"","html-keyboard-response","323","834300","0.0-167.0-1.0","null","<p></p>","null","","","","","","","","","","","","","","","","","","","","","","",""
"","do_trial","324","837168","0.0-168.0-0.0","315.19999998807907","","","","","","","","49","1,0,0","6","blank","381","null","0.6351302118145175","0.05110447320204102","0.39385797157796665","1","","","","","","","",""
"","html-keyboard-response","325","838180","0.0-168.0-1.0","null","<p></p>","null","","","","","","","","","","","","","","","","","","","","","","",""
"","do_recog","326","840596","0.0-169.0-0.0","899.3000000119209","","","","","","","","54","","","","382","probe-14","","","","","1","[object Object]","88","2","1","","",""
"","html-keyboard-response","327","841608","0.0-169.0-1.0","null","<p></p>","null","","","","","","","","","","","","","","","","","","","","","","",""
"","do_trial","328","845413","0.0-170.0-0.0","1258.199999988079","","","","","","","","50","1,0,0","6","blank","383","null","0.5940892810353197","0.14886818486420342","0.1597353870841985","0","","","","","","","",""
"","html-keyboard-response","329","846427","0.0-170.0-1.0","null","<p></p>","null","","","","","","","","","","","","","","","","","","","","","","",""
"","do_trial","330","848980","0.0-171.0-0.0","0.10000002384185791","","","","","","","","49","0,0,0","6","blank","384","null","0.6359403153842873","0.16635146845444343","0.2397076320692086","0","","","","","","","",""
"","html-keyboard-response","331","849992","0.0-171.0-1.0","null","<p></p>","null","","","","","","","","","","","","","","","","","","","","","","",""
"","do_trial","332","853124","0.0-172.0-0.0","583.3000000119209","","","","","","","","50","1,1,0","6","blank","385","null","0.6776400493145707","0.09622884140892048","0.28826547557095616","1","","","","","","","",""
"","html-keyboard-response","333","854139","0.0-172.0-1.0","null","<p></p>","null","","","","","","","","","","","","","","","","","","","","","","",""
"","do_recog","334","856230","0.0-173.0-0.0","578.5","","","","","","","","54","","","","386","probe-103","","","","","1","[object Object]","46","1","1","","",""
"","html-keyboard-response","335","857245","0.0-173.0-1.0","null","<p></p>","null","","","","","","","","","","","","","","","","","","","","","","",""
"","do_trial","336","860655","0.0-174.0-0.0","856.5999999642372","","","","","","","","50","1,0,1","6","blank","387","null","0.502237211855185","0.10085329342668505","0.34143748040562905","0","","","","","","","",""
"","html-keyboard-response","337","861666","0.0-174.0-1.0","null","<p></p>","null","","","","","","","","","","","","","","","","","","","","","","",""
"","break","338","862974","0.0-174.0-2.0","1306.699999988079","<div class='center'><p>Time to take a quick break! You have 2 minutes to rest, but you can move on sooner if you'd like.</p><p> Press the <b>space bar</b> to continue.</p></div>","32","","","","","","","","","","","","","","","","","","","","","","",""
"","do_trial","339","866218","0.0-174.0-3.0","688.8000000119209","","","","","","","","49","1,1,1","6","blank","388","null","0.6964957004147506","0.10956139423568764","0.40531080538075953","1","","","","","","","",""
"","html-keyboard-response","340","867228","0.0-174.0-4.0","null","<p></p>","null","","","","","","","","","","","","","","","","","","","","","","",""
"","do_recog","341","869438","0.0-175.0-0.0","698.2999999523163","","","","","","","","54","","","","389","probe-31","","","","","1","[object Object]","205","5","1","","",""
"","html-keyboard-response","342","870449","0.0-175.0-1.0","null","<p></p>","null","","","","","","","","","","","","","","","","","","","","","","",""
"","do_trial","343","873427","0.0-176.0-0.0","429.10000002384186","","","","","","","","50","1,0,0","6","blank","390","null","0.6140531605000706","0.14435012609480496","0.27010993313868653","0","","","","","","","",""
"","html-keyboard-response","344","874441","0.0-176.0-1.0","null","<p></p>","null","","","","","","","","","","","","","","","","","","","","","","",""
"","do_trial","345","877006","0.0-177.0-0.0","11.199999988079071","","","","","","","","49","1,0,1","6","blank","391","null","0.629289085755376","0.06246336762441469","0.2592730914513443","1","","","","","","","",""
"","html-keyboard-response","346","878020","0.0-177.0-1.0","null","<p></p>","null","","","","","","","","","","","","","","","","","","","","","","",""
"","do_trial","347","880685","0.0-178.0-0.0","109","","","","","","","","49","0,0,0","6","blank","392","null","0.4806675310110326","0.18113268274641328","0.2819546588973495","0","","","","","","","",""
"","html-keyboard-response","348","881688","0.0-178.0-1.0","null","<p></p>","null","","","","","","","","","","","","","","","","","","","","","","",""
"","do_trial","349","884363","0.0-179.0-0.0","115.09999996423721","","","","","","","","50","0,0,0","6","blank","393","null","0.4643887702483829","0.06427928236078943","0.1764783479535561","0","","","","","","","",""
"","html-keyboard-response","350","885374","0.0-179.0-1.0","null","<p></p>","null","","","","","","","","","","","","","","","","","","","","","","",""
"","do_trial","351","887927","0.0-180.0-0.0","0","","","","","","","","49","1,0,1","6","blank","394","null","0.478985672583743","0.09044389044466691","0.11149171819756999","1","","","","","","","",""
"","html-keyboard-response","352","888929","0.0-180.0-1.0","null","<p></p>","null","","","","","","","","","","","","","","","","","","","","","","",""
"","do_trial","353","891668","0.0-181.0-0.0","195.60000002384186","","","","","","","","49","0,0,1","6","blank","395","null","0.42774383790732123","0.07854008029578761","0.2741555839651097","0","","","","","","","",""
"","html-keyboard-response","354","892684","0.0-181.0-1.0","null","<p></p>","null","","","","","","","","","","","","","","","","","","","","","","",""
"","do_recog","355","894803","0.0-182.0-0.0","601.1000000238419","","","","","","","","54","","","","396","probe-13","","","","","1","[object Object]","128","3","1","","",""
"","html-keyboard-response","356","895816","0.0-182.0-1.0","null","<p></p>","null","","","","","","","","","","","","","","","","","","","","","","",""
"","do_trial","357","898646","0.0-183.0-0.0","283.30000001192093","","","","","","","","49","0,1,1","6","blank","397","null","0.427742027934666","0.06604874410678889","0.358964041469785","0","","","","","","","",""
"","html-keyboard-response","358","899659","0.0-183.0-1.0","null","<p></p>","null","","","","","","","","","","","","","","","","","","","","","","",""
"","do_trial","359","902339","0.0-184.0-0.0","132.89999997615814","","","","","","","","51","0,0,1","6","blank","398","null","0.2645375559127467","0.05330755931246709","0.4132449486922587","1","","","","","","","",""
"","html-keyboard-response","360","903353","0.0-184.0-1.0","null","<p></p>","null","","","","","","","","","","","","","","","","","","","","","","",""
"","do_trial","361","906299","0.0-185.0-0.0","395.89999997615814","","","","","","","","50","0,0,0","6","blank","399","null","0.25266942706187956","0.09301563670869595","0.4544033795465749","0","","","","","","","",""
"","html-keyboard-response","362","907303","0.0-185.0-1.0","null","<p></p>","null","","","","","","","","","","","","","","","","","","","","","","",""
"","do_trial","363","910154","0.0-186.0-0.0","292.5","","","","","","","","50","1,0,1","6","blank","400","null","0.24729848804237592","0.09957562581981405","0.5435925666981055","0","","","","","","","",""
"","html-keyboard-response","364","911156","0.0-186.0-1.0","null","<p></p>","null","","","","","","","","","","","","","","","","","","","","","","",""
"","do_trial","365","913848","0.0-187.0-0.0","140.20000004768372","","","","","","","","49","0,0,0","6","blank","401","null","0.18598528397000721","0.0581203864199327","0.672296461826383","0","","","","","","","",""
"","html-keyboard-response","366","914863","0.0-187.0-1.0","null","<p></p>","null","","","","","","","","","","","","","","","","","","","","","","",""
"","do_trial","367","917783","0.0-188.0-0.0","365.89999997615814","","","","","","","","49","0,0,0","6","blank","402","null","0.3090584218251161","0.08944918534496667","0.5997773611236777","0","","","","","","","",""
"","html-keyboard-response","368","918795","0.0-188.0-1.0","null","<p></p>","null","","","","","","","","","","","","","","","","","","","","","","",""
"","do_trial","369","921675","0.0-189.0-0.0","332.30000001192093","","","","","","","","51","1,0,0","6","blank","403","null","0.33857665785336644","0.08806900253097417","0.5709895583946701","0","","","","","","","",""
"","html-keyboard-response","370","922686","0.0-189.0-1.0","null","<p></p>","null","","","","","","","","","","","","","","","","","","","","","","",""
"","do_recog","371","924787","0.0-190.0-0.0","586.8000000119209","","","","","","","","54","","","","404","probe-65","","","","","1","[object Object]","160","4","1","","",""
"","html-keyboard-response","372","925800","0.0-190.0-1.0","null","<p></p>","null","","","","","","","","","","","","","","","","","","","","","","",""
"","do_trial","373","928701","0.0-191.0-0.0","344.9000000357628","","","","","","","","49","0,0,0","6","blank","405","null","0.46325353077451253","0.07008132982463935","0.5060753695179305","0","","","","","","","",""
"","html-keyboard-response","374","929713","0.0-191.0-1.0","null","<p></p>","null","","","","","","","","","","","","","","","","","","","","","","",""
"","do_trial","375","933266","0.0-192.0-0.0","996.5999999642372","","","","","","","","50","1,1,1","6","blank","406","null","0.4268363270276598","0.12822357650380978","0.6416300153826237","1","","","","","","","",""
"","html-keyboard-response","376","934279","0.0-192.0-1.0","null","<p></p>","null","","","","","","","","","","","","","","","","","","","","","","",""
"","do_trial","377","937126","0.0-193.0-0.0","303.5","","","","","","","","51","0,0,0","6","blank","407","null","0.4001102707762364","0.29096722620178816","0.5291129091083476","0","","","","","","","",""
"","html-keyboard-response","378","938137","0.0-193.0-1.0","null","<p></p>","null","","","","","","","","","","","","","","","","","","","","","","",""
"","do_recog","379","940144","0.0-194.0-0.0","493.80000001192093","","","","","","","","54","","","","408","probe-224","","","","","1","[object Object]","200","5","1","","",""
"","html-keyboard-response","380","941157","0.0-194.0-1.0","null","<p></p>","null","","","","","","","","","","","","","","","","","","","","","","",""
"","do_trial","381","944042","0.0-195.0-0.0","334.89999997615814","","","","","","","","50","0,0,1","6","blank","409","null","0.3511829259685475","0.1928799736091336","0.5826658093202566","0","","","","","","","",""
"","html-keyboard-response","382","945044","0.0-195.0-1.0","null","<p></p>","null","","","","","","","","","","","","","","","","","","","","","","",""
"","do_trial","383","948114","0.0-196.0-0.0","524.2999999523163","","","","","","","","50","0,0,1","6","blank","410","null","0.30155157914940994","0.11163623831433048","0.7018506131388701","0","","","","","","","",""
"","html-keyboard-response","384","949115","0.0-196.0-1.0","null","<p></p>","null","","","","","","","","","","","","","","","","","","","","","","",""
"","do_trial","385","953038","0.0-197.0-0.0","1372.3999999761581","","","","","","","","50","1,0,0","6","blank","411","null","0.15946261376508697","0.23698343986590417","0.6418920263177358","0","","","","","","","",""
"","html-keyboard-response","386","954040","0.0-197.0-1.0","null","<p></p>","null","","","","","","","","","","","","","","","","","","","","","","",""
"","do_trial","387","956908","0.0-198.0-0.0","320.80000001192093","","","","","","","","50","0,0,0","6","blank","412","null","0.2370191823991189","0.1282323595150489","0.6668248718147622","0","","","","","","","",""
"","html-keyboard-response","388","957922","0.0-198.0-1.0","null","<p></p>","null","","","","","","","","","","","","","","","","","","","","","","",""
"","do_trial","389","960847","0.0-199.0-0.0","371.5","","","","","","","","49","0,0,1","6","blank","413","null","0.21506387475549646","0.09789406535272177","0.7747406915328601","0","","","","","","","",""
"","html-keyboard-response","390","961849","0.0-199.0-1.0","null","<p></p>","null","","","","","","","","","","","","","","","","","","","","","","",""
"","do_trial","391","964744","0.0-200.0-0.0","349.5999999642372","","","","","","","","50","0,0,1","6","blank","414","null","0.2764283612379007","0.07513259038191512","0.6037051007687376","0","","","","","","","",""
"","html-keyboard-response","392","965754","0.0-200.0-1.0","null","<p></p>","null","","","","","","","","","","","","","","","","","","","","","","",""
"","do_recog","393","967796","0.0-201.0-0.0","531.8000000119209","","","","","","","","54","","","","415","probe-40","","","","","1","[object Object]","80","2","1","","",""
"","html-keyboard-response","394","968811","0.0-201.0-1.0","null","<p></p>","null","","","","","","","","","","","","","","","","","","","","","","",""
"","do_trial","395","971758","0.0-202.0-0.0","401.7999999523163","","","","","","","","51","1,0,1","6","blank","416","null","0.42616553074287916","0.16575511738432802","0.6233605073127635","1","","","","","","","",""
"","html-keyboard-response","396","972771","0.0-202.0-1.0","null","<p></p>","null","","","","","","","","","","","","","","","","","","","","","","",""
"","do_trial","397","975509","0.0-203.0-0.0","189.0999999642372","","","","","","","","50","0,0,1","6","blank","417","null","0.38317462745672454","0.23123196312257704","0.6179058061816329","0","","","","","","","",""
"","html-keyboard-response","398","976524","0.0-203.0-1.0","null","<p></p>","null","","","","","","","","","","","","","","","","","","","","","","",""
"","do_recog","399","978566","0.0-204.0-0.0","525.8000000119209","","","","","","","","53","","","","418","probe-25","","","","","1","[object Object]","125","3","1","","",""
"","html-keyboard-response","400","979568","0.0-204.0-1.0","null","<p></p>","null","","","","","","","","","","","","","","","","","","","","","","",""
"","do_trial","401","982793","0.0-205.0-0.0","662.8000000119209","","","","","","","","50","0,1,1","6","blank","419","null","0.2574252247371495","0.22366786191760998","0.6122261456426151","1","","","","","","","",""
"","html-keyboard-response","402","983806","0.0-205.0-1.0","null","<p></p>","null","","","","","","","","","","","","","","","","","","","","","","",""
"","do_trial","403","986754","0.0-206.0-0.0","405.19999998807907","","","","","","","","51","0,0,1","6","blank","420","null","0.2804209194323147","0.20490042808752573","0.5313616447052897","1","","","","","","","",""
"","html-keyboard-response","404","987766","0.0-206.0-1.0","null","<p></p>","null","","","","","","","","","","","","","","","","","","","","","","",""
"","do_recog","405","989968","0.0-207.0-0.0","691.1000000238419","","","","","","","","53","","","","421","probe-33","","","","","1","[object Object]","81","2","1","","",""
"","html-keyboard-response","406","990985","0.0-207.0-1.0","null","<p></p>","null","","","","","","","","","","","","","","","","","","","","","","",""
"","do_trial","407","993821","0.0-208.0-0.0","288.89999997615814","","","","","","","","49","0,0,0","6","blank","422","null","0.17565252645961374","0.15927539951008732","0.542592715995041","0","","","","","","","",""
"","html-keyboard-response","408","994835","0.0-208.0-1.0","null","<p></p>","null","","","","","","","","","","","","","","","","","","","","","","",""
"","do_trial","409","997813","0.0-209.0-0.0","429.30000001192093","","","","","","","","51","0,0,1","6","blank","423","null","0.19449135508440932","0.10471899029561278","0.4850758965400943","1","","","","","","","",""
"","html-keyboard-response","410","998814","0.0-209.0-1.0","null","<p></p>","null","","","","","","","","","","","","","","","","","","","","","","",""
"","do_recog","411","1000898","0.0-210.0-0.0","573.5","","","","","","","","54","","","","424","probe-39","","","","","1","[object Object]","47","1","1","","",""
"","html-keyboard-response","412","1001910","0.0-210.0-1.0","null","<p></p>","null","","","","","","","","","","","","","","","","","","","","","","",""
"","do_trial","413","1005122","0.0-211.0-0.0","668.4000000357628","","","","","","","","50","1,0,0","6","blank","425","null","0.19674207991414086","0.1027837376694433","0.5921021987857171","0","","","","","","","",""
"","html-keyboard-response","414","1006140","0.0-211.0-1.0","null","<p></p>","null","","","","","","","","","","","","","","","","","","","","","","",""
"","do_trial","415","1009051","0.0-212.0-0.0","364.30000001192093","","","","","","","","50","0,0,1","6","blank","426","null","0.2190554963736638","0.12905995636124706","0.6163516131790714","0","","","","","","","",""
"","html-keyboard-response","416","1010053","0.0-212.0-1.0","null","<p></p>","null","","","","","","","","","","","","","","","","","","","","","","",""
"","do_trial","417","1012605","0.0-213.0-0.0","0.800000011920929","","","","","","","","49","0,0,0","6","blank","427","null","0.3191848525388298","0.06438611638883167","0.5760152532999877","0","","","","","","","",""
"","html-keyboard-response","418","1013616","0.0-213.0-1.0","null","<p></p>","null","","","","","","","","","","","","","","","","","","","","","","",""
"","break","419","1092183","0.0-213.0-2.0","78565.70000004768","<div class='center'><p>Time to take a quick break! You have 2 minutes to rest, but you can move on sooner if you'd like.</p><p> Press the <b>space bar</b> to continue.</p></div>","32","","","","","","","","","","","","","","","","","","","","","","",""
"","do_trial","420","1095726","0.0-213.0-3.0","994.6999999880791","","","","","","","","50","0,0,1","6","blank","428","null","0.223943142640039","0.14661777091989286","0.5456168970999111","0","","","","","","","",""
"","html-keyboard-response","421","1096728","0.0-213.0-4.0","null","<p></p>","null","","","","","","","","","","","","","","","","","","","","","","",""
"","do_trial","422","1099581","0.0-214.0-0.0","290.30000001192093","","","","","","","","50","1,0,0","6","blank","429","null","0.2807798373402698","0.1717819488287163","0.4884912089179946","0","","","","","","","",""
"","html-keyboard-response","423","1100595","0.0-214.0-1.0","null","<p></p>","null","","","","","","","","","","","","","","","","","","","","","","",""
"","do_trial","424","1103378","0.0-215.0-0.0","242.89999997615814","","","","","","","","49","0,1,1","6","blank","430","null","0.2888380537250964","0.2876032073425534","0.46223308202110697","0","","","","","","","",""
"","html-keyboard-response","425","1104392","0.0-215.0-1.0","null","<p></p>","null","","","","","","","","","","","","","","","","","","","","","","",""
"","do_trial","426","1107379","0.0-216.0-0.0","448.10000002384186","","","","","","","","50","0,1,0","6","blank","431","null","0.3434685954399225","0.10601557204680026","0.44817380330678563","1","","","","","","","",""
"","html-keyboard-response","427","1108387","0.0-216.0-1.0","null","<p></p>","null","","","","","","","","","","","","","","","","","","","","","","",""
"","do_trial","428","1111160","0.0-217.0-0.0","229.30000001192093","","","","","","","","51","1,0,0","6","blank","432","null","0.4712356802340213","0.2513207474467311","0.476353647077838","0","","","","","","","",""
"","html-keyboard-response","429","1112170","0.0-217.0-1.0","null","<p></p>","null","","","","","","","","","","","","","","","","","","","","","","",""
"","do_recog","430","1114256","0.0-218.0-0.0","570.8000000119209","","","","","","","","54","","","","433","probe-117","","","","","1","[object Object]","124","3","1","","",""
"","html-keyboard-response","431","1115266","0.0-218.0-1.0","null","<p></p>","null","","","","","","","","","","","","","","","","","","","","","","",""
"","do_trial","432","1118244","0.0-219.0-0.0","422.19999998807907","","","","","","","","49","1,0,0","6","blank","434","null","0.42935365425103","0.06470500906678284","0.4489739434854685","1","","","","","","","",""
"","html-keyboard-response","433","1119253","0.0-219.0-1.0","null","<p></p>","null","","","","","","","","","","","","","","","","","","","","","","",""
"","do_recog","434","1121314","0.0-220.0-0.0","550.6000000238419","","","","","","","","54","","","","435","probe-46","","","","","1","[object Object]","121","3","1","","",""
"","html-keyboard-response","435","1122326","0.0-220.0-1.0","null","<p></p>","null","","","","","","","","","","","","","","","","","","","","","","",""
"","do_trial","436","1125425","0.0-221.0-0.0","530.6999999880791","","","","","","","","50","0,0,1","6","blank","436","null","0.3169828325296448","0.18064971248968525","0.5257010658121959","0","","","","","","","",""
"","html-keyboard-response","437","1126437","0.0-221.0-1.0","null","<p></p>","null","","","","","","","","","","","","","","","","","","","","","","",""
"","do_trial","438","1129441","0.0-222.0-0.0","442.80000001192093","","","","","","","","49","0,1,1","6","blank","437","null","0.17493247956521443","0.3504710784350854","0.6374208549830273","0","","","","","","","",""
"","html-keyboard-response","439","1130455","0.0-222.0-1.0","null","<p></p>","null","","","","","","","","","","","","","","","","","","","","","","",""
"","do_trial","440","1133540","0.0-223.0-0.0","531.2000000476837","","","","","","","","49","0,1,1","6","blank","438","null","0.19232060656860828","0.2661435561868656","0.7348542890229647","0","","","","","","","",""
"","html-keyboard-response","441","1134542","0.0-223.0-1.0","null","<p></p>","null","","","","","","","","","","","","","","","","","","","","","","",""
"","do_trial","442","1137601","0.0-224.0-0.0","495.39999997615814","","","","","","","","51","0,0,1","6","blank","439","null","0.22801076820603602","0.21177239765617942","0.8070315235987237","1","","","","","","","",""
"","html-keyboard-response","443","1138616","0.0-224.0-1.0","null","<p></p>","null","","","","","","","","","","","","","","","","","","","","","","",""
"","do_trial","444","1141671","0.0-225.0-0.0","493.0999999642372","","","","","","","","49","0,0,1","6","blank","440","null","0.2621573231745036","0.11433895594814686","0.665600221479299","0","","","","","","","",""
"","html-keyboard-response","445","1142683","0.0-225.0-1.0","null","<p></p>","null","","","","","","","","","","","","","","","","","","","","","","",""
"","do_trial","446","1146026","0.0-226.0-0.0","785.8999999761581","","","","","","","","51","0,0,1","6","blank","441","null","0.1675494244756899","0.087683019526158","0.7002683097739211","1","","","","","","","",""
"","html-keyboard-response","447","1147039","0.0-226.0-1.0","null","<p></p>","null","","","","","","","","","","","","","","","","","","","","","","",""
"","do_recog","448","1148594","0.0-227.0-0.0","42.30000001192093","","","","","","","","54","","","","442","probe-99","","","","","1","[object Object]","43","1","1","","",""
"","html-keyboard-response","449","1149605","0.0-227.0-1.0","null","<p></p>","null","","","","","","","","","","","","","","","","","","","","","","",""
"","do_trial","450","1153959","0.0-228.0-0.0","1810.3999999761581","","","","","","","","50","0,0,1","6","blank","443","null","0.24450559753967552","0.11177923858088289","0.6518103753031491","0","","","","","","","",""
"","html-keyboard-response","451","1154970","0.0-228.0-1.0","null","<p></p>","null","","","","","","","","","","","","","","","","","","","","","","",""
"","do_trial","452","1157794","0.0-229.0-0.0","280.5999999642372","","","","","","","","49","1,0,1","6","blank","444","null","0.327789558686085","0.20273685416245585","0.6927067517390907","1","","","","","","","",""
"","html-keyboard-response","453","1158808","0.0-229.0-1.0","null","<p></p>","null","","","","","","","","","","","","","","","","","","","","","","",""
"","do_trial","454","1161566","0.0-230.0-0.0","209.30000001192093","","","","","","","","50","0,0,0","6","blank","445","null","0.26588638259945097","0.1894481159830959","0.6425017807485764","0","","","","","","","",""
"","html-keyboard-response","455","1162582","0.0-230.0-1.0","null","<p></p>","null","","","","","","","","","","","","","","","","","","","","","","",""
"","do_recog","456","1164324","0.0-231.0-0.0","227.39999997615814","","","","","","","","55","","","","446","probe-254","","","","","0","[object Object]","null","null","1","","",""
"","html-keyboard-response","457","1165340","0.0-231.0-1.0","null","<p></p>","null","","","","","","","","","","","","","","","","","","","","","","",""
"","do_trial","458","1168468","0.0-232.0-0.0","586.3999999761581","","","","","","","","50","1,0,0","6","blank","447","null","0.19791186564393337","0.18837298638320227","0.6717323404517427","0","","","","","","","",""
"","html-keyboard-response","459","1169483","0.0-232.0-1.0","null","<p></p>","null","","","","","","","","","","","","","","","","","","","","","","",""
"","do_recog","460","1171500","0.0-233.0-0.0","508.89999997615814","","","","","","","","55","","","","448","probe-217","","","","","1","[object Object]","201","5","0","","",""
"","html-keyboard-response","461","1172514","0.0-233.0-1.0","null","<p></p>","null","","","","","","","","","","","","","","","","","","","","","","",""
"","do_trial","462","1175598","0.0-234.0-0.0","526.8999999761581","","","","","","","","49","1,0,1","6","blank","449","null","0.10050448247085163","0.2345297390527497","0.6016082538781222","1","","","","","","","",""
"","html-keyboard-response","463","1176614","0.0-234.0-1.0","null","<p></p>","null","","","","","","","","","","","","","","","","","","","","","","",""
"","do_recog","464","1178514","0.0-235.0-0.0","386.30000001192093","","","","","","","","55","","","","450","probe-61","","","","","1","[object Object]","44","1","0","","",""
"","html-keyboard-response","465","1179530","0.0-235.0-1.0","null","<p></p>","null","","","","","","","","","","","","","","","","","","","","","","",""
"","do_trial","466","1182800","0.0-236.0-0.0","728.5999999642372","","","","","","","","50","0,1,1","6","blank","451","null","0.16344148274909537","0.31609716399288124","0.6070431287837167","1","","","","","","","",""
"","html-keyboard-response","467","1183802","0.0-236.0-1.0","null","<p></p>","null","","","","","","","","","","","","","","","","","","","","","","",""
"","do_recog","468","1186154","0.0-237.0-0.0","832.5999999642372","","","","","","","","56","","","","452","probe-44","","","","","1","[object Object]","49","1","0","","",""
"","html-keyboard-response","469","1187164","0.0-237.0-1.0","null","<p></p>","null","","","","","","","","","","","","","","","","","","","","","","",""
"","do_trial","470","1190221","0.0-238.0-0.0","514.1000000238419","","","","","","","","50","0,1,1","6","blank","453","null","0.2721328023527138","0.24714156542344787","0.5148813407332528","1","","","","","","","",""
"","html-keyboard-response","471","1191230","0.0-238.0-1.0","null","<p></p>","null","","","","","","","","","","","","","","","","","","","","","","",""
"","do_trial","472","1194065","0.0-239.0-0.0","282.80000001192093","","","","","","","","49","0,0,0","6","blank","454","null","0.4516889797118768","0.11123042381372564","0.508508621482315","0","","","","","","","",""
"","html-keyboard-response","473","1195071","0.0-239.0-1.0","null","<p></p>","null","","","","","","","","","","","","","","","","","","","","","","",""
"","do_trial","474","1197876","0.0-240.0-0.0","246","","","","","","","","51","1,0,1","6","blank","455","null","0.5688997334975452","0.054872978243763776","0.3766192077662792","1","","","","","","","",""
"","html-keyboard-response","475","1198882","0.0-240.0-1.0","null","<p></p>","null","","","","","","","","","","","","","","","","","","","","","","",""
"","do_trial","476","1201885","0.0-241.0-0.0","446.0999999642372","","","","","","","","49","0,0,0","6","blank","456","null","0.5288121864675491","0.0944132597153855","0.41327771766567767","0","","","","","","","",""
"","html-keyboard-response","477","1202889","0.0-241.0-1.0","null","<p></p>","null","","","","","","","","","","","","","","","","","","","","","","",""
"","do_trial","478","1205658","0.0-242.0-0.0","212.60000002384186","","","","","","","","51","0,1,1","6","blank","457","null","0.513884081493789","0.25842247573550425","0.33631619243919697","1","","","","","","","",""
"","html-keyboard-response","479","1206662","0.0-242.0-1.0","null","<p></p>","null","","","","","","","","","","","","","","","","","","","","","","",""
"","do_trial","480","1209745","0.0-243.0-0.0","530.8999999761581","","","","","","","","49","0,0,0","6","blank","458","null","0.5723429112003516","0.3163887286792138","0.2110559420221196","0","","","","","","","",""
"","html-keyboard-response","481","1210752","0.0-243.0-1.0","null","<p></p>","null","","","","","","","","","","","","","","","","","","","","","","",""
"","do_trial","482","1214356","0.0-244.0-0.0","1030.5","","","","","","","","50","1,1,0","6","blank","459","null","0.5143247793510216","0.2876547507986206","0.18973926824889012","1","","","","","","","",""
"","html-keyboard-response","483","1215361","0.0-244.0-1.0","null","<p></p>","null","","","","","","","","","","","","","","","","","","","","","","",""
"","do_recog","484","1217462","0.0-245.0-0.0","593.5","","","","","","","","56","","","","460","probe-114","","","","","1","[object Object]","86","2","0","","",""
"","html-keyboard-response","485","1218465","0.0-245.0-1.0","null","<p></p>","null","","","","","","","","","","","","","","","","","","","","","","",""
"","do_trial","486","1221536","0.0-246.0-0.0","524.3000000119209","","","","","","","","51","1,0,0","6","blank","461","null","0.5662764552361632","0.21511336036997908","0.19696811564093655","0","","","","","","","",""
"","html-keyboard-response","487","1222548","0.0-246.0-1.0","null","<p></p>","null","","","","","","","","","","","","","","","","","","","","","","",""
"","do_trial","488","1225244","0.0-247.0-0.0","155.5999999642372","","","","","","","","50","1,0,1","6","blank","462","null","0.6111783575175843","0.14056994241398374","0.3337562925969078","0","","","","","","","",""
"","html-keyboard-response","489","1226255","0.0-247.0-1.0","null","<p></p>","null","","","","","","","","","","","","","","","","","","","","","","",""
"","do_trial","490","1229233","0.0-248.0-0.0","436.89999997615814","","","","","","","","50","1,0,0","6","blank","463","null","0.5727435833724815","0.15610488376812204","0.30890610248296724","0","","","","","","","",""
"","html-keyboard-response","491","1230241","0.0-248.0-1.0","null","<p></p>","null","","","","","","","","","","","","","","","","","","","","","","",""
"","do_trial","492","1233193","0.0-249.0-0.0","394.5","","","","","","","","49","0,0,0","6","blank","464","null","0.6116562963491702","0.1458806706648706","0.36346508458631765","0","","","","","","","",""
"","html-keyboard-response","493","1234195","0.0-249.0-1.0","null","<p></p>","null","","","","","","","","","","","","","","","","","","","","","","",""
"","do_trial","494","1237245","0.0-250.0-0.0","500.69999998807907","","","","","","","","50","1,1,1","6","blank","465","null","0.757448561256209","0.19966097654059087","0.3663073498259813","1","","","","","","","",""
"","html-keyboard-response","495","1238256","0.0-250.0-1.0","null","<p></p>","null","","","","","","","","","","","","","","","","","","","","","","",""
"","do_trial","496","1241132","0.0-251.0-0.0","337.0999999642372","","","","","","","","49","0,0,1","6","blank","466","null","0.6106384727666346","0.11902266758291617","0.31415228652421906","0","","","","","","","",""
"","html-keyboard-response","497","1242136","0.0-251.0-1.0","null","<p></p>","null","","","","","","","","","","","","","","","","","","","","","","",""
"","break","498","1243647","0.0-252.0-0.0","1509.4000000357628","<div class='center'><p>Time to take a quick break! You have 2 minutes to rest, but you can move on sooner if you'd like.</p><p> Press the <b>space bar</b> to continue.</p></div>","32","","","","","","","","","","","","","","","","","","","","","","",""
"","do_recog","499","1245762","0.0-252.0-1.0","593.3999999761581","","","","","","","","53","","","","467","probe-165","","","","","1","[object Object]","203","5","1","","",""
"","html-keyboard-response","500","1246775","0.0-252.0-2.0","null","<p></p>","null","","","","","","","","","","","","","","","","","","","","","","",""
"","do_trial","501","1249690","0.0-253.0-0.0","369.5","","","","","","","","49","1,0,0","6","blank","468","null","0.6615964077168655","0.07275329492823854","0.33141425200098495","1","","","","","","","",""
"","html-keyboard-response","502","1250705","0.0-253.0-1.0","null","<p></p>","null","","","","","","","","","","","","","","","","","","","","","","",""
"","do_recog","503","1252758","0.0-254.0-0.0","546.3000000119209","","","","","","","","54","","","","469","probe-180","","","","","1","[object Object]","126","3","1","","",""
"","html-keyboard-response","504","1253773","0.0-254.0-1.0","null","<p></p>","null","","","","","","","","","","","","","","","","","","","","","","",""
"","do_trial","505","1256920","0.0-255.0-0.0","598","","","","","","","","50","0,0,0","6","blank","470","null","0.5898323605650089","0.08826888845824883","0.3792813783866821","0","","","","","","","",""
"","html-keyboard-response","506","1257922","0.0-255.0-1.0","null","<p></p>","null","","","","","","","","","","","","","","","","","","","","","","",""
"","do_recog","507","1259927","0.0-256.0-0.0","489.5","","","","","","","","54","","","","471","probe-233","","","","","0","[object Object]","null","null","0","","",""
"","html-keyboard-response","508","1260937","0.0-256.0-1.0","null","<p></p>","null","","","","","","","","","","","","","","","","","","","","","","",""
"","do_trial","509","1263885","0.0-257.0-0.0","399.30000001192093","","","","","","","","49","1,0,1","6","blank","472","null","0.597729564424628","0.1393584893899072","0.379474319588064","1","","","","","","","",""
"","html-keyboard-response","510","1264900","0.0-257.0-1.0","null","<p></p>","null","","","","","","","","","","","","","","","","","","","","","","",""
"","do_recog","511","1266864","0.0-258.0-0.0","451.10000002384186","","","","","","","","53","","","","473","probe-235","","","","","0","[object Object]","null","null","0","","",""
"","html-keyboard-response","512","1267866","0.0-258.0-1.0","null","<p></p>","null","","","","","","","","","","","","","","","","","","","","","","",""
"","do_trial","513","1271490","0.0-259.0-0.0","1064.4000000357628","","","","","","","","50","1,0,0","6","blank","474","null","0.6987974176810101","0.23934369169054712","0.22814287227891142","0","","","","","","","",""
"","html-keyboard-response","514","1272503","0.0-259.0-1.0","null","<p></p>","null","","","","","","","","","","","","","","","","","","","","","","",""
"","do_trial","515","1275728","0.0-260.0-0.0","681.2999999523163","","","","","","","","49","1,0,0","6","blank","475","null","0.7051379093691428","0.22223430793471555","0.204008669524733","1","","","","","","","",""
