success,trial_type,trial_index,time_elapsed,internal_node_id,rt,stimulus,subject_id,key_press,response,choice_outcomes,context_n,context_img_id,trial_n,probe_img_id,pR_red,pR_white,pR_black,outcome,is_valid,image_to_show,probed_trial,probed_context,correct,context_id
TRUE,fullscreen,0,3246,0.0-0.0,,,,,,,,,,,,,,,,,,,,
,pavlovia,1,3250,0.0-1.0,,,,,,,,,,,,,,,,,,,,
,html-keyboard-response,2,19381,0.0-2.0,16130.2,"<div class='center'><p>Like yesterday,as the head captain of the ship, you have one important things to do: </p><b><p> Pick the pirate who you think will be most successful at robbing the next ship.</p></b><p>This is important in determining how much bonus money you’ll win.</p><br><p>The game will start by showing you the pirates. First pick a pirate using the <b> 1, 2, 3 </b> buttons on your keyboard. </p><p> Press <b>'1'</b> to choose red beard, <b>'2'</b> to choose white beard, and <b>'3'</b> to choose black beard</p><p> You only have 3 seconds to pick a pirate, so please make a choice quickly! If you are too slow, you’ll have to wait a bit during the time out.</p><p> Don’t feel rushed, but please do try to make a choice every time.</p><p>How good a pirate is at robbing a ship will change depending on the place they are in and how good the defenses are of the ship.</p><p><b>[Press the space bar to begin the practice game]</b></p></div>",611343092396f1d9ed7018ad,32,,,,,,,,,,,,,,,,
,html-keyboard-response,3,32726,0.0-3.0,13349.2,"<div class='center'><p>You’ve arrived at the final island of your journey! Unfortunately, it’s very foggy out, so you won’t be able to see it in the distance like the previous islands you've visited.</p><p>You’ll still be deciding which pirate you want to rob a ship like before. However, because of the fog, you also won’t be able to see the ship.</p><p>This means you do not have to remember the ships you rob on this island.</p><p><b>[Press the space bar to continue]</b></p></div>",,32,,,,,,,,,,,,,,,,
,html-keyboard-response,4,43855,0.0-4.0,11127.6,"<div class='center'><p> Sometimes you’ll be shown a ship, and you will be asked if you saw this ship on a past island.</p><p> Here is an example of what you will see.</p><p><b>[Press the space bar to continue]</b></p><p><img src='run_exp/static/images/tutorial/example_recog_trial.png' height='500'></p></div>",,32,,,,,,,,,,,,,,,,
,html-keyboard-response,5,50684,0.0-5.0,6828.8,"<div class='center'><p> You will press the 5, 6, 7, 8 buttons on your keyboard to respond.</p><p>If you are very sure saw the ship, press <b>5</b> on your keyboard.</p><p> If you think you  saw it before but are not sure, then press <b>6</b>.</p><p> If you think you have not seen it before but are not sure, then press <b>7</b>.</p><p> If you are sure you did not see the ship before, then press <b>8</b>.</p><p><b>[Press the space bar to continue]</b></p><p><img src='run_exp/static/images/tutorial/example_recog_trial.png' height='500'></p></div>",,32,,,,,,,,,,,,,,,,
,html-keyboard-response,6,56728,0.0-6.0,6041.5,"<div class='center'><p> If you remember correctly, then you’ll get a gold coin like this: </p><p><img src='run_exp/static/images/tutorial/reward_small.png' height='200'></p><p>If you do not remember correctly, then you'll see a red x like this: </p><p><img src='run_exp/static/images/tutorial/reward_no.png' height='200'></p><p>Importantly, when you are shown a ship, take the time to remind yourself which island you saw it on. This will help you in the next part of the study.</p><p><b>[Press the space bar to continue]</b></p></div>",,32,,,,,,,,,,,,,,,,
,html-keyboard-response,7,61095,0.0-7.0,4365.6,"<div class='center'><p>Let's go over the important points again. Your job is to: </p><p>1. Pick the pirate who is best at robbing ships and will bring you back gold coins. </p><p>2. Correctly remember whether or not you saw a ship before. If you did see the ship before, remind yourself on which island you saw the ship. </p><p><b>[Press the space bar to begin the next part of the study]</b></p></div>",,32,,,,,,,,,,,,,,,,
,do_welcome,8,62620,0.0-8.0,null,,,,null,,,,,,,,,,,,,,,
,do_trial,9,66117,0.0-9.0-0.0,942.7,,,,49,"0,0,0",6,blank,230,null,0.255089063,0.424818371,0.169641743,0,,,,,,
,html-keyboard-response,10,67128,0.0-9.0-1.0,null,<p></p>,,null,,,,,,,,,,,,,,,,
,do_trial,11,70015,0.0-10.0-0.0,343.4,,,,50,"0,0,1",6,blank,231,null,0.155656593,0.510782972,0.141816549,0,,,,,,
,html-keyboard-response,12,71030,0.0-10.0-1.0,null,<p></p>,,null,,,,,,,,,,,,,,,,
,do_trial,13,73939,0.0-11.0-0.0,370.6,,,,51,"0,0,0",6,blank,232,null,0.166981756,0.475972581,0.095950418,0,,,,,,
,html-keyboard-response,14,74952,0.0-11.0-1.0,null,<p></p>,,null,,,,,,,,,,,,,,,,
,do_trial,15,77759,0.0-12.0-0.0,263.6,,,,49,"0,1,0",6,blank,233,null,0.240184892,0.602737596,0.191376437,0,,,,,,
,html-keyboard-response,16,78772,0.0-12.0-1.0,null,<p></p>,,null,,,,,,,,,,,,,,,,
,do_trial,17,81592,0.0-13.0-0.0,257.3,,,,50,"0,1,1",6,blank,234,null,0.289083187,0.638379878,0.054851047,1,,,,,,
,html-keyboard-response,18,82596,0.0-13.0-1.0,null,<p></p>,,null,,,,,,,,,,,,,,,,
,do_trial,19,85419,0.0-14.0-0.0,272.8000001,,,,50,"0,0,0",6,blank,235,null,0.290982991,0.703118153,0.181229767,0,,,,,,
,html-keyboard-response,20,86425,0.0-14.0-1.0,null,<p></p>,,null,,,,,,,,,,,,,,,,
,do_trial,21,89018,0.0-15.0-0.0,40.19999993,,,,51,"0,0,0",6,blank,236,null,0.132027158,0.617366073,0.284181891,0,,,,,,
,html-keyboard-response,22,90027,0.0-15.0-1.0,null,<p></p>,,null,,,,,,,,,,,,,,,,
,do_trial,23,92673,0.0-16.0-0.0,107.7,,,,50,"0,1,0",6,blank,237,null,0.234447398,0.497307942,0.155264645,1,,,,,,
,html-keyboard-response,24,93680,0.0-16.0-1.0,null,<p></p>,,null,,,,,,,,,,,,,,,,
,do_trial,25,96467,0.0-17.0-0.0,251.1,,,,50,"1,1,0",6,blank,238,null,0.420822623,0.467685086,0.07230551,1,,,,,,
,html-keyboard-response,26,97469,0.0-17.0-1.0,null,<p></p>,,null,,,,,,,,,,,,,,,,
,do_trial,27,100260,0.0-18.0-0.0,250.7,,,,50,"1,1,0",6,blank,239,null,0.451988322,0.58159471,0.085484675,1,,,,,,
,html-keyboard-response,28,101265,0.0-18.0-1.0,null,<p></p>,,null,,,,,,,,,,,,,,,,
,do_trial,29,104052,0.0-19.0-0.0,247.5999999,,,,50,"1,1,1",6,blank,240,null,0.403522939,0.705951869,0.153610872,1,,,,,,
,html-keyboard-response,30,105061,0.0-19.0-1.0,null,<p></p>,,null,,,,,,,,,,,,,,,,
,do_trial,31,107878,0.0-20.0-0.0,265.6,,,,50,"1,0,0",6,blank,241,null,0.42291735,0.694391191,0.165973849,0,,,,,,
,html-keyboard-response,32,108885,0.0-20.0-1.0,null,<p></p>,,null,,,,,,,,,,,,,,,,
,do_recog,33,114900,0.0-21.0-0.0,null,,,,null,,,,242,probe-66,,,,,1,[object Object],206,5,0,
,html-keyboard-response,34,115921,0.0-21.0-1.0,null,<p></p>,,null,,,,,,,,,,,,,,,,
,do_trial,35,119288,0.0-22.0-0.0,823.5,,,,50,"1,1,0",6,blank,243,null,0.64468039,0.478880126,0.194470665,1,,,,,,
,html-keyboard-response,36,120291,0.0-22.0-1.0,null,<p></p>,,null,,,,,,,,,,,,,,,,
,do_trial,37,123090,0.0-23.0-0.0,258.6999999,,,,50,"1,0,1",6,blank,244,null,0.670982793,0.318938163,0.257652015,0,,,,,,
,html-keyboard-response,38,124092,0.0-23.0-1.0,null,<p></p>,,null,,,,,,,,,,,,,,,,
,do_trial,39,127031,0.0-24.0-0.0,399.5,,,,50,"1,1,0",6,blank,245,null,0.761150104,0.197152578,0.119030653,1,,,,,,
,html-keyboard-response,40,128041,0.0-24.0-1.0,null,<p></p>,,null,,,,,,,,,,,,,,,,
,do_trial,41,130852,0.0-25.0-0.0,262.9,,,,50,"0,1,0",6,blank,246,null,0.68037261,0.124633877,0.24584542,1,,,,,,
,html-keyboard-response,42,131857,0.0-25.0-1.0,null,<p></p>,,null,,,,,,,,,,,,,,,,
,do_trial,43,134725,0.0-26.0-0.0,328.5,,,,50,"0,0,0",6,blank,247,null,0.573703729,0.173305073,0.188677561,0,,,,,,
,html-keyboard-response,44,135737,0.0-26.0-1.0,null,<p></p>,,null,,,,,,,,,,,,,,,,
,do_recog,45,138792,0.0-27.0-0.0,1544.3,,,,53,,,,248,probe-188,,,,,1,[object Object],167,4,1,
,html-keyboard-response,46,139797,0.0-27.0-1.0,null,<p></p>,,null,,,,,,,,,,,,,,,,
,do_trial,47,142731,0.0-28.0-0.0,394.8000001,,,,50,"1,0,0",6,blank,249,null,0.604582277,0.185697448,0.174795204,0,,,,,,
,html-keyboard-response,48,143737,0.0-28.0-1.0,null,<p></p>,,null,,,,,,,,,,,,,,,,
,do_recog,49,146718,0.0-29.0-0.0,1467.4,,,,53,,,,250,probe-81,,,,,1,[object Object],84,2,1,
,html-keyboard-response,50,147735,0.0-29.0-1.0,null,<p></p>,,null,,,,,,,,,,,,,,,,
,do_trial,51,150692,0.0-30.0-0.0,402.8000001,,,,49,"0,0,1",6,blank,251,null,0.700656879,0.092887053,0.317825224,0,,,,,,
,html-keyboard-response,52,151701,0.0-30.0-1.0,null,<p></p>,,null,,,,,,,,,,,,,,,,
,do_trial,53,154642,0.0-31.0-0.0,403.4000001,,,,50,"0,0,0",6,blank,252,null,0.664986774,0.188138455,0.285802101,0,,,,,,
,html-keyboard-response,54,155657,0.0-31.0-1.0,null,<p></p>,,null,,,,,,,,,,,,,,,,
,do_recog,55,158400,0.0-32.0-0.0,1232.4,,,,56,,,,253,probe-225,,,,,1,[object Object],87,2,0,
,html-keyboard-response,56,159404,0.0-32.0-1.0,null,<p></p>,,null,,,,,,,,,,,,,,,,
,do_trial,57,162463,0.0-33.0-0.0,515.8000001,,,,50,"0,0,0",6,blank,254,null,0.596776362,0.055933613,0.203785916,0,,,,,,
,html-keyboard-response,58,163469,0.0-33.0-1.0,null,<p></p>,,null,,,,,,,,,,,,,,,,
,do_trial,59,166522,0.0-34.0-0.0,503.4,,,,51,"0,0,1",6,blank,255,null,0.406869509,0.096269605,0.262960537,1,,,,,,
,html-keyboard-response,60,167525,0.0-34.0-1.0,null,<p></p>,,null,,,,,,,,,,,,,,,,
,do_trial,61,170467,0.0-35.0-0.0,382.9000001,,,,51,"0,0,0",6,blank,256,null,0.515250768,0.069516719,0.290086846,0,,,,,,
,html-keyboard-response,62,171469,0.0-35.0-1.0,null,<p></p>,,null,,,,,,,,,,,,,,,,
,do_trial,63,174533,0.0-36.0-0.0,501.9,,,,50,"1,0,0",6,blank,257,null,0.573317513,0.120325511,0.239380144,0,,,,,,
,html-keyboard-response,64,175570,0.0-36.0-1.0,null,<p></p>,,null,,,,,,,,,,,,,,,,
,do_trial,65,178410,0.0-37.0-0.0,238,,,,50,"0,0,0",6,blank,258,null,0.631344114,0.219244873,0.329450542,0,,,,,,
,html-keyboard-response,66,179414,0.0-37.0-1.0,null,<p></p>,,null,,,,,,,,,,,,,,,,
,do_trial,67,182256,0.0-38.0-0.0,288.5,,,,50,"1,0,0",6,blank,259,null,0.638940521,0.121388051,0.182740804,0,,,,,,
,html-keyboard-response,68,183260,0.0-38.0-1.0,null,<p></p>,,null,,,,,,,,,,,,,,,,
,do_trial,69,186214,0.0-39.0-0.0,404.6,,,,51,"1,0,0",6,blank,260,null,0.683262909,0.147614957,0.328959066,0,,,,,,
,html-keyboard-response,70,187217,0.0-39.0-1.0,null,<p></p>,,null,,,,,,,,,,,,,,,,
,do_recog,71,190210,0.0-40.0-0.0,1485,,,,53,,,,261,probe-63,,,,,1,[object Object],85,2,1,
,html-keyboard-response,72,191217,0.0-40.0-1.0,null,<p></p>,,null,,,,,,,,,,,,,,,,
,do_trial,73,194140,0.0-41.0-0.0,373.6999999,,,,49,"0,0,1",6,blank,262,null,0.634925738,0.075886563,0.264419637,0,,,,,,
,html-keyboard-response,74,195148,0.0-41.0-1.0,null,<p></p>,,null,,,,,,,,,,,,,,,,
,do_trial,75,198065,0.0-42.0-0.0,375.9,,,,50,"1,0,1",6,blank,263,null,0.466164438,0.050585219,0.106985217,0,,,,,,
,html-keyboard-response,76,199081,0.0-42.0-1.0,null,<p></p>,,null,,,,,,,,,,,,,,,,
,do_recog,77,202121,0.0-43.0-0.0,1532.2,,,,53,,,,264,probe-28,,,,,1,[object Object],164,4,1,
,html-keyboard-response,78,203124,0.0-43.0-1.0,null,<p></p>,,null,,,,,,,,,,,,,,,,
,do_trial,79,205955,0.0-44.0-0.0,273,,,,50,"0,0,0",6,blank,265,null,0.542827801,0.080588253,0.099191876,0,,,,,,
,html-keyboard-response,80,206965,0.0-44.0-1.0,null,<p></p>,,null,,,,,,,,,,,,,,,,
,do_trial,81,209790,0.0-45.0-0.0,286.8000001,,,,50,"0,0,0",6,blank,266,null,0.589555532,0.063337561,0.139809646,0,,,,,,
,html-keyboard-response,82,210802,0.0-45.0-1.0,null,<p></p>,,null,,,,,,,,,,,,,,,,
,do_trial,83,213639,0.0-46.0-0.0,296.9,,,,51,"0,1,0",6,blank,267,null,0.583836041,0.188359673,0.290525003,0,,,,,,
,html-keyboard-response,84,214642,0.0-46.0-1.0,null,<p></p>,,null,,,,,,,,,,,,,,,,
,do_trial,85,217469,0.0-47.0-0.0,288.1999999,,,,49,"0,0,1",6,blank,268,null,0.652024209,0.249295692,0.115574137,0,,,,,,
,html-keyboard-response,86,218475,0.0-47.0-1.0,null,<p></p>,,null,,,,,,,,,,,,,,,,
,do_recog,87,221791,0.0-48.0-0.0,1805.6,,,,56,,,,269,probe-208,,,,,1,[object Object],128,3,0,
,html-keyboard-response,88,222794,0.0-48.0-1.0,null,<p></p>,,null,,,,,,,,,,,,,,,,
,do_trial,89,225646,0.0-49.0-0.0,280.9,,,,50,"1,0,1",6,blank,270,null,0.575620658,0.291918479,0.218410933,0,,,,,,
,html-keyboard-response,90,226661,0.0-49.0-1.0,null,<p></p>,,null,,,,,,,,,,,,,,,,
,do_recog,91,228975,0.0-50.0-0.0,805.3000001,,,,53,,,,271,probe-219,,,,,1,[object Object],122,3,1,
,html-keyboard-response,92,229980,0.0-50.0-1.0,null,<p></p>,,null,,,,,,,,,,,,,,,,
,do_trial,93,232867,0.0-51.0-0.0,340.1,,,,51,"0,0,1",6,blank,272,null,0.583449074,0.211940779,0.361593003,1,,,,,,
,html-keyboard-response,94,233876,0.0-51.0-1.0,null,<p></p>,,null,,,,,,,,,,,,,,,,
,do_recog,95,236258,0.0-52.0-0.0,869.4000001,,,,53,,,,273,probe-83,,,,,1,[object Object],160,4,1,
,html-keyboard-response,96,237261,0.0-52.0-1.0,null,<p></p>,,null,,,,,,,,,,,,,,,,
,do_trial,97,240014,0.0-53.0-0.0,214.6,,,,51,"1,0,0",6,blank,274,null,0.722258762,0.208142405,0.455896738,0,,,,,,
,html-keyboard-response,98,241028,0.0-53.0-1.0,null,<p></p>,,null,,,,,,,,,,,,,,,,
,do_trial,99,243997,0.0-54.0-0.0,418.6999999,,,,50,"1,0,1",6,blank,275,null,0.812315706,0.164534293,0.516067251,0,,,,,,
,html-keyboard-response,100,245012,0.0-54.0-1.0,null,<p></p>,,null,,,,,,,,,,,,,,,,
,do_trial,101,247968,0.0-55.0-0.0,411.5999999,,,,49,"1,0,0",6,blank,276,null,0.765421882,0.11105393,0.428658061,1,,,,,,
,html-keyboard-response,102,248977,0.0-55.0-1.0,null,<p></p>,,null,,,,,,,,,,,,,,,,
,do_trial,103,251823,0.0-56.0-0.0,298.3,,,,49,"0,0,0",6,blank,277,null,0.726787562,0.062915105,0.253563933,0,,,,,,
,html-keyboard-response,104,252832,0.0-56.0-1.0,null,<p></p>,,null,,,,,,,,,,,,,,,,
,do_trial,105,255769,0.0-57.0-0.0,377.5,,,,50,"1,0,0",6,blank,278,null,0.599361861,0.123133064,0.208409694,0,,,,,,
,html-keyboard-response,106,256784,0.0-57.0-1.0,null,<p></p>,,null,,,,,,,,,,,,,,,,
,do_recog,107,259469,0.0-58.0-0.0,1172.5,,,,53,,,,279,probe-245,,,,,0,[object Object],null,null,0,
,html-keyboard-response,108,260480,0.0-58.0-1.0,null,<p></p>,,null,,,,,,,,,,,,,,,,
,do_trial,109,263069,0.0-59.0-0.0,45.60000002,,,,51,"0,0,1",6,blank,280,null,0.539666696,0.13968675,0.428566114,1,,,,,,
,html-keyboard-response,110,264075,0.0-59.0-1.0,null,<p></p>,,null,,,,,,,,,,,,,,,,
,do_trial,111,267023,0.0-60.0-0.0,398.4000001,,,,51,"1,0,1",6,blank,281,null,0.555992176,0.06470012,0.429608213,1,,,,,,
,html-keyboard-response,112,268032,0.0-60.0-1.0,null,<p></p>,,null,,,,,,,,,,,,,,,,
,do_trial,113,270900,0.0-61.0-0.0,324.1999999,,,,51,"1,0,0",6,blank,282,null,0.480409988,0.178698638,0.502609433,0,,,,,,
,html-keyboard-response,114,271905,0.0-61.0-1.0,null,<p></p>,,null,,,,,,,,,,,,,,,,
,do_trial,115,274905,0.0-62.0-0.0,441.5999999,,,,50,"1,0,0",6,blank,283,null,0.51628766,0.099357466,0.396757998,0,,,,,,
,html-keyboard-response,116,275914,0.0-62.0-1.0,null,<p></p>,,null,,,,,,,,,,,,,,,,
,do_recog,117,279170,0.0-63.0-0.0,1743.6,,,,56,,,,284,probe-20,,,,,1,[object Object],125,3,0,
,html-keyboard-response,118,280175,0.0-63.0-1.0,null,<p></p>,,null,,,,,,,,,,,,,,,,
,do_trial,119,282719,0.0-64.0-0.0,0.100000024,,,,49,"1,0,1",6,blank,285,null,0.456975933,0.056649329,0.360979821,1,,,,,,
,html-keyboard-response,120,283722,0.0-64.0-1.0,null,<p></p>,,null,,,,,,,,,,,,,,,,
,do_trial,121,286611,0.0-65.0-0.0,336.7,,,,49,"1,0,1",6,blank,286,null,0.649384699,0.103856661,0.370374992,1,,,,,,
,html-keyboard-response,122,287619,0.0-65.0-1.0,null,<p></p>,,null,,,,,,,,,,,,,,,,
,do_trial,123,290434,0.0-66.0-0.0,271.4,,,,49,"1,0,0",6,blank,287,null,0.718531777,0.198522031,0.113651907,1,,,,,,
,html-keyboard-response,124,291435,0.0-66.0-1.0,null,<p></p>,,null,,,,,,,,,,,,,,,,
,do_trial,125,294307,0.0-67.0-0.0,330.3,,,,49,"1,1,0",6,blank,288,null,0.719400961,0.170235255,0.201546667,1,,,,,,
,html-keyboard-response,126,295309,0.0-67.0-1.0,null,<p></p>,,null,,,,,,,,,,,,,,,,
,do_recog,127,298126,0.0-68.0-0.0,1300.2,,,,56,,,,289,probe-23,,,,,1,[object Object],45,1,0,
,html-keyboard-response,128,299131,0.0-68.0-1.0,null,<p></p>,,null,,,,,,,,,,,,,,,,
,do_trial,129,301930,0.0-69.0-0.0,249.3,,,,49,"1,1,0",6,blank,290,null,0.729195313,0.144908722,0.053208275,1,,,,,,
,html-keyboard-response,130,302935,0.0-69.0-1.0,null,<p></p>,,null,,,,,,,,,,,,,,,,
,do_recog,131,305197,0.0-70.0-0.0,752.4000001,,,,53,,,,291,probe-136,,,,,1,[object Object],202,5,1,
,html-keyboard-response,132,306206,0.0-70.0-1.0,null,<p></p>,,null,,,,,,,,,,,,,,,,
,do_trial,133,309001,0.0-71.0-0.0,243.3,,,,49,"1,0,0",6,blank,292,null,0.714654579,0.073950496,0.055995763,1,,,,,,
,html-keyboard-response,134,310004,0.0-71.0-1.0,null,<p></p>,,null,,,,,,,,,,,,,,,,
,do_trial,135,312964,0.0-72.0-0.0,403.1,,,,49,"1,0,1",6,blank,293,null,0.733536719,0.101050419,0.215258949,1,,,,,,
,html-keyboard-response,136,313968,0.0-72.0-1.0,null,<p></p>,,null,,,,,,,,,,,,,,,,
,do_trial,137,316901,0.0-73.0-0.0,392.2,,,,49,"1,0,0",6,blank,294,null,0.722050551,0.134022199,0.156592058,1,,,,,,
,html-keyboard-response,138,317907,0.0-73.0-1.0,null,<p></p>,,null,,,,,,,,,,,,,,,,
,do_trial,139,320861,0.0-74.0-0.0,402.9,,,,49,"0,0,0",6,blank,295,null,0.43420687,0.253663375,0.170096908,0,,,,,,
,html-keyboard-response,140,321873,0.0-74.0-1.0,null,<p></p>,,null,,,,,,,,,,,,,,,,
,do_trial,141,324872,0.0-75.0-0.0,452.9,,,,50,"0,1,0",6,blank,296,null,0.320070123,0.542108732,0.23095411,1,,,,,,
,html-keyboard-response,142,325885,0.0-75.0-1.0,null,<p></p>,,null,,,,,,,,,,,,,,,,
,do_recog,143,328380,0.0-76.0-0.0,986.1,,,,53,,,,297,probe-143,,,,,1,[object Object],121,3,1,
,html-keyboard-response,144,329389,0.0-76.0-1.0,null,<p></p>,,null,,,,,,,,,,,,,,,,
,do_trial,145,332243,0.0-77.0-0.0,302.1,,,,50,"0,0,0",6,blank,298,null,0.296886322,0.587156931,0.245257831,0,,,,,,
,html-keyboard-response,146,333255,0.0-77.0-1.0,null,<p></p>,,null,,,,,,,,,,,,,,,,
,do_trial,147,335902,0.0-78.0-0.0,101.1999999,,,,51,"0,0,0",6,blank,299,null,0.162641529,0.701648581,0.235831896,0,,,,,,
,html-keyboard-response,148,336908,0.0-78.0-1.0,null,<p></p>,,null,,,,,,,,,,,,,,,,
,do_trial,149,339747,0.0-79.0-0.0,296.1,,,,49,"1,1,0",6,blank,300,null,0.129179226,0.660736743,0.213452764,1,,,,,,
,html-keyboard-response,150,340758,0.0-79.0-1.0,null,<p></p>,,null,,,,,,,,,,,,,,,,
,do_trial,151,343611,0.0-80.0-0.0,312.1,,,,49,"0,1,1",6,blank,301,null,0.154567721,0.676227248,0.249180687,0,,,,,,
,html-keyboard-response,152,344614,0.0-80.0-1.0,null,<p></p>,,null,,,,,,,,,,,,,,,,
,do_trial,153,347549,0.0-81.0-0.0,389.8,,,,49,"0,0,0",6,blank,302,null,0.110147794,0.596504901,0.287152823,0,,,,,,
,html-keyboard-response,154,348552,0.0-81.0-1.0,null,<p></p>,,null,,,,,,,,,,,,,,,,
,do_trial,155,351356,0.0-82.0-0.0,244.4,,,,50,"1,0,1",6,blank,303,null,0.161315441,0.63067646,0.319762043,0,,,,,,
,html-keyboard-response,156,352370,0.0-82.0-1.0,null,<p></p>,,null,,,,,,,,,,,,,,,,
,do_trial,157,355274,0.0-83.0-0.0,362.4,,,,51,"0,1,1",6,blank,304,null,0.067047025,0.55610605,0.257195307,1,,,,,,
,html-keyboard-response,158,356277,0.0-83.0-1.0,null,<p></p>,,null,,,,,,,,,,,,,,,,
,do_recog,159,358792,0.0-84.0-0.0,1003.8,,,,53,,,,305,probe-34,,,,,1,[object Object],123,3,1,
,html-keyboard-response,160,359801,0.0-84.0-1.0,null,<p></p>,,null,,,,,,,,,,,,,,,,
,do_trial,161,362641,0.0-85.0-0.0,286.1,,,,51,"0,1,0",6,blank,306,null,0.142272573,0.626720641,0.280083931,0,,,,,,
,html-keyboard-response,162,363646,0.0-85.0-1.0,null,<p></p>,,null,,,,,,,,,,,,,,,,
,do_trial,163,366591,0.0-86.0-0.0,394.8,,,,49,"0,1,1",6,blank,307,null,0.229863025,0.508948609,0.352306135,0,,,,,,
,html-keyboard-response,164,367604,0.0-86.0-1.0,null,<p></p>,,null,,,,,,,,,,,,,,,,
,do_recog,165,370002,0.0-87.0-0.0,883.9,,,,53,,,,308,probe-149,,,,,1,[object Object],120,3,1,
,html-keyboard-response,166,371014,0.0-87.0-1.0,null,<p></p>,,null,,,,,,,,,,,,,,,,
,do_trial,167,373831,0.0-88.0-0.0,278.4,,,,50,"0,0,0",6,blank,309,null,0.14925084,0.495645516,0.411340845,0,,,,,,
,html-keyboard-response,168,374833,0.0-88.0-1.0,null,<p></p>,,null,,,,,,,,,,,,,,,,
,do_trial,169,377653,0.0-89.0-0.0,261.5,,,,49,"0,1,0",6,blank,310,null,0.261710655,0.510519819,0.327748995,0,,,,,,
,html-keyboard-response,170,378661,0.0-89.0-1.0,null,<p></p>,,null,,,,,,,,,,,,,,,,
,do_trial,171,381494,0.0-90.0-0.0,292.4,,,,51,"0,1,0",6,blank,311,null,0.05851252,0.569480969,0.310777589,0,,,,,,
,html-keyboard-response,172,382501,0.0-90.0-1.0,null,<p></p>,,null,,,,,,,,,,,,,,,,
,do_trial,173,385317,0.0-91.0-0.0,277.3000001,,,,51,"0,1,0",6,blank,312,null,0.118921242,0.61433359,0.336522001,0,,,,,,
,html-keyboard-response,174,386329,0.0-91.0-1.0,null,<p></p>,,null,,,,,,,,,,,,,,,,
,do_trial,175,389159,0.0-92.0-0.0,272.4,,,,49,"0,0,0",6,blank,313,null,0.063790561,0.527209084,0.187660003,0,,,,,,
,html-keyboard-response,176,390166,0.0-92.0-1.0,null,<p></p>,,null,,,,,,,,,,,,,,,,
,do_trial,177,392990,0.0-93.0-0.0,265.5,,,,50,"0,1,1",6,blank,314,null,0.110722476,0.499149743,0.32862013,1,,,,,,
,html-keyboard-response,178,393997,0.0-93.0-1.0,null,<p></p>,,null,,,,,,,,,,,,,,,,
,do_recog,179,396904,0.0-94.0-0.0,1390.3,,,,56,,,,315,probe-135,,,,,1,[object Object],129,3,0,
,html-keyboard-response,180,397909,0.0-94.0-1.0,null,<p></p>,,null,,,,,,,,,,,,,,,,
,do_trial,181,401000,0.0-95.0-0.0,556.1,,,,50,"0,0,0",6,blank,316,null,0.139404534,0.325969688,0.359408239,0,,,,,,
,html-keyboard-response,182,402010,0.0-95.0-1.0,null,<p></p>,,null,,,,,,,,,,,,,,,,
,do_recog,183,404919,0.0-96.0-0.0,1397.8,,,,56,,,,317,probe-09,,,,,1,[object Object],81,2,0,
,html-keyboard-response,184,405933,0.0-96.0-1.0,null,<p></p>,,null,,,,,,,,,,,,,,,,
,do_trial,185,408927,0.0-97.0-0.0,450,,,,49,"0,0,0",6,blank,318,null,0.084560261,0.337569217,0.304666241,0,,,,,,
,html-keyboard-response,186,409932,0.0-97.0-1.0,null,<p></p>,,null,,,,,,,,,,,,,,,,
,do_trial,187,412859,0.0-98.0-0.0,386.3,,,,51,"0,0,0",6,blank,319,null,0.083288046,0.354685617,0.311690478,0,,,,,,
,html-keyboard-response,188,413868,0.0-98.0-1.0,null,<p></p>,,null,,,,,,,,,,,,,,,,
,do_trial,189,416709,0.0-99.0-0.0,291,,,,50,"0,1,1",6,blank,320,null,0.243359264,0.44890085,0.398944129,1,,,,,,
,html-keyboard-response,190,417717,0.0-99.0-1.0,null,<p></p>,,null,,,,,,,,,,,,,,,,
,do_trial,191,420552,0.0-100.0-0.0,286.4,,,,50,"0,1,0",6,blank,321,null,0.097810456,0.525766275,0.299971935,1,,,,,,
,html-keyboard-response,192,421558,0.0-100.0-1.0,null,<p></p>,,null,,,,,,,,,,,,,,,,
,do_trial,193,424539,0.0-101.0-0.0,429.9,,,,50,"0,0,0",6,blank,322,null,0.105980906,0.512518352,0.332759521,0,,,,,,
,html-keyboard-response,194,425543,0.0-101.0-1.0,null,<p></p>,,null,,,,,,,,,,,,,,,,
,do_recog,195,428054,0.0-102.0-0.0,998.1999999,,,,53,,,,323,probe-89,,,,,1,[object Object],83,2,1,
,html-keyboard-response,196,429060,0.0-102.0-1.0,null,<p></p>,,null,,,,,,,,,,,,,,,,
,do_trial,197,431899,0.0-103.0-0.0,292,,,,49,"0,0,0",6,blank,324,null,0.102290327,0.618497038,0.161611725,0,,,,,,
,html-keyboard-response,198,432904,0.0-103.0-1.0,null,<p></p>,,null,,,,,,,,,,,,,,,,
,do_trial,199,435736,0.0-104.0-0.0,287.1,,,,51,"0,1,0",6,blank,325,null,0.115455707,0.706901154,0.340338288,0,,,,,,
,html-keyboard-response,200,436742,0.0-104.0-1.0,null,<p></p>,,null,,,,,,,,,,,,,,,,
,do_trial,201,439820,0.0-105.0-0.0,527.5,,,,50,"0,0,1",6,blank,326,null,0.146512104,0.566730124,0.43370178,0,,,,,,
,html-keyboard-response,202,440824,0.0-105.0-1.0,null,<p></p>,,null,,,,,,,,,,,,,,,,
,do_recog,203,443773,0.0-106.0-0.0,1434.8,,,,56,,,,327,probe-229,,,,,1,[object Object],124,3,0,
,html-keyboard-response,204,444776,0.0-106.0-1.0,null,<p></p>,,null,,,,,,,,,,,,,,,,
,do_trial,205,447599,0.0-107.0-0.0,259.9,,,,49,"0,0,0",6,blank,328,null,0.079064472,0.445910667,0.346457807,0,,,,,,
,html-keyboard-response,206,448607,0.0-107.0-1.0,null,<p></p>,,null,,,,,,,,,,,,,,,,
,do_trial,207,451430,0.0-108.0-0.0,285.7,,,,50,"0,0,1",6,blank,329,null,0.118308695,0.489403544,0.387006769,0,,,,,,
,html-keyboard-response,208,452432,0.0-108.0-1.0,null,<p></p>,,null,,,,,,,,,,,,,,,,
,do_trial,209,455321,0.0-109.0-0.0,341.4,,,,51,"1,0,0",6,blank,330,null,0.140133519,0.54790982,0.374037178,0,,,,,,
,html-keyboard-response,210,456325,0.0-109.0-1.0,null,<p></p>,,null,,,,,,,,,,,,,,,,
,do_trial,211,459266,0.0-110.0-0.0,402.6999999,,,,49,"0,1,0",6,blank,331,null,0.088275903,0.648308978,0.421087591,0,,,,,,
,html-keyboard-response,212,460280,0.0-110.0-1.0,null,<p></p>,,null,,,,,,,,,,,,,,,,
,do_trial,213,463327,0.0-111.0-0.0,511.5999999,,,,50,"0,0,1",6,blank,332,null,0.062986029,0.717335401,0.361342475,0,,,,,,
,html-keyboard-response,214,464334,0.0-111.0-1.0,null,<p></p>,,null,,,,,,,,,,,,,,,,
,do_trial,215,467238,0.0-112.0-0.0,362.7,,,,51,"1,1,0",6,blank,333,null,0.172568658,0.744952369,0.402546503,0,,,,,,
,html-keyboard-response,216,468248,0.0-112.0-1.0,null,<p></p>,,null,,,,,,,,,,,,,,,,
,do_recog,217,470966,0.0-113.0-0.0,1206.7,,,,56,,,,334,probe-80,,,,,1,[object Object],201,5,0,
,html-keyboard-response,218,471977,0.0-113.0-1.0,null,<p></p>,,null,,,,,,,,,,,,,,,,
,do_trial,219,474938,0.0-114.0-0.0,396.7,,,,49,"0,0,0",6,blank,335,null,0.122255784,0.408841513,0.435872322,0,,,,,,
,html-keyboard-response,220,475944,0.0-114.0-1.0,null,<p></p>,,null,,,,,,,,,,,,,,,,
,do_recog,221,478349,0.0-115.0-0.0,894.5,,,,53,,,,336,probe-201,,,,,1,[object Object],169,4,1,
,html-keyboard-response,222,479352,0.0-115.0-1.0,null,<p></p>,,null,,,,,,,,,,,,,,,,
,do_trial,223,482186,0.0-116.0-0.0,286.1,,,,51,"1,0,0",6,blank,337,null,0.140439839,0.430208619,0.341338673,0,,,,,,
,html-keyboard-response,224,483193,0.0-116.0-1.0,null,<p></p>,,null,,,,,,,,,,,,,,,,
,do_trial,225,486140,0.0-117.0-0.0,393,,,,50,"0,1,1",6,blank,338,null,0.06563408,0.463044664,0.226335849,1,,,,,,
,html-keyboard-response,226,487145,0.0-117.0-1.0,null,<p></p>,,null,,,,,,,,,,,,,,,,
,do_trial,227,489992,0.0-118.0-0.0,304.6,,,,50,"1,0,1",6,blank,339,null,0.255854079,0.570699701,0.308820986,0,,,,,,
,html-keyboard-response,228,491000,0.0-118.0-1.0,null,<p></p>,,null,,,,,,,,,,,,,,,,
,do_recog,229,493531,0.0-119.0-0.0,1011.7,,,,56,,,,340,probe-187,,,,,1,[object Object],205,5,0,
,html-keyboard-response,230,494547,0.0-119.0-1.0,null,<p></p>,,null,,,,,,,,,,,,,,,,
,do_trial,231,497428,0.0-120.0-0.0,323.6,,,,50,"0,0,0",6,blank,341,null,0.115908446,0.673743101,0.294162691,0,,,,,,
,html-keyboard-response,232,498436,0.0-120.0-1.0,null,<p></p>,,null,,,,,,,,,,,,,,,,
,do_trial,233,501302,0.0-121.0-0.0,307.5,,,,49,"0,0,0",6,blank,342,null,0.068273736,0.625761963,0.404133376,0,,,,,,
,html-keyboard-response,234,502310,0.0-121.0-1.0,null,<p></p>,,null,,,,,,,,,,,,,,,,
,do_trial,235,505180,0.0-122.0-0.0,321.6,,,,51,"1,0,1",6,blank,343,null,0.17159576,0.582974337,0.366208898,1,,,,,,
,html-keyboard-response,236,506186,0.0-122.0-1.0,null,<p></p>,,null,,,,,,,,,,,,,,,,
,do_trial,237,509102,0.0-123.0-0.0,360.1,,,,51,"0,1,1",6,blank,344,null,0.099817634,0.612705096,0.372489742,1,,,,,,
,html-keyboard-response,238,510110,0.0-123.0-1.0,null,<p></p>,,null,,,,,,,,,,,,,,,,
,do_recog,239,513205,0.0-124.0-0.0,1583.1,,,,56,,,,345,probe-51,,,,,1,[object Object],204,5,0,
,html-keyboard-response,240,514213,0.0-124.0-1.0,null,<p></p>,,null,,,,,,,,,,,,,,,,
,do_trial,241,517119,0.0-125.0-0.0,356.6999999,,,,51,"1,1,0",6,blank,346,null,0.074382746,0.312770765,0.308822344,0,,,,,,
,html-keyboard-response,242,518123,0.0-125.0-1.0,null,<p></p>,,null,,,,,,,,,,,,,,,,
,do_recog,243,520419,0.0-126.0-0.0,788.3,,,,53,,,,347,probe-77,,,,,1,[object Object],49,1,1,
,html-keyboard-response,244,521423,0.0-126.0-1.0,null,<p></p>,,null,,,,,,,,,,,,,,,,
,do_trial,245,524314,0.0-127.0-0.0,344.6,,,,51,"1,0,1",6,blank,348,null,0.199075508,0.20459459,0.519577928,1,,,,,,
,html-keyboard-response,246,525320,0.0-127.0-1.0,null,<p></p>,,null,,,,,,,,,,,,,,,,
,do_recog,247,527421,0.0-128.0-0.0,586.7,,,,53,,,,349,probe-94,,,,,1,[object Object],168,4,1,
,html-keyboard-response,248,528428,0.0-128.0-1.0,null,<p></p>,,null,,,,,,,,,,,,,,,,
,do_trial,249,531274,0.0-129.0-0.0,305.1,,,,51,"0,0,0",6,blank,350,null,0.122589026,0.056520019,0.572516275,0,,,,,,
,html-keyboard-response,250,532276,0.0-129.0-1.0,null,<p></p>,,null,,,,,,,,,,,,,,,,
,do_trial,251,535324,0.0-130.0-0.0,495.9,,,,50,"0,0,1",6,blank,351,null,0.122888383,0.123599391,0.58880784,0,,,,,,
,html-keyboard-response,252,536328,0.0-130.0-1.0,null,<p></p>,,null,,,,,,,,,,,,,,,,
,do_trial,253,539290,0.0-131.0-0.0,414.5,,,,49,"0,0,1",6,blank,352,null,0.142918462,0.180982425,0.649829986,0,,,,,,
,html-keyboard-response,254,540294,0.0-131.0-1.0,null,<p></p>,,null,,,,,,,,,,,,,,,,
,do_trial,255,543194,0.0-132.0-0.0,339.7,,,,51,"0,0,1",6,blank,353,null,0.299272169,0.126111728,0.696430401,1,,,,,,
,html-keyboard-response,256,544195,0.0-132.0-1.0,null,<p></p>,,null,,,,,,,,,,,,,,,,
,do_recog,257,546787,0.0-133.0-0.0,1081.3,,,,53,,,,354,probe-228,,,,,1,[object Object],208,5,1,
,html-keyboard-response,258,547792,0.0-133.0-1.0,null,<p></p>,,null,,,,,,,,,,,,,,,,
,do_trial,259,550691,0.0-134.0-0.0,357.3,,,,51,"0,1,1",6,blank,355,null,0.299629528,0.252323069,0.72104104,1,,,,,,
,html-keyboard-response,260,551695,0.0-134.0-1.0,null,<p></p>,,null,,,,,,,,,,,,,,,,
,do_trial,261,554611,0.0-135.0-0.0,368.1999999,,,,51,"0,0,1",6,blank,356,null,0.331720432,0.285295456,0.550085715,1,,,,,,
,html-keyboard-response,262,555618,0.0-135.0-1.0,null,<p></p>,,null,,,,,,,,,,,,,,,,
,do_recog,263,558988,0.0-136.0-0.0,1857.9,,,,54,,,,357,probe-205,,,,,1,[object Object],209,5,1,
,html-keyboard-response,264,560004,0.0-136.0-1.0,null,<p></p>,,null,,,,,,,,,,,,,,,,
,do_trial,265,562965,0.0-137.0-0.0,408,,,,51,"1,1,0",6,blank,358,null,0.315837719,0.272974021,0.554617942,0,,,,,,
,html-keyboard-response,266,563973,0.0-137.0-1.0,null,<p></p>,,null,,,,,,,,,,,,,,,,
,do_recog,267,566624,0.0-138.0-0.0,1127.9,,,,53,,,,359,probe-210,,,,,1,[object Object],40,1,1,
,html-keyboard-response,268,567635,0.0-138.0-1.0,null,<p></p>,,null,,,,,,,,,,,,,,,,
,do_trial,269,570534,0.0-139.0-0.0,358.3000001,,,,50,"1,0,1",6,blank,360,null,0.302462029,0.058049932,0.609546699,0,,,,,,
,html-keyboard-response,270,571544,0.0-139.0-1.0,null,<p></p>,,null,,,,,,,,,,,,,,,,
,do_recog,271,574270,0.0-140.0-0.0,1220.4,,,,54,,,,361,probe-133,,,,,1,[object Object],166,4,1,
,html-keyboard-response,272,575275,0.0-140.0-1.0,null,<p></p>,,null,,,,,,,,,,,,,,,,
,do_trial,273,578214,0.0-141.0-0.0,377.1999999,,,,50,"0,0,0",6,blank,362,null,0.199024198,0.112689486,0.557676824,0,,,,,,
,html-keyboard-response,274,579219,0.0-141.0-1.0,null,<p></p>,,null,,,,,,,,,,,,,,,,
,do_trial,275,582145,0.0-142.0-0.0,378.4,,,,51,"0,0,0",6,blank,363,null,0.19690809,0.101634937,0.635817879,0,,,,,,
,html-keyboard-response,276,583150,0.0-142.0-1.0,null,<p></p>,,null,,,,,,,,,,,,,,,,
,do_recog,277,585886,0.0-143.0-0.0,1223.6,,,,54,,,,364,probe-235,,,,,0,[object Object],null,null,0,
,html-keyboard-response,278,586895,0.0-143.0-1.0,null,<p></p>,,null,,,,,,,,,,,,,,,,
,do_trial,279,589837,0.0-144.0-0.0,396.5,,,,50,"0,0,1",6,blank,365,null,0.144457135,0.084744393,0.631002791,0,,,,,,
,html-keyboard-response,280,590838,0.0-144.0-1.0,null,<p></p>,,null,,,,,,,,,,,,,,,,
,do_trial,281,593753,0.0-145.0-0.0,374.9,,,,51,"0,0,0",6,blank,366,null,0.336233105,0.11992504,0.60427104,0,,,,,,
,html-keyboard-response,282,594757,0.0-145.0-1.0,null,<p></p>,,null,,,,,,,,,,,,,,,,
,do_trial,283,597610,0.0-146.0-0.0,314.7,,,,49,"1,0,1",6,blank,367,null,0.241755116,0.199306296,0.592099791,1,,,,,,
,html-keyboard-response,284,598619,0.0-146.0-1.0,null,<p></p>,,null,,,,,,,,,,,,,,,,
,do_trial,285,601601,0.0-147.0-0.0,443,,,,49,"1,0,1",6,blank,368,null,0.288062752,0.139544625,0.600413978,1,,,,,,
,html-keyboard-response,286,602605,0.0-147.0-1.0,null,<p></p>,,null,,,,,,,,,,,,,,,,
,do_recog,287,605217,0.0-148.0-0.0,1101.8,,,,54,,,,369,probe-60,,,,,1,[object Object],200,5,1,
,html-keyboard-response,288,606229,0.0-148.0-1.0,null,<p></p>,,null,,,,,,,,,,,,,,,,
,do_trial,289,609272,0.0-149.0-0.0,503.6999999,,,,50,"1,1,1",6,blank,370,null,0.217865833,0.171049226,0.471878817,1,,,,,,
,html-keyboard-response,290,610280,0.0-149.0-1.0,null,<p></p>,,null,,,,,,,,,,,,,,,,
,do_recog,291,613109,0.0-150.0-0.0,1323.2,,,,55,,,,371,probe-137,,,,,1,[object Object],163,4,0,
,html-keyboard-response,292,614110,0.0-150.0-1.0,null,<p></p>,,null,,,,,,,,,,,,,,,,
,do_trial,293,616975,0.0-151.0-0.0,315.5,,,,50,"1,0,0",6,blank,372,null,0.172547741,0.057499468,0.381208065,0,,,,,,
,html-keyboard-response,294,617981,0.0-151.0-1.0,null,<p></p>,,null,,,,,,,,,,,,,,,,
,do_trial,295,620870,0.0-152.0-0.0,343.5,,,,51,"0,1,0",6,blank,373,null,0.375529531,0.302504428,0.469628195,0,,,,,,
,html-keyboard-response,296,621876,0.0-152.0-1.0,null,<p></p>,,null,,,,,,,,,,,,,,,,
,do_recog,297,624731,0.0-153.0-0.0,1348.1,,,,53,,,,374,probe-62,,,,,1,[object Object],207,5,1,
,html-keyboard-response,298,625735,0.0-153.0-1.0,null,<p></p>,,null,,,,,,,,,,,,,,,,
,do_trial,299,628592,0.0-154.0-0.0,324.8000001,,,,49,"0,0,1",6,blank,375,null,0.405240474,0.133451098,0.642002616,0,,,,,,
,html-keyboard-response,300,629594,0.0-154.0-1.0,null,<p></p>,,null,,,,,,,,,,,,,,,,
,do_trial,301,632753,0.0-155.0-0.0,596.6999999,,,,51,"0,0,0",6,blank,376,null,0.400418882,0.151119642,0.603604086,0,,,,,,
,html-keyboard-response,302,633769,0.0-155.0-1.0,null,<p></p>,,null,,,,,,,,,,,,,,,,
,do_recog,303,636524,0.0-156.0-0.0,1234.1,,,,53,,,,377,probe-65,,,,,1,[object Object],47,1,1,
,html-keyboard-response,304,637528,0.0-156.0-1.0,null,<p></p>,,null,,,,,,,,,,,,,,,,
,do_trial,305,640372,0.0-157.0-0.0,306,,,,51,"1,0,0",6,blank,378,null,0.379431393,0.069170696,0.658444396,0,,,,,,
,html-keyboard-response,306,641373,0.0-157.0-1.0,null,<p></p>,,null,,,,,,,,,,,,,,,,
,do_recog,307,644314,0.0-158.0-0.0,1431.6,,,,55,,,,379,probe-10,,,,,1,[object Object],42,1,0,
,html-keyboard-response,308,645317,0.0-158.0-1.0,null,<p></p>,,null,,,,,,,,,,,,,,,,
,do_trial,309,648104,0.0-159.0-0.0,231.1,,,,50,"1,0,1",6,blank,380,null,0.463912585,0.162371934,0.647187525,0,,,,,,
,html-keyboard-response,310,649115,0.0-159.0-1.0,null,<p></p>,,null,,,,,,,,,,,,,,,,
,do_trial,311,652057,0.0-160.0-0.0,390.2,,,,49,"0,0,1",6,blank,381,null,0.288542683,0.102359452,0.76794273,0,,,,,,
,html-keyboard-response,312,653068,0.0-160.0-1.0,null,<p></p>,,null,,,,,,,,,,,,,,,,
,do_recog,313,656061,0.0-161.0-0.0,1486.1,,,,56,,,,382,probe-105,,,,,1,[object Object],161,4,0,
,html-keyboard-response,314,657069,0.0-161.0-1.0,null,<p></p>,,null,,,,,,,,,,,,,,,,
,do_trial,315,659850,0.0-162.0-0.0,234.7,,,,51,"0,0,1",6,blank,383,null,0.288644878,0.107750636,0.716111563,1,,,,,,
,html-keyboard-response,316,660857,0.0-162.0-1.0,null,<p></p>,,null,,,,,,,,,,,,,,,,
,do_recog,317,663556,0.0-163.0-0.0,1188.6,,,,53,,,,384,probe-158,,,,,1,[object Object],127,3,1,
,html-keyboard-response,318,664570,0.0-163.0-1.0,null,<p></p>,,null,,,,,,,,,,,,,,,,
,do_trial,319,667455,0.0-164.0-0.0,340.1,,,,51,"0,0,1",6,blank,385,null,0.304300993,0.173744604,0.777112552,1,,,,,,
,html-keyboard-response,320,668457,0.0-164.0-1.0,null,<p></p>,,null,,,,,,,,,,,,,,,,
,do_trial,321,671361,0.0-165.0-0.0,338.4,,,,51,"0,0,0",6,blank,386,null,0.11260185,0.124155058,0.712387283,0,,,,,,
,html-keyboard-response,322,672369,0.0-165.0-1.0,null,<p></p>,,null,,,,,,,,,,,,,,,,
,do_trial,323,675210,0.0-166.0-0.0,294.9,,,,49,"0,0,0",6,blank,387,null,0.333677347,0.174783348,0.623143077,0,,,,,,
,html-keyboard-response,324,676215,0.0-166.0-1.0,null,<p></p>,,null,,,,,,,,,,,,,,,,
,do_trial,325,679163,0.0-167.0-0.0,410,,,,50,"1,0,1",6,blank,388,null,0.268736568,0.11424646,0.50292626,0,,,,,,
,html-keyboard-response,326,680170,0.0-167.0-1.0,null,<p></p>,,null,,,,,,,,,,,,,,,,
,do_trial,327,682960,0.0-168.0-0.0,256,,,,51,"0,0,1",6,blank,389,null,0.317442108,0.125708061,0.688910271,1,,,,,,
,html-keyboard-response,328,683969,0.0-168.0-1.0,null,<p></p>,,null,,,,,,,,,,,,,,,,
,do_trial,329,686855,0.0-169.0-0.0,338.8,,,,51,"0,0,1",6,blank,390,null,0.302215055,0.17721216,0.607000948,1,,,,,,
,html-keyboard-response,330,687861,0.0-169.0-1.0,null,<p></p>,,null,,,,,,,,,,,,,,,,
,do_trial,331,690700,0.0-170.0-0.0,286.1,,,,51,"1,1,1",6,blank,391,null,0.256443067,0.255956755,0.54171619,1,,,,,,
,html-keyboard-response,332,691704,0.0-170.0-1.0,null,<p></p>,,null,,,,,,,,,,,,,,,,
,do_recog,333,694514,0.0-171.0-0.0,1299.6,,,,53,,,,392,probe-221,,,,,1,[object Object],203,5,1,
,html-keyboard-response,334,695519,0.0-171.0-1.0,null,<p></p>,,null,,,,,,,,,,,,,,,,
,do_trial,335,698543,0.0-172.0-0.0,490.1,,,,49,"0,0,0",6,blank,393,null,0.325064652,0.072778701,0.558248559,0,,,,,,
,html-keyboard-response,336,699551,0.0-172.0-1.0,null,<p></p>,,null,,,,,,,,,,,,,,,,
,do_trial,337,702393,0.0-173.0-0.0,288.8,,,,51,"1,0,1",6,blank,394,null,0.380389678,0.149774179,0.538741098,1,,,,,,
,html-keyboard-response,338,703400,0.0-173.0-1.0,null,<p></p>,,null,,,,,,,,,,,,,,,,
,do_trial,339,706150,0.0-174.0-0.0,201.8000001,,,,51,"1,0,1",6,blank,395,null,0.29863533,0.055822368,0.496157621,1,,,,,,
,html-keyboard-response,340,707159,0.0-174.0-1.0,null,<p></p>,,null,,,,,,,,,,,,,,,,
,do_trial,341,710043,0.0-175.0-0.0,348.6,,,,51,"1,0,1",6,blank,396,null,0.130370365,0.056850693,0.549182786,1,,,,,,
,html-keyboard-response,342,711052,0.0-175.0-1.0,null,<p></p>,,null,,,,,,,,,,,,,,,,
,do_trial,343,713993,0.0-176.0-0.0,388.4,,,,51,"0,0,1",6,blank,397,null,0.277300129,0.061597609,0.550536405,1,,,,,,
,html-keyboard-response,344,714999,0.0-176.0-1.0,null,<p></p>,,null,,,,,,,,,,,,,,,,
,do_trial,345,717874,0.0-177.0-0.0,323.4,,,,51,"0,1,1",6,blank,398,null,0.387975483,0.133613017,0.557133773,1,,,,,,
,html-keyboard-response,346,718891,0.0-177.0-1.0,null,<p></p>,,null,,,,,,,,,,,,,,,,
,do_recog,347,721334,0.0-178.0-0.0,923,,,,55,,,,399,probe-198,,,,,1,[object Object],165,4,0,
,html-keyboard-response,348,722340,0.0-178.0-1.0,null,<p></p>,,null,,,,,,,,,,,,,,,,
,do_trial,349,725451,0.0-179.0-0.0,552.4,,,,51,"1,0,1",6,blank,400,null,0.506013351,0.263406282,0.527649458,1,,,,,,
,html-keyboard-response,350,726453,0.0-179.0-1.0,null,<p></p>,,null,,,,,,,,,,,,,,,,
,do_recog,351,728952,0.0-180.0-0.0,994,,,,53,,,,401,probe-11,,,,,1,[object Object],43,1,1,
,html-keyboard-response,352,729957,0.0-180.0-1.0,null,<p></p>,,null,,,,,,,,,,,,,,,,
,do_trial,353,733115,0.0-181.0-0.0,606.1,,,,51,"0,0,0",6,blank,402,null,0.513692436,0.311705693,0.613376507,0,,,,,,
,html-keyboard-response,354,734123,0.0-181.0-1.0,null,<p></p>,,null,,,,,,,,,,,,,,,,
,do_trial,355,736977,0.0-182.0-0.0,311.3,,,,49,"1,0,1",6,blank,403,null,0.650499292,0.271125552,0.472662852,1,,,,,,
,html-keyboard-response,356,737982,0.0-182.0-1.0,null,<p></p>,,null,,,,,,,,,,,,,,,,
,do_trial,357,740862,0.0-183.0-0.0,342.6,,,,49,"1,1,1",6,blank,404,null,0.608960827,0.365734268,0.304738923,1,,,,,,
,html-keyboard-response,358,741867,0.0-183.0-1.0,null,<p></p>,,null,,,,,,,,,,,,,,,,
,do_recog,359,744259,0.0-184.0-0.0,881.9,,,,53,,,,405,probe-164,,,,,1,[object Object],89,2,1,
,html-keyboard-response,360,745268,0.0-184.0-1.0,null,<p></p>,,null,,,,,,,,,,,,,,,,
,do_trial,361,748102,0.0-185.0-0.0,282.6,,,,51,"1,0,0",6,blank,406,null,0.483343272,0.31793657,0.152743922,0,,,,,,
,html-keyboard-response,362,749115,0.0-185.0-1.0,null,<p></p>,,null,,,,,,,,,,,,,,,,
,do_recog,363,751725,0.0-186.0-0.0,1099.4,,,,56,,,,407,probe-119,,,,,1,[object Object],41,1,0,
,html-keyboard-response,364,752728,0.0-186.0-1.0,null,<p></p>,,null,,,,,,,,,,,,,,,,
,do_trial,365,755666,0.0-187.0-0.0,395.6,,,,51,"0,0,0",6,blank,408,null,0.53410942,0.422306163,0.070069359,0,,,,,,
,html-keyboard-response,366,756671,0.0-187.0-1.0,null,<p></p>,,null,,,,,,,,,,,,,,,,
,do_trial,367,759451,0.0-188.0-0.0,243.4000001,,,,49,"1,1,0",6,blank,409,null,0.532581321,0.37348374,0.173757232,1,,,,,,
,html-keyboard-response,368,760457,0.0-188.0-1.0,null,<p></p>,,null,,,,,,,,,,,,,,,,
,do_trial,369,763413,0.0-189.0-0.0,418.3000001,,,,49,"1,0,0",6,blank,410,null,0.657399109,0.461664216,0.138990827,1,,,,,,
,html-keyboard-response,370,764429,0.0-189.0-1.0,null,<p></p>,,null,,,,,,,,,,,,,,,,
,do_recog,371,767157,0.0-190.0-0.0,1206,,,,53,,,,411,probe-144,,,,,1,[object Object],162,4,1,
,html-keyboard-response,372,768158,0.0-190.0-1.0,null,<p></p>,,null,,,,,,,,,,,,,,,,
,do_trial,373,771278,0.0-191.0-0.0,577.6,,,,49,"1,1,0",6,blank,412,null,0.894078807,0.462897719,0.207558294,1,,,,,,
,html-keyboard-response,374,772285,0.0-191.0-1.0,null,<p></p>,,null,,,,,,,,,,,,,,,,
,do_trial,375,775106,0.0-192.0-0.0,284.4,,,,49,"1,0,1",6,blank,413,null,0.75011095,0.463031081,0.073760396,1,,,,,,
,html-keyboard-response,376,776118,0.0-192.0-1.0,null,<p></p>,,null,,,,,,,,,,,,,,,,
,do_trial,377,779275,0.0-193.0-0.0,589.5,,,,49,"0,1,0",6,blank,414,null,0.673680717,0.351199515,0.057138342,0,,,,,,
,html-keyboard-response,378,780281,0.0-193.0-1.0,null,<p></p>,,null,,,,,,,,,,,,,,,,
,do_recog,379,783073,0.0-194.0-0.0,1275.3,,,,56,,,,415,probe-233,,,,,0,[object Object],null,null,1,
,html-keyboard-response,380,784078,0.0-194.0-1.0,null,<p></p>,,null,,,,,,,,,,,,,,,,
,do_trial,381,786997,0.0-195.0-0.0,372.2,,,,49,"1,1,1",6,blank,416,null,0.619106087,0.326472327,0.122818959,1,,,,,,
,html-keyboard-response,382,787998,0.0-195.0-1.0,null,<p></p>,,null,,,,,,,,,,,,,,,,
,do_trial,383,790792,0.0-196.0-0.0,256.5,,,,49,"0,1,0",6,blank,417,null,0.671850313,0.269089615,0.216152424,0,,,,,,
,html-keyboard-response,384,791800,0.0-196.0-1.0,null,<p></p>,,null,,,,,,,,,,,,,,,,
,do_trial,385,794355,0.0-197.0-0.0,15.60000002,,,,50,"0,1,0",6,blank,418,null,0.688550539,0.38490378,0.176131829,1,,,,,,
,html-keyboard-response,386,795366,0.0-197.0-1.0,null,<p></p>,,null,,,,,,,,,,,,,,,,
,do_trial,387,798222,0.0-198.0-0.0,291,,,,51,"1,0,0",6,blank,419,null,0.655227598,0.327308893,0.113334473,0,,,,,,
,html-keyboard-response,388,799223,0.0-198.0-1.0,null,<p></p>,,null,,,,,,,,,,,,,,,,
,do_trial,389,802063,0.0-199.0-0.0,288.1999999,,,,50,"1,0,0",6,blank,420,null,0.750062246,0.059427289,0.107260546,0,,,,,,
,html-keyboard-response,390,803070,0.0-199.0-1.0,null,<p></p>,,null,,,,,,,,,,,,,,,,
,do_trial,391,805888,0.0-200.0-0.0,266.2,,,,49,"1,0,0",6,blank,421,null,0.610889246,0.245257196,0.231743572,1,,,,,,
,html-keyboard-response,392,806895,0.0-200.0-1.0,null,<p></p>,,null,,,,,,,,,,,,,,,,
,do_trial,393,809720,0.0-201.0-0.0,270,,,,49,"0,0,0",6,blank,422,null,0.691275351,0.252221612,0.225654306,0,,,,,,
,html-keyboard-response,394,810724,0.0-201.0-1.0,null,<p></p>,,null,,,,,,,,,,,,,,,,
,do_recog,395,813156,0.0-202.0-0.0,923,,,,56,,,,423,probe-46,,,,,1,[object Object],82,2,0,
,html-keyboard-response,396,814159,0.0-202.0-1.0,null,<p></p>,,null,,,,,,,,,,,,,,,,
,do_trial,397,816978,0.0-203.0-0.0,278.8,,,,50,"0,0,1",6,blank,424,null,0.599059374,0.260839943,0.297081429,0,,,,,,
,html-keyboard-response,398,817991,0.0-203.0-1.0,null,<p></p>,,null,,,,,,,,,,,,,,,,
,do_trial,399,820814,0.0-204.0-0.0,277.7,,,,49,"1,0,0",6,blank,425,null,0.67347651,0.189469966,0.317119031,1,,,,,,
,html-keyboard-response,400,821829,0.0-204.0-1.0,null,<p></p>,,null,,,,,,,,,,,,,,,,
,do_trial,401,824665,0.0-205.0-0.0,298.4,,,,49,"1,1,1",6,blank,426,null,0.652094121,0.226234984,0.107009858,1,,,,,,
,html-keyboard-response,402,825669,0.0-205.0-1.0,null,<p></p>,,null,,,,,,,,,,,,,,,,
,do_trial,403,828315,0.0-206.0-0.0,78.30000007,,,,49,"1,1,0",6,blank,427,null,0.709966676,0.38727522,0.114098327,1,,,,,,
,html-keyboard-response,404,829318,0.0-206.0-1.0,null,<p></p>,,null,,,,,,,,,,,,,,,,
,do_recog,405,831672,0.0-207.0-0.0,842,,,,53,,,,428,probe-192,,,,,1,[object Object],46,1,1,
,html-keyboard-response,406,832673,0.0-207.0-1.0,null,<p></p>,,null,,,,,,,,,,,,,,,,
,do_trial,407,835533,0.0-208.0-0.0,301.6,,,,49,"0,1,0",6,blank,429,null,0.670158721,0.405715393,0.098217211,0,,,,,,
,html-keyboard-response,408,836540,0.0-208.0-1.0,null,<p></p>,,null,,,,,,,,,,,,,,,,
,do_recog,409,838953,0.0-209.0-0.0,898.4,,,,53,,,,430,probe-99,,,,,1,[object Object],48,1,1,
,html-keyboard-response,410,839960,0.0-209.0-1.0,null,<p></p>,,null,,,,,,,,,,,,,,,,
,do_trial,411,842975,0.0-210.0-0.0,469,,,,49,"1,0,1",6,blank,431,null,0.408094617,0.469597955,0.218507459,1,,,,,,
,html-keyboard-response,412,843978,0.0-210.0-1.0,null,<p></p>,,null,,,,,,,,,,,,,,,,
,do_trial,413,846882,0.0-211.0-0.0,357.4,,,,49,"1,0,1",6,blank,432,null,0.467518896,0.283503719,0.199164001,1,,,,,,
,html-keyboard-response,414,847887,0.0-211.0-1.0,null,<p></p>,,null,,,,,,,,,,,,,,,,
,do_trial,415,850790,0.0-212.0-0.0,359.8000001,,,,49,"0,1,0",6,blank,433,null,0.508453897,0.400243948,0.21303605,0,,,,,,
,html-keyboard-response,416,851801,0.0-212.0-1.0,null,<p></p>,,null,,,,,,,,,,,,,,,,
,do_trial,417,854630,0.0-213.0-0.0,285.9,,,,51,"1,0,0",6,blank,434,null,0.630218262,0.34332309,0.264255613,0,,,,,,
,html-keyboard-response,418,855636,0.0-213.0-1.0,null,<p></p>,,null,,,,,,,,,,,,,,,,
,do_trial,419,858466,0.0-214.0-0.0,289.4,,,,50,"0,1,0",6,blank,435,null,0.683128724,0.334653969,0.190346579,1,,,,,,
,html-keyboard-response,420,859472,0.0-214.0-1.0,null,<p></p>,,null,,,,,,,,,,,,,,,,
,do_trial,421,862205,0.0-215.0-0.0,194.5,,,,50,"0,0,0",6,blank,436,null,0.638414083,0.374055812,0.345812985,0,,,,,,
,html-keyboard-response,422,863212,0.0-215.0-1.0,null,<p></p>,,null,,,,,,,,,,,,,,,,
,do_recog,423,866368,0.0-216.0-0.0,1645.6,,,,55,,,,437,probe-19,,,,,1,[object Object],44,1,0,
,html-keyboard-response,424,867373,0.0-216.0-1.0,null,<p></p>,,null,,,,,,,,,,,,,,,,
,do_trial,425,870144,0.0-217.0-0.0,230.6999999,,,,50,"0,1,0",6,blank,438,null,0.534957283,0.327389176,0.259974471,1,,,,,,
,html-keyboard-response,426,871151,0.0-217.0-1.0,null,<p></p>,,null,,,,,,,,,,,,,,,,
,do_trial,427,873927,0.0-218.0-0.0,226.4,,,,50,"0,0,0",6,blank,439,null,0.561851586,0.408621016,0.252385031,0,,,,,,
,html-keyboard-response,428,874935,0.0-218.0-1.0,null,<p></p>,,null,,,,,,,,,,,,,,,,
,do_trial,429,877778,0.0-219.0-0.0,303.6,,,,49,"0,1,0",6,blank,440,null,0.519569633,0.305016686,0.205073726,0,,,,,,
,html-keyboard-response,430,878787,0.0-219.0-1.0,null,<p></p>,,null,,,,,,,,,,,,,,,,
,do_trial,431,881684,0.0-220.0-0.0,343.4,,,,51,"1,0,0",6,blank,441,null,0.537918446,0.377091776,0.110244989,0,,,,,,
,html-keyboard-response,432,882697,0.0-220.0-1.0,null,<p></p>,,null,,,,,,,,,,,,,,,,
,do_trial,433,885570,0.0-221.0-0.0,318.3000001,,,,49,"1,0,0",6,blank,442,null,0.55465807,0.453259068,0.056752882,1,,,,,,
,html-keyboard-response,434,886577,0.0-221.0-1.0,null,<p></p>,,null,,,,,,,,,,,,,,,,
,do_recog,435,889906,0.0-222.0-0.0,1819,,,,53,,,,443,probe-199,,,,,1,[object Object],126,3,1,
,html-keyboard-response,436,890915,0.0-222.0-1.0,null,<p></p>,,null,,,,,,,,,,,,,,,,
,do_trial,437,893766,0.0-223.0-0.0,308.4,,,,49,"1,0,0",6,blank,444,null,0.521668274,0.417003395,0.067830897,1,,,,,,
,html-keyboard-response,438,894777,0.0-223.0-1.0,null,<p></p>,,null,,,,,,,,,,,,,,,,
,do_trial,439,897583,0.0-224.0-0.0,266,,,,49,"0,0,0",6,blank,445,null,0.599562899,0.349653083,0.074329553,0,,,,,,
,html-keyboard-response,440,898591,0.0-224.0-1.0,null,<p></p>,,null,,,,,,,,,,,,,,,,
,do_trial,441,901468,0.0-225.0-0.0,324.5999999,,,,51,"0,1,0",6,blank,446,null,0.596390824,0.439448323,0.117380223,0,,,,,,
,html-keyboard-response,442,902485,0.0-225.0-1.0,null,<p></p>,,null,,,,,,,,,,,,,,,,
,do_trial,443,905304,0.0-226.0-0.0,260.6,,,,50,"1,1,1",6,blank,447,null,0.624266733,0.396923793,0.08017642,1,,,,,,
,html-keyboard-response,444,906311,0.0-226.0-1.0,null,<p></p>,,null,,,,,,,,,,,,,,,,
,do_recog,445,908637,0.0-227.0-0.0,809.2,,,,53,,,,448,probe-226,,,,,1,[object Object],86,2,1,
,html-keyboard-response,446,909646,0.0-227.0-1.0,null,<p></p>,,null,,,,,,,,,,,,,,,,
,do_trial,447,912519,0.0-228.0-0.0,328.6,,,,50,"1,1,0",6,blank,449,null,0.57626533,0.36565707,0.08539409,1,,,,,,
,html-keyboard-response,448,913522,0.0-228.0-1.0,null,<p></p>,,null,,,,,,,,,,,,,,,,
,do_trial,449,916329,0.0-229.0-0.0,266.2,,,,50,"1,0,0",6,blank,450,null,0.352452484,0.262898621,0.059573671,0,,,,,,
,html-keyboard-response,450,917333,0.0-229.0-1.0,null,<p></p>,,null,,,,,,,,,,,,,,,,
,do_trial,451,919883,0.0-230.0-0.0,14.5,,,,50,"1,0,0",6,blank,451,null,0.392922521,0.342631108,0.112523482,0,,,,,,
,html-keyboard-response,452,920893,0.0-230.0-1.0,null,<p></p>,,null,,,,,,,,,,,,,,,,
,do_trial,453,923706,0.0-231.0-0.0,275.7,,,,49,"0,1,0",6,blank,452,null,0.334034511,0.342694268,0.2552768,0,,,,,,
,html-keyboard-response,454,924716,0.0-231.0-1.0,null,<p></p>,,null,,,,,,,,,,,,,,,,
,do_trial,455,927350,0.0-232.0-0.0,74.80000007,,,,51,"1,1,0",6,blank,453,null,0.338892691,0.381397763,0.298741974,0,,,,,,
,html-keyboard-response,456,928352,0.0-232.0-1.0,null,<p></p>,,null,,,,,,,,,,,,,,,,
,do_trial,457,931317,0.0-233.0-0.0,408.7,,,,50,"0,1,0",6,blank,454,null,0.329143962,0.299045711,0.369576751,1,,,,,,
,html-keyboard-response,458,932325,0.0-233.0-1.0,null,<p></p>,,null,,,,,,,,,,,,,,,,
,do_trial,459,935327,0.0-234.0-0.0,454.9,,,,50,"0,0,0",6,blank,455,null,0.238238602,0.413819628,0.421447882,0,,,,,,
,html-keyboard-response,460,936331,0.0-234.0-1.0,null,<p></p>,,null,,,,,,,,,,,,,,,,
,do_recog,461,939124,0.0-235.0-0.0,1276.1,,,,55,,,,456,probe-196,,,,,1,[object Object],80,2,0,
,html-keyboard-response,462,940130,0.0-235.0-1.0,null,<p></p>,,null,,,,,,,,,,,,,,,,
,do_trial,463,942959,0.0-236.0-0.0,286.6,,,,49,"0,0,0",6,blank,457,null,0.160187029,0.427821599,0.493782291,0,,,,,,
,html-keyboard-response,464,943968,0.0-236.0-1.0,null,<p></p>,,null,,,,,,,,,,,,,,,,
,do_trial,465,946787,0.0-237.0-0.0,268.7,,,,50,"1,1,1",6,blank,458,null,0.145978718,0.317172374,0.49439913,1,,,,,,
,html-keyboard-response,466,947804,0.0-237.0-1.0,null,<p></p>,,null,,,,,,,,,,,,,,,,
,do_trial,467,950678,0.0-238.0-0.0,319.6,,,,50,"1,0,0",6,blank,459,null,0.122779066,0.376675276,0.621881598,0,,,,,,
,html-keyboard-response,468,951686,0.0-238.0-1.0,null,<p></p>,,null,,,,,,,,,,,,,,,,
,do_trial,469,954511,0.0-239.0-0.0,281.4,,,,51,"0,0,0",6,blank,460,null,0.095109469,0.34132849,0.528582229,0,,,,,,
,html-keyboard-response,470,955514,0.0-239.0-1.0,null,<p></p>,,null,,,,,,,,,,,,,,,,
,do_recog,471,958154,0.0-240.0-0.0,1124.7,,,,53,,,,461,probe-98,,,,,1,[object Object],88,2,1,
,html-keyboard-response,472,959157,0.0-240.0-1.0,null,<p></p>,,null,,,,,,,,,,,,,,,,
,do_trial,473,962026,0.0-241.0-0.0,319.8000001,,,,49,"0,1,0",6,blank,462,null,0.076602193,0.402016273,0.513509839,0,,,,,,
,html-keyboard-response,474,963035,0.0-241.0-1.0,null,<p></p>,,null,,,,,,,,,,,,,,,,
,do_recog,475,965397,0.0-242.0-0.0,854.9,,,,53,,,,463,probe-234,,,,,0,[object Object],null,null,0,
,html-keyboard-response,476,966414,0.0-242.0-1.0,null,<p></p>,,null,,,,,,,,,,,,,,,,
,do_trial,477,969228,0.0-243.0-0.0,273.9,,,,50,"1,0,1",6,blank,464,null,0.109649221,0.34537675,0.654437161,0,,,,,,
,html-keyboard-response,478,970233,0.0-243.0-1.0,null,<p></p>,,null,,,,,,,,,,,,,,,,
,do_recog,479,972886,0.0-244.0-0.0,1146.4,,,,55,,,,465,probe-241,,,,,0,[object Object],null,null,1,
,html-keyboard-response,480,973888,0.0-244.0-1.0,null,<p></p>,,null,,,,,,,,,,,,,,,,
,do_trial,481,976700,0.0-245.0-0.0,272.2,,,,49,"0,1,1",6,blank,466,null,0.17198822,0.290924261,0.666994692,0,,,,,,
,html-keyboard-response,482,977705,0.0-245.0-1.0,null,<p></p>,,null,,,,,,,,,,,,,,,,
,do_recog,483,980411,0.0-246.0-0.0,1192.6,,,,55,,,,467,probe-253,,,,,0,[object Object],null,null,1,
,html-keyboard-response,484,981414,0.0-246.0-1.0,null,<p></p>,,null,,,,,,,,,,,,,,,,
,do_trial,485,984316,0.0-247.0-0.0,357.8000001,,,,51,"0,0,0",6,blank,468,null,0.075087823,0.192022587,0.638207008,0,,,,,,
,html-keyboard-response,486,985318,0.0-247.0-1.0,null,<p></p>,,null,,,,,,,,,,,,,,,,
,do_trial,487,988237,0.0-248.0-0.0,366.4,,,,50,"0,0,0",6,blank,469,null,0.051288688,0.184716583,0.467978017,0,,,,,,
,html-keyboard-response,488,989240,0.0-248.0-1.0,null,<p></p>,,null,,,,,,,,,,,,,,,,
,do_recog,489,992258,0.0-249.0-0.0,1507,,,,55,,,,470,probe-238,,,,,0,[object Object],null,null,1,
,html-keyboard-response,490,993261,0.0-249.0-1.0,null,<p></p>,,null,,,,,,,,,,,,,,,,
,do_trial,491,996270,0.0-250.0-0.0,457.9,,,,49,"0,0,0",6,blank,471,null,0.11195783,0.145800873,0.46690601,0,,,,,,
,html-keyboard-response,492,997283,0.0-250.0-1.0,null,<p></p>,,null,,,,,,,,,,,,,,,,
,do_recog,493,999721,0.0-251.0-0.0,925.4,,,,55,,,,472,probe-236,,,,,0,[object Object],null,null,1,
,html-keyboard-response,494,1000722,0.0-251.0-1.0,null,<p></p>,,null,,,,,,,,,,,,,,,,
,do_trial,495,1003773,0.0-252.0-0.0,519.1999999,,,,50,"0,0,1",6,blank,473,null,0.185664809,0.097512846,0.550302695,0,,,,,,
,html-keyboard-response,496,1004780,0.0-252.0-1.0,null,<p></p>,,null,,,,,,,,,,,,,,,,
,do_trial,497,1007597,0.0-253.0-0.0,260.6,,,,51,"0,0,0",6,blank,474,null,0.230012045,0.157408141,0.594548823,0,,,,,,
,html-keyboard-response,498,1008609,0.0-253.0-1.0,null,<p></p>,,null,,,,,,,,,,,,,,,,
,do_trial,499,1011404,0.0-254.0-0.0,247.4,,,,49,"1,0,0",6,blank,475,null,0.240846777,0.256327522,0.543207219,1,,,,,,
,html-keyboard-response,500,1012409,0.0-254.0-1.0,null,<p></p>,,null,,,,,,,,,,,,,,,,
,do_recog,501,1014876,0.0-255.0-0.0,954.8000001,,,,55,,,,476,probe-248,,,,,0,[object Object],null,null,1,
,html-keyboard-response,502,1015887,0.0-255.0-1.0,null,<p></p>,,null,,,,,,,,,,,,,,,,
,do_trial,503,1018582,0.0-256.0-0.0,148.8000001,,,,49,"0,0,0",6,blank,477,null,0.135074893,0.286769693,0.596407539,0,,,,,,
,html-keyboard-response,504,1019591,0.0-256.0-1.0,null,<p></p>,,null,,,,,,,,,,,,,,,,
,do_trial,505,1022522,0.0-257.0-0.0,394.8,,,,50,"0,0,0",6,blank,478,null,0.07568628,0.193312039,0.582612673,0,,,,,,
,html-keyboard-response,506,1023538,0.0-257.0-1.0,null,<p></p>,,null,,,,,,,,,,,,,,,,
,do_recog,507,1025836,0.0-258.0-0.0,775.7,,,,55,,,,479,probe-252,,,,,0,[object Object],null,null,1,
,html-keyboard-response,508,1026847,0.0-258.0-1.0,null,<p></p>,,null,,,,,,,,,,,,,,,,
,do_pick_best_pirate,509,1031837,0.0-259.0-0.0,3979.7,,,,50,,,,,,,,,,,,,,,
,do_pick_best_pirate,510,1034916,0.0-260.0-0.0,2065.7,,,,51,,,,,,,,,,,,,,,
,do_pick_best_pirate,511,1037656,0.0-261.0-0.0,1732.5,,,,49,,,,,,,,,,,,,,,
,do_pick_best_pirate,512,1039261,0.0-262.0-0.0,589.5,,,,50,,,,,,,,,,,,,,,
,do_pick_best_pirate,513,1041178,0.0-263.0-0.0,908.8,,,,50,,,,,,,,,,,,,,,
,do_pick_best_pirate,514,1043198,0.0-264.0-0.0,1008.1,,,,50,,,,,,,,,,,,,,,
,html-keyboard-response,515,1046942,0.0-265.0-0.0,3743.5,<p>You are all done with the experiment!</p><p> You made $15 plus $2 in bonus payment!</p><p>Thank you for participating. You will recieve your payment within 3 days.<p><b>[Press the space bar to end the experiment]</b></p></div>,,32,,,,,,,,,,,,,,,,