"success","trial_type","trial_index","time_elapsed","internal_node_id","interactions","blur_events","focus_events","fullscreenenter_events","fullscreenexit_events","rt","stimulus","key_press","subject_id","participant_id","age","gender","prompt","response","choice_outcomes","context_n","context_img_id","trial_n","probe_img_id","pR_red","pR_white","pR_black","outcome","is_valid","image_to_show","probed_trial","probed_context","correct","probe","probed_trial_n","probed_context_n","context_im"
"true","fullscreen","0","43146","0.0-0.0","""event"",""trial"",""time""
""fullscreenenter"",""0"",""42171""
","
","
","""event"",""trial"",""time""
""fullscreenenter"",""0"",""42171""
","
","","","","","","","","","","","","","","","","","","","","","","","","","","",""
"","pavlovia","1","43166","0.0-1.0","""event"",""trial"",""time""
""fullscreenenter"",""0"",""42171""
","
","
","""event"",""trial"",""time""
""fullscreenenter"",""0"",""42171""
","
","","","","","","","","","","","","","","","","","","","","","","","","","","",""
"","welc_back","2","53168","0.0-2.0","""event"",""trial"",""time""
""fullscreenenter"",""0"",""42171""
","
","
","""event"",""trial"",""time""
""fullscreenenter"",""0"",""42171""
","
","null","run_exp/static/audio/clip_29_welcome_back.m4a","null","523","804","14","Male","<div class='center'><p>Welcome to day 2!</p><p> Yesterday, you were the head captain of a pirate ship. You asked your fellow pirates to rob other ships of their gold across six different islands.</p></div>","","","","","","","","","","","","","","","","","","",""
"","html-keyboard-response","3","58047","0.0-3.0","""event"",""trial"",""time""
""fullscreenenter"",""0"",""42171""
","
","
","""event"",""trial"",""time""
""fullscreenenter"",""0"",""42171""
","
","4874.20000000298","<div class='center'><p>Welcome to day 2!</p><p> Yesterday, you were the head captain of a pirate ship. You asked your fellow pirates to rob other ships of their gold across six different islands.</p><p><b>[Press the space bar to continue]</b></p></div>","32","","","","","","","","","","","","","","","","","","","","","","","",""
"","day_1_summary_goal","4","75456","0.0-4.0","""event"",""trial"",""time""
""fullscreenenter"",""0"",""42171""
","
","
","""event"",""trial"",""time""
""fullscreenenter"",""0"",""42171""
","
","null","run_exp/static/audio/clip_30_goal_of_game.m4a","null","","","","","<div class='center'><p>Today, like yesterday, you get to pick which pirate you want to rob the next ship.</p><p>If the pirate is successful in robbing a ship, you get gold coins that look like this: </p><p><img src='run_exp/static/images/tutorial/reward.png' height='150'></p><p> If they were not successful in robbing the ship, then you will get no gold coins and you'll see a big red x like this: </p><p><img src='run_exp/static/images/tutorial/reward_no.png' height='150'></p></div>","","","","","","","","","","","","","","","","","","",""
"","html-keyboard-response","5","89150","0.0-5.0","""event"",""trial"",""time""
""fullscreenenter"",""0"",""42171""
","
","
","""event"",""trial"",""time""
""fullscreenenter"",""0"",""42171""
","
","13686","<div class='center'><p>Today, like yesterday, you get to pick which pirate you want to rob the next ship.</p><p>If the pirate is successful in robbing a ship, you get gold coins that look like this: </p><p><img src='run_exp/static/images/tutorial/reward.png' height='150'></p><p> If they were not successful in robbing the ship, then you will get no gold coins and you'll see a big red x like this: </p><p><img src='run_exp/static/images/tutorial/reward_no.png' height='150'></p><p><b>[Press the space bar to continue]</b></p></div>","32","","","","","","","","","","","","","","","","","","","","","","","",""
"","day_1_summary_pick","6","103936","0.0-6.0","""event"",""trial"",""time""
""fullscreenenter"",""0"",""42171""
","
","
","""event"",""trial"",""time""
""fullscreenenter"",""0"",""42171""
","
","null","run_exp/static/audio/clip_31_how_to_pick_a_pirate.m4a","null","","","","","<div class='center'><p>Also, just like yesterday, you will use the 1,2,3 keys on your keyboard to pick a pirate. Press '1' to choose red beard, '2' to choose white beard, and '3' to choose black beard . You only have 3 seconds to pick a pirate, so please make a choice quickly!</p></div>","","","","","","","","","","","","","","","","","","",""
"","html-keyboard-response","7","105627","0.0-7.0","""event"",""trial"",""time""
""fullscreenenter"",""0"",""42171""
""fullscreenexit"",""8"",""134288""
","
","
","""event"",""trial"",""time""
""fullscreenenter"",""0"",""42171""
","""event"",""trial"",""time""
""fullscreenexit"",""8"",""134288""
","1683.2000000029802","<div class='center'><p>Also, just like yesterday, you will use the 1,2,3 keys on your keyboard to pick a pirate. Press '1' to choose red beard, '2' to choose white beard, and '3' to choose black beard . You only have 3 seconds to pick a pirate, so please make a choice quickly!</p><p><b>[Press the space bar to continue]</b></p></div>","32","","","","","","","","","","","","","","","","","","","","","","","",""
"","test_phase_begin","8","136259","0.0-8.0","""event"",""trial"",""time""
""fullscreenenter"",""0"",""42171""
""fullscreenexit"",""8"",""134288""
","
","
","""event"",""trial"",""time""
""fullscreenenter"",""0"",""42171""
","""event"",""trial"",""time""
""fullscreenexit"",""8"",""134288""
","null","run_exp/static/audio/clip_32_final_place.m4a","null","","","","","<div class='center'><p>You’ve arrived at the final island of your journey! Unfortunately, it’s very foggy out, so you won’t be able to see it in the distance like the other islands you've visited.</p><p>You’ll still be deciding which pirate you want to rob a ship like before. However, because of the fog, you also won’t be able to see the ship.</p><p>This means you do not have to remember the ships you rob on this island.</p><p>Unlike yesterday, you won't be visiting multiple islands today. You will stay on this island for the entire game. This game will last ~30 minutes.</p></div>","","","","","","","","","","","","","","","","","","",""
"","html-keyboard-response","9","139049","0.0-9.0","""event"",""trial"",""time""
""fullscreenenter"",""0"",""42171""
""fullscreenexit"",""8"",""134288""
","
","
","""event"",""trial"",""time""
""fullscreenenter"",""0"",""42171""
","""event"",""trial"",""time""
""fullscreenexit"",""8"",""134288""
","2783.4000000059605","<div class='center'><p>You’ve arrived at the final island of your journey! Unfortunately, it’s very foggy out, so you won’t be able to see it in the distance like the other islands you've visited.</p><p>You’ll still be deciding which pirate you want to rob a ship like before. However, because of the fog, you also won’t be able to see the ship.</p><p>This means you do not have to remember the ships you rob on this island.</p><p>Unlike yesterday, you won't be visiting multiple islands today. You will stay on this island for the entire game. This game will last ~30 minutes.</p><p><b>[Press the space bar to continue]</b></p></div>","32","","","","","","","","","","","","","","","","","","","","","","","",""
"","explain_probe_1","10","147034","0.0-10.0","""event"",""trial"",""time""
""fullscreenenter"",""0"",""42171""
""fullscreenexit"",""8"",""134288""
","
","
","""event"",""trial"",""time""
""fullscreenenter"",""0"",""42171""
","""event"",""trial"",""time""
""fullscreenexit"",""8"",""134288""
","null","run_exp/static/audio/clip_33_recognition_1.m4a","null","","","","","<div class='center'><p> Sometimes you’ll be shown a ship, and you will be asked if you saw this ship on a past island.</p><p> Here is an example of what you will see.</p><p><img src='run_exp/static/images/tutorial/example_recog_trial.png' height='500'></p></div>","","","","","","","","","","","","","","","","","","",""
"","html-keyboard-response","11","155219","0.0-11.0","""event"",""trial"",""time""
""fullscreenenter"",""0"",""42171""
""fullscreenexit"",""8"",""134288""
","
","
","""event"",""trial"",""time""
""fullscreenenter"",""0"",""42171""
","""event"",""trial"",""time""
""fullscreenexit"",""8"",""134288""
","8177.19999999553","<div class='center'><p> Sometimes you’ll be shown a ship, and you will be asked if you saw this ship on a past island.</p><p> Here is an example of what you will see.</p><p><img src='run_exp/static/images/tutorial/example_recog_trial.png' height='500'></p><p><b>[Press the space bar to continue]</b></p></div>","32","","","","","","","","","","","","","","","","","","","","","","","",""
"","explain_probe_2","12","177125","0.0-12.0","""event"",""trial"",""time""
""fullscreenenter"",""0"",""42171""
""fullscreenexit"",""8"",""134288""
","
","
","""event"",""trial"",""time""
""fullscreenenter"",""0"",""42171""
","""event"",""trial"",""time""
""fullscreenexit"",""8"",""134288""
","null","run_exp/static/audio/clip_34_recognition_2.m4a","null","","","","","<div class='center'><p> You will press the 5, 6, 7, 8 keys on your keyboard to respond.</p><p>If you are sure you saw the ship, press <b>5</b> on your keyboard.</p><p> If you think you saw it before but aren't sure, then press <b>6</b>.</p><p> If you think you have <b>not</b> seen it before but aren't sure, then press <b>7</b>.</p><p> If you are sure you did <b>not</b> see the ship before, then press <b>8</b>.</p><p><img src='run_exp/static/images/tutorial/example_recog_trial.png' height='500'></p></div>","","","","","","","","","","","","","","","","","","",""
"","html-keyboard-response","13","255699","0.0-13.0","""event"",""trial"",""time""
""fullscreenenter"",""0"",""42171""
""fullscreenexit"",""8"",""134288""
","
","
","""event"",""trial"",""time""
""fullscreenenter"",""0"",""42171""
","""event"",""trial"",""time""
""fullscreenexit"",""8"",""134288""
","78569.39999999851","<div class='center'><p> You will press the 5, 6, 7, 8 keys on your keyboard to respond.</p><p>If you are sure you saw the ship, press <b>5</b> on your keyboard.</p><p> If you think you saw it before but aren't sure, then press <b>6</b>.</p><p> If you think you have <b>not</b> seen it before but aren't sure, then press <b>7</b>.</p><p> If you are sure you did <b>not</b> see the ship before, then press <b>8</b>.</p><p><img src='run_exp/static/images/tutorial/example_recog_trial.png' height='500'></p><p><b>[Press the space bar to continue]</b></p></div>","32","","","","","","","","","","","","","","","","","","","","","","","",""
"","explain_outcome","14","273120","0.0-14.0","""event"",""trial"",""time""
""fullscreenenter"",""0"",""42171""
""fullscreenexit"",""8"",""134288""
","
","
","""event"",""trial"",""time""
""fullscreenenter"",""0"",""42171""
","""event"",""trial"",""time""
""fullscreenexit"",""8"",""134288""
","null","run_exp/static/audio/clip_35_recognition_3.m4a","null","","","","","<div class='center'><p> If you remember correctly, then you’ll get a gold coin like this: </p><p><img src='run_exp/static/images/tutorial/reward_small.png' height='200'></p><p>If you do not remember correctly, then you'll see a red x like this: </p><p><img src='run_exp/static/images/tutorial/reward_no.png' height='200'></p><p>Importantly, when you are shown a ship, take the time to remind yourself which island you saw it on. This will help you in the next part of the study.</p></div>","","","","","","","","","","","","","","","","","","",""
"","html-keyboard-response","15","291326","0.0-15.0","""event"",""trial"",""time""
""fullscreenenter"",""0"",""42171""
""fullscreenexit"",""8"",""134288""
","
","
","""event"",""trial"",""time""
""fullscreenenter"",""0"",""42171""
","""event"",""trial"",""time""
""fullscreenexit"",""8"",""134288""
","18199.70000000298","<div class='center'><p> If you remember correctly, then you’ll get a gold coin like this: </p><p><img src='run_exp/static/images/tutorial/reward_small.png' height='200'></p><p>If you do not remember correctly, then you'll see a red x like this: </p><p><img src='run_exp/static/images/tutorial/reward_no.png' height='200'></p><p>Importantly, when you are shown a ship, take the time to remind yourself which island you saw it on. This will help you in the next part of the study.</p><p><b>[Press the space bar to continue]</b></p></div>","32","","","","","","","","","","","","","","","","","","","","","","","",""
"","begin_test_phase","16","307250","0.0-16.0","""event"",""trial"",""time""
""fullscreenenter"",""0"",""42171""
""fullscreenexit"",""8"",""134288""
","
","
","""event"",""trial"",""time""
""fullscreenenter"",""0"",""42171""
","""event"",""trial"",""time""
""fullscreenexit"",""8"",""134288""
","null","run_exp/static/audio/clip_36_begin_final.m4a","null","","","","","<div class='center'><p>Let's go over the important points again. Your job is to: </p><p>1. Pick the pirate who is best at robbing ships and will bring you back gold coins. </p><p>2. Correctly remember whether or not you saw a ship before. If you did see the ship before, remind yourself on which island you saw it. </p></div>","","","","","","","","","","","","","","","","","","",""
"","html-keyboard-response","17","308722","0.0-17.0","""event"",""trial"",""time""
""fullscreenenter"",""0"",""42171""
""fullscreenexit"",""8"",""134288""
","
","
","""event"",""trial"",""time""
""fullscreenenter"",""0"",""42171""
","""event"",""trial"",""time""
""fullscreenexit"",""8"",""134288""
","1295.7000000029802","<div class='center'><p>Let's go over the important points again. Your job is to: </p><p>1. Pick the pirate who is best at robbing ships and will bring you back gold coins. </p><p>2. Correctly remember whether or not you saw a ship before. If you did see the ship before, remind yourself on which island you saw it. </p><p><b>[Press the space bar to continue]</b></p></div>","32","","","","","","","","","","","","","","","","","","","","","","","",""
"","do_welcome","18","312735","0.0-18.0","""event"",""trial"",""time""
""fullscreenenter"",""0"",""42171""
""fullscreenexit"",""8"",""134288""
","
","
","""event"",""trial"",""time""
""fullscreenenter"",""0"",""42171""
","""event"",""trial"",""time""
""fullscreenexit"",""8"",""134288""
","null","","","","","","","","null","","","","","","","","","","","","","","","","","",""
"","do_trial","19","317959","0.0-19.0-0.0","""event"",""trial"",""time""
""fullscreenenter"",""0"",""42171""
""fullscreenexit"",""8"",""134288""
","
","
","""event"",""trial"",""time""
""fullscreenenter"",""0"",""42171""
","""event"",""trial"",""time""
""fullscreenexit"",""8"",""134288""
","2604.10000000149","","","","","","","","49","1,0,1","6","blank","230","null","0.2181936684842587","0.6536115498555237","0.3531504523778783","1","","","","","","","","",""
"","html-keyboard-response","20","318963","0.0-19.0-1.0","""event"",""trial"",""time""
""fullscreenenter"",""0"",""42171""
""fullscreenexit"",""8"",""134288""
","
","
","""event"",""trial"",""time""
""fullscreenenter"",""0"",""42171""
","""event"",""trial"",""time""
""fullscreenexit"",""8"",""134288""
","null","<p></p>","null","","","","","","","","","","","","","","","","","","","","","","","",""
"","do_trial","21","323168","0.0-20.0-0.0","""event"",""trial"",""time""
""fullscreenenter"",""0"",""42171""
""fullscreenexit"",""8"",""134288""
","
","
","""event"",""trial"",""time""
""fullscreenenter"",""0"",""42171""
","""event"",""trial"",""time""
""fullscreenexit"",""8"",""134288""
","1589.8999999985099","","","","","","","","50","0,1,0","6","blank","231","null","0.11526920123883638","0.6910228554148621","0.2306131061803471","1","","","","","","","","",""
"","html-keyboard-response","22","324176","0.0-20.0-1.0","""event"",""trial"",""time""
""fullscreenenter"",""0"",""42171""
""fullscreenexit"",""8"",""134288""
","
","
","""event"",""trial"",""time""
""fullscreenenter"",""0"",""42171""
","""event"",""trial"",""time""
""fullscreenexit"",""8"",""134288""
","null","<p></p>","null","","","","","","","","","","","","","","","","","","","","","","","",""
"","do_trial","23","327234","0.0-21.0-0.0","""event"",""trial"",""time""
""fullscreenenter"",""0"",""42171""
""fullscreenexit"",""8"",""134288""
","
","
","""event"",""trial"",""time""
""fullscreenenter"",""0"",""42171""
","""event"",""trial"",""time""
""fullscreenexit"",""8"",""134288""
","448.20000000298023","","","","","","","","49","0,0,0","6","blank","232","null","0.12159736045945849","0.6916110297692538","0.3576634929867835","0","","","","","","","","",""
"","html-keyboard-response","24","328239","0.0-21.0-1.0","""event"",""trial"",""time""
""fullscreenenter"",""0"",""42171""
""fullscreenexit"",""8"",""134288""
","
","
","""event"",""trial"",""time""
""fullscreenenter"",""0"",""42171""
","""event"",""trial"",""time""
""fullscreenexit"",""8"",""134288""
","null","<p></p>","null","","","","","","","","","","","","","","","","","","","","","","","",""
"","do_trial","25","331414","0.0-22.0-0.0","""event"",""trial"",""time""
""fullscreenenter"",""0"",""42171""
""fullscreenexit"",""8"",""134288""
","
","
","""event"",""trial"",""time""
""fullscreenenter"",""0"",""42171""
","""event"",""trial"",""time""
""fullscreenexit"",""8"",""134288""
","572","","","","","","","","51","1,1,0","6","blank","233","null","0.17794077026278415","0.6798283959313001","0.2687753079625892","0","","","","","","","","",""
"","html-keyboard-response","26","332421","0.0-22.0-1.0","""event"",""trial"",""time""
""fullscreenenter"",""0"",""42171""
""fullscreenexit"",""8"",""134288""
","
","
","""event"",""trial"",""time""
""fullscreenenter"",""0"",""42171""
","""event"",""trial"",""time""
""fullscreenexit"",""8"",""134288""
","null","<p></p>","null","","","","","","","","","","","","","","","","","","","","","","","",""
"","do_trial","27","335390","0.0-23.0-0.0","""event"",""trial"",""time""
""fullscreenenter"",""0"",""42171""
""fullscreenexit"",""8"",""134288""
","
","
","""event"",""trial"",""time""
""fullscreenenter"",""0"",""42171""
","""event"",""trial"",""time""
""fullscreenexit"",""8"",""134288""
","350.5","","","","","","","","50","0,1,0","6","blank","234","null","0.0738588071971596","0.5855261801692251","0.3227133453752313","1","","","","","","","","",""
"","html-keyboard-response","28","336396","0.0-23.0-1.0","""event"",""trial"",""time""
""fullscreenenter"",""0"",""42171""
""fullscreenexit"",""8"",""134288""
","
","
","""event"",""trial"",""time""
""fullscreenenter"",""0"",""42171""
","""event"",""trial"",""time""
""fullscreenexit"",""8"",""134288""
","null","<p></p>","null","","","","","","","","","","","","","","","","","","","","","","","",""
"","do_trial","29","339876","0.0-24.0-0.0","""event"",""trial"",""time""
""fullscreenenter"",""0"",""42171""
""fullscreenexit"",""8"",""134288""
","
","
","""event"",""trial"",""time""
""fullscreenenter"",""0"",""42171""
","""event"",""trial"",""time""
""fullscreenexit"",""8"",""134288""
","875.3999999985099","","","","","","","","50","0,0,1","6","blank","235","null","0.1080567305488785","0.6451635052137655","0.41543538780352735","0","","","","","","","","",""
"","html-keyboard-response","30","340885","0.0-24.0-1.0","""event"",""trial"",""time""
""fullscreenenter"",""0"",""42171""
""fullscreenexit"",""8"",""134288""
","
","
","""event"",""trial"",""time""
""fullscreenenter"",""0"",""42171""
","""event"",""trial"",""time""
""fullscreenexit"",""8"",""134288""
","null","<p></p>","null","","","","","","","","","","","","","","","","","","","","","","","",""
"","do_trial","31","343869","0.0-25.0-0.0","""event"",""trial"",""time""
""fullscreenenter"",""0"",""42171""
""fullscreenexit"",""8"",""134288""
","
","
","""event"",""trial"",""time""
""fullscreenenter"",""0"",""42171""
","""event"",""trial"",""time""
""fullscreenexit"",""8"",""134288""
","380.20000000298023","","","","","","","","50","0,1,0","6","blank","236","null","0.12205247217967753","0.5366753962861315","0.3592011924545857","1","","","","","","","","",""
"","html-keyboard-response","32","344875","0.0-25.0-1.0","""event"",""trial"",""time""
""fullscreenenter"",""0"",""42171""
""fullscreenexit"",""8"",""134288""
","
","
","""event"",""trial"",""time""
""fullscreenenter"",""0"",""42171""
","""event"",""trial"",""time""
""fullscreenexit"",""8"",""134288""
","null","<p></p>","null","","","","","","","","","","","","","","","","","","","","","","","",""
"","do_trial","33","348103","0.0-26.0-0.0","""event"",""trial"",""time""
""fullscreenenter"",""0"",""42171""
""fullscreenexit"",""8"",""134288""
","
","
","""event"",""trial"",""time""
""fullscreenenter"",""0"",""42171""
","""event"",""trial"",""time""
""fullscreenexit"",""8"",""134288""
","621.1999999955297","","","","","","","","50","0,0,0","6","blank","237","null","0.1669520174214393","0.5576053911801457","0.41250632517350355","0","","","","","","","","",""
"","html-keyboard-response","34","349112","0.0-26.0-1.0","""event"",""trial"",""time""
""fullscreenenter"",""0"",""42171""
""fullscreenexit"",""8"",""134288""
","
","
","""event"",""trial"",""time""
""fullscreenenter"",""0"",""42171""
","""event"",""trial"",""time""
""fullscreenexit"",""8"",""134288""
","null","<p></p>","null","","","","","","","","","","","","","","","","","","","","","","","",""
"","do_trial","35","351782","0.0-27.0-0.0","""event"",""trial"",""time""
""fullscreenenter"",""0"",""42171""
""fullscreenexit"",""8"",""134288""
","
","
","""event"",""trial"",""time""
""fullscreenenter"",""0"",""42171""
","""event"",""trial"",""time""
""fullscreenexit"",""8"",""134288""
","60.80000000447035","","","","","","","","50","0,0,0","6","blank","238","null","0.07069214605997491","0.5684950842803523","0.3655212417209277","0","","","","","","","","",""
"","html-keyboard-response","36","352790","0.0-27.0-1.0","""event"",""trial"",""time""
""fullscreenenter"",""0"",""42171""
""fullscreenexit"",""8"",""134288""
","
","
","""event"",""trial"",""time""
""fullscreenenter"",""0"",""42171""
","""event"",""trial"",""time""
""fullscreenexit"",""8"",""134288""
","null","<p></p>","null","","","","","","","","","","","","","","","","","","","","","","","",""
"","do_trial","37","355683","0.0-28.0-0.0","""event"",""trial"",""time""
""fullscreenenter"",""0"",""42171""
""fullscreenexit"",""8"",""134288""
","
","
","""event"",""trial"",""time""
""fullscreenenter"",""0"",""42171""
","""event"",""trial"",""time""
""fullscreenexit"",""8"",""134288""
","284.5","","","","","","","","50","0,0,0","6","blank","239","null","0.0962168811207939","0.5912774860085179","0.20063516261020353","0","","","","","","","","",""
"","html-keyboard-response","38","356695","0.0-28.0-1.0","""event"",""trial"",""time""
""fullscreenenter"",""0"",""42171""
""fullscreenexit"",""8"",""134288""
","
","
","""event"",""trial"",""time""
""fullscreenenter"",""0"",""42171""
","""event"",""trial"",""time""
""fullscreenexit"",""8"",""134288""
","null","<p></p>","null","","","","","","","","","","","","","","","","","","","","","","","",""
"","do_trial","39","359359","0.0-29.0-0.0","""event"",""trial"",""time""
""fullscreenenter"",""0"",""42171""
""fullscreenexit"",""8"",""134288""
","
","
","""event"",""trial"",""time""
""fullscreenenter"",""0"",""42171""
","""event"",""trial"",""time""
""fullscreenexit"",""8"",""134288""
","46.599999994039536","","","","","","","","49","1,0,0","6","blank","240","null","0.2590010425181849","0.45767943365688835","0.26021743207805875","1","","","","","","","","",""
"","html-keyboard-response","40","360367","0.0-29.0-1.0","""event"",""trial"",""time""
""fullscreenenter"",""0"",""42171""
""fullscreenexit"",""8"",""134288""
","
","
","""event"",""trial"",""time""
""fullscreenenter"",""0"",""42171""
","""event"",""trial"",""time""
""fullscreenexit"",""8"",""134288""
","null","<p></p>","null","","","","","","","","","","","","","","","","","","","","","","","",""
"","do_recog","41","366391","0.0-30.0-0.0","""event"",""trial"",""time""
""fullscreenenter"",""0"",""42171""
""fullscreenexit"",""8"",""134288""
","
","
","""event"",""trial"",""time""
""fullscreenenter"",""0"",""42171""
","""event"",""trial"",""time""
""fullscreenexit"",""8"",""134288""
","null","","","","","","","","null","","","","241","probe-150","","","","","1","[object Object]","74","1","0","","","",""
"","html-keyboard-response","42","367399","0.0-30.0-1.0","""event"",""trial"",""time""
""fullscreenenter"",""0"",""42171""
""fullscreenexit"",""8"",""134288""
","
","
","""event"",""trial"",""time""
""fullscreenenter"",""0"",""42171""
","""event"",""trial"",""time""
""fullscreenexit"",""8"",""134288""
","null","<p></p>","null","","","","","","","","","","","","","","","","","","","","","","","",""
"","do_trial","43","371179","0.0-31.0-0.0","""event"",""trial"",""time""
""fullscreenenter"",""0"",""42171""
""fullscreenexit"",""8"",""134288""
","
","
","""event"",""trial"",""time""
""fullscreenenter"",""0"",""42171""
","""event"",""trial"",""time""
""fullscreenexit"",""8"",""134288""
","1175.3000000044703","","","","","","","","49","0,1,0","6","blank","242","null","0.20180766328127153","0.31298429336686473","0.218701045873816","0","","","","","","","","",""
"","html-keyboard-response","44","372189","0.0-31.0-1.0","""event"",""trial"",""time""
""fullscreenenter"",""0"",""42171""
""fullscreenexit"",""8"",""134288""
","
","
","""event"",""trial"",""time""
""fullscreenenter"",""0"",""42171""
","""event"",""trial"",""time""
""fullscreenexit"",""8"",""134288""
","null","<p></p>","null","","","","","","","","","","","","","","","","","","","","","","","",""
"","do_trial","45","374797","0.0-32.0-0.0","""event"",""trial"",""time""
""fullscreenenter"",""0"",""42171""
""fullscreenexit"",""8"",""134288""
","
","
","""event"",""trial"",""time""
""fullscreenenter"",""0"",""42171""
","""event"",""trial"",""time""
""fullscreenexit"",""8"",""134288""
","0.5","","","","","","","","49","0,0,1","6","blank","243","null","0.20179635452810882","0.3489193905598978","0.47315643346613684","0","","","","","","","","",""
"","html-keyboard-response","46","375803","0.0-32.0-1.0","""event"",""trial"",""time""
""fullscreenenter"",""0"",""42171""
""fullscreenexit"",""8"",""134288""
","
","
","""event"",""trial"",""time""
""fullscreenenter"",""0"",""42171""
","""event"",""trial"",""time""
""fullscreenexit"",""8"",""134288""
","null","<p></p>","null","","","","","","","","","","","","","","","","","","","","","","","",""
"","do_trial","47","378706","0.0-33.0-0.0","""event"",""trial"",""time""
""fullscreenenter"",""0"",""42171""
""fullscreenexit"",""8"",""134288""
","
","
","""event"",""trial"",""time""
""fullscreenenter"",""0"",""42171""
","""event"",""trial"",""time""
""fullscreenexit"",""8"",""134288""
","296.19999999552965","","","","","","","","51","0,1,1","6","blank","244","null","0.23723165815554248","0.18224872254164104","0.659462484879609","1","","","","","","","","",""
"","html-keyboard-response","48","379713","0.0-33.0-1.0","""event"",""trial"",""time""
""fullscreenenter"",""0"",""42171""
""fullscreenexit"",""8"",""134288""
","
","
","""event"",""trial"",""time""
""fullscreenenter"",""0"",""42171""
","""event"",""trial"",""time""
""fullscreenexit"",""8"",""134288""
","null","<p></p>","null","","","","","","","","","","","","","","","","","","","","","","","",""
"","do_trial","49","382724","0.0-34.0-0.0","""event"",""trial"",""time""
""fullscreenenter"",""0"",""42171""
""fullscreenexit"",""8"",""134288""
","
","
","""event"",""trial"",""time""
""fullscreenenter"",""0"",""42171""
","""event"",""trial"",""time""
""fullscreenexit"",""8"",""134288""
","400.19999999552965","","","","","","","","51","0,0,1","6","blank","245","null","0.21179780387970748","0.14873702144172632","0.7368390452063542","1","","","","","","","","",""
"","html-keyboard-response","50","383730","0.0-34.0-1.0","""event"",""trial"",""time""
""fullscreenenter"",""0"",""42171""
""fullscreenexit"",""8"",""134288""
","
","
","""event"",""trial"",""time""
""fullscreenenter"",""0"",""42171""
","""event"",""trial"",""time""
""fullscreenexit"",""8"",""134288""
","null","<p></p>","null","","","","","","","","","","","","","","","","","","","","","","","",""
"","do_trial","51","386749","0.0-35.0-0.0","""event"",""trial"",""time""
""fullscreenenter"",""0"",""42171""
""fullscreenexit"",""8"",""134288""
","
","
","""event"",""trial"",""time""
""fullscreenenter"",""0"",""42171""
","""event"",""trial"",""time""
""fullscreenexit"",""8"",""134288""
","405.79999999701977","","","","","","","","51","0,1,1","6","blank","246","null","0.25321923437674515","0.25429104809023445","0.6845348846212101","1","","","","","","","","",""
"","html-keyboard-response","52","387753","0.0-35.0-1.0","""event"",""trial"",""time""
""fullscreenenter"",""0"",""42171""
""fullscreenexit"",""8"",""134288""
","
","
","""event"",""trial"",""time""
""fullscreenenter"",""0"",""42171""
","""event"",""trial"",""time""
""fullscreenexit"",""8"",""134288""
","null","<p></p>","null","","","","","","","","","","","","","","","","","","","","","","","",""
"","do_recog","53","393775","0.0-36.0-0.0","""event"",""trial"",""time""
""fullscreenenter"",""0"",""42171""
""fullscreenexit"",""8"",""134288""
","
","
","""event"",""trial"",""time""
""fullscreenenter"",""0"",""42171""
","""event"",""trial"",""time""
""fullscreenexit"",""8"",""134288""
","null","","","","","","","","null","","","","247","probe-01","","","","","1","[object Object]","196","4","0","","","",""
"","html-keyboard-response","54","394784","0.0-36.0-1.0","""event"",""trial"",""time""
""fullscreenenter"",""0"",""42171""
""fullscreenexit"",""8"",""134288""
","
","
","""event"",""trial"",""time""
""fullscreenenter"",""0"",""42171""
","""event"",""trial"",""time""
""fullscreenexit"",""8"",""134288""
","null","<p></p>","null","","","","","","","","","","","","","","","","","","","","","","","",""
"","do_trial","55","398196","0.0-37.0-0.0","""event"",""trial"",""time""
""fullscreenenter"",""0"",""42171""
""fullscreenexit"",""8"",""134288""
","
","
","""event"",""trial"",""time""
""fullscreenenter"",""0"",""42171""
","""event"",""trial"",""time""
""fullscreenexit"",""8"",""134288""
","801.9000000059605","","","","","","","","51","0,0,1","6","blank","248","null","0.28804532446221454","0.1989423422383662","0.5536931300358701","1","","","","","","","","",""
"","html-keyboard-response","56","399202","0.0-37.0-1.0","""event"",""trial"",""time""
""fullscreenenter"",""0"",""42171""
""fullscreenexit"",""8"",""134288""
","
","
","""event"",""trial"",""time""
""fullscreenenter"",""0"",""42171""
","""event"",""trial"",""time""
""fullscreenexit"",""8"",""134288""
","null","<p></p>","null","","","","","","","","","","","","","","","","","","","","","","","",""
"","do_trial","57","402720","0.0-38.0-0.0","""event"",""trial"",""time""
""fullscreenenter"",""0"",""42171""
""fullscreenexit"",""8"",""134288""
","
","
","""event"",""trial"",""time""
""fullscreenenter"",""0"",""42171""
","""event"",""trial"",""time""
""fullscreenexit"",""8"",""134288""
","915.7999999970198","","","","","","","","51","0,0,0","6","blank","249","null","0.3433487369798528","0.18204316845846585","0.5092183937568078","0","","","","","","","","",""
"","html-keyboard-response","58","403723","0.0-38.0-1.0","""event"",""trial"",""time""
""fullscreenenter"",""0"",""42171""
""fullscreenexit"",""8"",""134288""
","
","
","""event"",""trial"",""time""
""fullscreenenter"",""0"",""42171""
","""event"",""trial"",""time""
""fullscreenexit"",""8"",""134288""
","null","<p></p>","null","","","","","","","","","","","","","","","","","","","","","","","",""
"","do_trial","59","407078","0.0-39.0-0.0","""event"",""trial"",""time""
""fullscreenenter"",""0"",""42171""
""fullscreenexit"",""8"",""134288""
","
","
","""event"",""trial"",""time""
""fullscreenenter"",""0"",""42171""
","""event"",""trial"",""time""
""fullscreenexit"",""8"",""134288""
","751.8000000044703","","","","","","","","51","0,0,0","6","blank","250","null","0.3235983340925522","0.1818694414511256","0.4613933894006602","0","","","","","","","","",""
"","html-keyboard-response","60","408087","0.0-39.0-1.0","""event"",""trial"",""time""
""fullscreenenter"",""0"",""42171""
""fullscreenexit"",""8"",""134288""
","
","
","""event"",""trial"",""time""
""fullscreenenter"",""0"",""42171""
","""event"",""trial"",""time""
""fullscreenexit"",""8"",""134288""
","null","<p></p>","null","","","","","","","","","","","","","","","","","","","","","","","",""
"","do_trial","61","411178","0.0-40.0-0.0","""event"",""trial"",""time""
""fullscreenenter"",""0"",""42171""
""fullscreenexit"",""8"",""134288""
","
","
","""event"",""trial"",""time""
""fullscreenenter"",""0"",""42171""
","""event"",""trial"",""time""
""fullscreenexit"",""8"",""134288""
","480.40000000596046","","","","","","","","51","0,0,0","6","blank","251","null","0.16161215328161485","0.18679701783499958","0.4750866640629294","0","","","","","","","","",""
"","html-keyboard-response","62","412185","0.0-40.0-1.0","""event"",""trial"",""time""
""fullscreenenter"",""0"",""42171""
""fullscreenexit"",""8"",""134288""
","
","
","""event"",""trial"",""time""
""fullscreenenter"",""0"",""42171""
","""event"",""trial"",""time""
""fullscreenexit"",""8"",""134288""
","null","<p></p>","null","","","","","","","","","","","","","","","","","","","","","","","",""
"","do_trial","63","415102","0.0-41.0-0.0","""event"",""trial"",""time""
""fullscreenenter"",""0"",""42171""
""fullscreenexit"",""8"",""134288""
","
","
","""event"",""trial"",""time""
""fullscreenenter"",""0"",""42171""
","""event"",""trial"",""time""
""fullscreenexit"",""8"",""134288""
","290.40000000596046","","","","","","","","50","0,0,1","6","blank","252","null","0.1241685935781501","0.34065373929194154","0.4590504363715907","0","","","","","","","","",""
"","html-keyboard-response","64","416108","0.0-41.0-1.0","""event"",""trial"",""time""
""fullscreenenter"",""0"",""42171""
""fullscreenexit"",""8"",""134288""
","
","
","""event"",""trial"",""time""
""fullscreenenter"",""0"",""42171""
","""event"",""trial"",""time""
""fullscreenexit"",""8"",""134288""
","null","<p></p>","null","","","","","","","","","","","","","","","","","","","","","","","",""
"","do_recog","65","418872","0.0-42.0-0.0","""event"",""trial"",""time""
""fullscreenenter"",""0"",""42171""
""fullscreenexit"",""8"",""134288""
","
","
","""event"",""trial"",""time""
""fullscreenenter"",""0"",""42171""
","""event"",""trial"",""time""
""fullscreenexit"",""8"",""134288""
","1244.7999999970198","","","","","","","","56","","","","253","probe-195","","","","","1","[object Object]","78","1","0","","","",""
"","html-keyboard-response","66","419877","0.0-42.0-1.0","""event"",""trial"",""time""
""fullscreenenter"",""0"",""42171""
""fullscreenexit"",""8"",""134288""
","
","
","""event"",""trial"",""time""
""fullscreenenter"",""0"",""42171""
","""event"",""trial"",""time""
""fullscreenexit"",""8"",""134288""
","null","<p></p>","null","","","","","","","","","","","","","","","","","","","","","","","",""
"","do_trial","67","423288","0.0-43.0-0.0","""event"",""trial"",""time""
""fullscreenenter"",""0"",""42171""
""fullscreenexit"",""8"",""134288""
","
","
","""event"",""trial"",""time""
""fullscreenenter"",""0"",""42171""
","""event"",""trial"",""time""
""fullscreenexit"",""8"",""134288""
","804.1999999955297","","","","","","","","51","1,0,1","6","blank","254","null","0.13306037016756248","0.2058028772741038","0.48426604427297143","1","","","","","","","","",""
"","html-keyboard-response","68","424295","0.0-43.0-1.0","""event"",""trial"",""time""
""fullscreenenter"",""0"",""42171""
""fullscreenexit"",""8"",""134288""
","
","
","""event"",""trial"",""time""
""fullscreenenter"",""0"",""42171""
","""event"",""trial"",""time""
""fullscreenexit"",""8"",""134288""
","null","<p></p>","null","","","","","","","","","","","","","","","","","","","","","","","",""
"","do_trial","69","427794","0.0-44.0-0.0","""event"",""trial"",""time""
""fullscreenenter"",""0"",""42171""
""fullscreenexit"",""8"",""134288""
","
","
","""event"",""trial"",""time""
""fullscreenenter"",""0"",""42171""
","""event"",""trial"",""time""
""fullscreenexit"",""8"",""134288""
","876.8999999985099","","","","","","","","51","0,0,1","6","blank","255","null","0.16936872897651659","0.37278266242017966","0.47669609426883947","1","","","","","","","","",""
"","html-keyboard-response","70","428801","0.0-44.0-1.0","""event"",""trial"",""time""
""fullscreenenter"",""0"",""42171""
""fullscreenexit"",""8"",""134288""
","
","
","""event"",""trial"",""time""
""fullscreenenter"",""0"",""42171""
","""event"",""trial"",""time""
""fullscreenexit"",""8"",""134288""
","null","<p></p>","null","","","","","","","","","","","","","","","","","","","","","","","",""
"","do_trial","71","431746","0.0-45.0-0.0","""event"",""trial"",""time""
""fullscreenenter"",""0"",""42171""
""fullscreenexit"",""8"",""134288""
","
","
","""event"",""trial"",""time""
""fullscreenenter"",""0"",""42171""
","""event"",""trial"",""time""
""fullscreenexit"",""8"",""134288""
","339.69999999552965","","","","","","","","51","0,1,1","6","blank","256","null","0.13609298705724807","0.29430096099831327","0.5608125260157864","1","","","","","","","","",""
"","html-keyboard-response","72","432753","0.0-45.0-1.0","""event"",""trial"",""time""
""fullscreenenter"",""0"",""42171""
""fullscreenexit"",""8"",""134288""
","
","
","""event"",""trial"",""time""
""fullscreenenter"",""0"",""42171""
","""event"",""trial"",""time""
""fullscreenexit"",""8"",""134288""
","null","<p></p>","null","","","","","","","","","","","","","","","","","","","","","","","",""
"","do_trial","73","435714","0.0-46.0-0.0","""event"",""trial"",""time""
""fullscreenenter"",""0"",""42171""
""fullscreenexit"",""8"",""134288""
","
","
","""event"",""trial"",""time""
""fullscreenenter"",""0"",""42171""
","""event"",""trial"",""time""
""fullscreenexit"",""8"",""134288""
","358","","","","","","","","51","0,1,1","6","blank","257","null","0.13225642956411085","0.33816504428315974","0.5343073797829379","1","","","","","","","","",""
"","html-keyboard-response","74","436720","0.0-46.0-1.0","""event"",""trial"",""time""
""fullscreenenter"",""0"",""42171""
""fullscreenexit"",""8"",""134288""
","
","
","""event"",""trial"",""time""
""fullscreenenter"",""0"",""42171""
","""event"",""trial"",""time""
""fullscreenexit"",""8"",""134288""
","null","<p></p>","null","","","","","","","","","","","","","","","","","","","","","","","",""
"","do_trial","75","439635","0.0-47.0-0.0","""event"",""trial"",""time""
""fullscreenenter"",""0"",""42171""
""fullscreenexit"",""8"",""134288""
","
","
","""event"",""trial"",""time""
""fullscreenenter"",""0"",""42171""
","""event"",""trial"",""time""
""fullscreenexit"",""8"",""134288""
","309.8999999985099","","","","","","","","51","0,0,1","6","blank","258","null","0.1068933869549165","0.2911113322192395","0.5021365007498325","1","","","","","","","","",""
"","html-keyboard-response","76","440641","0.0-47.0-1.0","""event"",""trial"",""time""
""fullscreenenter"",""0"",""42171""
""fullscreenexit"",""8"",""134288""
","
","
","""event"",""trial"",""time""
""fullscreenenter"",""0"",""42171""
","""event"",""trial"",""time""
""fullscreenexit"",""8"",""134288""
","null","<p></p>","null","","","","","","","","","","","","","","","","","","","","","","","",""
"","do_trial","77","443525","0.0-48.0-0.0","""event"",""trial"",""time""
""fullscreenenter"",""0"",""42171""
""fullscreenexit"",""8"",""134288""
","
","
","""event"",""trial"",""time""
""fullscreenenter"",""0"",""42171""
","""event"",""trial"",""time""
""fullscreenexit"",""8"",""134288""
","276.30000000447035","","","","","","","","51","0,0,0","6","blank","259","null","0.13694200600684212","0.34598203199914296","0.5379207937799462","0","","","","","","","","",""
"","html-keyboard-response","78","444532","0.0-48.0-1.0","""event"",""trial"",""time""
""fullscreenenter"",""0"",""42171""
""fullscreenexit"",""8"",""134288""
","
","
","""event"",""trial"",""time""
""fullscreenenter"",""0"",""42171""
","""event"",""trial"",""time""
""fullscreenexit"",""8"",""134288""
","null","<p></p>","null","","","","","","","","","","","","","","","","","","","","","","","",""
"","do_recog","79","447062","0.0-49.0-0.0","""event"",""trial"",""time""
""fullscreenenter"",""0"",""42171""
""fullscreenexit"",""8"",""134288""
","
","
","""event"",""trial"",""time""
""fullscreenenter"",""0"",""42171""
","""event"",""trial"",""time""
""fullscreenexit"",""8"",""134288""
","1011.6000000014901","","","","","","","","56","","","","260","probe-214","","","","","1","[object Object]","195","4","0","","","",""
"","html-keyboard-response","80","448069","0.0-49.0-1.0","""event"",""trial"",""time""
""fullscreenenter"",""0"",""42171""
""fullscreenexit"",""8"",""134288""
","
","
","""event"",""trial"",""time""
""fullscreenenter"",""0"",""42171""
","""event"",""trial"",""time""
""fullscreenexit"",""8"",""134288""
","null","<p></p>","null","","","","","","","","","","","","","","","","","","","","","","","",""
"","do_trial","81","452314","0.0-50.0-0.0","""event"",""trial"",""time""
""fullscreenenter"",""0"",""42171""
""fullscreenexit"",""8"",""134288""
","
","
","""event"",""trial"",""time""
""fullscreenenter"",""0"",""42171""
","""event"",""trial"",""time""
""fullscreenexit"",""8"",""134288""
","1639.6999999955297","","","","","","","","51","0,1,0","6","blank","261","null","0.08588064739267907","0.355208345198221","0.40937607693298006","0","","","","","","","","",""
"","html-keyboard-response","82","453321","0.0-50.0-1.0","""event"",""trial"",""time""
""fullscreenenter"",""0"",""42171""
""fullscreenexit"",""8"",""134288""
","
","
","""event"",""trial"",""time""
""fullscreenenter"",""0"",""42171""
","""event"",""trial"",""time""
""fullscreenexit"",""8"",""134288""
","null","<p></p>","null","","","","","","","","","","","","","","","","","","","","","","","",""
"","do_trial","83","457540","0.0-51.0-0.0","""event"",""trial"",""time""
""fullscreenenter"",""0"",""42171""
""fullscreenexit"",""8"",""134288""
","
","
","""event"",""trial"",""time""
""fullscreenenter"",""0"",""42171""
","""event"",""trial"",""time""
""fullscreenexit"",""8"",""134288""
","1616","","","","","","","","51","1,1,1","6","blank","262","null","0.1976934712874412","0.29768832287248553","0.43903485600632686","1","","","","","","","","",""
"","html-keyboard-response","84","458548","0.0-51.0-1.0","""event"",""trial"",""time""
""fullscreenenter"",""0"",""42171""
""fullscreenexit"",""8"",""134288""
","
","
","""event"",""trial"",""time""
""fullscreenenter"",""0"",""42171""
","""event"",""trial"",""time""
""fullscreenexit"",""8"",""134288""
","null","<p></p>","null","","","","","","","","","","","","","","","","","","","","","","","",""
"","do_recog","85","462506","0.0-52.0-0.0","""event"",""trial"",""time""
""fullscreenenter"",""0"",""42171""
""fullscreenexit"",""8"",""134288""
","
","
","""event"",""trial"",""time""
""fullscreenenter"",""0"",""42171""
","""event"",""trial"",""time""
""fullscreenexit"",""8"",""134288""
","2439.4000000059605","","","","","","","","56","","","","263","probe-36","","","","","1","[object Object]","38","0","0","","","",""
"","html-keyboard-response","86","463514","0.0-52.0-1.0","""event"",""trial"",""time""
""fullscreenenter"",""0"",""42171""
""fullscreenexit"",""8"",""134288""
","
","
","""event"",""trial"",""time""
""fullscreenenter"",""0"",""42171""
","""event"",""trial"",""time""
""fullscreenexit"",""8"",""134288""
","null","<p></p>","null","","","","","","","","","","","","","","","","","","","","","","","",""
"","do_trial","87","467144","0.0-53.0-0.0","""event"",""trial"",""time""
""fullscreenenter"",""0"",""42171""
""fullscreenexit"",""8"",""134288""
","
","
","""event"",""trial"",""time""
""fullscreenenter"",""0"",""42171""
","""event"",""trial"",""time""
""fullscreenexit"",""8"",""134288""
","1021.2000000029802","","","","","","","","51","0,1,1","6","blank","264","null","0.11670680586410974","0.21028367774802292","0.5680298693654419","1","","","","","","","","",""
"","html-keyboard-response","88","468150","0.0-53.0-1.0","""event"",""trial"",""time""
""fullscreenenter"",""0"",""42171""
""fullscreenexit"",""8"",""134288""
","
","
","""event"",""trial"",""time""
""fullscreenenter"",""0"",""42171""
","""event"",""trial"",""time""
""fullscreenexit"",""8"",""134288""
","null","<p></p>","null","","","","","","","","","","","","","","","","","","","","","","","",""
"","do_recog","89","472414","0.0-54.0-0.0","""event"",""trial"",""time""
""fullscreenenter"",""0"",""42171""
""fullscreenexit"",""8"",""134288""
","
","
","""event"",""trial"",""time""
""fullscreenenter"",""0"",""42171""
","""event"",""trial"",""time""
""fullscreenexit"",""8"",""134288""
","2743.7999999970198","","","","","","","","56","","","","265","probe-168","","","","","1","[object Object]","158","3","0","","","",""
"","html-keyboard-response","90","473421","0.0-54.0-1.0","""event"",""trial"",""time""
""fullscreenenter"",""0"",""42171""
""fullscreenexit"",""8"",""134288""
","
","
","""event"",""trial"",""time""
""fullscreenenter"",""0"",""42171""
","""event"",""trial"",""time""
""fullscreenexit"",""8"",""134288""
","null","<p></p>","null","","","","","","","","","","","","","","","","","","","","","","","",""
"","do_trial","91","479528","0.0-55.0-0.0","""event"",""trial"",""time""
""fullscreenenter"",""0"",""42171""
""fullscreenexit"",""8"",""134288""
","
","
","""event"",""trial"",""time""
""fullscreenenter"",""0"",""42171""
","""event"",""trial"",""time""
""fullscreenexit"",""8"",""134288""
","null","","","","","","","","null","0,1,1","6","blank","266","null","0.14637298001794613","0.2763104655881968","0.5717813312380818","","","","","","","","","",""
"","html-keyboard-response","92","480534","0.0-55.0-1.0","""event"",""trial"",""time""
""fullscreenenter"",""0"",""42171""
""fullscreenexit"",""8"",""134288""
","
","
","""event"",""trial"",""time""
""fullscreenenter"",""0"",""42171""
","""event"",""trial"",""time""
""fullscreenexit"",""8"",""134288""
","null","<p></p>","null","","","","","","","","","","","","","","","","","","","","","","","",""
"","do_recog","93","486552","0.0-56.0-0.0","""event"",""trial"",""time""
""fullscreenenter"",""0"",""42171""
""fullscreenexit"",""8"",""134288""
","
","
","""event"",""trial"",""time""
""fullscreenenter"",""0"",""42171""
","""event"",""trial"",""time""
""fullscreenexit"",""8"",""134288""
","null","","","","","","","","null","","","","267","probe-224","","","","","1","[object Object]","154","3","0","","","",""
"","html-keyboard-response","94","487560","0.0-56.0-1.0","""event"",""trial"",""time""
""fullscreenenter"",""0"",""42171""
""fullscreenexit"",""8"",""134288""
","
","
","""event"",""trial"",""time""
""fullscreenenter"",""0"",""42171""
","""event"",""trial"",""time""
""fullscreenexit"",""8"",""134288""
","null","<p></p>","null","","","","","","","","","","","","","","","","","","","","","","","",""
"","do_trial","95","491508","0.0-57.0-0.0","""event"",""trial"",""time""
""fullscreenenter"",""0"",""42171""
""fullscreenexit"",""8"",""134288""
","
","
","""event"",""trial"",""time""
""fullscreenenter"",""0"",""42171""
","""event"",""trial"",""time""
""fullscreenexit"",""8"",""134288""
","1343.2999999970198","","","","","","","","51","0,0,1","6","blank","268","null","0.09521860648832955","0.2988475499950878","0.47122687993585116","1","","","","","","","","",""
"","html-keyboard-response","96","492517","0.0-57.0-1.0","""event"",""trial"",""time""
""fullscreenenter"",""0"",""42171""
""fullscreenexit"",""8"",""134288""
","
","
","""event"",""trial"",""time""
""fullscreenenter"",""0"",""42171""
","""event"",""trial"",""time""
""fullscreenexit"",""8"",""134288""
","null","<p></p>","null","","","","","","","","","","","","","","","","","","","","","","","",""
"","break","97","494841","0.0-58.0-0.0","""event"",""trial"",""time""
""fullscreenenter"",""0"",""42171""
""fullscreenexit"",""8"",""134288""
","
","
","""event"",""trial"",""time""
""fullscreenenter"",""0"",""42171""
","""event"",""trial"",""time""
""fullscreenexit"",""8"",""134288""
","2315.6999999955297","<div class='center'><p>Time to take a quick break! You have 2 minutes to rest, but you can move on sooner if you'd like.</p><p> Press the <b>space bar</b> to continue.</p></div>","32","","","","","","","","","","","","","","","","","","","","","","","",""
"","do_trial","98","499248","0.0-58.0-1.0","""event"",""trial"",""time""
""fullscreenenter"",""0"",""42171""
""fullscreenexit"",""8"",""134288""
","
","
","""event"",""trial"",""time""
""fullscreenenter"",""0"",""42171""
","""event"",""trial"",""time""
""fullscreenexit"",""8"",""134288""
","1806.7999999970198","","","","","","","","51","0,0,0","6","blank","269","null","0.09402479848910847","0.24899959943668545","0.4979598060870485","0","","","","","","","","",""
"","html-keyboard-response","99","500254","0.0-58.0-2.0","""event"",""trial"",""time""
""fullscreenenter"",""0"",""42171""
""fullscreenexit"",""8"",""134288""
","
","
","""event"",""trial"",""time""
""fullscreenenter"",""0"",""42171""
","""event"",""trial"",""time""
""fullscreenexit"",""8"",""134288""
","null","<p></p>","null","","","","","","","","","","","","","","","","","","","","","","","",""
"","do_trial","100","503776","0.0-59.0-0.0","""event"",""trial"",""time""
""fullscreenenter"",""0"",""42171""
""fullscreenexit"",""8"",""134288""
","
","
","""event"",""trial"",""time""
""fullscreenenter"",""0"",""42171""
","""event"",""trial"",""time""
""fullscreenexit"",""8"",""134288""
","906.2000000029802","","","","","","","","51","1,0,0","6","blank","270","null","0.1303098510987258","0.1890643016406991","0.501998484066323","0","","","","","","","","",""
"","html-keyboard-response","101","504782","0.0-59.0-1.0","""event"",""trial"",""time""
""fullscreenenter"",""0"",""42171""
""fullscreenexit"",""8"",""134288""
","
","
","""event"",""trial"",""time""
""fullscreenenter"",""0"",""42171""
","""event"",""trial"",""time""
""fullscreenexit"",""8"",""134288""
","null","<p></p>","null","","","","","","","","","","","","","","","","","","","","","","","",""
"","do_trial","102","507877","0.0-60.0-0.0","""event"",""trial"",""time""
""fullscreenenter"",""0"",""42171""
""fullscreenexit"",""8"",""134288""
","
","
","""event"",""trial"",""time""
""fullscreenenter"",""0"",""42171""
","""event"",""trial"",""time""
""fullscreenexit"",""8"",""134288""
","490.8999999985099","","","","","","","","50","0,0,1","6","blank","271","null","0.14099736944167937","0.119860990743141","0.6219820747752273","0","","","","","","","","",""
"","html-keyboard-response","103","508882","0.0-60.0-1.0","""event"",""trial"",""time""
""fullscreenenter"",""0"",""42171""
""fullscreenexit"",""8"",""134288""
","
","
","""event"",""trial"",""time""
""fullscreenenter"",""0"",""42171""
","""event"",""trial"",""time""
""fullscreenexit"",""8"",""134288""
","null","<p></p>","null","","","","","","","","","","","","","","","","","","","","","","","",""
"","do_trial","104","511943","0.0-61.0-0.0","""event"",""trial"",""time""
""fullscreenenter"",""0"",""42171""
""fullscreenexit"",""8"",""134288""
","
","
","""event"",""trial"",""time""
""fullscreenenter"",""0"",""42171""
","""event"",""trial"",""time""
""fullscreenexit"",""8"",""134288""
","452.59999999403954","","","","","","","","49","0,0,1","6","blank","272","null","0.053868785062740024","0.1159668909975415","0.5895153329691478","0","","","","","","","","",""
"","html-keyboard-response","105","512946","0.0-61.0-1.0","""event"",""trial"",""time""
""fullscreenenter"",""0"",""42171""
""fullscreenexit"",""8"",""134288""
","
","
","""event"",""trial"",""time""
""fullscreenenter"",""0"",""42171""
","""event"",""trial"",""time""
""fullscreenexit"",""8"",""134288""
","null","<p></p>","null","","","","","","","","","","","","","","","","","","","","","","","",""
"","do_trial","106","516090","0.0-62.0-0.0","""event"",""trial"",""time""
""fullscreenenter"",""0"",""42171""
""fullscreenexit"",""8"",""134288""
","
","
","""event"",""trial"",""time""
""fullscreenenter"",""0"",""42171""
","""event"",""trial"",""time""
""fullscreenexit"",""8"",""134288""
","545.3999999985099","","","","","","","","49","0,1,1","6","blank","273","null","0.14784477776627644","0.13530422861019364","0.5147386197208279","0","","","","","","","","",""
"","html-keyboard-response","107","517097","0.0-62.0-1.0","""event"",""trial"",""time""
""fullscreenenter"",""0"",""42171""
""fullscreenexit"",""8"",""134288""
","
","
","""event"",""trial"",""time""
""fullscreenenter"",""0"",""42171""
","""event"",""trial"",""time""
""fullscreenexit"",""8"",""134288""
","null","<p></p>","null","","","","","","","","","","","","","","","","","","","","","","","",""
"","do_recog","108","519977","0.0-63.0-0.0","""event"",""trial"",""time""
""fullscreenenter"",""0"",""42171""
""fullscreenexit"",""8"",""134288""
","
","
","""event"",""trial"",""time""
""fullscreenenter"",""0"",""42171""
","""event"",""trial"",""time""
""fullscreenexit"",""8"",""134288""
","1354.7999999970198","","","","","","","","56","","","","274","probe-23","","","","","1","[object Object]","35","0","0","","","",""
"","html-keyboard-response","109","520983","0.0-63.0-1.0","""event"",""trial"",""time""
""fullscreenenter"",""0"",""42171""
""fullscreenexit"",""8"",""134288""
","
","
","""event"",""trial"",""time""
""fullscreenenter"",""0"",""42171""
","""event"",""trial"",""time""
""fullscreenexit"",""8"",""134288""
","null","<p></p>","null","","","","","","","","","","","","","","","","","","","","","","","",""
"","do_trial","110","524532","0.0-64.0-0.0","""event"",""trial"",""time""
""fullscreenenter"",""0"",""42171""
""fullscreenexit"",""8"",""134288""
","
","
","""event"",""trial"",""time""
""fullscreenenter"",""0"",""42171""
","""event"",""trial"",""time""
""fullscreenexit"",""8"",""134288""
","939.3000000044703","","","","","","","","51","1,0,0","6","blank","275","null","0.07447724845973712","0.231723352178694","0.44382642952663603","0","","","","","","","","",""
"","html-keyboard-response","111","525536","0.0-64.0-1.0","""event"",""trial"",""time""
""fullscreenenter"",""0"",""42171""
""fullscreenexit"",""8"",""134288""
","
","
","""event"",""trial"",""time""
""fullscreenenter"",""0"",""42171""
","""event"",""trial"",""time""
""fullscreenexit"",""8"",""134288""
","null","<p></p>","null","","","","","","","","","","","","","","","","","","","","","","","",""
"","do_trial","112","528492","0.0-65.0-0.0","""event"",""trial"",""time""
""fullscreenenter"",""0"",""42171""
""fullscreenexit"",""8"",""134288""
","
","
","""event"",""trial"",""time""
""fullscreenenter"",""0"",""42171""
","""event"",""trial"",""time""
""fullscreenexit"",""8"",""134288""
","324.6000000014901","","","","","","","","50","0,0,1","6","blank","276","null","0.19672041913482927","0.28871988189509873","0.4788305841351415","0","","","","","","","","",""
"","html-keyboard-response","113","529497","0.0-65.0-1.0","""event"",""trial"",""time""
""fullscreenenter"",""0"",""42171""
""fullscreenexit"",""8"",""134288""
","
","
","""event"",""trial"",""time""
""fullscreenenter"",""0"",""42171""
","""event"",""trial"",""time""
""fullscreenexit"",""8"",""134288""
","null","<p></p>","null","","","","","","","","","","","","","","","","","","","","","","","",""
"","do_recog","114","532724","0.0-66.0-0.0","""event"",""trial"",""time""
""fullscreenenter"",""0"",""42171""
""fullscreenexit"",""8"",""134288""
","
","
","""event"",""trial"",""time""
""fullscreenenter"",""0"",""42171""
","""event"",""trial"",""time""
""fullscreenexit"",""8"",""134288""
","1707","","","","","","","","56","","","","277","probe-233","","","","","0","[object Object]","null","null","1","","","",""
"","html-keyboard-response","115","533729","0.0-66.0-1.0","""event"",""trial"",""time""
""fullscreenenter"",""0"",""42171""
""fullscreenexit"",""8"",""134288""
","
","
","""event"",""trial"",""time""
""fullscreenenter"",""0"",""42171""
","""event"",""trial"",""time""
""fullscreenexit"",""8"",""134288""
","null","<p></p>","null","","","","","","","","","","","","","","","","","","","","","","","",""
"","do_trial","116","537135","0.0-67.0-0.0","""event"",""trial"",""time""
""fullscreenenter"",""0"",""42171""
""fullscreenexit"",""8"",""134288""
","
","
","""event"",""trial"",""time""
""fullscreenenter"",""0"",""42171""
","""event"",""trial"",""time""
""fullscreenexit"",""8"",""134288""
","803.7000000029802","","","","","","","","51","0,1,1","6","blank","278","null","0.1432098670264476","0.25725214315683453","0.4492592389391088","1","","","","","","","","",""
"","html-keyboard-response","117","538147","0.0-67.0-1.0","""event"",""trial"",""time""
""fullscreenenter"",""0"",""42171""
""fullscreenexit"",""8"",""134288""
","
","
","""event"",""trial"",""time""
""fullscreenenter"",""0"",""42171""
","""event"",""trial"",""time""
""fullscreenexit"",""8"",""134288""
","null","<p></p>","null","","","","","","","","","","","","","","","","","","","","","","","",""
"","do_trial","118","541125","0.0-68.0-0.0","""event"",""trial"",""time""
""fullscreenenter"",""0"",""42171""
""fullscreenexit"",""8"",""134288""
","
","
","""event"",""trial"",""time""
""fullscreenenter"",""0"",""42171""
","""event"",""trial"",""time""
""fullscreenexit"",""8"",""134288""
","362.1000000014901","","","","","","","","51","1,1,0","6","blank","279","null","0.1904870954136953","0.37075723173788616","0.4855570853859408","0","","","","","","","","",""
"","html-keyboard-response","119","542132","0.0-68.0-1.0","""event"",""trial"",""time""
""fullscreenenter"",""0"",""42171""
""fullscreenexit"",""8"",""134288""
","
","
","""event"",""trial"",""time""
""fullscreenenter"",""0"",""42171""
","""event"",""trial"",""time""
""fullscreenexit"",""8"",""134288""
","null","<p></p>","null","","","","","","","","","","","","","","","","","","","","","","","",""
"","do_trial","120","545120","0.0-69.0-0.0","""event"",""trial"",""time""
""fullscreenenter"",""0"",""42171""
""fullscreenexit"",""8"",""134288""
","
","
","""event"",""trial"",""time""
""fullscreenenter"",""0"",""42171""
","""event"",""trial"",""time""
""fullscreenexit"",""8"",""134288""
","371.3999999985099","","","","","","","","51","0,0,0","6","blank","280","null","0.16602494140870572","0.3703313450934178","0.6130915544549794","0","","","","","","","","",""
"","html-keyboard-response","121","546127","0.0-69.0-1.0","""event"",""trial"",""time""
""fullscreenenter"",""0"",""42171""
""fullscreenexit"",""8"",""134288""
","
","
","""event"",""trial"",""time""
""fullscreenenter"",""0"",""42171""
","""event"",""trial"",""time""
""fullscreenexit"",""8"",""134288""
","null","<p></p>","null","","","","","","","","","","","","","","","","","","","","","","","",""
"","do_recog","122","548933","0.0-70.0-0.0","""event"",""trial"",""time""
""fullscreenenter"",""0"",""42171""
""fullscreenexit"",""8"",""134288""
","
","
","""event"",""trial"",""time""
""fullscreenenter"",""0"",""42171""
","""event"",""trial"",""time""
""fullscreenexit"",""8"",""134288""
","1287.3000000044703","","","","","","","","53","","","","281","probe-191","","","","","1","[object Object]","79","1","1","","","",""
"","html-keyboard-response","123","549939","0.0-70.0-1.0","""event"",""trial"",""time""
""fullscreenenter"",""0"",""42171""
""fullscreenexit"",""8"",""134288""
","
","
","""event"",""trial"",""time""
""fullscreenenter"",""0"",""42171""
","""event"",""trial"",""time""
""fullscreenexit"",""8"",""134288""
","null","<p></p>","null","","","","","","","","","","","","","","","","","","","","","","","",""
"","do_trial","124","553569","0.0-71.0-0.0","""event"",""trial"",""time""
""fullscreenenter"",""0"",""42171""
""fullscreenexit"",""8"",""134288""
","
","
","""event"",""trial"",""time""
""fullscreenenter"",""0"",""42171""
","""event"",""trial"",""time""
""fullscreenexit"",""8"",""134288""
","1026.5","","","","","","","","51","0,0,1","6","blank","282","null","0.18070059792264548","0.38768423074153185","0.6368328678292661","1","","","","","","","","",""
"","html-keyboard-response","125","554574","0.0-71.0-1.0","""event"",""trial"",""time""
""fullscreenenter"",""0"",""42171""
""fullscreenexit"",""8"",""134288""
","
","
","""event"",""trial"",""time""
""fullscreenenter"",""0"",""42171""
","""event"",""trial"",""time""
""fullscreenexit"",""8"",""134288""
","null","<p></p>","null","","","","","","","","","","","","","","","","","","","","","","","",""
"","do_trial","126","558044","0.0-72.0-0.0","""event"",""trial"",""time""
""fullscreenenter"",""0"",""42171""
""fullscreenexit"",""8"",""134288""
","
","
","""event"",""trial"",""time""
""fullscreenenter"",""0"",""42171""
","""event"",""trial"",""time""
""fullscreenexit"",""8"",""134288""
","861.5","","","","","","","","50","0,0,0","6","blank","283","null","0.11751421953696838","0.18563476779337595","0.6023664848615029","0","","","","","","","","",""
"","html-keyboard-response","127","559049","0.0-72.0-1.0","""event"",""trial"",""time""
""fullscreenenter"",""0"",""42171""
""fullscreenexit"",""8"",""134288""
","
","
","""event"",""trial"",""time""
""fullscreenenter"",""0"",""42171""
","""event"",""trial"",""time""
""fullscreenexit"",""8"",""134288""
","null","<p></p>","null","","","","","","","","","","","","","","","","","","","","","","","",""
"","do_trial","128","562000","0.0-73.0-0.0","""event"",""trial"",""time""
""fullscreenenter"",""0"",""42171""
""fullscreenexit"",""8"",""134288""
","
","
","""event"",""trial"",""time""
""fullscreenenter"",""0"",""42171""
","""event"",""trial"",""time""
""fullscreenexit"",""8"",""134288""
","342.69999999552965","","","","","","","","51","0,0,1","6","blank","284","null","0.3117962031235622","0.2817859593513436","0.6085927684682263","1","","","","","","","","",""
"","html-keyboard-response","129","563006","0.0-73.0-1.0","""event"",""trial"",""time""
""fullscreenenter"",""0"",""42171""
""fullscreenexit"",""8"",""134288""
","
","
","""event"",""trial"",""time""
""fullscreenenter"",""0"",""42171""
","""event"",""trial"",""time""
""fullscreenexit"",""8"",""134288""
","null","<p></p>","null","","","","","","","","","","","","","","","","","","","","","","","",""
"","do_recog","130","565546","0.0-74.0-0.0","""event"",""trial"",""time""
""fullscreenenter"",""0"",""42171""
""fullscreenexit"",""8"",""134288""
","
","
","""event"",""trial"",""time""
""fullscreenenter"",""0"",""42171""
","""event"",""trial"",""time""
""fullscreenexit"",""8"",""134288""
","1016.7000000029802","","","","","","","","56","","","","285","probe-71","","","","","1","[object Object]","159","3","0","","","",""
"","html-keyboard-response","131","566550","0.0-74.0-1.0","""event"",""trial"",""time""
""fullscreenenter"",""0"",""42171""
""fullscreenexit"",""8"",""134288""
","
","
","""event"",""trial"",""time""
""fullscreenenter"",""0"",""42171""
","""event"",""trial"",""time""
""fullscreenexit"",""8"",""134288""
","null","<p></p>","null","","","","","","","","","","","","","","","","","","","","","","","",""
"","do_trial","132","569631","0.0-75.0-0.0","""event"",""trial"",""time""
""fullscreenenter"",""0"",""42171""
""fullscreenexit"",""8"",""134288""
","
","
","""event"",""trial"",""time""
""fullscreenenter"",""0"",""42171""
","""event"",""trial"",""time""
""fullscreenexit"",""8"",""134288""
","475.1000000014901","","","","","","","","51","0,0,0","6","blank","286","null","0.09575619032641518","0.22266517212008544","0.5137704483949069","0","","","","","","","","",""
"","html-keyboard-response","133","570638","0.0-75.0-1.0","""event"",""trial"",""time""
""fullscreenenter"",""0"",""42171""
""fullscreenexit"",""8"",""134288""
","
","
","""event"",""trial"",""time""
""fullscreenenter"",""0"",""42171""
","""event"",""trial"",""time""
""fullscreenexit"",""8"",""134288""
","null","<p></p>","null","","","","","","","","","","","","","","","","","","","","","","","",""
"","do_trial","134","573610","0.0-76.0-0.0","""event"",""trial"",""time""
""fullscreenenter"",""0"",""42171""
""fullscreenexit"",""8"",""134288""
","
","
","""event"",""trial"",""time""
""fullscreenenter"",""0"",""42171""
","""event"",""trial"",""time""
""fullscreenexit"",""8"",""134288""
","367.20000000298023","","","","","","","","51","0,0,1","6","blank","287","null","0.1020235739826289","0.18836131119768504","0.6118863885549491","1","","","","","","","","",""
"","html-keyboard-response","135","574618","0.0-76.0-1.0","""event"",""trial"",""time""
""fullscreenenter"",""0"",""42171""
""fullscreenexit"",""8"",""134288""
","
","
","""event"",""trial"",""time""
""fullscreenenter"",""0"",""42171""
","""event"",""trial"",""time""
""fullscreenexit"",""8"",""134288""
","null","<p></p>","null","","","","","","","","","","","","","","","","","","","","","","","",""
"","do_trial","136","577558","0.0-77.0-0.0","""event"",""trial"",""time""
""fullscreenenter"",""0"",""42171""
""fullscreenexit"",""8"",""134288""
","
","
","""event"",""trial"",""time""
""fullscreenenter"",""0"",""42171""
","""event"",""trial"",""time""
""fullscreenexit"",""8"",""134288""
","338.1000000014901","","","","","","","","51","0,1,0","6","blank","288","null","0.088291191945978","0.07655638473171698","0.581935468263924","0","","","","","","","","",""
"","html-keyboard-response","137","578566","0.0-77.0-1.0","""event"",""trial"",""time""
""fullscreenenter"",""0"",""42171""
""fullscreenexit"",""8"",""134288""
","
","
","""event"",""trial"",""time""
""fullscreenenter"",""0"",""42171""
","""event"",""trial"",""time""
""fullscreenexit"",""8"",""134288""
","null","<p></p>","null","","","","","","","","","","","","","","","","","","","","","","","",""
"","do_trial","138","581655","0.0-78.0-0.0","""event"",""trial"",""time""
""fullscreenenter"",""0"",""42171""
""fullscreenexit"",""8"",""134288""
","
","
","""event"",""trial"",""time""
""fullscreenenter"",""0"",""42171""
","""event"",""trial"",""time""
""fullscreenexit"",""8"",""134288""
","486","","","","","","","","51","0,0,0","6","blank","289","null","0.10309183771339955","0.1060964980203961","0.5045156352311322","0","","","","","","","","",""
"","html-keyboard-response","139","582664","0.0-78.0-1.0","""event"",""trial"",""time""
""fullscreenenter"",""0"",""42171""
""fullscreenexit"",""8"",""134288""
","
","
","""event"",""trial"",""time""
""fullscreenenter"",""0"",""42171""
","""event"",""trial"",""time""
""fullscreenexit"",""8"",""134288""
","null","<p></p>","null","","","","","","","","","","","","","","","","","","","","","","","",""
"","do_recog","140","585971","0.0-79.0-0.0","""event"",""trial"",""time""
""fullscreenenter"",""0"",""42171""
""fullscreenexit"",""8"",""134288""
","
","
","""event"",""trial"",""time""
""fullscreenenter"",""0"",""42171""
","""event"",""trial"",""time""
""fullscreenexit"",""8"",""134288""
","1783.7000000029802","","","","","","","","56","","","","290","probe-06","","","","","1","[object Object]","197","4","0","","","",""
"","html-keyboard-response","141","586980","0.0-79.0-1.0","""event"",""trial"",""time""
""fullscreenenter"",""0"",""42171""
""fullscreenexit"",""8"",""134288""
","
","
","""event"",""trial"",""time""
""fullscreenenter"",""0"",""42171""
","""event"",""trial"",""time""
""fullscreenexit"",""8"",""134288""
","null","<p></p>","null","","","","","","","","","","","","","","","","","","","","","","","",""
"","do_trial","142","593088","0.0-80.0-0.0","""event"",""trial"",""time""
""fullscreenenter"",""0"",""42171""
""fullscreenexit"",""8"",""134288""
","
","
","""event"",""trial"",""time""
""fullscreenenter"",""0"",""42171""
","""event"",""trial"",""time""
""fullscreenexit"",""8"",""134288""
","null","","","","","","","","null","0,1,1","6","blank","291","null","0.07211523193951118","0.09064513812368363","0.6762542653536686","","","","","","","","","",""
"","html-keyboard-response","143","594092","0.0-80.0-1.0","""event"",""trial"",""time""
""fullscreenenter"",""0"",""42171""
""fullscreenexit"",""8"",""134288""
","
","
","""event"",""trial"",""time""
""fullscreenenter"",""0"",""42171""
","""event"",""trial"",""time""
""fullscreenexit"",""8"",""134288""
","null","<p></p>","null","","","","","","","","","","","","","","","","","","","","","","","",""
"","do_trial","144","598788","0.0-81.0-0.0","""event"",""trial"",""time""
""fullscreenenter"",""0"",""42171""
""fullscreenexit"",""8"",""134288""
","
","
","""event"",""trial"",""time""
""fullscreenenter"",""0"",""42171""
","""event"",""trial"",""time""
""fullscreenexit"",""8"",""134288""
","2076.2000000029802","","","","","","","","51","0,0,1","6","blank","292","null","0.08464275726202805","0.057125364091077255","0.47701669019975595","1","","","","","","","","",""
"","html-keyboard-response","145","599796","0.0-81.0-1.0","""event"",""trial"",""time""
""fullscreenenter"",""0"",""42171""
""fullscreenexit"",""8"",""134288""
","
","
","""event"",""trial"",""time""
""fullscreenenter"",""0"",""42171""
","""event"",""trial"",""time""
""fullscreenexit"",""8"",""134288""
","null","<p></p>","null","","","","","","","","","","","","","","","","","","","","","","","",""
"","do_trial","146","603199","0.0-82.0-0.0","""event"",""trial"",""time""
""fullscreenenter"",""0"",""42171""
""fullscreenexit"",""8"",""134288""
","
","
","""event"",""trial"",""time""
""fullscreenenter"",""0"",""42171""
","""event"",""trial"",""time""
""fullscreenexit"",""8"",""134288""
","800.2000000029802","","","","","","","","51","0,0,1","6","blank","293","null","0.15043376402223235","0.13202614546332997","0.4996614204655899","1","","","","","","","","",""
"","html-keyboard-response","147","604204","0.0-82.0-1.0","""event"",""trial"",""time""
""fullscreenenter"",""0"",""42171""
""fullscreenexit"",""8"",""134288""
","
","
","""event"",""trial"",""time""
""fullscreenenter"",""0"",""42171""
","""event"",""trial"",""time""
""fullscreenexit"",""8"",""134288""
","null","<p></p>","null","","","","","","","","","","","","","","","","","","","","","","","",""
"","do_trial","148","607188","0.0-83.0-0.0","""event"",""trial"",""time""
""fullscreenenter"",""0"",""42171""
""fullscreenexit"",""8"",""134288""
","
","
","""event"",""trial"",""time""
""fullscreenenter"",""0"",""42171""
","""event"",""trial"",""time""
""fullscreenexit"",""8"",""134288""
","373.8999999985099","","","","","","","","51","1,0,0","6","blank","294","null","0.3001607304947032","0.07228496751832274","0.5054159332045385","0","","","","","","","","",""
"","html-keyboard-response","149","608194","0.0-83.0-1.0","""event"",""trial"",""time""
""fullscreenenter"",""0"",""42171""
""fullscreenexit"",""8"",""134288""
","
","
","""event"",""trial"",""time""
""fullscreenenter"",""0"",""42171""
","""event"",""trial"",""time""
""fullscreenexit"",""8"",""134288""
","null","<p></p>","null","","","","","","","","","","","","","","","","","","","","","","","",""
"","do_trial","150","611276","0.0-84.0-0.0","""event"",""trial"",""time""
""fullscreenenter"",""0"",""42171""
""fullscreenexit"",""8"",""134288""
","
","
","""event"",""trial"",""time""
""fullscreenenter"",""0"",""42171""
","""event"",""trial"",""time""
""fullscreenexit"",""8"",""134288""
","474.70000000298023","","","","","","","","51","0,0,0","6","blank","295","null","0.3056670003626071","0.21905833566707864","0.3032238582751456","0","","","","","","","","",""
"","html-keyboard-response","151","612279","0.0-84.0-1.0","""event"",""trial"",""time""
""fullscreenenter"",""0"",""42171""
""fullscreenexit"",""8"",""134288""
","
","
","""event"",""trial"",""time""
""fullscreenenter"",""0"",""42171""
","""event"",""trial"",""time""
""fullscreenexit"",""8"",""134288""
","null","<p></p>","null","","","","","","","","","","","","","","","","","","","","","","","",""
"","do_recog","152","615367","0.0-85.0-0.0","""event"",""trial"",""time""
""fullscreenenter"",""0"",""42171""
""fullscreenexit"",""8"",""134288""
","
","
","""event"",""trial"",""time""
""fullscreenenter"",""0"",""42171""
","""event"",""trial"",""time""
""fullscreenexit"",""8"",""134288""
","1569.4000000059605","","","","","","","","56","","","","296","probe-156","","","","","1","[object Object]","157","3","0","","","",""
"","html-keyboard-response","153","616374","0.0-85.0-1.0","""event"",""trial"",""time""
""fullscreenenter"",""0"",""42171""
""fullscreenexit"",""8"",""134288""
","
","
","""event"",""trial"",""time""
""fullscreenenter"",""0"",""42171""
","""event"",""trial"",""time""
""fullscreenexit"",""8"",""134288""
","null","<p></p>","null","","","","","","","","","","","","","","","","","","","","","","","",""
"","do_trial","154","620033","0.0-86.0-0.0","""event"",""trial"",""time""
""fullscreenenter"",""0"",""42171""
""fullscreenexit"",""8"",""134288""
","
","
","""event"",""trial"",""time""
""fullscreenenter"",""0"",""42171""
","""event"",""trial"",""time""
""fullscreenexit"",""8"",""134288""
","1053.6000000014901","","","","","","","","51","0,0,1","6","blank","297","null","0.4676832614610455","0.15835274519058784","0.33717696691641663","1","","","","","","","","",""
"","html-keyboard-response","155","621040","0.0-86.0-1.0","""event"",""trial"",""time""
""fullscreenenter"",""0"",""42171""
""fullscreenexit"",""8"",""134288""
","
","
","""event"",""trial"",""time""
""fullscreenenter"",""0"",""42171""
","""event"",""trial"",""time""
""fullscreenexit"",""8"",""134288""
","null","<p></p>","null","","","","","","","","","","","","","","","","","","","","","","","",""
"","do_trial","156","624132","0.0-87.0-0.0","""event"",""trial"",""time""
""fullscreenenter"",""0"",""42171""
""fullscreenexit"",""8"",""134288""
","
","
","""event"",""trial"",""time""
""fullscreenenter"",""0"",""42171""
","""event"",""trial"",""time""
""fullscreenexit"",""8"",""134288""
","481","","","","","","","","51","1,0,0","6","blank","298","null","0.5666029099016711","0.26537776492502346","0.28062359428645833","0","","","","","","","","",""
"","html-keyboard-response","157","625138","0.0-87.0-1.0","""event"",""trial"",""time""
""fullscreenenter"",""0"",""42171""
""fullscreenexit"",""8"",""134288""
","
","
","""event"",""trial"",""time""
""fullscreenenter"",""0"",""42171""
","""event"",""trial"",""time""
""fullscreenexit"",""8"",""134288""
","null","<p></p>","null","","","","","","","","","","","","","","","","","","","","","","","",""
"","do_trial","158","628291","0.0-88.0-0.0","""event"",""trial"",""time""
""fullscreenenter"",""0"",""42171""
""fullscreenexit"",""8"",""134288""
","
","
","""event"",""trial"",""time""
""fullscreenenter"",""0"",""42171""
","""event"",""trial"",""time""
""fullscreenexit"",""8"",""134288""
","543.5","","","","","","","","51","0,0,0","6","blank","299","null","0.5719344709498263","0.23007665062740273","0.24596706839237095","0","","","","","","","","",""
"","html-keyboard-response","159","629294","0.0-88.0-1.0","""event"",""trial"",""time""
""fullscreenenter"",""0"",""42171""
""fullscreenexit"",""8"",""134288""
","
","
","""event"",""trial"",""time""
""fullscreenenter"",""0"",""42171""
","""event"",""trial"",""time""
""fullscreenexit"",""8"",""134288""
","null","<p></p>","null","","","","","","","","","","","","","","","","","","","","","","","",""
"","do_trial","160","632716","0.0-89.0-0.0","""event"",""trial"",""time""
""fullscreenenter"",""0"",""42171""
""fullscreenexit"",""8"",""134288""
","
","
","""event"",""trial"",""time""
""fullscreenenter"",""0"",""42171""
","""event"",""trial"",""time""
""fullscreenexit"",""8"",""134288""
","816.8999999985099","","","","","","","","51","1,1,0","6","blank","300","null","0.5976021174858023","0.1532431841828163","0.22151345802296107","0","","","","","","","","",""
"","html-keyboard-response","161","633722","0.0-89.0-1.0","""event"",""trial"",""time""
""fullscreenenter"",""0"",""42171""
""fullscreenexit"",""8"",""134288""
","
","
","""event"",""trial"",""time""
""fullscreenenter"",""0"",""42171""
","""event"",""trial"",""time""
""fullscreenexit"",""8"",""134288""
","null","<p></p>","null","","","","","","","","","","","","","","","","","","","","","","","",""
"","do_trial","162","636934","0.0-90.0-0.0","""event"",""trial"",""time""
""fullscreenenter"",""0"",""42171""
""fullscreenexit"",""8"",""134288""
","
","
","""event"",""trial"",""time""
""fullscreenenter"",""0"",""42171""
","""event"",""trial"",""time""
""fullscreenexit"",""8"",""134288""
","596.7999999970198","","","","","","","","51","1,0,0","6","blank","301","null","0.8101344920314452","0.13686373275964642","0.2516292741210987","0","","","","","","","","",""
"","html-keyboard-response","163","637938","0.0-90.0-1.0","""event"",""trial"",""time""
""fullscreenenter"",""0"",""42171""
""fullscreenexit"",""8"",""134288""
","
","
","""event"",""trial"",""time""
""fullscreenenter"",""0"",""42171""
","""event"",""trial"",""time""
""fullscreenexit"",""8"",""134288""
","null","<p></p>","null","","","","","","","","","","","","","","","","","","","","","","","",""
"","do_recog","164","640470","0.0-91.0-0.0","""event"",""trial"",""time""
""fullscreenenter"",""0"",""42171""
""fullscreenexit"",""8"",""134288""
","
","
","""event"",""trial"",""time""
""fullscreenenter"",""0"",""42171""
","""event"",""trial"",""time""
""fullscreenexit"",""8"",""134288""
","1019","","","","","","","","56","","","","302","probe-212","","","","","1","[object Object]","111","2","0","","","",""
"","html-keyboard-response","165","641475","0.0-91.0-1.0","""event"",""trial"",""time""
""fullscreenenter"",""0"",""42171""
""fullscreenexit"",""8"",""134288""
","
","
","""event"",""trial"",""time""
""fullscreenenter"",""0"",""42171""
","""event"",""trial"",""time""
""fullscreenexit"",""8"",""134288""
","null","<p></p>","null","","","","","","","","","","","","","","","","","","","","","","","",""
"","do_trial","166","644991","0.0-92.0-0.0","""event"",""trial"",""time""
""fullscreenenter"",""0"",""42171""
""fullscreenexit"",""8"",""134288""
","
","
","""event"",""trial"",""time""
""fullscreenenter"",""0"",""42171""
","""event"",""trial"",""time""
""fullscreenexit"",""8"",""134288""
","910.6999999955297","","","","","","","","51","1,0,0","6","blank","303","null","0.8253080238118201","0.15194345021575975","0.2705672732442891","0","","","","","","","","",""
"","html-keyboard-response","167","645997","0.0-92.0-1.0","""event"",""trial"",""time""
""fullscreenenter"",""0"",""42171""
""fullscreenexit"",""8"",""134288""
","
","
","""event"",""trial"",""time""
""fullscreenenter"",""0"",""42171""
","""event"",""trial"",""time""
""fullscreenexit"",""8"",""134288""
","null","<p></p>","null","","","","","","","","","","","","","","","","","","","","","","","",""
"","do_recog","168","649362","0.0-93.0-0.0","""event"",""trial"",""time""
""fullscreenenter"",""0"",""42171""
""fullscreenexit"",""8"",""134288""
","
","
","""event"",""trial"",""time""
""fullscreenenter"",""0"",""42171""
","""event"",""trial"",""time""
""fullscreenexit"",""8"",""134288""
","1847.1000000014901","","","","","","","","56","","","","304","probe-193","","","","","1","[object Object]","112","2","0","","","",""
"","html-keyboard-response","169","650369","0.0-93.0-1.0","""event"",""trial"",""time""
""fullscreenenter"",""0"",""42171""
""fullscreenexit"",""8"",""134288""
","
","
","""event"",""trial"",""time""
""fullscreenenter"",""0"",""42171""
","""event"",""trial"",""time""
""fullscreenexit"",""8"",""134288""
","null","<p></p>","null","","","","","","","","","","","","","","","","","","","","","","","",""
"","do_trial","170","653934","0.0-94.0-0.0","""event"",""trial"",""time""
""fullscreenenter"",""0"",""42171""
""fullscreenexit"",""8"",""134288""
","
","
","""event"",""trial"",""time""
""fullscreenenter"",""0"",""42171""
","""event"",""trial"",""time""
""fullscreenexit"",""8"",""134288""
","953.1000000014901","","","","","","","","51","1,0,0","6","blank","305","null","0.7502303389749835","0.07244553753235403","0.35931771504215404","0","","","","","","","","",""
"","html-keyboard-response","171","654944","0.0-94.0-1.0","""event"",""trial"",""time""
""fullscreenenter"",""0"",""42171""
""fullscreenexit"",""8"",""134288""
","
","
","""event"",""trial"",""time""
""fullscreenenter"",""0"",""42171""
","""event"",""trial"",""time""
""fullscreenexit"",""8"",""134288""
","null","<p></p>","null","","","","","","","","","","","","","","","","","","","","","","","",""
"","do_recog","172","658075","0.0-95.0-0.0","""event"",""trial"",""time""
""fullscreenenter"",""0"",""42171""
""fullscreenexit"",""8"",""134288""
","
","
","""event"",""trial"",""time""
""fullscreenenter"",""0"",""42171""
","""event"",""trial"",""time""
""fullscreenexit"",""8"",""134288""
","1609.8000000044703","","","","","","","","53","","","","306","probe-247","","","","","0","[object Object]","null","null","0","","","",""
"","html-keyboard-response","173","659081","0.0-95.0-1.0","""event"",""trial"",""time""
""fullscreenenter"",""0"",""42171""
""fullscreenexit"",""8"",""134288""
","
","
","""event"",""trial"",""time""
""fullscreenenter"",""0"",""42171""
","""event"",""trial"",""time""
""fullscreenexit"",""8"",""134288""
","null","<p></p>","null","","","","","","","","","","","","","","","","","","","","","","","",""
"","do_trial","174","662684","0.0-96.0-0.0","""event"",""trial"",""time""
""fullscreenenter"",""0"",""42171""
""fullscreenexit"",""8"",""134288""
","
","
","""event"",""trial"",""time""
""fullscreenenter"",""0"",""42171""
","""event"",""trial"",""time""
""fullscreenexit"",""8"",""134288""
","991.3000000044703","","","","","","","","51","1,0,1","6","blank","307","null","0.678443217758234","0.06600858195761508","0.2948756384713246","1","","","","","","","","",""
"","html-keyboard-response","175","663689","0.0-96.0-1.0","""event"",""trial"",""time""
""fullscreenenter"",""0"",""42171""
""fullscreenexit"",""8"",""134288""
","
","
","""event"",""trial"",""time""
""fullscreenenter"",""0"",""42171""
","""event"",""trial"",""time""
""fullscreenexit"",""8"",""134288""
","null","<p></p>","null","","","","","","","","","","","","","","","","","","","","","","","",""
"","do_trial","176","666696","0.0-97.0-0.0","""event"",""trial"",""time""
""fullscreenenter"",""0"",""42171""
""fullscreenexit"",""8"",""134288""
","
","
","""event"",""trial"",""time""
""fullscreenenter"",""0"",""42171""
","""event"",""trial"",""time""
""fullscreenexit"",""8"",""134288""
","400.19999999552965","","","","","","","","51","1,0,0","6","blank","308","null","0.6998867280434823","0.09205791937099102","0.30774402765396824","0","","","","","","","","",""
"","html-keyboard-response","177","667703","0.0-97.0-1.0","""event"",""trial"",""time""
""fullscreenenter"",""0"",""42171""
""fullscreenexit"",""8"",""134288""
","
","
","""event"",""trial"",""time""
""fullscreenenter"",""0"",""42171""
","""event"",""trial"",""time""
""fullscreenexit"",""8"",""134288""
","null","<p></p>","null","","","","","","","","","","","","","","","","","","","","","","","",""
"","break","178","668889","0.0-98.0-0.0","""event"",""trial"",""time""
""fullscreenenter"",""0"",""42171""
""fullscreenexit"",""8"",""134288""
","
","
","""event"",""trial"",""time""
""fullscreenenter"",""0"",""42171""
","""event"",""trial"",""time""
""fullscreenexit"",""8"",""134288""
","1176.2999999970198","<div class='center'><p>Time to take a quick break! You have 2 minutes to rest, but you can move on sooner if you'd like.</p><p> Press the <b>space bar</b> to continue.</p></div>","32","","","","","","","","","","","","","","","","","","","","","","","",""
"","do_trial","179","672660","0.0-98.0-1.0","""event"",""trial"",""time""
""fullscreenenter"",""0"",""42171""
""fullscreenexit"",""8"",""134288""
","
","
","""event"",""trial"",""time""
""fullscreenenter"",""0"",""42171""
","""event"",""trial"",""time""
""fullscreenexit"",""8"",""134288""
","1167.1000000014901","","","","","","","","51","1,0,1","6","blank","309","null","0.6014730878273925","0.09030284781675853","0.24017199872872166","1","","","","","","","","",""
"","html-keyboard-response","180","673667","0.0-98.0-2.0","""event"",""trial"",""time""
""fullscreenenter"",""0"",""42171""
""fullscreenexit"",""8"",""134288""
","
","
","""event"",""trial"",""time""
""fullscreenenter"",""0"",""42171""
","""event"",""trial"",""time""
""fullscreenexit"",""8"",""134288""
","null","<p></p>","null","","","","","","","","","","","","","","","","","","","","","","","",""
"","do_recog","181","676755","0.0-99.0-0.0","""event"",""trial"",""time""
""fullscreenenter"",""0"",""42171""
""fullscreenexit"",""8"",""134288""
","
","
","""event"",""trial"",""time""
""fullscreenenter"",""0"",""42171""
","""event"",""trial"",""time""
""fullscreenexit"",""8"",""134288""
","1565.5999999940395","","","","","","","","55","","","","310","probe-217","","","","","1","[object Object]","191","4","0","","","",""
"","html-keyboard-response","182","677762","0.0-99.0-1.0","""event"",""trial"",""time""
""fullscreenenter"",""0"",""42171""
""fullscreenexit"",""8"",""134288""
","
","
","""event"",""trial"",""time""
""fullscreenenter"",""0"",""42171""
","""event"",""trial"",""time""
""fullscreenexit"",""8"",""134288""
","null","<p></p>","null","","","","","","","","","","","","","","","","","","","","","","","",""
"","do_trial","183","681089","0.0-100.0-0.0","""event"",""trial"",""time""
""fullscreenenter"",""0"",""42171""
""fullscreenexit"",""8"",""134288""
","
","
","""event"",""trial"",""time""
""fullscreenenter"",""0"",""42171""
","""event"",""trial"",""time""
""fullscreenexit"",""8"",""134288""
","715.1000000014901","","","","","","","","51","1,0,1","6","blank","311","null","0.6259693397275604","0.1164009063494153","0.29554047714734666","1","","","","","","","","",""
"","html-keyboard-response","184","682095","0.0-100.0-1.0","""event"",""trial"",""time""
""fullscreenenter"",""0"",""42171""
""fullscreenexit"",""8"",""134288""
","
","
","""event"",""trial"",""time""
""fullscreenenter"",""0"",""42171""
","""event"",""trial"",""time""
""fullscreenexit"",""8"",""134288""
","null","<p></p>","null","","","","","","","","","","","","","","","","","","","","","","","",""
"","do_trial","185","685359","0.0-101.0-0.0","""event"",""trial"",""time""
""fullscreenenter"",""0"",""42171""
""fullscreenexit"",""8"",""134288""
","
","
","""event"",""trial"",""time""
""fullscreenenter"",""0"",""42171""
","""event"",""trial"",""time""
""fullscreenexit"",""8"",""134288""
","650.5","","","","","","","","51","1,0,0","6","blank","312","null","0.5350501164279103","0.07940054104358035","0.25987223359579387","0","","","","","","","","",""
"","html-keyboard-response","186","686366","0.0-101.0-1.0","""event"",""trial"",""time""
""fullscreenenter"",""0"",""42171""
""fullscreenexit"",""8"",""134288""
","
","
","""event"",""trial"",""time""
""fullscreenenter"",""0"",""42171""
","""event"",""trial"",""time""
""fullscreenexit"",""8"",""134288""
","null","<p></p>","null","","","","","","","","","","","","","","","","","","","","","","","",""
"","do_trial","187","689338","0.0-102.0-0.0","""event"",""trial"",""time""
""fullscreenenter"",""0"",""42171""
""fullscreenexit"",""8"",""134288""
","
","
","""event"",""trial"",""time""
""fullscreenenter"",""0"",""42171""
","""event"",""trial"",""time""
""fullscreenexit"",""8"",""134288""
","368.3999999985099","","","","","","","","51","1,0,1","6","blank","313","null","0.6548260382172125","0.05589125626490089","0.22212171398357022","1","","","","","","","","",""
"","html-keyboard-response","188","690343","0.0-102.0-1.0","""event"",""trial"",""time""
""fullscreenenter"",""0"",""42171""
""fullscreenexit"",""8"",""134288""
","
","
","""event"",""trial"",""time""
""fullscreenenter"",""0"",""42171""
","""event"",""trial"",""time""
""fullscreenexit"",""8"",""134288""
","null","<p></p>","null","","","","","","","","","","","","","","","","","","","","","","","",""
"","do_trial","189","693360","0.0-103.0-0.0","""event"",""trial"",""time""
""fullscreenenter"",""0"",""42171""
""fullscreenexit"",""8"",""134288""
","
","
","""event"",""trial"",""time""
""fullscreenenter"",""0"",""42171""
","""event"",""trial"",""time""
""fullscreenexit"",""8"",""134288""
","401.70000000298023","","","","","","","","51","1,1,0","6","blank","314","null","0.5433928524252173","0.12726050094212077","0.23635099710098645","0","","","","","","","","",""
"","html-keyboard-response","190","694365","0.0-103.0-1.0","""event"",""trial"",""time""
""fullscreenenter"",""0"",""42171""
""fullscreenexit"",""8"",""134288""
","
","
","""event"",""trial"",""time""
""fullscreenenter"",""0"",""42171""
","""event"",""trial"",""time""
""fullscreenexit"",""8"",""134288""
","null","<p></p>","null","","","","","","","","","","","","","","","","","","","","","","","",""
"","do_trial","191","697226","0.0-104.0-0.0","""event"",""trial"",""time""
""fullscreenenter"",""0"",""42171""
""fullscreenexit"",""8"",""134288""
","
","
","""event"",""trial"",""time""
""fullscreenenter"",""0"",""42171""
","""event"",""trial"",""time""
""fullscreenexit"",""8"",""134288""
","240.60000000149012","","","","","","","","51","1,0,0","6","blank","315","null","0.49448703531997484","0.18087859348256716","0.111633683270585","0","","","","","","","","",""
"","html-keyboard-response","192","698235","0.0-104.0-1.0","""event"",""trial"",""time""
""fullscreenenter"",""0"",""42171""
""fullscreenexit"",""8"",""134288""
","
","
","""event"",""trial"",""time""
""fullscreenenter"",""0"",""42171""
","""event"",""trial"",""time""
""fullscreenexit"",""8"",""134288""
","null","<p></p>","null","","","","","","","","","","","","","","","","","","","","","","","",""
"","do_recog","193","700701","0.0-105.0-0.0","""event"",""trial"",""time""
""fullscreenenter"",""0"",""42171""
""fullscreenexit"",""8"",""134288""
","
","
","""event"",""trial"",""time""
""fullscreenenter"",""0"",""42171""
","""event"",""trial"",""time""
""fullscreenexit"",""8"",""134288""
","945.8999999985099","","","","","","","","53","","","","316","probe-116","","","","","1","[object Object]","153","3","1","","","",""
"","html-keyboard-response","194","701706","0.0-105.0-1.0","""event"",""trial"",""time""
""fullscreenenter"",""0"",""42171""
""fullscreenexit"",""8"",""134288""
","
","
","""event"",""trial"",""time""
""fullscreenenter"",""0"",""42171""
","""event"",""trial"",""time""
""fullscreenexit"",""8"",""134288""
","null","<p></p>","null","","","","","","","","","","","","","","","","","","","","","","","",""
"","do_trial","195","707152","0.0-106.0-0.0","""event"",""trial"",""time""
""fullscreenenter"",""0"",""42171""
""fullscreenexit"",""8"",""134288""
","
","
","""event"",""trial"",""time""
""fullscreenenter"",""0"",""42171""
","""event"",""trial"",""time""
""fullscreenexit"",""8"",""134288""
","2840.5","","","","","","","","51","0,0,0","6","blank","317","null","0.5549440165833514","0.059949902615595116","0.06901888370533252","0","","","","","","","","",""
"","html-keyboard-response","196","708158","0.0-106.0-1.0","""event"",""trial"",""time""
""fullscreenenter"",""0"",""42171""
""fullscreenexit"",""8"",""134288""
","
","
","""event"",""trial"",""time""
""fullscreenenter"",""0"",""42171""
","""event"",""trial"",""time""
""fullscreenexit"",""8"",""134288""
","null","<p></p>","null","","","","","","","","","","","","","","","","","","","","","","","",""
"","do_trial","197","712100","0.0-107.0-0.0","""event"",""trial"",""time""
""fullscreenenter"",""0"",""42171""
""fullscreenexit"",""8"",""134288""
","
","
","""event"",""trial"",""time""
""fullscreenenter"",""0"",""42171""
","""event"",""trial"",""time""
""fullscreenexit"",""8"",""134288""
","1329","","","","","","","","51","1,0,0","6","blank","318","null","0.6528499954261708","0.22088957230257983","0.1756823303194416","0","","","","","","","","",""
"","html-keyboard-response","198","713109","0.0-107.0-1.0","""event"",""trial"",""time""
""fullscreenenter"",""0"",""42171""
""fullscreenexit"",""8"",""134288""
","
","
","""event"",""trial"",""time""
""fullscreenenter"",""0"",""42171""
","""event"",""trial"",""time""
""fullscreenexit"",""8"",""134288""
","null","<p></p>","null","","","","","","","","","","","","","","","","","","","","","","","",""
"","do_trial","199","716546","0.0-108.0-0.0","""event"",""trial"",""time""
""fullscreenenter"",""0"",""42171""
""fullscreenexit"",""8"",""134288""
","
","
","""event"",""trial"",""time""
""fullscreenenter"",""0"",""42171""
","""event"",""trial"",""time""
""fullscreenexit"",""8"",""134288""
","819.5","","","","","","","","51","1,0,0","6","blank","319","null","0.5248452980353672","0.12832644549126584","0.2272704823476346","0","","","","","","","","",""
"","html-keyboard-response","200","717553","0.0-108.0-1.0","""event"",""trial"",""time""
""fullscreenenter"",""0"",""42171""
""fullscreenexit"",""8"",""134288""
","
","
","""event"",""trial"",""time""
""fullscreenenter"",""0"",""42171""
","""event"",""trial"",""time""
""fullscreenexit"",""8"",""134288""
","null","<p></p>","null","","","","","","","","","","","","","","","","","","","","","","","",""
"","do_trial","201","720910","0.0-109.0-0.0","""event"",""trial"",""time""
""fullscreenenter"",""0"",""42171""
""fullscreenexit"",""8"",""134288""
","
","
","""event"",""trial"",""time""
""fullscreenenter"",""0"",""42171""
","""event"",""trial"",""time""
""fullscreenexit"",""8"",""134288""
","733.3999999985099","","","","","","","","49","0,1,1","6","blank","320","null","0.6501104523627729","0.21771904340416798","0.2512444430107596","0","","","","","","","","",""
"","html-keyboard-response","202","721917","0.0-109.0-1.0","""event"",""trial"",""time""
""fullscreenenter"",""0"",""42171""
""fullscreenexit"",""8"",""134288""
","
","
","""event"",""trial"",""time""
""fullscreenenter"",""0"",""42171""
","""event"",""trial"",""time""
""fullscreenexit"",""8"",""134288""
","null","<p></p>","null","","","","","","","","","","","","","","","","","","","","","","","",""
"","do_trial","203","725037","0.0-110.0-0.0","""event"",""trial"",""time""
""fullscreenenter"",""0"",""42171""
""fullscreenexit"",""8"",""134288""
","
","
","""event"",""trial"",""time""
""fullscreenenter"",""0"",""42171""
","""event"",""trial"",""time""
""fullscreenexit"",""8"",""134288""
","517.1999999955297","","","","","","","","49","1,0,0","6","blank","321","null","0.7118334961806393","0.24142248526108986","0.20247958312966657","1","","","","","","","","",""
"","html-keyboard-response","204","726044","0.0-110.0-1.0","""event"",""trial"",""time""
""fullscreenenter"",""0"",""42171""
""fullscreenexit"",""8"",""134288""
","
","
","""event"",""trial"",""time""
""fullscreenenter"",""0"",""42171""
","""event"",""trial"",""time""
""fullscreenexit"",""8"",""134288""
","null","<p></p>","null","","","","","","","","","","","","","","","","","","","","","","","",""
"","do_recog","205","728459","0.0-111.0-0.0","""event"",""trial"",""time""
""fullscreenenter"",""0"",""42171""
""fullscreenexit"",""8"",""134288""
","
","
","""event"",""trial"",""time""
""fullscreenenter"",""0"",""42171""
","""event"",""trial"",""time""
""fullscreenexit"",""8"",""134288""
","892.2000000029802","","","","","","","","56","","","","322","probe-127","","","","","1","[object Object]","155","3","0","","","",""
"","html-keyboard-response","206","729464","0.0-111.0-1.0","""event"",""trial"",""time""
""fullscreenenter"",""0"",""42171""
""fullscreenexit"",""8"",""134288""
","
","
","""event"",""trial"",""time""
""fullscreenenter"",""0"",""42171""
","""event"",""trial"",""time""
""fullscreenexit"",""8"",""134288""
","null","<p></p>","null","","","","","","","","","","","","","","","","","","","","","","","",""
"","do_trial","207","733356","0.0-112.0-0.0","""event"",""trial"",""time""
""fullscreenenter"",""0"",""42171""
""fullscreenexit"",""8"",""134288""
","
","
","""event"",""trial"",""time""
""fullscreenenter"",""0"",""42171""
","""event"",""trial"",""time""
""fullscreenexit"",""8"",""134288""
","1289.3999999985099","","","","","","","","49","1,0,0","6","blank","323","null","0.6253981461702468","0.11355220588210568","0.20250699106533318","1","","","","","","","","",""
"","html-keyboard-response","208","734363","0.0-112.0-1.0","""event"",""trial"",""time""
""fullscreenenter"",""0"",""42171""
""fullscreenexit"",""8"",""134288""
","
","
","""event"",""trial"",""time""
""fullscreenenter"",""0"",""42171""
","""event"",""trial"",""time""
""fullscreenexit"",""8"",""134288""
","null","<p></p>","null","","","","","","","","","","","","","","","","","","","","","","","",""
"","do_trial","209","737608","0.0-113.0-0.0","""event"",""trial"",""time""
""fullscreenenter"",""0"",""42171""
""fullscreenexit"",""8"",""134288""
","
","
","""event"",""trial"",""time""
""fullscreenenter"",""0"",""42171""
","""event"",""trial"",""time""
""fullscreenexit"",""8"",""134288""
","635.6000000014901","","","","","","","","49","1,0,0","6","blank","324","null","0.6615001158768664","0.11915663840373426","0.1064325410949034","1","","","","","","","","",""
"","html-keyboard-response","210","738615","0.0-113.0-1.0","""event"",""trial"",""time""
""fullscreenenter"",""0"",""42171""
""fullscreenexit"",""8"",""134288""
","
","
","""event"",""trial"",""time""
""fullscreenenter"",""0"",""42171""
","""event"",""trial"",""time""
""fullscreenexit"",""8"",""134288""
","null","<p></p>","null","","","","","","","","","","","","","","","","","","","","","","","",""
"","do_trial","211","741560","0.0-114.0-0.0","""event"",""trial"",""time""
""fullscreenenter"",""0"",""42171""
""fullscreenexit"",""8"",""134288""
","
","
","""event"",""trial"",""time""
""fullscreenenter"",""0"",""42171""
","""event"",""trial"",""time""
""fullscreenexit"",""8"",""134288""
","338.1000000014901","","","","","","","","49","0,0,0","6","blank","325","null","0.5691423144910384","0.13476035747395895","0.1280158203903867","0","","","","","","","","",""
"","html-keyboard-response","212","742566","0.0-114.0-1.0","""event"",""trial"",""time""
""fullscreenenter"",""0"",""42171""
""fullscreenexit"",""8"",""134288""
","
","
","""event"",""trial"",""time""
""fullscreenenter"",""0"",""42171""
","""event"",""trial"",""time""
""fullscreenexit"",""8"",""134288""
","null","<p></p>","null","","","","","","","","","","","","","","","","","","","","","","","",""
"","do_trial","213","745645","0.0-115.0-0.0","""event"",""trial"",""time""
""fullscreenenter"",""0"",""42171""
""fullscreenexit"",""8"",""134288""
","
","
","""event"",""trial"",""time""
""fullscreenenter"",""0"",""42171""
