"success","trial_type","trial_index","time_elapsed","internal_node_id","interactions","blur_events","focus_events","fullscreenenter_events","fullscreenexit_events","rt","stimulus","key_press","subject_id","participant_id","age","gender","prompt","response","choice_outcomes","context_n","context_img_id","trial_n","probe_img_id","pR_red","pR_white","pR_black","outcome","is_valid","image_to_show","probed_trial","probed_context","correct","probe","probed_trial_n","probed_context_n","context_im"
"true","fullscreen","0","4691","0.0-0.0","""event"",""trial"",""time""
""fullscreenenter"",""0"",""3742""
","
","
","""event"",""trial"",""time""
""fullscreenenter"",""0"",""3742""
","
","","","","","","","","","","","","","","","","","","","","","","","","","","",""
"","pavlovia","1","4699","0.0-1.0","""event"",""trial"",""time""
""fullscreenenter"",""0"",""3742""
","
","
","""event"",""trial"",""time""
""fullscreenenter"",""0"",""3742""
","
","","","","","","","","","","","","","","","","","","","","","","","","","","",""
"","welc_back","2","14534","0.0-2.0","""event"",""trial"",""time""
""fullscreenenter"",""0"",""3742""
","
","
","""event"",""trial"",""time""
""fullscreenenter"",""0"",""3742""
","
","null","run_exp/static/audio/clip_29_welcome_back.m4a","null","526","588","21","Male","<div class='center'><p>Welcome to day 2!</p><p> Yesterday, you were the head captain of a pirate ship. You asked your fellow pirates to rob other ships of their gold across six different islands.</p></div>","","","","","","","","","","","","","","","","","","",""
"","html-keyboard-response","3","19474","0.0-3.0","""event"",""trial"",""time""
""fullscreenenter"",""0"",""3742""
","
","
","""event"",""trial"",""time""
""fullscreenenter"",""0"",""3742""
","
","4937.099999904633","<div class='center'><p>Welcome to day 2!</p><p> Yesterday, you were the head captain of a pirate ship. You asked your fellow pirates to rob other ships of their gold across six different islands.</p><p><b>[Press the space bar to continue]</b></p></div>","32","","","","","","","","","","","","","","","","","","","","","","","",""
"","day_1_summary_goal","4","36656","0.0-4.0","""event"",""trial"",""time""
""fullscreenenter"",""0"",""3742""
","
","
","""event"",""trial"",""time""
""fullscreenenter"",""0"",""3742""
","
","null","run_exp/static/audio/clip_30_goal_of_game.m4a","null","","","","","<div class='center'><p>Today, like yesterday, you get to pick which pirate you want to rob the next ship.</p><p>If the pirate is successful in robbing a ship, you get gold coins that look like this: </p><p><img src='run_exp/static/images/tutorial/reward.png' height='150'></p><p> If they were not successful in robbing the ship, then you will get no gold coins and you'll see a big red x like this: </p><p><img src='run_exp/static/images/tutorial/reward_no.png' height='150'></p></div>","","","","","","","","","","","","","","","","","","",""
"","html-keyboard-response","5","41798","0.0-5.0","""event"",""trial"",""time""
""fullscreenenter"",""0"",""3742""
","
","
","""event"",""trial"",""time""
""fullscreenenter"",""0"",""3742""
","
","5140","<div class='center'><p>Today, like yesterday, you get to pick which pirate you want to rob the next ship.</p><p>If the pirate is successful in robbing a ship, you get gold coins that look like this: </p><p><img src='run_exp/static/images/tutorial/reward.png' height='150'></p><p> If they were not successful in robbing the ship, then you will get no gold coins and you'll see a big red x like this: </p><p><img src='run_exp/static/images/tutorial/reward_no.png' height='150'></p><p><b>[Press the space bar to continue]</b></p></div>","32","","","","","","","","","","","","","","","","","","","","","","","",""
"","day_1_summary_pick","6","56492","0.0-6.0","""event"",""trial"",""time""
""fullscreenenter"",""0"",""3742""
","
","
","""event"",""trial"",""time""
""fullscreenenter"",""0"",""3742""
","
","null","run_exp/static/audio/clip_31_how_to_pick_a_pirate.m4a","null","","","","","<div class='center'><p>Also, just like yesterday, you will use the 1,2,3 keys on your keyboard to pick a pirate. Press '1' to choose red beard, '2' to choose white beard, and '3' to choose black beard . You only have 3 seconds to pick a pirate, so please make a choice quickly!</p></div>","","","","","","","","","","","","","","","","","","",""
"","html-keyboard-response","7","57018","0.0-7.0","""event"",""trial"",""time""
""fullscreenenter"",""0"",""3742""
","
","
","""event"",""trial"",""time""
""fullscreenenter"",""0"",""3742""
","
","524.3999998569489","<div class='center'><p>Also, just like yesterday, you will use the 1,2,3 keys on your keyboard to pick a pirate. Press '1' to choose red beard, '2' to choose white beard, and '3' to choose black beard . You only have 3 seconds to pick a pirate, so please make a choice quickly!</p><p><b>[Press the space bar to continue]</b></p></div>","32","","","","","","","","","","","","","","","","","","","","","","","",""
"","test_phase_begin","8","87403","0.0-8.0","""event"",""trial"",""time""
""fullscreenenter"",""0"",""3742""
","
","
","""event"",""trial"",""time""
""fullscreenenter"",""0"",""3742""
","
","null","run_exp/static/audio/clip_32_final_place.m4a","null","","","","","<div class='center'><p>You’ve arrived at the final island of your journey! Unfortunately, it’s very foggy out, so you won’t be able to see it in the distance like the other islands you've visited.</p><p>You’ll still be deciding which pirate you want to rob a ship like before. However, because of the fog, you also won’t be able to see the ship.</p><p>This means you do not have to remember the ships you rob on this island.</p><p>Unlike yesterday, you won't be visiting multiple islands today. You will stay on this island for the entire game. This game will last ~30 minutes.</p></div>","","","","","","","","","","","","","","","","","","",""
"","html-keyboard-response","9","89096","0.0-9.0","""event"",""trial"",""time""
""fullscreenenter"",""0"",""3742""
","
","
","""event"",""trial"",""time""
""fullscreenenter"",""0"",""3742""
","
","1692.0999999046326","<div class='center'><p>You’ve arrived at the final island of your journey! Unfortunately, it’s very foggy out, so you won’t be able to see it in the distance like the other islands you've visited.</p><p>You’ll still be deciding which pirate you want to rob a ship like before. However, because of the fog, you also won’t be able to see the ship.</p><p>This means you do not have to remember the ships you rob on this island.</p><p>Unlike yesterday, you won't be visiting multiple islands today. You will stay on this island for the entire game. This game will last ~30 minutes.</p><p><b>[Press the space bar to continue]</b></p></div>","32","","","","","","","","","","","","","","","","","","","","","","","",""
"","explain_probe_1","10","96789","0.0-10.0","""event"",""trial"",""time""
""fullscreenenter"",""0"",""3742""
","
","
","""event"",""trial"",""time""
""fullscreenenter"",""0"",""3742""
","
","null","run_exp/static/audio/clip_33_recognition_1.m4a","null","","","","","<div class='center'><p> Sometimes you’ll be shown a ship, and you will be asked if you saw this ship on a past island.</p><p> Here is an example of what you will see.</p><p><img src='run_exp/static/images/tutorial/example_recog_trial.png' height='500'></p></div>","","","","","","","","","","","","","","","","","","",""
"","html-keyboard-response","11","99507","0.0-11.0","""event"",""trial"",""time""
""fullscreenenter"",""0"",""3742""
","
","
","""event"",""trial"",""time""
""fullscreenenter"",""0"",""3742""
","
","2716.199999809265","<div class='center'><p> Sometimes you’ll be shown a ship, and you will be asked if you saw this ship on a past island.</p><p> Here is an example of what you will see.</p><p><img src='run_exp/static/images/tutorial/example_recog_trial.png' height='500'></p><p><b>[Press the space bar to continue]</b></p></div>","32","","","","","","","","","","","","","","","","","","","","","","","",""
"","explain_probe_2","12","121193","0.0-12.0","""event"",""trial"",""time""
""fullscreenenter"",""0"",""3742""
","
","
","""event"",""trial"",""time""
""fullscreenenter"",""0"",""3742""
","
","null","run_exp/static/audio/clip_34_recognition_2.m4a","null","","","","","<div class='center'><p> You will press the 5, 6, 7, 8 keys on your keyboard to respond.</p><p>If you are sure you saw the ship, press <b>5</b> on your keyboard.</p><p> If you think you saw it before but aren't sure, then press <b>6</b>.</p><p> If you think you have <b>not</b> seen it before but aren't sure, then press <b>7</b>.</p><p> If you are sure you did <b>not</b> see the ship before, then press <b>8</b>.</p><p><img src='run_exp/static/images/tutorial/example_recog_trial.png' height='500'></p></div>","","","","","","","","","","","","","","","","","","",""
"","html-keyboard-response","13","123358","0.0-13.0","""event"",""trial"",""time""
""fullscreenenter"",""0"",""3742""
","
","
","""event"",""trial"",""time""
""fullscreenenter"",""0"",""3742""
","
","2163.399999856949","<div class='center'><p> You will press the 5, 6, 7, 8 keys on your keyboard to respond.</p><p>If you are sure you saw the ship, press <b>5</b> on your keyboard.</p><p> If you think you saw it before but aren't sure, then press <b>6</b>.</p><p> If you think you have <b>not</b> seen it before but aren't sure, then press <b>7</b>.</p><p> If you are sure you did <b>not</b> see the ship before, then press <b>8</b>.</p><p><img src='run_exp/static/images/tutorial/example_recog_trial.png' height='500'></p><p><b>[Press the space bar to continue]</b></p></div>","32","","","","","","","","","","","","","","","","","","","","","","","",""
"","explain_outcome","14","140541","0.0-14.0","""event"",""trial"",""time""
""fullscreenenter"",""0"",""3742""
","
","
","""event"",""trial"",""time""
""fullscreenenter"",""0"",""3742""
","
","null","run_exp/static/audio/clip_35_recognition_3.m4a","null","","","","","<div class='center'><p> If you remember correctly, then you’ll get a gold coin like this: </p><p><img src='run_exp/static/images/tutorial/reward_small.png' height='200'></p><p>If you do not remember correctly, then you'll see a red x like this: </p><p><img src='run_exp/static/images/tutorial/reward_no.png' height='200'></p><p>Importantly, when you are shown a ship, take the time to remind yourself which island you saw it on. This will help you in the next part of the study.</p></div>","","","","","","","","","","","","","","","","","","",""
"","html-keyboard-response","15","140995","0.0-15.0","""event"",""trial"",""time""
""fullscreenenter"",""0"",""3742""
","
","
","""event"",""trial"",""time""
""fullscreenenter"",""0"",""3742""
","
","451.39999985694885","<div class='center'><p> If you remember correctly, then you’ll get a gold coin like this: </p><p><img src='run_exp/static/images/tutorial/reward_small.png' height='200'></p><p>If you do not remember correctly, then you'll see a red x like this: </p><p><img src='run_exp/static/images/tutorial/reward_no.png' height='200'></p><p>Importantly, when you are shown a ship, take the time to remind yourself which island you saw it on. This will help you in the next part of the study.</p><p><b>[Press the space bar to continue]</b></p></div>","32","","","","","","","","","","","","","","","","","","","","","","","",""
"","begin_test_phase","16","156775","0.0-16.0","""event"",""trial"",""time""
""fullscreenenter"",""0"",""3742""
","
","
","""event"",""trial"",""time""
""fullscreenenter"",""0"",""3742""
","
","null","run_exp/static/audio/clip_36_begin_final.m4a","null","","","","","<div class='center'><p>Let's go over the important points again. Your job is to: </p><p>1. Pick the pirate who is best at robbing ships and will bring you back gold coins. </p><p>2. Correctly remember whether or not you saw a ship before. If you did see the ship before, remind yourself on which island you saw it. </p></div>","","","","","","","","","","","","","","","","","","",""
"","html-keyboard-response","17","159176","0.0-17.0","""event"",""trial"",""time""
""fullscreenenter"",""0"",""3742""
","
","
","""event"",""trial"",""time""
""fullscreenenter"",""0"",""3742""
","
","2348.899999856949","<div class='center'><p>Let's go over the important points again. Your job is to: </p><p>1. Pick the pirate who is best at robbing ships and will bring you back gold coins. </p><p>2. Correctly remember whether or not you saw a ship before. If you did see the ship before, remind yourself on which island you saw it. </p><p><b>[Press the space bar to continue]</b></p></div>","32","","","","","","","","","","","","","","","","","","","","","","","",""
"","do_welcome","18","163192","0.0-18.0","""event"",""trial"",""time""
""fullscreenenter"",""0"",""3742""
","
","
","""event"",""trial"",""time""
""fullscreenenter"",""0"",""3742""
","
","null","","","","","","","","null","","","","","","","","","","","","","","","","","",""
"","do_trial","19","167684","0.0-19.0-0.0","""event"",""trial"",""time""
""fullscreenenter"",""0"",""3742""
","
","
","""event"",""trial"",""time""
""fullscreenenter"",""0"",""3742""
","
","1921.6000001430511","","","","","","","","49","0,0,1","6","blank","230","null","0.08504825330424036","0.1970340813165631","0.4886819009719024","0","","","","","","","","",""
"","html-keyboard-response","20","168690","0.0-19.0-1.0","""event"",""trial"",""time""
""fullscreenenter"",""0"",""3742""
","
","
","""event"",""trial"",""time""
""fullscreenenter"",""0"",""3742""
","
","null","<p></p>","null","","","","","","","","","","","","","","","","","","","","","","","",""
"","do_trial","21","171519","0.0-20.0-0.0","""event"",""trial"",""time""
""fullscreenenter"",""0"",""3742""
","
","
","""event"",""trial"",""time""
""fullscreenenter"",""0"",""3742""
","
","262","","","","","","","","49","0,0,1","6","blank","231","null","0.15887491613213325","0.25788318088405976","0.5096216496692508","0","","","","","","","","",""
"","html-keyboard-response","22","172524","0.0-20.0-1.0","""event"",""trial"",""time""
""fullscreenenter"",""0"",""3742""
","
","
","""event"",""trial"",""time""
""fullscreenenter"",""0"",""3742""
","
","null","<p></p>","null","","","","","","","","","","","","","","","","","","","","","","","",""
"","do_trial","23","175088","0.0-21.0-0.0","""event"",""trial"",""time""
""fullscreenenter"",""0"",""3742""
","
","
","""event"",""trial"",""time""
""fullscreenenter"",""0"",""3742""
","
","0.20000004768371582","","","","","","","","50","0,0,0","6","blank","232","null","0.12346290332910424","0.24536452677638967","0.6544145058643105","0","","","","","","","","",""
"","html-keyboard-response","24","176094","0.0-21.0-1.0","""event"",""trial"",""time""
""fullscreenenter"",""0"",""3742""
","
","
","""event"",""trial"",""time""
""fullscreenenter"",""0"",""3742""
","
","null","<p></p>","null","","","","","","","","","","","","","","","","","","","","","","","",""
"","do_trial","25","178663","0.0-22.0-0.0","""event"",""trial"",""time""
""fullscreenenter"",""0"",""3742""
","
","
","""event"",""trial"",""time""
""fullscreenenter"",""0"",""3742""
","
","0.20000004768371582","","","","","","","","50","0,0,1","6","blank","233","null","0.07186223125424139","0.21739059525252383","0.6399577330918458","0","","","","","","","","",""
"","html-keyboard-response","26","179667","0.0-22.0-1.0","""event"",""trial"",""time""
""fullscreenenter"",""0"",""3742""
","
","
","""event"",""trial"",""time""
""fullscreenenter"",""0"",""3742""
","
","null","<p></p>","null","","","","","","","","","","","","","","","","","","","","","","","",""
"","do_trial","27","182312","0.0-23.0-0.0","""event"",""trial"",""time""
""fullscreenenter"",""0"",""3742""
","
","
","""event"",""trial"",""time""
""fullscreenenter"",""0"",""3742""
","
","77.90000009536743","","","","","","","","51","0,0,0","6","blank","234","null","0.062936365659896","0.23569544557215547","0.5348977478396645","0","","","","","","","","",""
"","html-keyboard-response","28","183316","0.0-23.0-1.0","""event"",""trial"",""time""
""fullscreenenter"",""0"",""3742""
","
","
","""event"",""trial"",""time""
""fullscreenenter"",""0"",""3742""
","
","null","<p></p>","null","","","","","","","","","","","","","","","","","","","","","","","",""
"","do_trial","29","185991","0.0-24.0-0.0","""event"",""trial"",""time""
""fullscreenenter"",""0"",""3742""
","
","
","""event"",""trial"",""time""
""fullscreenenter"",""0"",""3742""
","
","110","","","","","","","","51","0,0,0","6","blank","235","null","0.08465165455979949","0.2284894304031763","0.5643503774794936","0","","","","","","","","",""
"","html-keyboard-response","30","186998","0.0-24.0-1.0","""event"",""trial"",""time""
""fullscreenenter"",""0"",""3742""
","
","
","""event"",""trial"",""time""
""fullscreenenter"",""0"",""3742""
","
","null","<p></p>","null","","","","","","","","","","","","","","","","","","","","","","","",""
"","do_trial","31","189644","0.0-25.0-0.0","""event"",""trial"",""time""
""fullscreenenter"",""0"",""3742""
","
","
","""event"",""trial"",""time""
""fullscreenenter"",""0"",""3742""
","
","78.80000019073486","","","","","","","","49","0,0,1","6","blank","236","null","0.16800739450580832","0.3250331145013658","0.5889754766071045","0","","","","","","","","",""
"","html-keyboard-response","32","190648","0.0-25.0-1.0","""event"",""trial"",""time""
""fullscreenenter"",""0"",""3742""
","
","
","""event"",""trial"",""time""
""fullscreenenter"",""0"",""3742""
","
","null","<p></p>","null","","","","","","","","","","","","","","","","","","","","","","","",""
"","do_trial","33","193407","0.0-26.0-0.0","""event"",""trial"",""time""
""fullscreenenter"",""0"",""3742""
","
","
","""event"",""trial"",""time""
""fullscreenenter"",""0"",""3742""
","
","200.10000014305115","","","","","","","","49","1,0,0","6","blank","237","null","0.2532804045774321","0.42266758779271335","0.6194226332873615","1","","","","","","","","",""
"","html-keyboard-response","34","194410","0.0-26.0-1.0","""event"",""trial"",""time""
""fullscreenenter"",""0"",""3742""
","
","
","""event"",""trial"",""time""
""fullscreenenter"",""0"",""3742""
","
","null","<p></p>","null","","","","","","","","","","","","","","","","","","","","","","","",""
"","do_trial","35","199282","0.0-27.0-0.0","""event"",""trial"",""time""
""fullscreenenter"",""0"",""3742""
","
","
","""event"",""trial"",""time""
""fullscreenenter"",""0"",""3742""
","
","2310.9000000953674","","","","","","","","49","1,0,1","6","blank","238","null","0.30590359132058703","0.40107701194928824","0.6503497275259197","1","","","","","","","","",""
"","html-keyboard-response","36","200284","0.0-27.0-1.0","""event"",""trial"",""time""
""fullscreenenter"",""0"",""3742""
","
","
","""event"",""trial"",""time""
""fullscreenenter"",""0"",""3742""
","
","null","<p></p>","null","","","","","","","","","","","","","","","","","","","","","","","",""
"","do_trial","37","203332","0.0-28.0-0.0","""event"",""trial"",""time""
""fullscreenenter"",""0"",""3742""
","
","
","""event"",""trial"",""time""
""fullscreenenter"",""0"",""3742""
","
","485.90000009536743","","","","","","","","49","0,1,0","6","blank","239","null","0.15721411215711237","0.2563184923885759","0.47620384430067575","0","","","","","","","","",""
"","html-keyboard-response","38","204336","0.0-28.0-1.0","""event"",""trial"",""time""
""fullscreenenter"",""0"",""3742""
","
","
","""event"",""trial"",""time""
""fullscreenenter"",""0"",""3742""
","
","null","<p></p>","null","","","","","","","","","","","","","","","","","","","","","","","",""
"","do_trial","39","207545","0.0-29.0-0.0","""event"",""trial"",""time""
""fullscreenenter"",""0"",""3742""
","
","
","""event"",""trial"",""time""
""fullscreenenter"",""0"",""3742""
","
","642.5","","","","","","","","49","0,1,1","6","blank","240","null","0.07548316621489672","0.3560565709094173","0.3672270026268533","0","","","","","","","","",""
"","html-keyboard-response","40","208549","0.0-29.0-1.0","""event"",""trial"",""time""
""fullscreenenter"",""0"",""3742""
","
","
","""event"",""trial"",""time""
""fullscreenenter"",""0"",""3742""
","
","null","<p></p>","null","","","","","","","","","","","","","","","","","","","","","","","",""
"","do_trial","41","211233","0.0-30.0-0.0","""event"",""trial"",""time""
""fullscreenenter"",""0"",""3742""
","
","
","""event"",""trial"",""time""
""fullscreenenter"",""0"",""3742""
","
","123.70000004768372","","","","","","","","50","0,0,0","6","blank","241","null","0.08986712623716446","0.18113725746388035","0.3789699972399552","0","","","","","","","","",""
"","html-keyboard-response","42","212239","0.0-30.0-1.0","""event"",""trial"",""time""
""fullscreenenter"",""0"",""3742""
","
","
","""event"",""trial"",""time""
""fullscreenenter"",""0"",""3742""
","
","null","<p></p>","null","","","","","","","","","","","","","","","","","","","","","","","",""
"","do_recog","43","218257","0.0-31.0-0.0","""event"",""trial"",""time""
""fullscreenenter"",""0"",""3742""
","
","
","""event"",""trial"",""time""
""fullscreenenter"",""0"",""3742""
","
","null","","","","","","","","null","","","","242","probe-148","","","","","1","[object Object]","37","0","0","","","",""
"","html-keyboard-response","44","219262","0.0-31.0-1.0","""event"",""trial"",""time""
""fullscreenenter"",""0"",""3742""
","
","
","""event"",""trial"",""time""
""fullscreenenter"",""0"",""3742""
","
","null","<p></p>","null","","","","","","","","","","","","","","","","","","","","","","","",""
"","do_trial","45","222595","0.0-32.0-0.0","""event"",""trial"",""time""
""fullscreenenter"",""0"",""3742""
","
","
","""event"",""trial"",""time""
""fullscreenenter"",""0"",""3742""
","
","767.7999999523163","","","","","","","","49","0,0,1","6","blank","243","null","0.25105139509761004","0.0867097936785978","0.3264046608003659","0","","","","","","","","",""
"","html-keyboard-response","46","223597","0.0-32.0-1.0","""event"",""trial"",""time""
""fullscreenenter"",""0"",""3742""
","
","
","""event"",""trial"",""time""
""fullscreenenter"",""0"",""3742""
","
","null","<p></p>","null","","","","","","","","","","","","","","","","","","","","","","","",""
"","do_trial","47","226930","0.0-33.0-0.0","""event"",""trial"",""time""
""fullscreenenter"",""0"",""3742""
","
","
","""event"",""trial"",""time""
""fullscreenenter"",""0"",""3742""
","
","771.8999998569489","","","","","","","","49","1,0,0","6","blank","244","null","0.3550912488941354","0.05040201189045154","0.3669096061418678","1","","","","","","","","",""
"","html-keyboard-response","48","227932","0.0-33.0-1.0","""event"",""trial"",""time""
""fullscreenenter"",""0"",""3742""
","
","
","""event"",""trial"",""time""
""fullscreenenter"",""0"",""3742""
","
","null","<p></p>","null","","","","","","","","","","","","","","","","","","","","","","","",""
"","do_trial","49","231509","0.0-34.0-0.0","""event"",""trial"",""time""
""fullscreenenter"",""0"",""3742""
","
","
","""event"",""trial"",""time""
""fullscreenenter"",""0"",""3742""
","
","1012","","","","","","","","49","1,0,1","6","blank","245","null","0.4488546094172927","0.10059265572366818","0.3449779658605041","1","","","","","","","","",""
"","html-keyboard-response","50","232514","0.0-34.0-1.0","""event"",""trial"",""time""
""fullscreenenter"",""0"",""3742""
","
","
","""event"",""trial"",""time""
""fullscreenenter"",""0"",""3742""
","
","null","<p></p>","null","","","","","","","","","","","","","","","","","","","","","","","",""
"","do_trial","51","236065","0.0-35.0-0.0","""event"",""trial"",""time""
""fullscreenenter"",""0"",""3742""
","
","
","""event"",""trial"",""time""
""fullscreenenter"",""0"",""3742""
","
","981.2999999523163","","","","","","","","49","1,0,0","6","blank","246","null","0.621812931750723","0.1098166047531104","0.378988953368367","1","","","","","","","","",""
"","html-keyboard-response","52","237069","0.0-35.0-1.0","""event"",""trial"",""time""
""fullscreenenter"",""0"",""3742""
","
","
","""event"",""trial"",""time""
""fullscreenenter"",""0"",""3742""
","
","null","<p></p>","null","","","","","","","","","","","","","","","","","","","","","","","",""
"","do_recog","53","240964","0.0-36.0-0.0","""event"",""trial"",""time""
""fullscreenenter"",""0"",""3742""
","
","
","""event"",""trial"",""time""
""fullscreenenter"",""0"",""3742""
","
","2383.2000000476837","","","","","","","","54","","","","247","probe-56","","","","","1","[object Object]","192","4","1","","","",""
"","html-keyboard-response","54","241968","0.0-36.0-1.0","""event"",""trial"",""time""
""fullscreenenter"",""0"",""3742""
","
","
","""event"",""trial"",""time""
""fullscreenenter"",""0"",""3742""
","
","null","<p></p>","null","","","","","","","","","","","","","","","","","","","","","","","",""
"","do_trial","55","245044","0.0-37.0-0.0","""event"",""trial"",""time""
""fullscreenenter"",""0"",""3742""
","
","
","""event"",""trial"",""time""
""fullscreenenter"",""0"",""3742""
","
","515.6999998092651","","","","","","","","49","0,1,1","6","blank","248","null","0.6963178058338048","0.2712639821033183","0.2999261602247842","0","","","","","","","","",""
"","html-keyboard-response","56","246051","0.0-37.0-1.0","""event"",""trial"",""time""
""fullscreenenter"",""0"",""3742""
","
","
","""event"",""trial"",""time""
""fullscreenenter"",""0"",""3742""
","
","null","<p></p>","null","","","","","","","","","","","","","","","","","","","","","","","",""
"","do_trial","57","248619","0.0-38.0-0.0","""event"",""trial"",""time""
""fullscreenenter"",""0"",""3742""
","
","
","""event"",""trial"",""time""
""fullscreenenter"",""0"",""3742""
","
","0.20000004768371582","","","","","","","","49","1,0,0","6","blank","249","null","0.6109514464053925","0.27711147469027636","0.09584768067414523","1","","","","","","","","",""
"","html-keyboard-response","58","249622","0.0-38.0-1.0","""event"",""trial"",""time""
""fullscreenenter"",""0"",""3742""
","
","
","""event"",""trial"",""time""
""fullscreenenter"",""0"",""3742""
","
","null","<p></p>","null","","","","","","","","","","","","","","","","","","","","","","","",""
"","do_trial","59","252431","0.0-39.0-0.0","""event"",""trial"",""time""
""fullscreenenter"",""0"",""3742""
","
","
","""event"",""trial"",""time""
""fullscreenenter"",""0"",""3742""
","
","244.89999985694885","","","","","","","","49","0,0,0","6","blank","250","null","0.6764833985865674","0.09857467597910319","0.1719835978164253","0","","","","","","","","",""
"","html-keyboard-response","60","253440","0.0-39.0-1.0","""event"",""trial"",""time""
""fullscreenenter"",""0"",""3742""
","
","
","""event"",""trial"",""time""
""fullscreenenter"",""0"",""3742""
","
","null","<p></p>","null","","","","","","","","","","","","","","","","","","","","","","","",""
"","do_recog","61","257140","0.0-40.0-0.0","""event"",""trial"",""time""
""fullscreenenter"",""0"",""3742""
","
","
","""event"",""trial"",""time""
""fullscreenenter"",""0"",""3742""
","
","2185","","","","","","","","55","","","","251","probe-34","","","","","1","[object Object]","72","1","0","","","",""
"","html-keyboard-response","62","258144","0.0-40.0-1.0","""event"",""trial"",""time""
""fullscreenenter"",""0"",""3742""
","
","
","""event"",""trial"",""time""
""fullscreenenter"",""0"",""3742""
","
","null","<p></p>","null","","","","","","","","","","","","","","","","","","","","","","","",""
"","do_trial","63","261342","0.0-41.0-0.0","""event"",""trial"",""time""
""fullscreenenter"",""0"",""3742""
","
","
","""event"",""trial"",""time""
""fullscreenenter"",""0"",""3742""
","
","630.5","","","","","","","","49","0,0,0","6","blank","252","null","0.6751469198433396","0.2807905076982755","0.1802995261571335","0","","","","","","","","",""
"","html-keyboard-response","64","262346","0.0-41.0-1.0","""event"",""trial"",""time""
""fullscreenenter"",""0"",""3742""
","
","
","""event"",""trial"",""time""
""fullscreenenter"",""0"",""3742""
","
","null","<p></p>","null","","","","","","","","","","","","","","","","","","","","","","","",""
"","do_trial","65","266334","0.0-42.0-0.0","""event"",""trial"",""time""
""fullscreenenter"",""0"",""3742""
","
","
","""event"",""trial"",""time""
""fullscreenenter"",""0"",""3742""
","
","1423.7000000476837","","","","","","","","49","1,1,0","6","blank","253","null","0.6607613832233815","0.24266725814504994","0.13394554958535163","1","","","","","","","","",""
"","html-keyboard-response","66","267339","0.0-42.0-1.0","""event"",""trial"",""time""
""fullscreenenter"",""0"",""3742""
","
","
","""event"",""trial"",""time""
""fullscreenenter"",""0"",""3742""
","
","null","<p></p>","null","","","","","","","","","","","","","","","","","","","","","","","",""
"","do_trial","67","271164","0.0-43.0-0.0","""event"",""trial"",""time""
""fullscreenenter"",""0"",""3742""
","
","
","""event"",""trial"",""time""
""fullscreenenter"",""0"",""3742""
","
","1263.5","","","","","","","","49","1,0,0","6","blank","254","null","0.5726802695556003","0.09731340417738124","0.1737017509598894","1","","","","","","","","",""
"","html-keyboard-response","68","272166","0.0-43.0-1.0","""event"",""trial"",""time""
""fullscreenenter"",""0"",""3742""
","
","
","""event"",""trial"",""time""
""fullscreenenter"",""0"",""3742""
","
","null","<p></p>","null","","","","","","","","","","","","","","","","","","","","","","","",""
"","do_recog","69","276424","0.0-44.0-0.0","""event"",""trial"",""time""
""fullscreenenter"",""0"",""3742""
","
","
","""event"",""trial"",""time""
""fullscreenenter"",""0"",""3742""
","
","2747.5","","","","","","","","53","","","","255","probe-46","","","","","1","[object Object]","33","0","1","","","",""
"","html-keyboard-response","70","277428","0.0-44.0-1.0","""event"",""trial"",""time""
""fullscreenenter"",""0"",""3742""
","
","
","""event"",""trial"",""time""
""fullscreenenter"",""0"",""3742""
","
","null","<p></p>","null","","","","","","","","","","","","","","","","","","","","","","","",""
"","do_trial","71","280522","0.0-45.0-0.0","""event"",""trial"",""time""
""fullscreenenter"",""0"",""3742""
","
","
","""event"",""trial"",""time""
""fullscreenenter"",""0"",""3742""
","
","528.0999999046326","","","","","","","","49","1,0,1","6","blank","256","null","0.5452565154870498","0.13627099850626295","0.1817186685919333","1","","","","","","","","",""
"","html-keyboard-response","72","281525","0.0-45.0-1.0","""event"",""trial"",""time""
""fullscreenenter"",""0"",""3742""
","
","
","""event"",""trial"",""time""
""fullscreenenter"",""0"",""3742""
","
","null","<p></p>","null","","","","","","","","","","","","","","","","","","","","","","","",""
"","do_trial","73","284774","0.0-46.0-0.0","""event"",""trial"",""time""
""fullscreenenter"",""0"",""3742""
","
","
","""event"",""trial"",""time""
""fullscreenenter"",""0"",""3742""
","
","685.6000001430511","","","","","","","","49","0,0,0","6","blank","257","null","0.5117667426898993","0.16074292623256656","0.12724775477007394","0","","","","","","","","",""
"","html-keyboard-response","74","285776","0.0-46.0-1.0","""event"",""trial"",""time""
""fullscreenenter"",""0"",""3742""
","
","
","""event"",""trial"",""time""
""fullscreenenter"",""0"",""3742""
","
","null","<p></p>","null","","","","","","","","","","","","","","","","","","","","","","","",""
"","do_trial","75","289680","0.0-47.0-0.0","""event"",""trial"",""time""
""fullscreenenter"",""0"",""3742""
","
","
","""event"",""trial"",""time""
""fullscreenenter"",""0"",""3742""
","
","1338.7000000476837","","","","","","","","49","1,0,0","6","blank","258","null","0.6058617390146327","0.2014934322467466","0.09730931506120338","1","","","","","","","","",""
"","html-keyboard-response","76","290686","0.0-47.0-1.0","""event"",""trial"",""time""
""fullscreenenter"",""0"",""3742""
","
","
","""event"",""trial"",""time""
""fullscreenenter"",""0"",""3742""
","
","null","<p></p>","null","","","","","","","","","","","","","","","","","","","","","","","",""
"","do_trial","77","293872","0.0-48.0-0.0","""event"",""trial"",""time""
""fullscreenenter"",""0"",""3742""
","
","
","""event"",""trial"",""time""
""fullscreenenter"",""0"",""3742""
","
","620.7999999523163","","","","","","","","49","1,1,1","6","blank","259","null","0.5271618642879226","0.11958820036728335","0.18640358850966887","1","","","","","","","","",""
"","html-keyboard-response","78","294876","0.0-48.0-1.0","""event"",""trial"",""time""
""fullscreenenter"",""0"",""3742""
","
","
","""event"",""trial"",""time""
""fullscreenenter"",""0"",""3742""
","
","null","<p></p>","null","","","","","","","","","","","","","","","","","","","","","","","",""
"","do_recog","79","299025","0.0-49.0-0.0","""event"",""trial"",""time""
""fullscreenenter"",""0"",""3742""
","
","
","""event"",""trial"",""time""
""fullscreenenter"",""0"",""3742""
","
","2635.7999999523163","","","","","","","","54","","","","260","probe-184","","","","","1","[object Object]","115","2","1","","","",""
"","html-keyboard-response","80","300027","0.0-49.0-1.0","""event"",""trial"",""time""
""fullscreenenter"",""0"",""3742""
","
","
","""event"",""trial"",""time""
""fullscreenenter"",""0"",""3742""
","
","null","<p></p>","null","","","","","","","","","","","","","","","","","","","","","","","",""
"","do_trial","81","303286","0.0-50.0-0.0","""event"",""trial"",""time""
""fullscreenenter"",""0"",""3742""
","
","
","""event"",""trial"",""time""
""fullscreenenter"",""0"",""3742""
","
","690.3999998569489","","","","","","","","49","1,0,1","6","blank","261","null","0.6439597416138142","0.24830423432493098","0.18676795137471988","1","","","","","","","","",""
"","html-keyboard-response","82","304290","0.0-50.0-1.0","""event"",""trial"",""time""
""fullscreenenter"",""0"",""3742""
","
","
","""event"",""trial"",""time""
""fullscreenenter"",""0"",""3742""
","
","null","<p></p>","null","","","","","","","","","","","","","","","","","","","","","","","",""
"","do_trial","83","307390","0.0-51.0-0.0","""event"",""trial"",""time""
""fullscreenenter"",""0"",""3742""
","
","
","""event"",""trial"",""time""
""fullscreenenter"",""0"",""3742""
","
","538.5","","","","","","","","49","1,0,1","6","blank","262","null","0.636664667072136","0.06756138862512216","0.3249305827131923","1","","","","","","","","",""
"","html-keyboard-response","84","308393","0.0-51.0-1.0","""event"",""trial"",""time""
""fullscreenenter"",""0"",""3742""
","
","
","""event"",""trial"",""time""
""fullscreenenter"",""0"",""3742""
","
","null","<p></p>","null","","","","","","","","","","","","","","","","","","","","","","","",""
"","do_recog","85","312494","0.0-52.0-0.0","""event"",""trial"",""time""
""fullscreenenter"",""0"",""3742""
","
","
","""event"",""trial"",""time""
""fullscreenenter"",""0"",""3742""
","
","2589.2000000476837","","","","","","","","56","","","","263","probe-234","","","","","0","[object Object]","null","null","1","","","",""
"","html-keyboard-response","86","313496","0.0-52.0-1.0","""event"",""trial"",""time""
""fullscreenenter"",""0"",""3742""
","
","
","""event"",""trial"",""time""
""fullscreenenter"",""0"",""3742""
","
","null","<p></p>","null","","","","","","","","","","","","","","","","","","","","","","","",""
"","do_trial","87","318634","0.0-53.0-0.0","""event"",""trial"",""time""
""fullscreenenter"",""0"",""3742""
","
","
","""event"",""trial"",""time""
""fullscreenenter"",""0"",""3742""
","
","2577.7000000476837","","","","","","","","49","1,1,1","6","blank","264","null","0.7152273094158841","0.15416209789810106","0.2959089901684708","1","","","","","","","","",""
"","html-keyboard-response","88","319639","0.0-53.0-1.0","""event"",""trial"",""time""
""fullscreenenter"",""0"",""3742""
","
","
","""event"",""trial"",""time""
""fullscreenenter"",""0"",""3742""
","
","null","<p></p>","null","","","","","","","","","","","","","","","","","","","","","","","",""
"","do_recog","89","323262","0.0-54.0-0.0","""event"",""trial"",""time""
""fullscreenenter"",""0"",""3742""
","
","
","""event"",""trial"",""time""
""fullscreenenter"",""0"",""3742""
","
","2109.100000143051","","","","","","","","53","","","","265","probe-111","","","","","1","[object Object]","74","1","1","","","",""
"","html-keyboard-response","90","324265","0.0-54.0-1.0","""event"",""trial"",""time""
""fullscreenenter"",""0"",""3742""
","
","
","""event"",""trial"",""time""
""fullscreenenter"",""0"",""3742""
","
","null","<p></p>","null","","","","","","","","","","","","","","","","","","","","","","","",""
"","do_trial","91","327790","0.0-55.0-0.0","""event"",""trial"",""time""
""fullscreenenter"",""0"",""3742""
","
","
","""event"",""trial"",""time""
""fullscreenenter"",""0"",""3742""
","
","958.9000000953674","","","","","","","","49","1,0,0","6","blank","266","null","0.6898487939372778","0.08238866238919837","0.3097848116857197","1","","","","","","","","",""
"","html-keyboard-response","92","328797","0.0-55.0-1.0","""event"",""trial"",""time""
""fullscreenenter"",""0"",""3742""
","
","
","""event"",""trial"",""time""
""fullscreenenter"",""0"",""3742""
","
","null","<p></p>","null","","","","","","","","","","","","","","","","","","","","","","","",""
"","do_trial","93","331822","0.0-56.0-0.0","""event"",""trial"",""time""
""fullscreenenter"",""0"",""3742""
","
","
","""event"",""trial"",""time""
""fullscreenenter"",""0"",""3742""
","
","458.7000000476837","","","","","","","","49","1,0,0","6","blank","267","null","0.6137603981788713","0.05427237547627515","0.37722539653494347","1","","","","","","","","",""
"","html-keyboard-response","94","332824","0.0-56.0-1.0","""event"",""trial"",""time""
""fullscreenenter"",""0"",""3742""
","
","
","""event"",""trial"",""time""
""fullscreenenter"",""0"",""3742""
","
","null","<p></p>","null","","","","","","","","","","","","","","","","","","","","","","","",""
"","do_trial","95","335866","0.0-57.0-0.0","""event"",""trial"",""time""
""fullscreenenter"",""0"",""3742""
","
","
","""event"",""trial"",""time""
""fullscreenenter"",""0"",""3742""
","
","473.10000014305115","","","","","","","","49","1,0,1","6","blank","268","null","0.5391098073957525","0.14358029197367198","0.3793477388665912","1","","","","","","","","",""
"","html-keyboard-response","96","336872","0.0-57.0-1.0","""event"",""trial"",""time""
""fullscreenenter"",""0"",""3742""
","
","
","""event"",""trial"",""time""
""fullscreenenter"",""0"",""3742""
","
","null","<p></p>","null","","","","","","","","","","","","","","","","","","","","","","","",""
"","break","97","343232","0.0-58.0-0.0","""event"",""trial"",""time""
""fullscreenenter"",""0"",""3742""
","
","
","""event"",""trial"",""time""
""fullscreenenter"",""0"",""3742""
","
","6358.5","<div class='center'><p>Time to take a quick break! You have 2 minutes to rest, but you can move on sooner if you'd like.</p><p> Press the <b>space bar</b> to continue.</p></div>","32","","","","","","","","","","","","","","","","","","","","","","","",""
"","do_trial","98","346306","0.0-58.0-1.0","""event"",""trial"",""time""
""fullscreenenter"",""0"",""3742""
","
","
","""event"",""trial"",""time""
""fullscreenenter"",""0"",""3742""
","
","513.7000000476837","","","","","","","","49","0,0,0","6","blank","269","null","0.5938658339655103","0.21340427031065617","0.25990364177922687","0","","","","","","","","",""
"","html-keyboard-response","99","347308","0.0-58.0-2.0","""event"",""trial"",""time""
""fullscreenenter"",""0"",""3742""
","
","
","""event"",""trial"",""time""
""fullscreenenter"",""0"",""3742""
","
","null","<p></p>","null","","","","","","","","","","","","","","","","","","","","","","","",""
"","do_trial","100","350418","0.0-59.0-0.0","""event"",""trial"",""time""
""fullscreenenter"",""0"",""3742""
","
","
","""event"",""trial"",""time""
""fullscreenenter"",""0"",""3742""
","
","437.30000019073486","","","","","","","","49","1,1,1","6","blank","270","null","0.4835602983128125","0.2547925848273032","0.48336393932235744","1","","","","","","","","",""
"","html-keyboard-response","101","351424","0.0-59.0-1.0","""event"",""trial"",""time""
""fullscreenenter"",""0"",""3742""
","
","
","""event"",""trial"",""time""
""fullscreenenter"",""0"",""3742""
","
","null","<p></p>","null","","","","","","","","","","","","","","","","","","","","","","","",""
"","do_trial","102","354553","0.0-60.0-0.0","""event"",""trial"",""time""
""fullscreenenter"",""0"",""3742""
","
","
","""event"",""trial"",""time""
""fullscreenenter"",""0"",""3742""
","
","545.8000001907349","","","","","","","","49","1,0,0","6","blank","271","null","0.5235916431668755","0.14831559404198127","0.3832956173588689","1","","","","","","","","",""
"","html-keyboard-response","103","355556","0.0-60.0-1.0","""event"",""trial"",""time""
""fullscreenenter"",""0"",""3742""
","
","
","""event"",""trial"",""time""
""fullscreenenter"",""0"",""3742""
","
","null","<p></p>","null","","","","","","","","","","","","","","","","","","","","","","","",""
"","do_recog","104","359263","0.0-61.0-0.0","""event"",""trial"",""time""
""fullscreenenter"",""0"",""3742""
","
","
","""event"",""trial"",""time""
""fullscreenenter"",""0"",""3742""
","
","2197.4000000953674","","","","","","","","56","","","","272","probe-73","","","","","1","[object Object]","114","2","0","","","",""
"","html-keyboard-response","105","360270","0.0-61.0-1.0","""event"",""trial"",""time""
""fullscreenenter"",""0"",""3742""
","
","
","""event"",""trial"",""time""
""fullscreenenter"",""0"",""3742""
","
","null","<p></p>","null","","","","","","","","","","","","","","","","","","","","","","","",""
"","do_trial","106","363781","0.0-62.0-0.0","""event"",""trial"",""time""
""fullscreenenter"",""0"",""3742""
","
","
","""event"",""trial"",""time""
""fullscreenenter"",""0"",""3742""
","
","947.8000001907349","","","","","","","","49","1,0,0","6","blank","273","null","0.6526568737924144","0.19621798640165058","0.3125316837992353","1","","","","","","","","",""
"","html-keyboard-response","107","364784","0.0-62.0-1.0","""event"",""trial"",""time""
""fullscreenenter"",""0"",""3742""
","
","
","""event"",""trial"",""time""
""fullscreenenter"",""0"",""3742""
","
","null","<p></p>","null","","","","","","","","","","","","","","","","","","","","","","","",""
"","do_trial","108","367485","0.0-63.0-0.0","""event"",""trial"",""time""
""fullscreenenter"",""0"",""3742""
","
","
","""event"",""trial"",""time""
""fullscreenenter"",""0"",""3742""
","
","140.59999990463257","","","","","","","","49","1,0,0","6","blank","274","null","0.5693167751765179","0.24545427718445403","0.36758792965449916","1","","","","","","","","",""
"","html-keyboard-response","109","368487","0.0-63.0-1.0","""event"",""trial"",""time""
""fullscreenenter"",""0"",""3742""
","
","
","""event"",""trial"",""time""
""fullscreenenter"",""0"",""3742""
","
","null","<p></p>","null","","","","","","","","","","","","","","","","","","","","","","","",""
"","do_trial","110","371728","0.0-64.0-0.0","""event"",""trial"",""time""
""fullscreenenter"",""0"",""3742""
","
","
","""event"",""trial"",""time""
""fullscreenenter"",""0"",""3742""
","
","678.1000001430511","","","","","","","","49","1,0,0","6","blank","275","null","0.7251583894689069","0.08737913207663424","0.32526470696745563","1","","","","","","","","",""
"","html-keyboard-response","111","372735","0.0-64.0-1.0","""event"",""trial"",""time""
""fullscreenenter"",""0"",""3742""
","
","
","""event"",""trial"",""time""
""fullscreenenter"",""0"",""3742""
","
","null","<p></p>","null","","","","","","","","","","","","","","","","","","","","","","","",""
"","do_trial","112","375445","0.0-65.0-0.0","""event"",""trial"",""time""
""fullscreenenter"",""0"",""3742""
","
","
","""event"",""trial"",""time""
""fullscreenenter"",""0"",""3742""
","
","144","","","","","","","","49","0,1,0","6","blank","276","null","0.5942889620368732","0.1735962274035778","0.36934053768650416","0","","","","","","","","",""
"","html-keyboard-response","113","376452","0.0-65.0-1.0","""event"",""trial"",""time""
""fullscreenenter"",""0"",""3742""
","
","
","""event"",""trial"",""time""
""fullscreenenter"",""0"",""3742""
","
","null","<p></p>","null","","","","","","","","","","","","","","","","","","","","","","","",""
"","do_recog","114","380737","0.0-66.0-0.0","""event"",""trial"",""time""
""fullscreenenter"",""0"",""3742""
","
","
","""event"",""trial"",""time""
""fullscreenenter"",""0"",""3742""
","
","2772.7000000476837","","","","","","","","54","","","","277","probe-225","","","","","1","[object Object]","155","3","1","","","",""
"","html-keyboard-response","115","381744","0.0-66.0-1.0","""event"",""trial"",""time""
""fullscreenenter"",""0"",""3742""
","
","
","""event"",""trial"",""time""
""fullscreenenter"",""0"",""3742""
","
","null","<p></p>","null","","","","","","","","","","","","","","","","","","","","","","","",""
"","do_trial","116","385614","0.0-67.0-0.0","""event"",""trial"",""time""
""fullscreenenter"",""0"",""3742""
","
","
","""event"",""trial"",""time""
""fullscreenenter"",""0"",""3742""
","
","1303.7999999523163","","","","","","","","49","1,0,1","6","blank","278","null","0.6010643411795479","0.2791728622280907","0.36992980299752787","1","","","","","","","","",""
"","html-keyboard-response","117","386619","0.0-67.0-1.0","""event"",""trial"",""time""
""fullscreenenter"",""0"",""3742""
","
","
","""event"",""trial"",""time""
""fullscreenenter"",""0"",""3742""
","
","null","<p></p>","null","","","","","","","","","","","","","","","","","","","","","","","",""
"","do_recog","118","390071","0.0-68.0-0.0","""event"",""trial"",""time""
""fullscreenenter"",""0"",""3742""
","
","
","""event"",""trial"",""time""
""fullscreenenter"",""0"",""3742""
","
","1937.5","","","","","","","","53","","","","279","probe-96","","","","","1","[object Object]","73","1","1","","","",""
"","html-keyboard-response","119","391074","0.0-68.0-1.0","""event"",""trial"",""time""
""fullscreenenter"",""0"",""3742""
","
","
","""event"",""trial"",""time""
""fullscreenenter"",""0"",""3742""
","
","null","<p></p>","null","","","","","","","","","","","","","","","","","","","","","","","",""
"","do_trial","120","395147","0.0-69.0-0.0","""event"",""trial"",""time""
""fullscreenenter"",""0"",""3742""
","
","
","""event"",""trial"",""time""
""fullscreenenter"",""0"",""3742""
","
","1510.2000000476837","","","","","","","","49","1,0,0","6","blank","280","null","0.3152435826307802","0.27654363096211243","0.3532346980441749","1","","","","","","","","",""
"","html-keyboard-response","121","396154","0.0-69.0-1.0","""event"",""trial"",""time""
""fullscreenenter"",""0"",""3742""
","
","
","""event"",""trial"",""time""
""fullscreenenter"",""0"",""3742""
","
","null","<p></p>","null","","","","","","","","","","","","","","","","","","","","","","","",""
"","do_recog","122","400628","0.0-70.0-0.0","""event"",""trial"",""time""
""fullscreenenter"",""0"",""3742""
","
","
","""event"",""trial"",""time""
""fullscreenenter"",""0"",""3742""
","
","2961.5","","","","","","","","53","","","","281","probe-102","","","","","1","[object Object]","119","2","1","","","",""
"","html-keyboard-response","123","401630","0.0-70.0-1.0","""event"",""trial"",""time""
""fullscreenenter"",""0"",""3742""
","
","
","""event"",""trial"",""time""
""fullscreenenter"",""0"",""3742""
","
","null","<p></p>","null","","","","","","","","","","","","","","","","","","","","","","","",""
"","do_trial","124","406409","0.0-71.0-0.0","""event"",""trial"",""time""
""fullscreenenter"",""0"",""3742""
","
","
","""event"",""trial"",""time""
""fullscreenenter"",""0"",""3742""
","
","2193.7999999523163","","","","","","","","49","0,1,0","6","blank","282","null","0.5767967064876471","0.2762339506302199","0.4939643027897503","0","","","","","","","","",""
"","html-keyboard-response","125","407414","0.0-71.0-1.0","""event"",""trial"",""time""
""fullscreenenter"",""0"",""3742""
","
","
","""event"",""trial"",""time""
""fullscreenenter"",""0"",""3742""
","
","null","<p></p>","null","","","","","","","","","","","","","","","","","","","","","","","",""
"","do_trial","126","410955","0.0-72.0-0.0","""event"",""trial"",""time""
""fullscreenenter"",""0"",""3742""
","
","
","""event"",""trial"",""time""
""fullscreenenter"",""0"",""3742""
","
","976.2000000476837","","","","","","","","49","1,0,0","6","blank","283","null","0.5235612454662751","0.24942318881274717","0.4839013327744531","1","","","","","","","","",""
"","html-keyboard-response","127","411962","0.0-72.0-1.0","""event"",""trial"",""time""
""fullscreenenter"",""0"",""3742""
","
","
","""event"",""trial"",""time""
""fullscreenenter"",""0"",""3742""
","
","null","<p></p>","null","","","","","","","","","","","","","","","","","","","","","","","",""
"","do_trial","128","414528","0.0-73.0-0.0","""event"",""trial"",""time""
""fullscreenenter"",""0"",""3742""
","
","
","""event"",""trial"",""time""
""fullscreenenter"",""0"",""3742""
","
","0.20000004768371582","","","","","","","","49","1,0,1","6","blank","284","null","0.6945579704945776","0.15392373995940312","0.46062514841483276","1","","","","","","","","",""
"","html-keyboard-response","129","415534","0.0-73.0-1.0","""event"",""trial"",""time""
""fullscreenenter"",""0"",""3742""
","
","
","""event"",""trial"",""time""
""fullscreenenter"",""0"",""3742""
","
","null","<p></p>","null","","","","","","","","","","","","","","","","","","","","","","","",""
"","do_trial","130","418662","0.0-74.0-0.0","""event"",""trial"",""time""
""fullscreenenter"",""0"",""3742""
","
","
","""event"",""trial"",""time""
""fullscreenenter"",""0"",""3742""
","
","561.1999998092651","","","","","","","","49","0,0,1","6","blank","285","null","0.5618170619941448","0.10673451920526111","0.47506642236087276","0","","","","","","","","",""
"","html-keyboard-response","131","419666","0.0-74.0-1.0","""event"",""trial"",""time""
""fullscreenenter"",""0"",""3742""
","
","
","""event"",""trial"",""time""
""fullscreenenter"",""0"",""3742""
","
","null","<p></p>","null","","","","","","","","","","","","","","","","","","","","","","","",""
"","do_trial","132","422344","0.0-75.0-0.0","""event"",""trial"",""time""
""fullscreenenter"",""0"",""3742""
","
","
","""event"",""trial"",""time""
""fullscreenenter"",""0"",""3742""
","
","114.79999995231628","","","","","","","","49","1,1,0","6","blank","286","null","0.523330189477001","0.13292786494102393","0.4812544200204069","1","","","","","","","","",""
"","html-keyboard-response","133","423346","0.0-75.0-1.0","""event"",""trial"",""time""
""fullscreenenter"",""0"",""3742""
","
","
","""event"",""trial"",""time""
""fullscreenenter"",""0"",""3742""
","
","null","<p></p>","null","","","","","","","","","","","","","","","","","","","","","","","",""
"","do_trial","134","426253","0.0-76.0-0.0","""event"",""trial"",""time""
""fullscreenenter"",""0"",""3742""
","
","
","""event"",""trial"",""time""
""fullscreenenter"",""0"",""3742""
","
","339.39999985694885","","","","","","","","49","1,0,0","6","blank","287","null","0.4943076713052634","0.11881065093479083","0.2902878678164409","1","","","","","","","","",""
"","html-keyboard-response","135","427258","0.0-76.0-1.0","""event"",""trial"",""time""
""fullscreenenter"",""0"",""3742""
","
","
","""event"",""trial"",""time""
""fullscreenenter"",""0"",""3742""
","
","null","<p></p>","null","","","","","","","","","","","","","","","","","","","","","","","",""
"","do_recog","136","431022","0.0-77.0-0.0","""event"",""trial"",""time""
""fullscreenenter"",""0"",""3742""
","
","
","""event"",""trial"",""time""
""fullscreenenter"",""0"",""3742""
","
","2251.5","","","","","","","","56","","","","288","probe-114","","","","","1","[object Object]","198","4","0","","","",""
"","html-keyboard-response","137","432025","0.0-77.0-1.0","""event"",""trial"",""time""
""fullscreenenter"",""0"",""3742""
","
","
","""event"",""trial"",""time""
""fullscreenenter"",""0"",""3742""
","
","null","<p></p>","null","","","","","","","","","","","","","","","","","","","","","","","",""
"","do_trial","138","435403","0.0-78.0-0.0","""event"",""trial"",""time""
""fullscreenenter"",""0"",""3742""
","
","
","""event"",""trial"",""time""
""fullscreenenter"",""0"",""3742""
","
","816.2999999523163","","","","","","","","49","0,0,0","6","blank","289","null","0.5028078241341551","0.09060043487192058","0.1703816476591941","0","","","","","","","","",""
"","html-keyboard-response","139","436407","0.0-78.0-1.0","""event"",""trial"",""time""
""fullscreenenter"",""0"",""3742""
","
","
","""event"",""trial"",""time""
""fullscreenenter"",""0"",""3742""
","
","null","<p></p>","null","","","","","","","","","","","","","","","","","","","","","","","",""
"","do_trial","140","438998","0.0-79.0-0.0","""event"",""trial"",""time""
""fullscreenenter"",""0"",""3742""
","
","
","""event"",""trial"",""time""
""fullscreenenter"",""0"",""3742""
","
","29.5","","","","","","","","49","0,0,1","6","blank","290","null","0.47199063663492047","0.11645395855892732","0.18308588929240657","0","","","","","","","","",""
"","html-keyboard-response","141","440003","0.0-79.0-1.0","""event"",""trial"",""time""
""fullscreenenter"",""0"",""3742""
","
","
","""event"",""trial"",""time""
""fullscreenenter"",""0"",""3742""
","
","null","<p></p>","null","","","","","","","","","","","","","","","","","","","","","","","",""
"","do_trial","142","443393","0.0-80.0-0.0","""event"",""trial"",""time""
""fullscreenenter"",""0"",""3742""
","
","
","""event"",""trial"",""time""
""fullscreenenter"",""0"",""3742""
","
","822.5","","","","","","","","49","1,0,0","6","blank","291","null","0.5437132028894464","0.14916457791003876","0.20631083715165524","1","","","","","","","","",""
"","html-keyboard-response","143","444396","0.0-80.0-1.0","""event"",""trial"",""time""
""fullscreenenter"",""0"",""3742""
","
","
","""event"",""trial"",""time""
""fullscreenenter"",""0"",""3742""
","
","null","<p></p>","null","","","","","","","","","","","","","","","","","","","","","","","",""
"","do_recog","144","447857","0.0-81.0-0.0","""event"",""trial"",""time""
""fullscreenenter"",""0"",""3742""
","
","
","""event"",""trial"",""time""
""fullscreenenter"",""0"",""3742""
","
","1950.5","","","","","","","","53","","","","292","probe-64","","","","","1","[object Object]","195","4","1","","","",""
"","html-keyboard-response","145","448863","0.0-81.0-1.0","""event"",""trial"",""time""
""fullscreenenter"",""0"",""3742""
","
","
","""event"",""trial"",""time""
""fullscreenenter"",""0"",""3742""
","
","null","<p></p>","null","","","","","","","","","","","","","","","","","","","","","","","",""
"","do_trial","146","453405","0.0-82.0-0.0","""event"",""trial"",""time""
""fullscreenenter"",""0"",""3742""
","
","
","""event"",""trial"",""time""
""fullscreenenter"",""0"",""3742""
","
","1978.5","","","","","","","","49","0,0,0","6","blank","293","null","0.5098755892847511","0.11945381845049663","0.23720235685451307","0","","","","","","","","",""
"","html-keyboard-response","147","454409","0.0-82.0-1.0","""event"",""trial"",""time""
""fullscreenenter"",""0"",""3742""
","
","
","""event"",""trial"",""time""
""fullscreenenter"",""0"",""3742""
","
","null","<p></p>","null","","","","","","","","","","","","","","","","","","","","","","","",""
"","do_trial","148","457476","0.0-83.0-0.0","""event"",""trial"",""time""
""fullscreenenter"",""0"",""3742""
","
","
","""event"",""trial"",""time""
""fullscreenenter"",""0"",""3742""
","
","505.59999990463257","","","","","","","","49","1,0,1","6","blank","294","null","0.4921415906407044","0.07699586836015453","0.387827247096462","1","","","","","","","","",""
"","html-keyboard-response","149","458481","0.0-83.0-1.0","""event"",""trial"",""time""
""fullscreenenter"",""0"",""3742""
","
","
","""event"",""trial"",""time""
""fullscreenenter"",""0"",""3742""
","
","null","<p></p>","null","","","","","","","","","","","","","","","","","","","","","","","",""
"","do_trial","150","461164","0.0-84.0-0.0","""event"",""trial"",""time""
""fullscreenenter"",""0"",""3742""
","
","
","""event"",""trial"",""time""
""fullscreenenter"",""0"",""3742""
","
","116.89999985694885","","","","","","","","49","0,0,0","6","blank","295","null","0.38583581732376226","0.28105504177528023","0.19457612010546713","0","","","","","","","","",""
"","html-keyboard-response","151","462170","0.0-84.0-1.0","""event"",""trial"",""time""
""fullscreenenter"",""0"",""3742""
","
","
","""event"",""trial"",""time""
""fullscreenenter"",""0"",""3742""
","
","null","<p></p>","null","","","","","","","","","","","","","","","","","","","","","","","",""
"","do_trial","152","465305","0.0-85.0-0.0","""event"",""trial"",""time""
""fullscreenenter"",""0"",""3742""
","
","
","""event"",""trial"",""time""
""fullscreenenter"",""0"",""3742""
","
","571.5","","","","","","","","49","0,1,0","6","blank","296","null","0.1883984602110715","0.44467847075760064","0.1583926475528425","0","","","","","","","","",""
"","html-keyboard-response","153","466307","0.0-85.0-1.0","""event"",""trial"",""time""
""fullscreenenter"",""0"",""3742""
","
","
","""event"",""trial"",""time""
""fullscreenenter"",""0"",""3742""
","
","null","<p></p>","null","","","","","","","","","","","","","","","","","","","","","","","",""
"","do_trial","154","469491","0.0-86.0-0.0","""event"",""trial"",""time""
""fullscreenenter"",""0"",""3742""
","
","
","""event"",""trial"",""time""
""fullscreenenter"",""0"",""3742""
","
","613.5999999046326","","","","","","","","49","1,0,0","6","blank","297","null","0.26248961568208207","0.39161510647976566","0.19886897682447197","1","","","","","","","","",""
"","html-keyboard-response","155","470496","0.0-86.0-1.0","""event"",""trial"",""time""
""fullscreenenter"",""0"",""3742""
","
","
","""event"",""trial"",""time""
""fullscreenenter"",""0"",""3742""
","
","null","<p></p>","null","","","","","","","","","","","","","","","","","","","","","","","",""
"","do_recog","156","473504","0.0-87.0-0.0","""event"",""trial"",""time""
""fullscreenenter"",""0"",""3742""
","
","
","""event"",""trial"",""time""
""fullscreenenter"",""0"",""3742""
","
","1496.1000001430511","","","","","","","","53","","","","298","probe-215","","","","","1","[object Object]","70","1","1","","","",""
"","html-keyboard-response","157","474509","0.0-87.0-1.0","""event"",""trial"",""time""
""fullscreenenter"",""0"",""3742""
","
","
","""event"",""trial"",""time""
""fullscreenenter"",""0"",""3742""
","
","null","<p></p>","null","","","","","","","","","","","","","","","","","","","","","","","",""
"","do_trial","158","477989","0.0-88.0-0.0","""event"",""trial"",""time""
""fullscreenenter"",""0"",""3742""
","
","
","""event"",""trial"",""time""
""fullscreenenter"",""0"",""3742""
","
","916.7000000476837","","","","","","","","49","0,0,1","6","blank","299","null","0.36892833880965503","0.5162768143584345","0.1580418733587174","0","","","","","","","","",""
"","html-keyboard-response","159","478998","0.0-88.0-1.0","""event"",""trial"",""time""
""fullscreenenter"",""0"",""3742""
","
","
","""event"",""trial"",""time""
""fullscreenenter"",""0"",""3742""
","
","null","<p></p>","null","","","","","","","","","","","","","","","","","","","","","","","",""
"","do_recog","160","482283","0.0-89.0-0.0","""event"",""trial"",""time""
""fullscreenenter"",""0"",""3742""
","
","
","""event"",""trial"",""time""
""fullscreenenter"",""0"",""3742""
","
","1775.8999998569489","","","","","","","","53","","","","300","probe-49","","","","","1","[object Object]","30","0","1","","","",""
"","html-keyboard-response","161","483288","0.0-89.0-1.0","""event"",""trial"",""time""
""fullscreenenter"",""0"",""3742""
","
","
","""event"",""trial"",""time""
""fullscreenenter"",""0"",""3742""
","
","null","<p></p>","null","","","","","","","","","","","","","","","","","","","","","","","",""
"","do_trial","162","486722","0.0-90.0-0.0","""event"",""trial"",""time""
""fullscreenenter"",""0"",""3742""
","
","
","""event"",""trial"",""time""
""fullscreenenter"",""0"",""3742""
","
","871.2999999523163","","","","","","","","49","0,1,0","6","blank","301","null","0.35206404301053573","0.5740833774317926","0.1703163912404321","0","","","","","","","","",""
"","html-keyboard-response","163","487724","0.0-90.0-1.0","""event"",""trial"",""time""
""fullscreenenter"",""0"",""3742""
","
","
","""event"",""trial"",""time""
""fullscreenenter"",""0"",""3742""
","
","null","<p></p>","null","","","","","","","","","","","","","","","","","","","","","","","",""
"","do_trial","164","490288","0.0-91.0-0.0","""event"",""trial"",""time""
""fullscreenenter"",""0"",""3742""
","
","
","""event"",""trial"",""time""
""fullscreenenter"",""0"",""3742""
","
","0.20000004768371582","","","","","","","","49","1,1,0","6","blank","302","null","0.3081672318565667","0.4724208266873129","0.06548316381996631","1","","","","","","","","",""
"","html-keyboard-response","165","491292","0.0-91.0-1.0","""event"",""trial"",""time""
""fullscreenenter"",""0"",""3742""
","
","
","""event"",""trial"",""time""
""fullscreenenter"",""0"",""3742""
","
","null","<p></p>","null","","","","","","","","","","","","","","","","","","","","","","","",""
"","do_trial","166","494270","0.0-92.0-0.0","""event"",""trial"",""time""
""fullscreenenter"",""0"",""3742""
","
","
","""event"",""trial"",""time""
""fullscreenenter"",""0"",""3742""
","
","414.7000000476837","","","","","","","","49","0,1,0","6","blank","303","null","0.26683871132375253","0.5138756751757597","0.1416818913280478","0","","","","","","","","",""
"","html-keyboard-response","167","495276","0.0-92.0-1.0","""event"",""trial"",""time""
""fullscreenenter"",""0"",""3742""
","
","
","""event"",""trial"",""time""
""fullscreenenter"",""0"",""3742""
","
","null","<p></p>","null","","","","","","","","","","","","","","","","","","","","","","","",""
"","do_trial","168","500392","0.0-93.0-0.0","""event"",""trial"",""time""
""fullscreenenter"",""0"",""3742""
","
","
","""event"",""trial"",""time""
""fullscreenenter"",""0"",""3742""
","
","2551.5","","","","","","","","49","0,0,0","6","blank","304","null","0.29639611456855014","0.5637511514406023","0.1850761221642245","0","","","","","","","","",""
"","html-keyboard-response","169","501394","0.0-93.0-1.0","""event"",""trial"",""time""
""fullscreenenter"",""0"",""3742""
","
","
","""event"",""trial"",""time""
""fullscreenenter"",""0"",""3742""
","
","null","<p></p>","null","","","","","","","","","","","","","","","","","","","","","","","",""
"","do_recog","170","507408","0.0-94.0-0.0","""event"",""trial"",""time""
""fullscreenenter"",""0"",""3742""
","
","
","""event"",""trial"",""time""
""fullscreenenter"",""0"",""3742""
","
","null","","","","","","","","null","","","","305","probe-27","","","","","1","[object Object]","118","2","0","","","",""
"","html-keyboard-response","171","508414","0.0-94.0-1.0","""event"",""trial"",""time""
""fullscreenenter"",""0"",""3742""
","
","
","""event"",""trial"",""time""
""fullscreenenter"",""0"",""3742""
","
","null","<p></p>","null","","","","","","","","","","","","","","","","","","","","","","","",""
"","do_trial","172","511721","0.0-95.0-0.0","""event"",""trial"",""time""
""fullscreenenter"",""0"",""3742""
","
","
","""event"",""trial"",""time""
""fullscreenenter"",""0"",""3742""
","
","739.9000000953674","","","","","","","","49","0,0,0","6","blank","306","null","0.28707321986975937","0.5008742501544294","0.3620827936848397","0","","","","","","","","",""
"","html-keyboard-response","173","512724","0.0-95.0-1.0","""event"",""trial"",""time""
""fullscreenenter"",""0"",""3742""
","
","
","""event"",""trial"",""time""
""fullscreenenter"",""0"",""3742""
","
","null","<p></p>","null","","","","","","","","","","","","","","","","","","","","","","","",""
"","do_trial","174","516475","0.0-96.0-0.0","""event"",""trial"",""time""
""fullscreenenter"",""0"",""3742""
","
","
","""event"",""trial"",""time""
""fullscreenenter"",""0"",""3742""
","
","1188.3999998569489","","","","","","","","49","1,1,1","6","blank","307","null","0.2726195338261513","0.6831713277541988","0.23276130332127165","1","","","","","","","","",""
"","html-keyboard-response","175","517481","0.0-96.0-1.0","""event"",""trial"",""time""
""fullscreenenter"",""0"",""3742""
","
","
","""event"",""trial"",""time""
""fullscreenenter"",""0"",""3742""
","
","null","<p></p>","null","","","","","","","","","","","","","","","","","","","","","","","",""
"","do_recog","176","523493","0.0-97.0-0.0","""event"",""trial"",""time""
""fullscreenenter"",""0"",""3742""
","
","
","""event"",""trial"",""time""
""fullscreenenter"",""0"",""3742""
","
","null","","","","","","","","null","","","","308","probe-43","","","","","1","[object Object]","158","3","0","","","",""
"","html-keyboard-response","177","524501","0.0-97.0-1.0","""event"",""trial"",""time""
""fullscreenenter"",""0"",""3742""
","
","
","""event"",""trial"",""time""
""fullscreenenter"",""0"",""3742""
","
","null","<p></p>","null","","","","","","","","","","","","","","","","","","","","","","","",""
"","break","178","527481","0.0-98.0-0.0","""event"",""trial"",""time""
""fullscreenenter"",""0"",""3742""
","
","
","""event"",""trial"",""time""
""fullscreenenter"",""0"",""3742""
","
","2978","<div class='center'><p>Time to take a quick break! You have 2 minutes to rest, but you can move on sooner if you'd like.</p><p> Press the <b>space bar</b> to continue.</p></div>","32","","","","","","","","","","","","","","","","","","","","","","","",""
"","do_trial","179","531888","0.0-98.0-1.0","""event"",""trial"",""time""
""fullscreenenter"",""0"",""3742""
","
","
","""event"",""trial"",""time""
""fullscreenenter"",""0"",""3742""
","
","1846.1000001430511","","","","","","","","49","0,1,1","6","blank","309","null","0.2831953841490308","0.7222943008809921","0.21972228412543057","0","","","","","","","","",""
"","html-keyboard-response","180","532892","0.0-98.0-2.0","""event"",""trial"",""time""
""fullscreenenter"",""0"",""3742""
","
","
","""event"",""trial"",""time""
""fullscreenenter"",""0"",""3742""
","
","null","<p></p>","null","","","","","","","","","","","","","","","","","","","","","","","",""
"","do_recog","181","535870","0.0-99.0-0.0","""event"",""trial"",""time""
""fullscreenenter"",""0"",""3742""
","
","
","""event"",""trial"",""time""
""fullscreenenter"",""0"",""3742""
","
","1469.7999999523163","","","","","","","","53","","","","310","probe-131","","","","","1","[object Object]","199","4","1","","","",""
"","html-keyboard-response","182","536878","0.0-99.0-1.0","""event"",""trial"",""time""
""fullscreenenter"",""0"",""3742""
","
","
","""event"",""trial"",""time""
""fullscreenenter"",""0"",""3742""
","
","null","<p></p>","null","","","","","","","","","","","","","","","","","","","","","","","",""
"","do_trial","183","540528","0.0-100.0-0.0","""event"",""trial"",""time""
""fullscreenenter"",""0"",""3742""
","
","
","""event"",""trial"",""time""
""fullscreenenter"",""0"",""3742""
","
","1086.7999999523163","","","","","","","","49","1,1,1","6","blank","311","null","0.3654633796158089","0.711963734573203","0.2635880456503047","1","","","","","","","","",""
"","html-keyboard-response","184","541534","0.0-100.0-1.0","""event"",""trial"",""time""
""fullscreenenter"",""0"",""3742""
","
","
","""event"",""trial"",""time""
""fullscreenenter"",""0"",""3742""
","
","null","<p></p>","null","","","","","","","","","","","","","","","","","","","","","","","",""
"","do_trial","185","544400","0.0-101.0-0.0","""event"",""trial"",""time""
""fullscreenenter"",""0"",""3742""
","
","
","""event"",""trial"",""time""
""fullscreenenter"",""0"",""3742""
","
","297.2000000476837","","","","","","","","49","1,1,0","6","blank","312","null","0.33048871445285327","0.7169072344667342","0.0746928146819446","1","","","","","","","","",""
"","html-keyboard-response","186","545409","0.0-101.0-1.0","""event"",""trial"",""time""
""fullscreenenter"",""0"",""3742""
","
","
","""event"",""trial"",""time""
""fullscreenenter"",""0"",""3742""
","
","null","<p></p>","null","","","","","","","","","","","","","","","","","","","","","","","",""
"","do_trial","187","548848","0.0-102.0-0.0","""event"",""trial"",""time""
""fullscreenenter"",""0"",""3742""
","
","
","""event"",""trial"",""time""
""fullscreenenter"",""0"",""3742""
","
","874.5","","","","","","","","49","0,1,0","6","blank","313","null","0.22871640675293325","0.7111321366428693","0.05199060699465598","0","","","","","","","","",""
"","html-keyboard-response","188","549850","0.0-102.0-1.0","""event"",""trial"",""time""
""fullscreenenter"",""0"",""3742""
","
","
","""event"",""trial"",""time""
""fullscreenenter"",""0"",""3742""
","
","null","<p></p>","null","","","","","","","","","","","","","","","","","","","","","","","",""
"","do_recog","189","553376","0.0-103.0-0.0","""event"",""trial"",""time""
""fullscreenenter"",""0"",""3742""
","
","
","""event"",""trial"",""time""
""fullscreenenter"",""0"",""3742""
","
","2016.9000000953674","","","","","","","","53","","","","314","probe-212","","","","","1","[object Object]","152","3","1","","","",""
"","html-keyboard-response","190","554378","0.0-103.0-1.0","""event"",""trial"",""time""
""fullscreenenter"",""0"",""3742""
","
","
","""event"",""trial"",""time""
""fullscreenenter"",""0"",""3742""
","
","null","<p></p>","null","","","","","","","","","","","","","","","","","","","","","","","",""
"","do_trial","191","558070","0.0-104.0-0.0","""event"",""trial"",""time""
""fullscreenenter"",""0"",""3742""
","
","
","""event"",""trial"",""time""
""fullscreenenter"",""0"",""3742""
","
","1129.5","","","","","","","","49","0,0,0","6","blank","315","null","0.2522672578159249","0.7132911895372586","0.05162685453809213","0","","","","","","","","",""
"","html-keyboard-response","192","559075","0.0-104.0-1.0","""event"",""trial"",""time""
""fullscreenenter"",""0"",""3742""
","
","
","""event"",""trial"",""time""
""fullscreenenter"",""0"",""3742""
","
","null","<p></p>","null","","","","","","","","","","","","","","","","","","","","","","","",""
"","do_trial","193","561637","0.0-105.0-0.0","""event"",""trial"",""time""
""fullscreenenter"",""0"",""3742""
","
","
","""event"",""trial"",""time""
""fullscreenenter"",""0"",""3742""
","
","0.20000004768371582","","","","","","","","49","0,0,1","6","blank","316","null","0.3039896663032471","0.6998593435838261","0.10539055401279761","0","","","","","","","","",""
"","html-keyboard-response","194","562642","0.0-105.0-1.0","""event"",""trial"",""time""
""fullscreenenter"",""0"",""3742""
","
","
","""event"",""trial"",""time""
""fullscreenenter"",""0"",""3742""
","
","null","<p></p>","null","","","","","","","","","","","","","","","","","","","","","","","",""
"","do_recog","195","565702","0.0-106.0-0.0","""event"",""trial"",""time""
""fullscreenenter"",""0"",""3742""
","
","
","""event"",""trial"",""time""
""fullscreenenter"",""0"",""3742""
","
","1546.5999999046326","","","","","","","","53","","","","317","probe-05","","","","","1","[object Object]","38","0","1","","","",""
"","html-keyboard-response","196","566711","0.0-106.0-1.0","""event"",""trial"",""time""
""fullscreenenter"",""0"",""3742""
","
","
","""event"",""trial"",""time""
""fullscreenenter"",""0"",""3742""
","
","null","<p></p>","null","","","","","","","","","","","","","","","","","","","","","","","",""
"","do_trial","197","569559","0.0-107.0-0.0","""event"",""trial"",""time""
""fullscreenenter"",""0"",""3742""
","
","
","""event"",""trial"",""time""
""fullscreenenter"",""0"",""3742""
","
","279.2000000476837","","","","","","","","49","1,0,0","6","blank","318","null","0.3621097065183194","0.5765476872654844","0.08237772713395827","1","","","","","","","","",""
"","html-keyboard-response","198","570566","0.0-107.0-1.0","""event"",""trial"",""time""
""fullscreenenter"",""0"",""3742""
","
","
","""event"",""trial"",""time""
""fullscreenenter"",""0"",""3742""
","
","null","<p></p>","null","","","","","","","","","","","","","","","","","","","","","","","",""
"","do_recog","199","574343","0.0-108.0-0.0","""event"",""trial"",""time""
""fullscreenenter"",""0"",""3742""
","
","
","""event"",""trial"",""time""
""fullscreenenter"",""0"",""3742""
","
","2263.5999999046326","","","","","","","","54","","","","319","probe-229","","","","","1","[object Object]","34","0","1","","","",""
"","html-keyboard-response","200","575348","0.0-108.0-1.0","""event"",""trial"",""time""
""fullscreenenter"",""0"",""3742""
","
","
","""event"",""trial"",""time""
""fullscreenenter"",""0"",""3742""
","
","null","<p></p>","null","","","","","","","","","","","","","","","","","","","","","","","",""
"","do_trial","201","579742","0.0-109.0-0.0","""event"",""trial"",""time""
""fullscreenenter"",""0"",""3742""
","
","
","""event"",""trial"",""time""
""fullscreenenter"",""0"",""3742""
","
","1834.5999999046326","","","","","","","","49","0,1,0","6","blank","320","null","0.3241721507592564","0.639529215482326","0.05808416088612198","0","","","","","","","","",""
"","html-keyboard-response","202","580747","0.0-109.0-1.0","""event"",""trial"",""time""
""fullscreenenter"",""0"",""3742""
","
","
","""event"",""trial"",""time""
""fullscreenenter"",""0"",""3742""
","
","null","<p></p>","null","","","","","","","","","","","","","","","","","","","","","","","",""
"","do_trial","203","584269","0.0-110.0-0.0","""event"",""trial"",""time""
""fullscreenenter"",""0"",""3742""
","
","
","""event"",""trial"",""time""
""fullscreenenter"",""0"",""3742""
","
","957.5999999046326","","","","","","","","49","0,1,0","6","blank","321","null","0.34043096210418067","0.6541851581025793","0.15052894831059185","0","","","","","","","","",""
"","html-keyboard-response","204","585272","0.0-110.0-1.0","""event"",""trial"",""time""
""fullscreenenter"",""0"",""3742""
","
","
","""event"",""trial"",""time""
""fullscreenenter"",""0"",""3742""
","
","null","<p></p>","null","","","","","","","","","","","","","","","","","","","","","","","",""
"","do_trial","205","587998","0.0-111.0-0.0","""event"",""trial"",""time""
""fullscreenenter"",""0"",""3742""
","
","
","""event"",""trial"",""time""
""fullscreenenter"",""0"",""3742""
","
","165.20000004768372","","","","","","","","49","0,0,0","6","blank","322","null","0.33422179280834735","0.6356549628733428","0.10388040543358543","0","","","","","","","","",""
"","html-keyboard-response","206","589000","0.0-111.0-1.0","""event"",""trial"",""time""
""fullscreenenter"",""0"",""3742""
","
","
","""event"",""trial"",""time""
""fullscreenenter"",""0"",""3742""
","
","null","<p></p>","null","","","","","","","","","","","","","","","","","","","","","","","",""
"","do_trial","207","592098","0.0-112.0-0.0","""event"",""trial"",""time""
""fullscreenenter"",""0"",""3742""
","
","
","""event"",""trial"",""time""
""fullscreenenter"",""0"",""3742""
","
","535.9000000953674","","","","","","","","49","1,0,0","6","blank","323","null","0.2569689445456948","0.6299743189915814","0.11915629764378888","1","","","","","","","","",""
"","html-keyboard-response","208","593102","0.0-112.0-1.0","""event"",""trial"",""time""
""fullscreenenter"",""0"",""3742""
","
","
","""event"",""trial"",""time""
""fullscreenenter"",""0"",""3742""
","
","null","<p></p>","null","","","","","","","","","","","","","","","","","","","","","","","",""
"","do_trial","209","595798","0.0-113.0-0.0","""event"",""trial"",""time""
""fullscreenenter"",""0"",""3742""
","
","
","""event"",""trial"",""time""
""fullscreenenter"",""0"",""3742""
","
","131.70000004768372","","","","","","","","49","0,0,1","6","blank","324","null","0.2258280520171604","0.5912977830180002","0.1128729537115595","0","","","","","","","","",""
"","html-keyboard-response","210","596800","0.0-113.0-1.0","""event"",""trial"",""time""
""fullscreenenter"",""0"",""3742""
","
","
","""event"",""trial"",""time""
""fullscreenenter"",""0"",""3742""
","
","null","<p></p>","null","","","","","","","","","","","","","","","","","","","","","","","",""
"","do_trial","211","599482","0.0-114.0-0.0","""event"",""trial"",""time""
""fullscreenenter"",""0"",""3742""
","
","
","""event"",""trial"",""time""
""fullscreenenter"",""0"",""3742""
","
","117.30000019073486","","","","","","","","49","0,1,1","6","blank","325","null","0.30525291226883194","0.6979196904125341","0.18331483157397652","0","","","","","","","","",""
"","html-keyboard-response","212","600487","0.0-114.0-1.0","""event"",""trial"",""time""
""fullscreenenter"",""0"",""3742""
","
","
","""event"",""trial"",""time""
""fullscreenenter"",""0"",""3742""
","
","null","<p></p>","null","","","","","","","","","","","","","","","","","","","","","","","",""
"","do_recog","213","603837","0.0-115.0-0.0","""event"",""trial"",""time""
""fullscreenenter"",""0"",""3742""
","
","
","""event"",""trial"",""time""
""fullscreenenter"",""0"",""3742""
","
","1842.9000000953674","","","","","","","","53","","","","326","probe-28","","","","","1","[object Object]","151","3","1","","","",""
"","html-keyboard-response","214","604842","0.0-115.0-1.0","""event"",""trial"",""time""
""fullscreenenter"",""0"",""3742""
","
","
","""event"",""trial"",""time""
""fullscreenenter"",""0"",""3742""
","
","null","<p></p>","null","","","","","","","","","","","","","","","","","","","","","","","",""
"","do_trial","215","608063","0.0-116.0-0.0","""event"",""trial"",""time""
""fullscreenenter"",""0"",""3742""
","
","
","""event"",""trial"",""time""
""fullscreenenter"",""0"",""3742""
","
","658.7000000476837","","","","","","","","49","0,1,1","6","blank","327","null","0.34505013197521556","0.6734488126062419","0.22396615003448403","0","","","","","","","","",""
"","html-keyboard-response","216","609069","0.0-116.0-1.0","""event"",""trial"",""time""
""fullscreenenter"",""0"",""3742""
","
","
","""event"",""trial"",""time""
""fullscreenenter"",""0"",""3742""
","
","null","<p></p>","null","","","","","","","","","","","","","","","","","","","","","","","",""
"","do_recog","217","613139","0.0-117.0-0.0","""event"",""trial"",""time""
""fullscreenenter"",""0"",""3742""
","
","
","""event"",""trial"",""time""
""fullscreenenter"",""0"",""3742""
","
","2559.5","","","","","","","","55","","","","328","probe-219","","","","","1","[object Object]","35","0","0","","","",""
"","html-keyboard-response","218","614141","0.0-117.0-1.0","""event"",""trial"",""time""
""fullscreenenter"",""0"",""3742""
","
","
","""event"",""trial"",""time""
""fullscreenenter"",""0"",""3742""
","
","null","<p></p>","null","","","","","","","","","","","","","","","","","","","","","","","",""
"","do_trial","219","618979","0.0-118.0-0.0","""event"",""trial"",""time""
""fullscreenenter"",""0"",""3742""
","
","
","""event"",""trial"",""time""
""fullscreenenter"",""0"",""3742""
","
","2273.0999999046326","","","","","","","","49","1,1,0","6","blank","329","null","0.48021302563645735","0.6445043149958146","0.23905911260110785","1","","","","","","","","",""
"","html-keyboard-response","220","619984","0.0-118.0-1.0","""event"",""trial"",""time""
""fullscreenenter"",""0"",""3742""
","
","
","""event"",""trial"",""time""
""fullscreenenter"",""0"",""3742""
","
","null","<p></p>","null","","","","","","","","","","","","","","","","","","","","","","","",""
"","do_trial","221","625198","0.0-119.0-0.0","""event"",""trial"",""time""
""fullscreenenter"",""0"",""3742""
","
","
","""event"",""trial"",""time""
""fullscreenenter"",""0"",""3742""
","
","2649.7999999523163","","","","","","","","49","0,1,1","6","blank","330","null","0.45426573596575226","0.6797661006136315","0.10109959940669896","0","","","","","","","","",""
"","html-keyboard-response","222","626203","0.0-119.0-1.0","""event"",""trial"",""time""
""fullscreenenter"",""0"",""3742""
","
","
","""event"",""trial"",""time""
""fullscreenenter"",""0"",""3742""
","
","null","<p></p>","null","","","","","","","","","","","","","","","","","","","","","","","",""
"","do_trial","223","629807","0.0-120.0-0.0","""event"",""trial"",""time""
""fullscreenenter"",""0"",""3742""
","
","
","""event"",""trial"",""time""
""fullscreenenter"",""0"",""3742""
","
","1037.9000000953674","","","","","","","","49","1,1,0","6","blank","331","null","0.5164911969680401","0.5551679607653462","0.1376236459210423","1","","","","","","","","",""
"","html-keyboard-response","224","630813","0.0-120.0-1.0","""event"",""trial"",""time""
""fullscreenenter"",""0"",""3742""
","
","
","""event"",""trial"",""time""
""fullscreenenter"",""0"",""3742""
","
","null","<p></p>","null","","","","","","","","","","","","","","","","","","","","","","","",""
"","do_recog","225","636826","0.0-121.0-0.0","""event"",""trial"",""time""
""fullscreenenter"",""0"",""3742""
","
","
","""event"",""trial"",""time""
""fullscreenenter"",""0"",""3742""
","
","null","","","","","","","","null","","","","332","probe-107","","","","","1","[object Object]","111","2","0","","","",""
"","html-keyboard-response","226","637831","0.0-121.0-1.0","""event"",""trial"",""time""
""fullscreenenter"",""0"",""3742""
","
","
","""event"",""trial"",""time""
""fullscreenenter"",""0"",""3742""
","
","null","<p></p>","null","","","","","","","","","","","","","","","","","","","","","","","",""
"","do_trial","227","642041","0.0-122.0-0.0","""event"",""trial"",""time""
""fullscreenenter"",""0"",""3742""
","
","
","""event"",""trial"",""time""
""fullscreenenter"",""0"",""3742""
","
","1644.7000000476837","","","","","","","","49","0,0,0","6","blank","333","null","0.34247919068981447","0.6107068052677017","0.06973095163455713","0","","","","","","","","",""
"","html-keyboard-response","228","643044","0.0-122.0-1.0","""event"",""trial"",""time""
""fullscreenenter"",""0"",""3742""
","
","
","""event"",""trial"",""time""
""fullscreenenter"",""0"",""3742""
","
","null","<p></p>","null","","","","","","","","","","","","","","","","","","","","","","","",""
"","do_trial","229","646110","0.0-123.0-0.0","""event"",""trial"",""time""
""fullscreenenter"",""0"",""3742""
","
","
","""event"",""trial"",""time""
""fullscreenenter"",""0"",""3742""
","
","507.2999999523163","","","","","","","","49","1,1,0","6","blank","334","null","0.21649867476318835","0.5808832590591594","0.13425398398577276","1","","","","","","","","",""
"","html-keyboard-response","230","647111","0.0-123.0-1.0","""event"",""trial"",""time""
""fullscreenenter"",""0"",""3742""
","
","
","""event"",""trial"",""time""
""fullscreenenter"",""0"",""3742""
","
","null","<p></p>","null","","","","","","","","","","","","","","","","","","","","","","","",""
"","do_trial","231","650431","0.0-124.0-0.0","""event"",""trial"",""time""
""fullscreenenter"",""0"",""3742""
","
","
","""event"",""trial"",""time""
""fullscreenenter"",""0"",""3742""
","
","761.5","","","","","","","","49","0,0,0","6","blank","335","null","0.17476401521828883","0.6405791118309994","0.16304362658417976","0","","","","","","","","",""
"","html-keyboard-response","232","651436","0.0-124.0-1.0","""event"",""trial"",""time""
""fullscreenenter"",""0"",""3742""
","
","
","""event"",""trial"",""time""
""fullscreenenter"",""0"",""3742""
","
","null","<p></p>","null","","","","","","","","","","","","","","","","","","","","","","","",""
"","do_trial","233","654654","0.0-125.0-0.0","""event"",""trial"",""time""
""fullscreenenter"",""0"",""3742""
","
","
","""event"",""trial"",""time""
""fullscreenenter"",""0"",""3742""
","
","657.7000000476837","","","","","","","","49","0,1,0","6","blank","336","null","0.3248382041619279","0.4760705543882549","0.2190097384382636","0","","","","","","","","",""
"","html-keyboard-response","234","655659","0.0-125.0-1.0","""event"",""trial"",""time""
""fullscreenenter"",""0"",""3742""
","
","
","""event"",""trial"",""time""
""fullscreenenter"",""0"",""3742""
","
","null","<p></p>","null","","","","","","","","","","","","","","","","","","","","","","","",""
"","do_trial","235","659422","0.0-126.0-0.0","""event"",""trial"",""time""
""fullscreenenter"",""0"",""3742""
","
","
","""event"",""trial"",""time""
""fullscreenenter"",""0"",""3742""
","
","1197.7000000476837","","","","","","","","49","0,1,0","6","blank","337","null","0.29760294668637793","0.6256409196646943","0.2758241719776632","0","","","","","","","","",""
"","html-keyboard-response","236","660427","0.0-126.0-1.0","""event"",""trial"",""time""
""fullscreenenter"",""0"",""3742""
","
","
","""event"",""trial"",""time""
""fullscreenenter"",""0"",""3742""
","
","null","<p></p>","null","","","","","","","","","","","","","","","","","","","","","","","",""
"","do_recog","237","663939","0.0-127.0-0.0","""event"",""trial"",""time""
""fullscreenenter"",""0"",""3742""
","
","
","""event"",""trial"",""time""
""fullscreenenter"",""0"",""3742""
","
","1996.1000001430511","","","","","","","","53","","","","338","probe-38","","","","","1","[object Object]","113","2","1","","","",""
"","html-keyboard-response","238","664944","0.0-127.0-1.0","""event"",""trial"",""time""
""fullscreenenter"",""0"",""3742""
","
","
","""event"",""trial"",""time""
""fullscreenenter"",""0"",""3742""
","
","null","<p></p>","null","","","","","","","","","","","","","","","","","","","","","","","",""
"","do_trial","239","668449","0.0-128.0-0.0","""event"",""trial"",""time""
""fullscreenenter"",""0"",""3742""
","
","
","""event"",""trial"",""time""
""fullscreenenter"",""0"",""3742""
","
","943.7000000476837","","","","","","","","49","1,1,0","6","blank","339","null","0.3351347459020121","0.562637293972401","0.23742990256289354","1","","","","","","","","",""
"","html-keyboard-response","240","669457","0.0-128.0-1.0","""event"",""trial"",""time""
""fullscreenenter"",""0"",""3742""
","
","
","""event"",""trial"",""time""
""fullscreenenter"",""0"",""3742""
","
","null","<p></p>","null","","","","","","","","","","","","","","","","","","","","","","","",""
"","do_recog","241","672269","0.0-129.0-0.0","""event"",""trial"",""time""
""fullscreenenter"",""0"",""3742""
","
","
","""event"",""trial"",""time""
""fullscreenenter"",""0"",""3742""
","
","1302.7000000476837","","","","","","","","53","","","","340","probe-197","","","","","1","[object Object]","194","4","1","","","",""
"","html-keyboard-response","242","673275","0.0-129.0-1.0","""event"",""trial"",""time""
""fullscreenenter"",""0"",""3742""
","
","
","""event"",""trial"",""time""
""fullscreenenter"",""0"",""3742""
","
","null","<p></p>","null","","","","","","","","","","","","","","","","","","","","","","","",""
"","do_trial","243","676396","0.0-130.0-0.0","""event"",""trial"",""time""
""fullscreenenter"",""0"",""3742""
","
","
","""event"",""trial"",""time""
""fullscreenenter"",""0"",""3742""
","
","557.4000000953674","","","","","","","","49","0,0,0","6","blank","341","null","0.28361895381760305","0.706293185016431","0.20018278165237002","0","","","","","","","","",""
"","html-keyboard-response","244","677400","0.0-130.0-1.0","""event"",""trial"",""time""
""fullscreenenter"",""0"",""3742""
","
","
","""event"",""trial"",""time""
""fullscreenenter"",""0"",""3742""
","
","null","<p></p>","null","","","","","","","","","","","","","","","","","","","","","","","",""
"","do_recog","245","681130","0.0-131.0-0.0","""event"",""trial"",""time""
""fullscreenenter"",""0"",""3742""
","
","
","""event"",""trial"",""time""
""fullscreenenter"",""0"",""3742""
","
","2221.399999856949","","","","","","","","53","","","","342","probe-236","","","","","0","[object Object]","null","null","0","","","",""
"","html-keyboard-response","246","682132","0.0-131.0-1.0","""event"",""trial"",""time""
""fullscreenenter"",""0"",""3742""
","
","
","""event"",""trial"",""time""
""fullscreenenter"",""0"",""3742""
","
","null","<p></p>","null","","","","","","","","","","","","","","","","","","","","","","","",""
"","do_trial","247","686192","0.0-132.0-0.0","""event"",""trial"",""time""
""fullscreenenter"",""0"",""3742""
","
","
","""event"",""trial"",""time""
""fullscreenenter"",""0"",""3742""
","
","1502.2999999523163","","","","","","","","49","0,1,0","6","blank","343","null","0.33909023524071424","0.6164948640096903","0.16538697721200893","0","","","","","","","","",""
"","html-keyboard-response","248","687201","0.0-132.0-1.0","""event"",""trial"",""time""
""fullscreenenter"",""0"",""3742""
","
","
","""event"",""trial"",""time""
""fullscreenenter"",""0"",""3742""
","
","null","<p></p>","null","","","","","","","","","","","","","","","","","","","","","","","",""
"","do_trial","249","691838","0.0-133.0-0.0","""event"",""trial"",""time""
""fullscreenenter"",""0"",""3742""
","
","
","""event"",""trial"",""time""
""fullscreenenter"",""0"",""3742""
","
","2073","","","","","","","","49","1,1,0","6","blank","344","null","0.31913969293918126","0.6720324762373501","0.1335063130025948","1","","","","","","","","",""
"","html-keyboard-response","250","692844","0.0-133.0-1.0","""event"",""trial"",""time""
""fullscreenenter"",""0"",""3742""
","
","
","""event"",""trial"",""time""
""fullscreenenter"",""0"",""3742""
","
","null","<p></p>","null","","","","","","","","","","","","","","","","","","","","","","","",""
"","do_trial","251","696235","0.0-134.0-0.0","""event"",""trial"",""time""
""fullscreenenter"",""0"",""3742""
","
","
","""event"",""trial"",""time""
""fullscreenenter"",""0"",""3742""
","
","829.7999999523163","","","","","","","","49","0,1,1","6","blank","345","null","0.5112980801267782","0.6448859858310864","0.1818377587746273","0","","","","","","","","",""
"","html-keyboard-response","252","697239","0.0-134.0-1.0","""event"",""trial"",""time""
""fullscreenenter"",""0"",""3742""
","
","
","""event"",""trial"",""time""
""fullscreenenter"",""0"",""3742""
","
","null","<p></p>","null","","","","","","","","","","","","","","","","","","","","","","","",""
"","do_trial","253","700779","0.0-135.0-0.0","""event"",""trial"",""time""
""fullscreenenter"",""0"",""3742""
","
","
","""event"",""trial"",""time""
""fullscreenenter"",""0"",""3742""
","
","978.1000001430511","","","","","","","","49","1,0,0","6","blank","346","null","0.4869944574134447","0.5373972842336832","0.2649470166254501","1","","","","","","","","",""
"","html-keyboard-response","254","701781","0.0-135.0-1.0","""event"",""trial"",""time""
""fullscreenenter"",""0"",""3742""
","
","
","""event"",""trial"",""time""
""fullscreenenter"",""0"",""3742""
","
","null","<p></p>","null","","","","","","","","","","","","","","","","","","","","","","","",""
"","do_recog","255","704691","0.0-136.0-0.0","""event"",""trial"",""time""
""fullscreenenter"",""0"",""3742""
","
","
","""event"",""trial"",""time""
""fullscreenenter"",""0"",""3742""
","
","1399.8999998569489","","","","","","","","53","","","","347","probe-255","","","","","0","[object Object]","null","null","0","","","",""
"","html-keyboard-response","256","705695","0.0-136.0-1.0","""event"",""trial"",""time""
""fullscreenenter"",""0"",""3742""
","
","
","""event"",""trial"",""time""
""fullscreenenter"",""0"",""3742""
","
","null","<p></p>","null","","","","","","","","","","","","","","","","","","","","","","","",""
"","do_trial","257","709077","0.0-137.0-0.0","""event"",""trial"",""time""
""fullscreenenter"",""0"",""3742""
","
","
","""event"",""trial"",""time""
""fullscreenenter"",""0"",""3742""
","
","814.3999998569489","","","","","","","","49","1,1,0","6","blank","348","null","0.5550472691842997","0.5939010930752591","0.1482109195833757","1","","","","","","","","",""
"","html-keyboard-response","258","710081","0.0-137.0-1.0","""event"",""trial"",""time""
""fullscreenenter"",""0"",""3742""
","
","
","""event"",""trial"",""time""
""fullscreenenter"",""0"",""3742""
","
","null","<p></p>","null","","","","","","","","","","","","","","","","","","","","","","","",""
"","break","259","731992","0.0-138.0-0.0","""event"",""trial"",""time""
""fullscreenenter"",""0"",""3742""
","
","
","""event"",""trial"",""time""
""fullscreenenter"",""0"",""3742""
","
","21909.700000047684","<div class='center'><p>Time to take a quick break! You have 2 minutes to rest, but you can move on sooner if you'd like.</p><p> Press the <b>space bar</b> to continue.</p></div>","32","","","","","","","","","","","","","","","","","","","","","","","",""
"","do_trial","260","734962","0.0-138.0-1.0","""event"",""trial"",""time""
""fullscreenenter"",""0"",""3742""
","
","
","""event"",""trial"",""time""
""fullscreenenter"",""0"",""3742""
","
","401.80000019073486","","","","","","","","49","1,0,1","6","blank","349","null","0.5620294408895641","0.6630828349327342","0.11963172751303436","1","","","","","","","","",""
"","html-keyboard-response","261","735966","0.0-138.0-2.0","""event"",""trial"",""time""
""fullscreenenter"",""0"",""3742""
","
","
","""event"",""trial"",""time""
""fullscreenenter"",""0"",""3742""
","
","null","<p></p>","null","","","","","","","","","","","","","","","","","","","","","","","",""
"","do_trial","262","739413","0.0-139.0-0.0","""event"",""trial"",""time""
""fullscreenenter"",""0"",""3742""
","
","
","""event"",""trial"",""time""
""fullscreenenter"",""0"",""3742""
","
","886.2999999523163","","","","","","","","49","0,0,0","6","blank","350","null","0.45174234543897207","0.4263997006891749","0.23373216555562085","0","","","","","","","","",""
"","html-keyboard-response","263","740420","0.0-139.0-1.0","""event"",""trial"",""time""
""fullscreenenter"",""0"",""3742""
","
","
","""event"",""trial"",""time""
""fullscreenenter"",""0"",""3742""
","
","null","<p></p>","null","","","","","","","","","","","","","","","","","","","","","","","",""
"","do_trial","264","743209","0.0-140.0-0.0","""event"",""trial"",""time""
""fullscreenenter"",""0"",""3742""
","
","
","""event"",""trial"",""time""
""fullscreenenter"",""0"",""3742""
","
","225.29999995231628","","","","","","","","49","0,0,0","6","blank","351","null","0.38890001674078434","0.2917026667850175","0.2707584662982984","0","","","","","","","","",""
"","html-keyboard-response","265","744211","0.0-140.0-1.0","""event"",""trial"",""time""
""fullscreenenter"",""0"",""3742""
","
","
","""event"",""trial"",""time""
""fullscreenenter"",""0"",""3742""
","
","null","<p></p>","null","","","","","","","","","","","","","","","","","","","","","","","",""
"","do_trial","266","747471","0.0-141.0-0.0","""event"",""trial"",""time""
""fullscreenenter"",""0"",""3742""
","
","
","""event"",""trial"",""time""
""fullscreenenter"",""0"",""3742""
","
","696.7000000476837","","","","","","","","49","0,0,1","6","blank","352","null","0.2450866118706135","0.19607684285485852","0.3005053988139948","0","","","","","","","","",""
"","html-keyboard-response","267","748478","0.0-141.0-1.0","""event"",""trial"",""time""
""fullscreenenter"",""0"",""3742""
","
","
","""event"",""trial"",""time""
""fullscreenenter"",""0"",""3742""
","
","null","<p></p>","null","","","","","","","","","","","","","","","","","","","","","","","",""
"","do_recog","268","754493","0.0-142.0-0.0","""event"",""trial"",""time""
""fullscreenenter"",""0"",""3742""
","
","
","""event"",""trial"",""time""
""fullscreenenter"",""0"",""3742""
","
","null","","","","","","","","null","","","","353","probe-243","","","","","0","[object Object]","null","null","0","","","",""
"","html-keyboard-response","269","755494","0.0-142.0-1.0","""event"",""trial"",""time""
""fullscreenenter"",""0"",""3742""
","
","
","""event"",""trial"",""time""
""fullscreenenter"",""0"",""3742""
","
","null","<p></p>","null","","","","","","","","","","","","","","","","","","","","","","","",""
"","do_trial","270","759143","0.0-143.0-0.0","""event"",""trial"",""time""
""fullscreenenter"",""0"",""3742""
","
","
","""event"",""trial"",""time""
""fullscreenenter"",""0"",""3742""
","
","1085.2000000476837","","","","","","","","49","0,0,1","6","blank","354","null","0.11771272957280006","0.09270978685552068","0.5865022394339978","0","","","","","","","","",""
"","html-keyboard-response","271","760145","0.0-143.0-1.0","""event"",""trial"",""time""
""fullscreenenter"",""0"",""3742""
","
","
","""event"",""trial"",""time""
""fullscreenenter"",""0"",""3742""
","
","null","<p></p>","null","","","","","","","","","","","","","","","","","","","","","","","",""
"","do_trial","272","766208","0.0-144.0-0.0","""event"",""trial"",""time""
""fullscreenenter"",""0"",""3742""
","
","
","""event"",""trial"",""time""
""fullscreenenter"",""0"",""3742""
","
","null","","","","","","","","null","1,0,0","6","blank","355","null","0.1704386517210657","0.11267473664753269","0.5548272117575702","","","","","","","","","",""
"","html-keyboard-response","273","767213","0.0-144.0-1.0","""event"",""trial"",""time""
""fullscreenenter"",""0"",""3742""
","
","
","""event"",""trial"",""time""
""fullscreenenter"",""0"",""3742""
","
","null","<p></p>","null","","","","","","","","","","","","","","","","","","","","","","","",""
"","do_trial","274","769782","0.0-145.0-0.0","""event"",""trial"",""time""
""fullscreenenter"",""0"",""3742""
","
","
","""event"",""trial"",""time""
""fullscreenenter"",""0"",""3742""
","
","0.2999999523162842","","","","","","","","49","1,0,0","6","blank","356","null","0.11475098121026094","0.22564459348193278","0.49512548540395307","1","","","","","","","","",""
"","html-keyboard-response","275","770784","0.0-145.0-1.0","""event"",""trial"",""time""
""fullscreenenter"",""0"",""3742""
","
","
","""event"",""trial"",""time""
""fullscreenenter"",""0"",""3742""
","
","null","<p></p>","null","","","","","","","","","","","","","","","","","","","","","","","",""
"","do_trial","276","773907","0.0-146.0-0.0","""event"",""trial"",""time""
""fullscreenenter"",""0"",""3742""
","
","
","""event"",""trial"",""time""
""fullscreenenter"",""0"",""3742""
","
","559.2999999523163","","","","","","","","49","0,0,0","6","blank","357","null","0.07372600103847239","0.27282991484561214","0.3464140193207635","0","","","","","","","","",""
"","html-keyboard-response","277","774911","0.0-146.0-1.0","""event"",""trial"",""time""
""fullscreenenter"",""0"",""3742""
","
","
","""event"",""trial"",""time""
""fullscreenenter"",""0"",""3742""
","
