"success","trial_type","trial_index","time_elapsed","internal_node_id","interactions","blur_events","focus_events","fullscreenenter_events","fullscreenexit_events","rt","stimulus","key_press","subject_id","participant_id","age","gender","prompt","response","choice_outcomes","context_n","context_img_id","trial_n","probe_img_id","pR_red","pR_white","pR_black","outcome","is_valid","image_to_show","probed_trial","probed_context","correct","probe","probed_trial_n","probed_context_n","context_im"
"true","fullscreen","0","4625","0.0-0.0","""event"",""trial"",""time""
""fullscreenenter"",""0"",""3681""
","
","
","""event"",""trial"",""time""
""fullscreenenter"",""0"",""3681""
","
","","","","","","","","","","","","","","","","","","","","","","","","","","",""
"","pavlovia","1","4629","0.0-1.0","""event"",""trial"",""time""
""fullscreenenter"",""0"",""3681""
","
","
","""event"",""trial"",""time""
""fullscreenenter"",""0"",""3681""
","
","","","","","","","","","","","","","","","","","","","","","","","","","","",""
"","welc_back","2","14477","0.0-2.0","""event"",""trial"",""time""
""fullscreenenter"",""0"",""3681""
","
","
","""event"",""trial"",""time""
""fullscreenenter"",""0"",""3681""
","
","null","run_exp/static/audio/clip_29_welcome_back.m4a","null","1473","1708","20","Male","<div class='center'><p>Welcome to day 2!</p><p> Yesterday, you were the head captain of a pirate ship. You asked your fellow pirates to rob other ships of their gold across six different islands.</p></div>","","","","","","","","","","","","","","","","","","",""
"","html-keyboard-response","3","16675","0.0-3.0","""event"",""trial"",""time""
""fullscreenenter"",""0"",""3681""
","
","
","""event"",""trial"",""time""
""fullscreenenter"",""0"",""3681""
","
","2196.899999976158","<div class='center'><p>Welcome to day 2!</p><p> Yesterday, you were the head captain of a pirate ship. You asked your fellow pirates to rob other ships of their gold across six different islands.</p><p><b>[Press the space bar to continue]</b></p></div>","32","","","","","","","","","","","","","","","","","","","","","","","",""
"","day_1_summary_goal","4","33890","0.0-4.0","""event"",""trial"",""time""
""fullscreenenter"",""0"",""3681""
","
","
","""event"",""trial"",""time""
""fullscreenenter"",""0"",""3681""
","
","null","run_exp/static/audio/clip_30_goal_of_game.m4a","null","","","","","<div class='center'><p>Today, like yesterday, you get to pick which pirate you want to rob the next ship.</p><p>If the pirate is successful in robbing a ship, you get gold coins that look like this: </p><p><img src='run_exp/static/images/tutorial/reward.png' height='150'></p><p> If they were not successful in robbing the ship, then you will get no gold coins and you'll see a big red x like this: </p><p><img src='run_exp/static/images/tutorial/reward_no.png' height='150'></p></div>","","","","","","","","","","","","","","","","","","",""
"","html-keyboard-response","5","70515","0.0-5.0","""event"",""trial"",""time""
""fullscreenenter"",""0"",""3681""
","
","
","""event"",""trial"",""time""
""fullscreenenter"",""0"",""3681""
","
","36622.299999952316","<div class='center'><p>Today, like yesterday, you get to pick which pirate you want to rob the next ship.</p><p>If the pirate is successful in robbing a ship, you get gold coins that look like this: </p><p><img src='run_exp/static/images/tutorial/reward.png' height='150'></p><p> If they were not successful in robbing the ship, then you will get no gold coins and you'll see a big red x like this: </p><p><img src='run_exp/static/images/tutorial/reward_no.png' height='150'></p><p><b>[Press the space bar to continue]</b></p></div>","32","","","","","","","","","","","","","","","","","","","","","","","",""
"","day_1_summary_pick","6","85250","0.0-6.0","""event"",""trial"",""time""
""fullscreenenter"",""0"",""3681""
","
","
","""event"",""trial"",""time""
""fullscreenenter"",""0"",""3681""
","
","null","run_exp/static/audio/clip_31_how_to_pick_a_pirate.m4a","null","","","","","<div class='center'><p>Also, just like yesterday, you will use the 1,2,3 keys on your keyboard to pick a pirate. Press '1' to choose red beard, '2' to choose white beard, and '3' to choose black beard . You only have 3 seconds to pick a pirate, so please make a choice quickly!</p></div>","","","","","","","","","","","","","","","","","","",""
"","html-keyboard-response","7","94217","0.0-7.0","""event"",""trial"",""time""
""fullscreenenter"",""0"",""3681""
","
","
","""event"",""trial"",""time""
""fullscreenenter"",""0"",""3681""
","
","8966.5","<div class='center'><p>Also, just like yesterday, you will use the 1,2,3 keys on your keyboard to pick a pirate. Press '1' to choose red beard, '2' to choose white beard, and '3' to choose black beard . You only have 3 seconds to pick a pirate, so please make a choice quickly!</p><p><b>[Press the space bar to continue]</b></p></div>","32","","","","","","","","","","","","","","","","","","","","","","","",""
"","test_phase_begin","8","124632","0.0-8.0","""event"",""trial"",""time""
""fullscreenenter"",""0"",""3681""
","
","
","""event"",""trial"",""time""
""fullscreenenter"",""0"",""3681""
","
","null","run_exp/static/audio/clip_32_final_place.m4a","null","","","","","<div class='center'><p>You’ve arrived at the final island of your journey! Unfortunately, it’s very foggy out, so you won’t be able to see it in the distance like the other islands you've visited.</p><p>You’ll still be deciding which pirate you want to rob a ship like before. However, because of the fog, you also won’t be able to see the ship.</p><p>This means you do not have to remember the ships you rob on this island.</p><p>Unlike yesterday, you won't be visiting multiple islands today. You will stay on this island for the entire game. This game will last ~30 minutes.</p></div>","","","","","","","","","","","","","","","","","","",""
"","html-keyboard-response","9","143282","0.0-9.0","""event"",""trial"",""time""
""fullscreenenter"",""0"",""3681""
","
","
","""event"",""trial"",""time""
""fullscreenenter"",""0"",""3681""
","
","18649.200000047684","<div class='center'><p>You’ve arrived at the final island of your journey! Unfortunately, it’s very foggy out, so you won’t be able to see it in the distance like the other islands you've visited.</p><p>You’ll still be deciding which pirate you want to rob a ship like before. However, because of the fog, you also won’t be able to see the ship.</p><p>This means you do not have to remember the ships you rob on this island.</p><p>Unlike yesterday, you won't be visiting multiple islands today. You will stay on this island for the entire game. This game will last ~30 minutes.</p><p><b>[Press the space bar to continue]</b></p></div>","32","","","","","","","","","","","","","","","","","","","","","","","",""
"","explain_probe_1","10","151018","0.0-10.0","""event"",""trial"",""time""
""fullscreenenter"",""0"",""3681""
","
","
","""event"",""trial"",""time""
""fullscreenenter"",""0"",""3681""
","
","null","run_exp/static/audio/clip_33_recognition_1.m4a","null","","","","","<div class='center'><p> Sometimes you’ll be shown a ship, and you will be asked if you saw this ship on a past island.</p><p> Here is an example of what you will see.</p><p><img src='run_exp/static/images/tutorial/example_recog_trial.png' height='500'></p></div>","","","","","","","","","","","","","","","","","","",""
"","html-keyboard-response","11","154547","0.0-11.0","""event"",""trial"",""time""
""fullscreenenter"",""0"",""3681""
","
","
","""event"",""trial"",""time""
""fullscreenenter"",""0"",""3681""
","
","3527.899999976158","<div class='center'><p> Sometimes you’ll be shown a ship, and you will be asked if you saw this ship on a past island.</p><p> Here is an example of what you will see.</p><p><img src='run_exp/static/images/tutorial/example_recog_trial.png' height='500'></p><p><b>[Press the space bar to continue]</b></p></div>","32","","","","","","","","","","","","","","","","","","","","","","","",""
"","explain_probe_2","12","176277","0.0-12.0","""event"",""trial"",""time""
""fullscreenenter"",""0"",""3681""
","
","
","""event"",""trial"",""time""
""fullscreenenter"",""0"",""3681""
","
","null","run_exp/static/audio/clip_34_recognition_2.m4a","null","","","","","<div class='center'><p> You will press the 5, 6, 7, 8 keys on your keyboard to respond.</p><p>If you are sure you saw the ship, press <b>5</b> on your keyboard.</p><p> If you think you saw it before but aren't sure, then press <b>6</b>.</p><p> If you think you have <b>not</b> seen it before but aren't sure, then press <b>7</b>.</p><p> If you are sure you did <b>not</b> see the ship before, then press <b>8</b>.</p><p><img src='run_exp/static/images/tutorial/example_recog_trial.png' height='500'></p></div>","","","","","","","","","","","","","","","","","","",""
"","html-keyboard-response","13","176774","0.0-13.0","""event"",""trial"",""time""
""fullscreenenter"",""0"",""3681""
","
","
","""event"",""trial"",""time""
""fullscreenenter"",""0"",""3681""
","
","496.1999999284744","<div class='center'><p> You will press the 5, 6, 7, 8 keys on your keyboard to respond.</p><p>If you are sure you saw the ship, press <b>5</b> on your keyboard.</p><p> If you think you saw it before but aren't sure, then press <b>6</b>.</p><p> If you think you have <b>not</b> seen it before but aren't sure, then press <b>7</b>.</p><p> If you are sure you did <b>not</b> see the ship before, then press <b>8</b>.</p><p><img src='run_exp/static/images/tutorial/example_recog_trial.png' height='500'></p><p><b>[Press the space bar to continue]</b></p></div>","32","","","","","","","","","","","","","","","","","","","","","","","",""
"","explain_outcome","14","193984","0.0-14.0","""event"",""trial"",""time""
""fullscreenenter"",""0"",""3681""
","
","
","""event"",""trial"",""time""
""fullscreenenter"",""0"",""3681""
","
","null","run_exp/static/audio/clip_35_recognition_3.m4a","null","","","","","<div class='center'><p> If you remember correctly, then you’ll get a gold coin like this: </p><p><img src='run_exp/static/images/tutorial/reward_small.png' height='200'></p><p>If you do not remember correctly, then you'll see a red x like this: </p><p><img src='run_exp/static/images/tutorial/reward_no.png' height='200'></p><p>Importantly, when you are shown a ship, take the time to remind yourself which island you saw it on. This will help you in the next part of the study.</p></div>","","","","","","","","","","","","","","","","","","",""
"","html-keyboard-response","15","209568","0.0-15.0","""event"",""trial"",""time""
""fullscreenenter"",""0"",""3681""
","
","
","""event"",""trial"",""time""
""fullscreenenter"",""0"",""3681""
","
","15581.899999976158","<div class='center'><p> If you remember correctly, then you’ll get a gold coin like this: </p><p><img src='run_exp/static/images/tutorial/reward_small.png' height='200'></p><p>If you do not remember correctly, then you'll see a red x like this: </p><p><img src='run_exp/static/images/tutorial/reward_no.png' height='200'></p><p>Importantly, when you are shown a ship, take the time to remind yourself which island you saw it on. This will help you in the next part of the study.</p><p><b>[Press the space bar to continue]</b></p></div>","32","","","","","","","","","","","","","","","","","","","","","","","",""
"","begin_test_phase","16","225410","0.0-16.0","""event"",""trial"",""time""
""fullscreenenter"",""0"",""3681""
","
","
","""event"",""trial"",""time""
""fullscreenenter"",""0"",""3681""
","
","null","run_exp/static/audio/clip_36_begin_final.m4a","null","","","","","<div class='center'><p>Let's go over the important points again. Your job is to: </p><p>1. Pick the pirate who is best at robbing ships and will bring you back gold coins. </p><p>2. Correctly remember whether or not you saw a ship before. If you did see the ship before, remind yourself on which island you saw it. </p></div>","","","","","","","","","","","","","","","","","","",""
"","html-keyboard-response","17","287907","0.0-17.0","""event"",""trial"",""time""
""fullscreenenter"",""0"",""3681""
","
","
","""event"",""trial"",""time""
""fullscreenenter"",""0"",""3681""
","
","62449.60000002384","<div class='center'><p>Let's go over the important points again. Your job is to: </p><p>1. Pick the pirate who is best at robbing ships and will bring you back gold coins. </p><p>2. Correctly remember whether or not you saw a ship before. If you did see the ship before, remind yourself on which island you saw it. </p><p><b>[Press the space bar to continue]</b></p></div>","32","","","","","","","","","","","","","","","","","","","","","","","",""
"","do_welcome","18","291919","0.0-18.0","""event"",""trial"",""time""
""fullscreenenter"",""0"",""3681""
","
","
","""event"",""trial"",""time""
""fullscreenenter"",""0"",""3681""
","
","null","","","","","","","","null","","","","","","","","","","","","","","","","","",""
"","do_trial","19","296182","0.0-19.0-0.0","""event"",""trial"",""time""
""fullscreenenter"",""0"",""3681""
","
","
","""event"",""trial"",""time""
""fullscreenenter"",""0"",""3681""
","
","1711.3999999761581","","","","","","","","49","1,0,0","6","blank","230","null","0.7538181674678375","0.14317756543785656","0.49011762912712825","1","","","","","","","","",""
"","html-keyboard-response","20","297188","0.0-19.0-1.0","""event"",""trial"",""time""
""fullscreenenter"",""0"",""3681""
","
","
","""event"",""trial"",""time""
""fullscreenenter"",""0"",""3681""
","
","null","<p></p>","null","","","","","","","","","","","","","","","","","","","","","","","",""
"","do_trial","21","300363","0.0-20.0-0.0","""event"",""trial"",""time""
""fullscreenenter"",""0"",""3681""
","
","
","""event"",""trial"",""time""
""fullscreenenter"",""0"",""3681""
","
","625.8000000715256","","","","","","","","49","0,0,1","6","blank","231","null","0.6785373165432534","0.0754958310299295","0.3197987637402707","0","","","","","","","","",""
"","html-keyboard-response","22","301369","0.0-20.0-1.0","""event"",""trial"",""time""
""fullscreenenter"",""0"",""3681""
","
","
","""event"",""trial"",""time""
""fullscreenenter"",""0"",""3681""
","
","null","<p></p>","null","","","","","","","","","","","","","","","","","","","","","","","",""
"","do_trial","23","304283","0.0-21.0-0.0","""event"",""trial"",""time""
""fullscreenenter"",""0"",""3681""
","
","
","""event"",""trial"",""time""
""fullscreenenter"",""0"",""3681""
","
","365.7999999523163","","","","","","","","49","1,1,0","6","blank","232","null","0.5205211122248238","0.13914805810108713","0.3170195557968967","1","","","","","","","","",""
"","html-keyboard-response","24","305288","0.0-21.0-1.0","""event"",""trial"",""time""
""fullscreenenter"",""0"",""3681""
","
","
","""event"",""trial"",""time""
""fullscreenenter"",""0"",""3681""
","
","null","<p></p>","null","","","","","","","","","","","","","","","","","","","","","","","",""
"","do_trial","25","308124","0.0-22.0-0.0","""event"",""trial"",""time""
""fullscreenenter"",""0"",""3681""
","
","
","""event"",""trial"",""time""
""fullscreenenter"",""0"",""3681""
","
","283.60000002384186","","","","","","","","49","0,0,1","6","blank","233","null","0.48751290208115805","0.0805412492247079","0.38286112587578125","0","","","","","","","","",""
"","html-keyboard-response","26","309130","0.0-22.0-1.0","""event"",""trial"",""time""
""fullscreenenter"",""0"",""3681""
","
","
","""event"",""trial"",""time""
""fullscreenenter"",""0"",""3681""
","
","null","<p></p>","null","","","","","","","","","","","","","","","","","","","","","","","",""
"","do_trial","27","312057","0.0-23.0-0.0","""event"",""trial"",""time""
""fullscreenenter"",""0"",""3681""
","
","
","""event"",""trial"",""time""
""fullscreenenter"",""0"",""3681""
","
","375.39999997615814","","","","","","","","49","1,1,0","6","blank","234","null","0.5665066027583834","0.2134094025513943","0.15703509650181027","1","","","","","","","","",""
"","html-keyboard-response","28","313058","0.0-23.0-1.0","""event"",""trial"",""time""
""fullscreenenter"",""0"",""3681""
","
","
","""event"",""trial"",""time""
""fullscreenenter"",""0"",""3681""
","
","null","<p></p>","null","","","","","","","","","","","","","","","","","","","","","","","",""
"","do_trial","29","315915","0.0-24.0-0.0","""event"",""trial"",""time""
""fullscreenenter"",""0"",""3681""
","
","
","""event"",""trial"",""time""
""fullscreenenter"",""0"",""3681""
","
","311.1999999284744","","","","","","","","49","1,0,1","6","blank","235","null","0.5014107880889224","0.17739724690031522","0.24376066230328491","1","","","","","","","","",""
"","html-keyboard-response","30","316920","0.0-24.0-1.0","""event"",""trial"",""time""
""fullscreenenter"",""0"",""3681""
","
","
","""event"",""trial"",""time""
""fullscreenenter"",""0"",""3681""
","
","null","<p></p>","null","","","","","","","","","","","","","","","","","","","","","","","",""
"","do_trial","31","319798","0.0-25.0-0.0","""event"",""trial"",""time""
""fullscreenenter"",""0"",""3681""
","
","
","""event"",""trial"",""time""
""fullscreenenter"",""0"",""3681""
","
","327.39999997615814","","","","","","","","49","0,1,0","6","blank","236","null","0.5263204757736343","0.26263272024926915","0.29133137744065596","0","","","","","","","","",""
"","html-keyboard-response","32","320805","0.0-25.0-1.0","""event"",""trial"",""time""
""fullscreenenter"",""0"",""3681""
","
","
","""event"",""trial"",""time""
""fullscreenenter"",""0"",""3681""
","
","null","<p></p>","null","","","","","","","","","","","","","","","","","","","","","","","",""
"","do_trial","33","323859","0.0-26.0-0.0","""event"",""trial"",""time""
""fullscreenenter"",""0"",""3681""
","
","
","""event"",""trial"",""time""
""fullscreenenter"",""0"",""3681""
","
","502.8000000715256","","","","","","","","49","1,0,1","6","blank","237","null","0.7201996561280593","0.09642103385598481","0.44910944930116553","1","","","","","","","","",""
"","html-keyboard-response","34","324864","0.0-26.0-1.0","""event"",""trial"",""time""
""fullscreenenter"",""0"",""3681""
","
","
","""event"",""trial"",""time""
""fullscreenenter"",""0"",""3681""
","
","null","<p></p>","null","","","","","","","","","","","","","","","","","","","","","","","",""
"","do_trial","35","327868","0.0-27.0-0.0","""event"",""trial"",""time""
""fullscreenenter"",""0"",""3681""
","
","
","""event"",""trial"",""time""
""fullscreenenter"",""0"",""3681""
","
","451.10000002384186","","","","","","","","49","1,0,0","6","blank","238","null","0.6769361086252134","0.1888748349579672","0.2705380679329724","1","","","","","","","","",""
"","html-keyboard-response","36","328873","0.0-27.0-1.0","""event"",""trial"",""time""
""fullscreenenter"",""0"",""3681""
","
","
","""event"",""trial"",""time""
""fullscreenenter"",""0"",""3681""
","
","null","<p></p>","null","","","","","","","","","","","","","","","","","","","","","","","",""
"","do_trial","37","331760","0.0-28.0-0.0","""event"",""trial"",""time""
""fullscreenenter"",""0"",""3681""
","
","
","""event"",""trial"",""time""
""fullscreenenter"",""0"",""3681""
","
","333.60000002384186","","","","","","","","49","1,1,1","6","blank","239","null","0.5272516719744419","0.11523056866703316","0.4531957378091622","1","","","","","","","","",""
"","html-keyboard-response","38","332765","0.0-28.0-1.0","""event"",""trial"",""time""
""fullscreenenter"",""0"",""3681""
","
","
","""event"",""trial"",""time""
""fullscreenenter"",""0"",""3681""
","
","null","<p></p>","null","","","","","","","","","","","","","","","","","","","","","","","",""
"","do_trial","39","335796","0.0-29.0-0.0","""event"",""trial"",""time""
""fullscreenenter"",""0"",""3681""
","
","
","""event"",""trial"",""time""
""fullscreenenter"",""0"",""3681""
","
","476.5","","","","","","","","49","1,0,0","6","blank","240","null","0.5501720891289772","0.10691365440423728","0.4963638140009261","1","","","","","","","","",""
"","html-keyboard-response","40","336801","0.0-29.0-1.0","""event"",""trial"",""time""
""fullscreenenter"",""0"",""3681""
","
","
","""event"",""trial"",""time""
""fullscreenenter"",""0"",""3681""
","
","null","<p></p>","null","","","","","","","","","","","","","","","","","","","","","","","",""
"","do_recog","41","342811","0.0-30.0-0.0","""event"",""trial"",""time""
""fullscreenenter"",""0"",""3681""
","
","
","""event"",""trial"",""time""
""fullscreenenter"",""0"",""3681""
","
","null","","","","","","","","null","","","","241","probe-142","","","","","1","[object Object]","190","4","0","","","",""
"","html-keyboard-response","42","343815","0.0-30.0-1.0","""event"",""trial"",""time""
""fullscreenenter"",""0"",""3681""
","
","
","""event"",""trial"",""time""
""fullscreenenter"",""0"",""3681""
","
","null","<p></p>","null","","","","","","","","","","","","","","","","","","","","","","","",""
"","do_trial","43","346860","0.0-31.0-0.0","""event"",""trial"",""time""
""fullscreenenter"",""0"",""3681""
","
","
","""event"",""trial"",""time""
""fullscreenenter"",""0"",""3681""
","
","492.59999990463257","","","","","","","","49","1,0,1","6","blank","242","null","0.4051885579294988","0.15046568644377623","0.3861817923280743","1","","","","","","","","",""
"","html-keyboard-response","44","347864","0.0-31.0-1.0","""event"",""trial"",""time""
""fullscreenenter"",""0"",""3681""
","
","
","""event"",""trial"",""time""
""fullscreenenter"",""0"",""3681""
","
","null","<p></p>","null","","","","","","","","","","","","","","","","","","","","","","","",""
"","do_trial","45","350960","0.0-32.0-0.0","""event"",""trial"",""time""
""fullscreenenter"",""0"",""3681""
","
","
","""event"",""trial"",""time""
""fullscreenenter"",""0"",""3681""
","
","541.5","","","","","","","","49","1,0,0","6","blank","243","null","0.41284393599681923","0.193900196669276","0.5348563046078383","1","","","","","","","","",""
"","html-keyboard-response","46","351965","0.0-32.0-1.0","""event"",""trial"",""time""
""fullscreenenter"",""0"",""3681""
","
","
","""event"",""trial"",""time""
""fullscreenenter"",""0"",""3681""
","
","null","<p></p>","null","","","","","","","","","","","","","","","","","","","","","","","",""
"","do_trial","47","354911","0.0-33.0-0.0","""event"",""trial"",""time""
""fullscreenenter"",""0"",""3681""
","
","
","""event"",""trial"",""time""
""fullscreenenter"",""0"",""3681""
","
","395","","","","","","","","49","0,0,1","6","blank","244","null","0.20800138711291843","0.24003778201623643","0.5818276059712127","0","","","","","","","","",""
"","html-keyboard-response","48","355916","0.0-33.0-1.0","""event"",""trial"",""time""
""fullscreenenter"",""0"",""3681""
","
","
","""event"",""trial"",""time""
""fullscreenenter"",""0"",""3681""
","
","null","<p></p>","null","","","","","","","","","","","","","","","","","","","","","","","",""
"","do_trial","49","358956","0.0-34.0-0.0","""event"",""trial"",""time""
""fullscreenenter"",""0"",""3681""
","
","
","""event"",""trial"",""time""
""fullscreenenter"",""0"",""3681""
","
","490","","","","","","","","49","0,1,1","6","blank","245","null","0.19564209454399042","0.2955194017242708","0.590191691251486","0","","","","","","","","",""
"","html-keyboard-response","50","359961","0.0-34.0-1.0","""event"",""trial"",""time""
""fullscreenenter"",""0"",""3681""
","
","
","""event"",""trial"",""time""
""fullscreenenter"",""0"",""3681""
","
","null","<p></p>","null","","","","","","","","","","","","","","","","","","","","","","","",""
"","do_trial","51","362889","0.0-35.0-0.0","""event"",""trial"",""time""
""fullscreenenter"",""0"",""3681""
","
","
","""event"",""trial"",""time""
""fullscreenenter"",""0"",""3681""
","
","377.60000002384186","","","","","","","","49","0,0,1","6","blank","246","null","0.11643402257865294","0.289832978793306","0.6866640064204776","0","","","","","","","","",""
"","html-keyboard-response","52","363893","0.0-35.0-1.0","""event"",""trial"",""time""
""fullscreenenter"",""0"",""3681""
","
","
","""event"",""trial"",""time""
""fullscreenenter"",""0"",""3681""
","
","null","<p></p>","null","","","","","","","","","","","","","","","","","","","","","","","",""
"","do_recog","53","367008","0.0-36.0-0.0","""event"",""trial"",""time""
""fullscreenenter"",""0"",""3681""
","
","
","""event"",""trial"",""time""
""fullscreenenter"",""0"",""3681""
","
","1600.8999999761581","","","","","","","","53","","","","247","probe-201","","","","","1","[object Object]","155","3","1","","","",""
"","html-keyboard-response","54","368012","0.0-36.0-1.0","""event"",""trial"",""time""
""fullscreenenter"",""0"",""3681""
","
","
","""event"",""trial"",""time""
""fullscreenenter"",""0"",""3681""
","
","null","<p></p>","null","","","","","","","","","","","","","","","","","","","","","","","",""
"","do_trial","55","371205","0.0-37.0-0.0","""event"",""trial"",""time""
""fullscreenenter"",""0"",""3681""
","
","
","""event"",""trial"",""time""
""fullscreenenter"",""0"",""3681""
","
","645.5999999046326","","","","","","","","49","1,0,0","6","blank","248","null","0.07449639432965885","0.23356780210107386","0.7475778507576181","1","","","","","","","","",""
"","html-keyboard-response","56","372210","0.0-37.0-1.0","""event"",""trial"",""time""
""fullscreenenter"",""0"",""3681""
","
","
","""event"",""trial"",""time""
""fullscreenenter"",""0"",""3681""
","
","null","<p></p>","null","","","","","","","","","","","","","","","","","","","","","","","",""
"","do_recog","57","375186","0.0-38.0-0.0","""event"",""trial"",""time""
""fullscreenenter"",""0"",""3681""
","
","
","""event"",""trial"",""time""
""fullscreenenter"",""0"",""3681""
","
","1463.8000000715256","","","","","","","","53","","","","249","probe-180","","","","","1","[object Object]","150","3","1","","","",""
"","html-keyboard-response","58","376191","0.0-38.0-1.0","""event"",""trial"",""time""
""fullscreenenter"",""0"",""3681""
","
","
","""event"",""trial"",""time""
""fullscreenenter"",""0"",""3681""
","
","null","<p></p>","null","","","","","","","","","","","","","","","","","","","","","","","",""
"","do_trial","59","379234","0.0-39.0-0.0","""event"",""trial"",""time""
""fullscreenenter"",""0"",""3681""
","
","
","""event"",""trial"",""time""
""fullscreenenter"",""0"",""3681""
","
","489.8000000715256","","","","","","","","49","0,1,1","6","blank","250","null","0.06381363839273299","0.13494168690801608","0.8094020439122024","0","","","","","","","","",""
"","html-keyboard-response","60","380238","0.0-39.0-1.0","""event"",""trial"",""time""
""fullscreenenter"",""0"",""3681""
","
","
","""event"",""trial"",""time""
""fullscreenenter"",""0"",""3681""
","
","null","<p></p>","null","","","","","","","","","","","","","","","","","","","","","","","",""
"","do_trial","61","383211","0.0-40.0-0.0","""event"",""trial"",""time""
""fullscreenenter"",""0"",""3681""
","
","
","""event"",""trial"",""time""
""fullscreenenter"",""0"",""3681""
","
","423.5","","","","","","","","49","0,0,1","6","blank","251","null","0.06353008971685738","0.21886264735638453","0.7721867224109409","0","","","","","","","","",""
"","html-keyboard-response","62","384216","0.0-40.0-1.0","""event"",""trial"",""time""
""fullscreenenter"",""0"",""3681""
","
","
","""event"",""trial"",""time""
""fullscreenenter"",""0"",""3681""
","
","null","<p></p>","null","","","","","","","","","","","","","","","","","","","","","","","",""
"","do_trial","63","387115","0.0-41.0-0.0","""event"",""trial"",""time""
""fullscreenenter"",""0"",""3681""
","
","
","""event"",""trial"",""time""
""fullscreenenter"",""0"",""3681""
","
","345","","","","","","","","49","0,1,1","6","blank","252","null","0.05853294062799874","0.22499871610320699","0.7952860256938729","0","","","","","","","","",""
"","html-keyboard-response","64","388119","0.0-41.0-1.0","""event"",""trial"",""time""
""fullscreenenter"",""0"",""3681""
","
","
","""event"",""trial"",""time""
""fullscreenenter"",""0"",""3681""
","
","null","<p></p>","null","","","","","","","","","","","","","","","","","","","","","","","",""
"","do_trial","65","390948","0.0-42.0-0.0","""event"",""trial"",""time""
""fullscreenenter"",""0"",""3681""
","
","
","""event"",""trial"",""time""
""fullscreenenter"",""0"",""3681""
","
","274.89999997615814","","","","","","","","49","0,0,0","6","blank","253","null","0.11712258685305348","0.13174308598410808","0.6493567364821978","0","","","","","","","","",""
"","html-keyboard-response","66","391949","0.0-42.0-1.0","""event"",""trial"",""time""
""fullscreenenter"",""0"",""3681""
","
","
","""event"",""trial"",""time""
""fullscreenenter"",""0"",""3681""
","
","null","<p></p>","null","","","","","","","","","","","","","","","","","","","","","","","",""
"","do_trial","67","394800","0.0-43.0-0.0","""event"",""trial"",""time""
""fullscreenenter"",""0"",""3681""
","
","
","""event"",""trial"",""time""
""fullscreenenter"",""0"",""3681""
","
","300.1999999284744","","","","","","","","49","0,0,1","6","blank","254","null","0.0585156132461865","0.18606474142221513","0.6187482721720631","0","","","","","","","","",""
"","html-keyboard-response","68","395805","0.0-43.0-1.0","""event"",""trial"",""time""
""fullscreenenter"",""0"",""3681""
","
","
","""event"",""trial"",""time""
""fullscreenenter"",""0"",""3681""
","
","null","<p></p>","null","","","","","","","","","","","","","","","","","","","","","","","",""
"","do_recog","69","398903","0.0-44.0-0.0","""event"",""trial"",""time""
""fullscreenenter"",""0"",""3681""
","
","
","""event"",""trial"",""time""
""fullscreenenter"",""0"",""3681""
","
","1584.6999999284744","","","","","","","","53","","","","255","probe-96","","","","","1","[object Object]","152","3","1","","","",""
"","html-keyboard-response","70","399907","0.0-44.0-1.0","""event"",""trial"",""time""
""fullscreenenter"",""0"",""3681""
","
","
","""event"",""trial"",""time""
""fullscreenenter"",""0"",""3681""
","
","null","<p></p>","null","","","","","","","","","","","","","","","","","","","","","","","",""
"","do_trial","71","402921","0.0-45.0-0.0","""event"",""trial"",""time""
""fullscreenenter"",""0"",""3681""
","
","
","""event"",""trial"",""time""
""fullscreenenter"",""0"",""3681""
","
","463.60000002384186","","","","","","","","51","0,1,1","6","blank","256","null","0.08313938488794344","0.19149449238444","0.6519475318126454","1","","","","","","","","",""
"","html-keyboard-response","72","403927","0.0-45.0-1.0","""event"",""trial"",""time""
""fullscreenenter"",""0"",""3681""
","
","
","""event"",""trial"",""time""
""fullscreenenter"",""0"",""3681""
","
","null","<p></p>","null","","","","","","","","","","","","","","","","","","","","","","","",""
"","do_recog","73","407048","0.0-46.0-0.0","""event"",""trial"",""time""
""fullscreenenter"",""0"",""3681""
","
","
","""event"",""trial"",""time""
""fullscreenenter"",""0"",""3681""
","
","1607.2999999523163","","","","","","","","53","","","","257","probe-86","","","","","1","[object Object]","72","1","1","","","",""
"","html-keyboard-response","74","408052","0.0-46.0-1.0","""event"",""trial"",""time""
""fullscreenenter"",""0"",""3681""
","
","
","""event"",""trial"",""time""
""fullscreenenter"",""0"",""3681""
","
","null","<p></p>","null","","","","","","","","","","","","","","","","","","","","","","","",""
"","do_trial","75","411022","0.0-47.0-0.0","""event"",""trial"",""time""
""fullscreenenter"",""0"",""3681""
","
","
","""event"",""trial"",""time""
""fullscreenenter"",""0"",""3681""
","
","416.2000000476837","","","","","","","","51","1,0,0","6","blank","258","null","0.26172626519469655","0.10627032774629706","0.5741004216318984","0","","","","","","","","",""
"","html-keyboard-response","76","412026","0.0-47.0-1.0","""event"",""trial"",""time""
""fullscreenenter"",""0"",""3681""
","
","
","""event"",""trial"",""time""
""fullscreenenter"",""0"",""3681""
","
","null","<p></p>","null","","","","","","","","","","","","","","","","","","","","","","","",""
"","do_recog","77","415721","0.0-48.0-0.0","""event"",""trial"",""time""
""fullscreenenter"",""0"",""3681""
","
","
","""event"",""trial"",""time""
""fullscreenenter"",""0"",""3681""
","
","2182.899999976158","","","","","","","","55","","","","259","probe-206","","","","","1","[object Object]","71","1","0","","","",""
"","html-keyboard-response","78","416725","0.0-48.0-1.0","""event"",""trial"",""time""
""fullscreenenter"",""0"",""3681""
","
","
","""event"",""trial"",""time""
""fullscreenenter"",""0"",""3681""
","
","null","<p></p>","null","","","","","","","","","","","","","","","","","","","","","","","",""
"","do_trial","79","419724","0.0-49.0-0.0","""event"",""trial"",""time""
""fullscreenenter"",""0"",""3681""
","
","
","""event"",""trial"",""time""
""fullscreenenter"",""0"",""3681""
","
","450.6999999284744","","","","","","","","51","0,1,1","6","blank","260","null","0.2697315423472715","0.21892784627556228","0.7102994704826564","1","","","","","","","","",""
"","html-keyboard-response","80","420730","0.0-49.0-1.0","""event"",""trial"",""time""
""fullscreenenter"",""0"",""3681""
","
","
","""event"",""trial"",""time""
""fullscreenenter"",""0"",""3681""
","
","null","<p></p>","null","","","","","","","","","","","","","","","","","","","","","","","",""
"","do_trial","81","423751","0.0-50.0-0.0","""event"",""trial"",""time""
""fullscreenenter"",""0"",""3681""
","
","
","""event"",""trial"",""time""
""fullscreenenter"",""0"",""3681""
","
","478.60000002384186","","","","","","","","51","0,0,0","6","blank","261","null","0.09117777758262528","0.21659169752461493","0.7273310665313598","0","","","","","","","","",""
"","html-keyboard-response","82","424752","0.0-50.0-1.0","""event"",""trial"",""time""
""fullscreenenter"",""0"",""3681""
","
","
","""event"",""trial"",""time""
""fullscreenenter"",""0"",""3681""
","
","null","<p></p>","null","","","","","","","","","","","","","","","","","","","","","","","",""
"","do_recog","83","427659","0.0-51.0-0.0","""event"",""trial"",""time""
""fullscreenenter"",""0"",""3681""
","
","
","""event"",""trial"",""time""
""fullscreenenter"",""0"",""3681""
","
","1393.8000000715256","","","","","","","","53","","","","262","probe-02","","","","","1","[object Object]","73","1","1","","","",""
"","html-keyboard-response","84","428664","0.0-51.0-1.0","""event"",""trial"",""time""
""fullscreenenter"",""0"",""3681""
","
","
","""event"",""trial"",""time""
""fullscreenenter"",""0"",""3681""
","
","null","<p></p>","null","","","","","","","","","","","","","","","","","","","","","","","",""
"","do_trial","85","431826","0.0-52.0-0.0","""event"",""trial"",""time""
""fullscreenenter"",""0"",""3681""
","
","
","""event"",""trial"",""time""
""fullscreenenter"",""0"",""3681""
","
","611.1000000238419","","","","","","","","51","0,0,1","6","blank","263","null","0.11892039443253735","0.23532093107881236","0.6996698014754289","1","","","","","","","","",""
"","html-keyboard-response","86","432831","0.0-52.0-1.0","""event"",""trial"",""time""
""fullscreenenter"",""0"",""3681""
","
","
","""event"",""trial"",""time""
""fullscreenenter"",""0"",""3681""
","
","null","<p></p>","null","","","","","","","","","","","","","","","","","","","","","","","",""
"","do_recog","87","435514","0.0-53.0-0.0","""event"",""trial"",""time""
""fullscreenenter"",""0"",""3681""
","
","
","""event"",""trial"",""time""
""fullscreenenter"",""0"",""3681""
","
","1170","","","","","","","","53","","","","264","probe-207","","","","","1","[object Object]","34","0","1","","","",""
"","html-keyboard-response","88","436519","0.0-53.0-1.0","""event"",""trial"",""time""
""fullscreenenter"",""0"",""3681""
","
","
","""event"",""trial"",""time""
""fullscreenenter"",""0"",""3681""
","
","null","<p></p>","null","","","","","","","","","","","","","","","","","","","","","","","",""
"","do_trial","89","439481","0.0-54.0-0.0","""event"",""trial"",""time""
""fullscreenenter"",""0"",""3681""
","
","
","""event"",""trial"",""time""
""fullscreenenter"",""0"",""3681""
","
","408.2000000476837","","","","","","","","51","0,0,1","6","blank","265","null","0.057249307627554986","0.17546317027475597","0.6764574087664729","1","","","","","","","","",""
"","html-keyboard-response","90","440485","0.0-54.0-1.0","""event"",""trial"",""time""
""fullscreenenter"",""0"",""3681""
","
","
","""event"",""trial"",""time""
""fullscreenenter"",""0"",""3681""
","
","null","<p></p>","null","","","","","","","","","","","","","","","","","","","","","","","",""
"","do_trial","91","443393","0.0-55.0-0.0","""event"",""trial"",""time""
""fullscreenenter"",""0"",""3681""
","
","
","""event"",""trial"",""time""
""fullscreenenter"",""0"",""3681""
","
","352.89999997615814","","","","","","","","51","0,0,1","6","blank","266","null","0.06357488579952861","0.18709092868436863","0.6736405968300668","1","","","","","","","","",""
"","html-keyboard-response","92","444397","0.0-55.0-1.0","""event"",""trial"",""time""
""fullscreenenter"",""0"",""3681""
","
","
","""event"",""trial"",""time""
""fullscreenenter"",""0"",""3681""
","
","null","<p></p>","null","","","","","","","","","","","","","","","","","","","","","","","",""
"","do_recog","93","447049","0.0-56.0-0.0","""event"",""trial"",""time""
""fullscreenenter"",""0"",""3681""
","
","
","""event"",""trial"",""time""
""fullscreenenter"",""0"",""3681""
","
","1140.7999999523163","","","","","","","","53","","","","267","probe-65","","","","","1","[object Object]","157","3","1","","","",""
"","html-keyboard-response","94","448055","0.0-56.0-1.0","""event"",""trial"",""time""
""fullscreenenter"",""0"",""3681""
","
","
","""event"",""trial"",""time""
""fullscreenenter"",""0"",""3681""
","
","null","<p></p>","null","","","","","","","","","","","","","","","","","","","","","","","",""
"","do_trial","95","450999","0.0-57.0-0.0","""event"",""trial"",""time""
""fullscreenenter"",""0"",""3681""
","
","
","""event"",""trial"",""time""
""fullscreenenter"",""0"",""3681""
","
","394.10000002384186","","","","","","","","51","1,0,0","6","blank","268","null","0.1270283634576388","0.24030406401517485","0.5290137982467086","0","","","","","","","","",""
"","html-keyboard-response","96","452005","0.0-57.0-1.0","""event"",""trial"",""time""
""fullscreenenter"",""0"",""3681""
","
","
","""event"",""trial"",""time""
""fullscreenenter"",""0"",""3681""
","
","null","<p></p>","null","","","","","","","","","","","","","","","","","","","","","","","",""
"","break","97","558224","0.0-58.0-0.0","""event"",""trial"",""time""
""fullscreenenter"",""0"",""3681""
","
","
","""event"",""trial"",""time""
""fullscreenenter"",""0"",""3681""
","
","106214.60000002384","<div class='center'><p>Time to take a quick break! You have 2 minutes to rest, but you can move on sooner if you'd like.</p><p> Press the <b>space bar</b> to continue.</p></div>","32","","","","","","","","","","","","","","","","","","","","","","","",""
"","do_trial","98","562035","0.0-58.0-1.0","""event"",""trial"",""time""
""fullscreenenter"",""0"",""3681""
","
","
","""event"",""trial"",""time""
""fullscreenenter"",""0"",""3681""
","
","1263","","","","","","","","51","0,1,0","6","blank","269","null","0.06262599825268446","0.30741407229074014","0.7148724429620592","0","","","","","","","","",""
"","html-keyboard-response","99","563040","0.0-58.0-2.0","""event"",""trial"",""time""
""fullscreenenter"",""0"",""3681""
","
","
","""event"",""trial"",""time""
""fullscreenenter"",""0"",""3681""
","
","null","<p></p>","null","","","","","","","","","","","","","","","","","","","","","","","",""
"","do_trial","100","566330","0.0-59.0-0.0","""event"",""trial"",""time""
""fullscreenenter"",""0"",""3681""
","
","
","""event"",""trial"",""time""
""fullscreenenter"",""0"",""3681""
","
","737.3999999761581","","","","","","","","51","0,0,1","6","blank","270","null","0.07976885450192407","0.20918742159150155","0.7553246430619599","1","","","","","","","","",""
"","html-keyboard-response","101","567334","0.0-59.0-1.0","""event"",""trial"",""time""
""fullscreenenter"",""0"",""3681""
","
","
","""event"",""trial"",""time""
""fullscreenenter"",""0"",""3681""
","
","null","<p></p>","null","","","","","","","","","","","","","","","","","","","","","","","",""
"","do_trial","102","570352","0.0-60.0-0.0","""event"",""trial"",""time""
""fullscreenenter"",""0"",""3681""
","
","
","""event"",""trial"",""time""
""fullscreenenter"",""0"",""3681""
","
","464.7000000476837","","","","","","","","51","0,0,0","6","blank","271","null","0.18021287488650933","0.22539625432813243","0.6097247923316117","0","","","","","","","","",""
"","html-keyboard-response","103","571356","0.0-60.0-1.0","""event"",""trial"",""time""
""fullscreenenter"",""0"",""3681""
","
","
","""event"",""trial"",""time""
""fullscreenenter"",""0"",""3681""
","
","null","<p></p>","null","","","","","","","","","","","","","","","","","","","","","","","",""
"","do_recog","104","574747","0.0-61.0-0.0","""event"",""trial"",""time""
""fullscreenenter"",""0"",""3681""
","
","
","""event"",""trial"",""time""
""fullscreenenter"",""0"",""3681""
","
","1879.7000000476837","","","","","","","","55","","","","272","probe-110","","","","","1","[object Object]","116","2","0","","","",""
"","html-keyboard-response","105","575752","0.0-61.0-1.0","""event"",""trial"",""time""
""fullscreenenter"",""0"",""3681""
","
","
","""event"",""trial"",""time""
""fullscreenenter"",""0"",""3681""
","
","null","<p></p>","null","","","","","","","","","","","","","","","","","","","","","","","",""
"","do_trial","106","578700","0.0-62.0-0.0","""event"",""trial"",""time""
""fullscreenenter"",""0"",""3681""
","
","
","""event"",""trial"",""time""
""fullscreenenter"",""0"",""3681""
","
","399","","","","","","","","51","0,0,1","6","blank","273","null","0.05009969180662743","0.28519335108132415","0.6418698374318088","1","","","","","","","","",""
"","html-keyboard-response","107","579704","0.0-62.0-1.0","""event"",""trial"",""time""
""fullscreenenter"",""0"",""3681""
","
","
","""event"",""trial"",""time""
""fullscreenenter"",""0"",""3681""
","
","null","<p></p>","null","","","","","","","","","","","","","","","","","","","","","","","",""
"","do_trial","108","582826","0.0-63.0-0.0","""event"",""trial"",""time""
""fullscreenenter"",""0"",""3681""
","
","
","""event"",""trial"",""time""
""fullscreenenter"",""0"",""3681""
","
","572.2999999523163","","","","","","","","51","0,0,1","6","blank","274","null","0.07865304515404441","0.3517800501628936","0.5863958447047954","1","","","","","","","","",""
"","html-keyboard-response","109","583831","0.0-63.0-1.0","""event"",""trial"",""time""
""fullscreenenter"",""0"",""3681""
","
","
","""event"",""trial"",""time""
""fullscreenenter"",""0"",""3681""
","
","null","<p></p>","null","","","","","","","","","","","","","","","","","","","","","","","",""
"","do_trial","110","586875","0.0-64.0-0.0","""event"",""trial"",""time""
""fullscreenenter"",""0"",""3681""
","
","
","""event"",""trial"",""time""
""fullscreenenter"",""0"",""3681""
","
","487.10000002384186","","","","","","","","51","0,0,0","6","blank","275","null","0.1099128985501814","0.29170710501266717","0.6090616947896732","0","","","","","","","","",""
"","html-keyboard-response","111","587882","0.0-64.0-1.0","""event"",""trial"",""time""
""fullscreenenter"",""0"",""3681""
","
","
","""event"",""trial"",""time""
""fullscreenenter"",""0"",""3681""
","
","null","<p></p>","null","","","","","","","","","","","","","","","","","","","","","","","",""
"","do_recog","112","590670","0.0-65.0-0.0","""event"",""trial"",""time""
""fullscreenenter"",""0"",""3681""
","
","
","""event"",""trial"",""time""
""fullscreenenter"",""0"",""3681""
","
","1274.5999999046326","","","","","","","","53","","","","276","probe-150","","","","","1","[object Object]","197","4","1","","","",""
"","html-keyboard-response","113","591674","0.0-65.0-1.0","""event"",""trial"",""time""
""fullscreenenter"",""0"",""3681""
","
","
","""event"",""trial"",""time""
""fullscreenenter"",""0"",""3681""
","
","null","<p></p>","null","","","","","","","","","","","","","","","","","","","","","","","",""
"","do_trial","114","594656","0.0-66.0-0.0","""event"",""trial"",""time""
""fullscreenenter"",""0"",""3681""
","
","
","""event"",""trial"",""time""
""fullscreenenter"",""0"",""3681""
","
","429.59999990463257","","","","","","","","51","1,0,1","6","blank","277","null","0.28018661589654975","0.3208883533913819","0.598295680496836","1","","","","","","","","",""
"","html-keyboard-response","115","595658","0.0-66.0-1.0","""event"",""trial"",""time""
""fullscreenenter"",""0"",""3681""
","
","
","""event"",""trial"",""time""
""fullscreenenter"",""0"",""3681""
","
","null","<p></p>","null","","","","","","","","","","","","","","","","","","","","","","","",""
"","do_trial","116","598654","0.0-67.0-0.0","""event"",""trial"",""time""
""fullscreenenter"",""0"",""3681""
","
","
","""event"",""trial"",""time""
""fullscreenenter"",""0"",""3681""
","
","442.89999997615814","","","","","","","","51","0,0,1","6","blank","278","null","0.2061886230709934","0.3120832185105209","0.597327722861916","1","","","","","","","","",""
"","html-keyboard-response","117","599659","0.0-67.0-1.0","""event"",""trial"",""time""
""fullscreenenter"",""0"",""3681""
","
","
","""event"",""trial"",""time""
""fullscreenenter"",""0"",""3681""
","
","null","<p></p>","null","","","","","","","","","","","","","","","","","","","","","","","",""
"","do_trial","118","602599","0.0-68.0-0.0","""event"",""trial"",""time""
""fullscreenenter"",""0"",""3681""
","
","
","""event"",""trial"",""time""
""fullscreenenter"",""0"",""3681""
","
","388.2999999523163","","","","","","","","51","0,0,1","6","blank","279","null","0.12653032725360097","0.21455017207160842","0.7159477752758278","1","","","","","","","","",""
"","html-keyboard-response","119","603604","0.0-68.0-1.0","""event"",""trial"",""time""
""fullscreenenter"",""0"",""3681""
","
","
","""event"",""trial"",""time""
""fullscreenenter"",""0"",""3681""
","
","null","<p></p>","null","","","","","","","","","","","","","","","","","","","","","","","",""
"","do_trial","120","606591","0.0-69.0-0.0","""event"",""trial"",""time""
""fullscreenenter"",""0"",""3681""
","
","
","""event"",""trial"",""time""
""fullscreenenter"",""0"",""3681""
","
","433.7999999523163","","","","","","","","51","0,1,1","6","blank","280","null","0.0843848886393451","0.1853518963622376","0.6916740704780606","1","","","","","","","","",""
"","html-keyboard-response","121","607596","0.0-69.0-1.0","""event"",""trial"",""time""
""fullscreenenter"",""0"",""3681""
","
","
","""event"",""trial"",""time""
""fullscreenenter"",""0"",""3681""
","
","null","<p></p>","null","","","","","","","","","","","","","","","","","","","","","","","",""
"","do_trial","122","610569","0.0-70.0-0.0","""event"",""trial"",""time""
""fullscreenenter"",""0"",""3681""
","
","
","""event"",""trial"",""time""
""fullscreenenter"",""0"",""3681""
","
","425.5","","","","","","","","51","0,0,0","6","blank","281","null","0.05867064482186305","0.11961304329645991","0.6419641858700588","0","","","","","","","","",""
"","html-keyboard-response","123","611573","0.0-70.0-1.0","""event"",""trial"",""time""
""fullscreenenter"",""0"",""3681""
","
","
","""event"",""trial"",""time""
""fullscreenenter"",""0"",""3681""
","
","null","<p></p>","null","","","","","","","","","","","","","","","","","","","","","","","",""
"","do_trial","124","614516","0.0-71.0-0.0","""event"",""trial"",""time""
""fullscreenenter"",""0"",""3681""
","
","
","""event"",""trial"",""time""
""fullscreenenter"",""0"",""3681""
","
","387.8000000715256","","","","","","","","51","0,0,1","6","blank","282","null","0.06678606654768265","0.2425037941562281","0.5764672399042321","1","","","","","","","","",""
"","html-keyboard-response","125","615523","0.0-71.0-1.0","""event"",""trial"",""time""
""fullscreenenter"",""0"",""3681""
","
","
","""event"",""trial"",""time""
""fullscreenenter"",""0"",""3681""
","
","null","<p></p>","null","","","","","","","","","","","","","","","","","","","","","","","",""
"","do_recog","126","618387","0.0-72.0-0.0","""event"",""trial"",""time""
""fullscreenenter"",""0"",""3681""
","
","
","""event"",""trial"",""time""
""fullscreenenter"",""0"",""3681""
","
","1352.5","","","","","","","","53","","","","283","probe-166","","","","","1","[object Object]","31","0","1","","","",""
"","html-keyboard-response","127","619393","0.0-72.0-1.0","""event"",""trial"",""time""
""fullscreenenter"",""0"",""3681""
","
","
","""event"",""trial"",""time""
""fullscreenenter"",""0"",""3681""
","
","null","<p></p>","null","","","","","","","","","","","","","","","","","","","","","","","",""
"","do_trial","128","622370","0.0-73.0-0.0","""event"",""trial"",""time""
""fullscreenenter"",""0"",""3681""
","
","
","""event"",""trial"",""time""
""fullscreenenter"",""0"",""3681""
","
","421.5","","","","","","","","51","0,0,0","6","blank","284","null","0.18571637362579346","0.10802674848198414","0.6010841322114479","0","","","","","","","","",""
"","html-keyboard-response","129","623375","0.0-73.0-1.0","""event"",""trial"",""time""
""fullscreenenter"",""0"",""3681""
","
","
","""event"",""trial"",""time""
""fullscreenenter"",""0"",""3681""
","
","null","<p></p>","null","","","","","","","","","","","","","","","","","","","","","","","",""
"","do_recog","130","626239","0.0-74.0-0.0","""event"",""trial"",""time""
""fullscreenenter"",""0"",""3681""
","
","
","""event"",""trial"",""time""
""fullscreenenter"",""0"",""3681""
","
","1350.9000000953674","","","","","","","","53","","","","285","probe-143","","","","","1","[object Object]","199","4","1","","","",""
"","html-keyboard-response","131","627243","0.0-74.0-1.0","""event"",""trial"",""time""
""fullscreenenter"",""0"",""3681""
","
","
","""event"",""trial"",""time""
""fullscreenenter"",""0"",""3681""
","
","null","<p></p>","null","","","","","","","","","","","","","","","","","","","","","","","",""
"","do_trial","132","630176","0.0-75.0-0.0","""event"",""trial"",""time""
""fullscreenenter"",""0"",""3681""
","
","
","""event"",""trial"",""time""
""fullscreenenter"",""0"",""3681""
","
","379","","","","","","","","51","0,0,1","6","blank","286","null","0.19070723052637228","0.1780586324175719","0.537270492719314","1","","","","","","","","",""
"","html-keyboard-response","133","631179","0.0-75.0-1.0","""event"",""trial"",""time""
""fullscreenenter"",""0"",""3681""
","
","
","""event"",""trial"",""time""
""fullscreenenter"",""0"",""3681""
","
","null","<p></p>","null","","","","","","","","","","","","","","","","","","","","","","","",""
"","do_trial","134","634168","0.0-76.0-0.0","""event"",""trial"",""time""
""fullscreenenter"",""0"",""3681""
","
","
","""event"",""trial"",""time""
""fullscreenenter"",""0"",""3681""
","
","433.2000000476837","","","","","","","","51","0,0,1","6","blank","287","null","0.24837647524848705","0.1358427202180562","0.5821468664565262","1","","","","","","","","",""
"","html-keyboard-response","135","635172","0.0-76.0-1.0","""event"",""trial"",""time""
""fullscreenenter"",""0"",""3681""
","
","
","""event"",""trial"",""time""
""fullscreenenter"",""0"",""3681""
","
","null","<p></p>","null","","","","","","","","","","","","","","","","","","","","","","","",""
"","do_trial","136","638118","0.0-77.0-0.0","""event"",""trial"",""time""
""fullscreenenter"",""0"",""3681""
","
","
","""event"",""trial"",""time""
""fullscreenenter"",""0"",""3681""
","
","392.1999999284744","","","","","","","","51","0,1,1","6","blank","288","null","0.14066702371657988","0.2472316067261292","0.5717353873199651","1","","","","","","","","",""
"","html-keyboard-response","137","639123","0.0-77.0-1.0","""event"",""trial"",""time""
""fullscreenenter"",""0"",""3681""
","
","
","""event"",""trial"",""time""
""fullscreenenter"",""0"",""3681""
","
","null","<p></p>","null","","","","","","","","","","","","","","","","","","","","","","","",""
"","do_trial","138","642086","0.0-78.0-0.0","""event"",""trial"",""time""
""fullscreenenter"",""0"",""3681""
","
","
","""event"",""trial"",""time""
""fullscreenenter"",""0"",""3681""
","
","411","","","","","","","","51","0,0,1","6","blank","289","null","0.13507438967843682","0.32981214163190864","0.5462828335191011","1","","","","","","","","",""
"","html-keyboard-response","139","643088","0.0-78.0-1.0","""event"",""trial"",""time""
""fullscreenenter"",""0"",""3681""
","
","
","""event"",""trial"",""time""
""fullscreenenter"",""0"",""3681""
","
","null","<p></p>","null","","","","","","","","","","","","","","","","","","","","","","","",""
"","do_trial","140","646053","0.0-79.0-0.0","""event"",""trial"",""time""
""fullscreenenter"",""0"",""3681""
","
","
","""event"",""trial"",""time""
""fullscreenenter"",""0"",""3681""
","
","414.2000000476837","","","","","","","","51","1,1,1","6","blank","290","null","0.0751460890456137","0.38280864900845174","0.5747029601450548","1","","","","","","","","",""
"","html-keyboard-response","141","647058","0.0-79.0-1.0","""event"",""trial"",""time""
""fullscreenenter"",""0"",""3681""
","
","
","""event"",""trial"",""time""
""fullscreenenter"",""0"",""3681""
","
","null","<p></p>","null","","","","","","","","","","","","","","","","","","","","","","","",""
"","do_recog","142","649972","0.0-80.0-0.0","""event"",""trial"",""time""
""fullscreenenter"",""0"",""3681""
","
","
","""event"",""trial"",""time""
""fullscreenenter"",""0"",""3681""
","
","1401.7999999523163","","","","","","","","53","","","","291","probe-153","","","","","1","[object Object]","36","0","1","","","",""
"","html-keyboard-response","143","650977","0.0-80.0-1.0","""event"",""trial"",""time""
""fullscreenenter"",""0"",""3681""
","
","
","""event"",""trial"",""time""
""fullscreenenter"",""0"",""3681""
","
","null","<p></p>","null","","","","","","","","","","","","","","","","","","","","","","","",""
"","do_trial","144","653990","0.0-81.0-0.0","""event"",""trial"",""time""
""fullscreenenter"",""0"",""3681""
","
","
","""event"",""trial"",""time""
""fullscreenenter"",""0"",""3681""
","
","465.10000002384186","","","","","","","","51","0,0,1","6","blank","292","null","0.1720422426903124","0.2290081971516515","0.6506592710294261","1","","","","","","","","",""
"","html-keyboard-response","145","654996","0.0-81.0-1.0","""event"",""trial"",""time""
""fullscreenenter"",""0"",""3681""
","
","
","""event"",""trial"",""time""
""fullscreenenter"",""0"",""3681""
","
","null","<p></p>","null","","","","","","","","","","","","","","","","","","","","","","","",""
"","do_trial","146","657893","0.0-82.0-0.0","""event"",""trial"",""time""
""fullscreenenter"",""0"",""3681""
","
","
","""event"",""trial"",""time""
""fullscreenenter"",""0"",""3681""
","
","341","","","","","","","","51","1,0,1","6","blank","293","null","0.20452078309571975","0.26787763497763417","0.7103192074735816","1","","","","","","","","",""
"","html-keyboard-response","147","658898","0.0-82.0-1.0","""event"",""trial"",""time""
""fullscreenenter"",""0"",""3681""
","
","
","""event"",""trial"",""time""
""fullscreenenter"",""0"",""3681""
","
","null","<p></p>","null","","","","","","","","","","","","","","","","","","","","","","","",""
"","do_recog","148","661964","0.0-83.0-0.0","""event"",""trial"",""time""
""fullscreenenter"",""0"",""3681""
","
","
","""event"",""trial"",""time""
""fullscreenenter"",""0"",""3681""
","
","1557.8000000715256","","","","","","","","53","","","","294","probe-204","","","","","1","[object Object]","113","2","1","","","",""
"","html-keyboard-response","149","662968","0.0-83.0-1.0","""event"",""trial"",""time""
""fullscreenenter"",""0"",""3681""
","
","
","""event"",""trial"",""time""
""fullscreenenter"",""0"",""3681""
","
","null","<p></p>","null","","","","","","","","","","","","","","","","","","","","","","","",""
"","do_trial","150","666008","0.0-84.0-0.0","""event"",""trial"",""time""
""fullscreenenter"",""0"",""3681""
","
","
","""event"",""trial"",""time""
""fullscreenenter"",""0"",""3681""
","
","488.60000002384186","","","","","","","","51","0,0,1","6","blank","295","null","0.1941533929253488","0.3785878670581718","0.6827947538445982","1","","","","","","","","",""
"","html-keyboard-response","151","667013","0.0-84.0-1.0","""event"",""trial"",""time""
""fullscreenenter"",""0"",""3681""
","
","
","""event"",""trial"",""time""
""fullscreenenter"",""0"",""3681""
","
","null","<p></p>","null","","","","","","","","","","","","","","","","","","","","","","","",""
"","do_trial","152","670066","0.0-85.0-0.0","""event"",""trial"",""time""
""fullscreenenter"",""0"",""3681""
","
","
","""event"",""trial"",""time""
""fullscreenenter"",""0"",""3681""
","
","505.7999999523163","","","","","","","","51","0,0,1","6","blank","296","null","0.2253133558499231","0.3817020858118268","0.5936668135779039","1","","","","","","","","",""
"","html-keyboard-response","153","671071","0.0-85.0-1.0","""event"",""trial"",""time""
""fullscreenenter"",""0"",""3681""
","
","
","""event"",""trial"",""time""
""fullscreenenter"",""0"",""3681""
","
","null","<p></p>","null","","","","","","","","","","","","","","","","","","","","","","","",""
"","do_trial","154","674220","0.0-86.0-0.0","""event"",""trial"",""time""
""fullscreenenter"",""0"",""3681""
","
","
","""event"",""trial"",""time""
""fullscreenenter"",""0"",""3681""
","
","598.7999999523163","","","","","","","","51","0,1,1","6","blank","297","null","0.169720646960239","0.5997177322613582","0.32204196858471146","1","","","","","","","","",""
"","html-keyboard-response","155","675226","0.0-86.0-1.0","""event"",""trial"",""time""
""fullscreenenter"",""0"",""3681""
","
","
","""event"",""trial"",""time""
""fullscreenenter"",""0"",""3681""
","
","null","<p></p>","null","","","","","","","","","","","","","","","","","","","","","","","",""
"","do_recog","156","678089","0.0-87.0-0.0","""event"",""trial"",""time""
""fullscreenenter"",""0"",""3681""
","
","
","""event"",""trial"",""time""
""fullscreenenter"",""0"",""3681""
","
","1356","","","","","","","","53","","","","298","probe-218","","","","","1","[object Object]","30","0","1","","","",""
"","html-keyboard-response","157","679091","0.0-87.0-1.0","""event"",""trial"",""time""
""fullscreenenter"",""0"",""3681""
","
","
","""event"",""trial"",""time""
""fullscreenenter"",""0"",""3681""
","
","null","<p></p>","null","","","","","","","","","","","","","","","","","","","","","","","",""
"","do_trial","158","682066","0.0-88.0-0.0","""event"",""trial"",""time""
""fullscreenenter"",""0"",""3681""
","
","
","""event"",""trial"",""time""
""fullscreenenter"",""0"",""3681""
","
","429.6999999284744","","","","","","","","51","0,1,0","6","blank","299","null","0.30281348552014414","0.6880366686491687","0.1756165969723249","0","","","","","","","","",""
"","html-keyboard-response","159","683068","0.0-88.0-1.0","""event"",""trial"",""time""
""fullscreenenter"",""0"",""3681""
","
","
","""event"",""trial"",""time""
""fullscreenenter"",""0"",""3681""
","
","null","<p></p>","null","","","","","","","","","","","","","","","","","","","","","","","",""
"","do_trial","160","686090","0.0-89.0-0.0","""event"",""trial"",""time""
""fullscreenenter"",""0"",""3681""
","
","
","""event"",""trial"",""time""
""fullscreenenter"",""0"",""3681""
","
","469.7999999523163","","","","","","","","51","0,0,0","6","blank","300","null","0.3206843491014812","0.5808795244974734","0.1577100043934159","0","","","","","","","","",""
"","html-keyboard-response","161","687092","0.0-89.0-1.0","""event"",""trial"",""time""
""fullscreenenter"",""0"",""3681""
","
","
","""event"",""trial"",""time""
""fullscreenenter"",""0"",""3681""
","
","null","<p></p>","null","","","","","","","","","","","","","","","","","","","","","","","",""
"","do_trial","162","690029","0.0-90.0-0.0","""event"",""trial"",""time""
""fullscreenenter"",""0"",""3681""
","
","
","""event"",""trial"",""time""
""fullscreenenter"",""0"",""3681""
","
","386.7000000476837","","","","","","","","50","0,0,0","6","blank","301","null","0.31728802638319015","0.698033595231003","0.14905273905189492","0","","","","","","","","",""
"","html-keyboard-response","163","691035","0.0-90.0-1.0","""event"",""trial"",""time""
""fullscreenenter"",""0"",""3681""
","
","
","""event"",""trial"",""time""
""fullscreenenter"",""0"",""3681""
","
","null","<p></p>","null","","","","","","","","","","","","","","","","","","","","","","","",""
"","do_trial","164","693958","0.0-91.0-0.0","""event"",""trial"",""time""
""fullscreenenter"",""0"",""3681""
","
","
","""event"",""trial"",""time""
""fullscreenenter"",""0"",""3681""
","
","371.39999997615814","","","","","","","","50","0,0,0","6","blank","302","null","0.28087920390080745","0.5934373484298765","0.1845965463725223","0","","","","","","","","",""
"","html-keyboard-response","165","694962","0.0-91.0-1.0","""event"",""trial"",""time""
""fullscreenenter"",""0"",""3681""
","
","
","""event"",""trial"",""time""
""fullscreenenter"",""0"",""3681""
","
","null","<p></p>","null","","","","","","","","","","","","","","","","","","","","","","","",""
"","do_recog","166","698087","0.0-92.0-0.0","""event"",""trial"",""time""
""fullscreenenter"",""0"",""3681""
","
","
","""event"",""trial"",""time""
""fullscreenenter"",""0"",""3681""
","
","1613.2999999523163","","","","","","","","55","","","","303","probe-233","","","","","0","[object Object]","null","null","1","","","",""
"","html-keyboard-response","167","699089","0.0-92.0-1.0","""event"",""trial"",""time""
""fullscreenenter"",""0"",""3681""
","
","
","""event"",""trial"",""time""
""fullscreenenter"",""0"",""3681""
","
","null","<p></p>","null","","","","","","","","","","","","","","","","","","","","","","","",""
"","do_trial","168","702004","0.0-93.0-0.0","""event"",""trial"",""time""
""fullscreenenter"",""0"",""3681""
","
","
","""event"",""trial"",""time""
""fullscreenenter"",""0"",""3681""
","
","361.3000000715256","","","","","","","","49","0,0,0","6","blank","304","null","0.3700255877719526","0.6183912822880867","0.196577409391444","0","","","","","","","","",""
"","html-keyboard-response","169","703011","0.0-93.0-1.0","""event"",""trial"",""time""
""fullscreenenter"",""0"",""3681""
","
","
","""event"",""trial"",""time""
""fullscreenenter"",""0"",""3681""
","
","null","<p></p>","null","","","","","","","","","","","","","","","","","","","","","","","",""
"","do_trial","170","705867","0.0-94.0-0.0","""event"",""trial"",""time""
""fullscreenenter"",""0"",""3681""
","
","
","""event"",""trial"",""time""
""fullscreenenter"",""0"",""3681""
","
","302.8000000715256","","","","","","","","49","0,1,0","6","blank","305","null","0.416026928374253","0.643793030653299","0.1190406408105795","0","","","","","","","","",""
"","html-keyboard-response","171","706871","0.0-94.0-1.0","""event"",""trial"",""time""
""fullscreenenter"",""0"",""3681""
","
","
","""event"",""trial"",""time""
""fullscreenenter"",""0"",""3681""
","
","null","<p></p>","null","","","","","","","","","","","","","","","","","","","","","","","",""
"","do_recog","172","710769","0.0-95.0-0.0","""event"",""trial"",""time""
""fullscreenenter"",""0"",""3681""
","
","
","""event"",""trial"",""time""
""fullscreenenter"",""0"",""3681""
","
","2384.7000000476837","","","","","","","","56","","","","306","probe-254","","","","","0","[object Object]","null","null","1","","","",""
"","html-keyboard-response","173","711774","0.0-95.0-1.0","""event"",""trial"",""time""
""fullscreenenter"",""0"",""3681""
","
","
","""event"",""trial"",""time""
""fullscreenenter"",""0"",""3681""
","
","null","<p></p>","null","","","","","","","","","","","","","","","","","","","","","","","",""
"","do_trial","174","714685","0.0-96.0-0.0","""event"",""trial"",""time""
""fullscreenenter"",""0"",""3681""
","
","
","""event"",""trial"",""time""
""fullscreenenter"",""0"",""3681""
","
","357.5","","","","","","","","51","0,0,0","6","blank","307","null","0.47114768473472707","0.6284122204802545","0.29336463912783645","0","","","","","","","","",""
"","html-keyboard-response","175","715689","0.0-96.0-1.0","""event"",""trial"",""time""
""fullscreenenter"",""0"",""3681""
","
","
","""event"",""trial"",""time""
""fullscreenenter"",""0"",""3681""
","
","null","<p></p>","null","","","","","","","","","","","","","","","","","","","","","","","",""
"","do_trial","176","718627","0.0-97.0-0.0","""event"",""trial"",""time""
""fullscreenenter"",""0"",""3681""
","
","
","""event"",""trial"",""time""
""fullscreenenter"",""0"",""3681""
","
","388.1999999284744","","","","","","","","51","0,1,0","6","blank","308","null","0.45570913717523176","0.578593273285526","0.12251456557707281","0","","","","","","","","",""
"","html-keyboard-response","177","719631","0.0-97.0-1.0","""event"",""trial"",""time""
""fullscreenenter"",""0"",""3681""
","
","
","""event"",""trial"",""time""
""fullscreenenter"",""0"",""3681""
","
","null","<p></p>","null","","","","","","","","","","","","","","","","","","","","","","","",""
"","break","178","720586","0.0-98.0-0.0","""event"",""trial"",""time""
""fullscreenenter"",""0"",""3681""
","
","
","""event"",""trial"",""time""
""fullscreenenter"",""0"",""3681""
","
","953.7999999523163","<div class='center'><p>Time to take a quick break! You have 2 minutes to rest, but you can move on sooner if you'd like.</p><p> Press the <b>space bar</b> to continue.</p></div>","32","","","","","","","","","","","","","","","","","","","","","","","",""
"","do_trial","179","723602","0.0-98.0-1.0","""event"",""trial"",""time""
""fullscreenenter"",""0"",""3681""
","
","
","""event"",""trial"",""time""
""fullscreenenter"",""0"",""3681""
","
","468.6999999284744","","","","","","","","49","1,1,0","6","blank","309","null","0.3032297042624448","0.5722902784877766","0.0839445653210526","1","","","","","","","","",""
"","html-keyboard-response","180","724606","0.0-98.0-2.0","""event"",""trial"",""time""
""fullscreenenter"",""0"",""3681""
","
","
","""event"",""trial"",""time""
""fullscreenenter"",""0"",""3681""
","
","null","<p></p>","null","","","","","","","","","","","","","","","","","","","","","","","",""
"","do_trial","181","727497","0.0-99.0-0.0","""event"",""trial"",""time""
""fullscreenenter"",""0"",""3681""
","
","
","""event"",""trial"",""time""
""fullscreenenter"",""0"",""3681""
","
","340","","","","","","","","49","1,1,1","6","blank","310","null","0.38557751753290526","0.47933694467168303","0.2544214416544045","1","","","","","","","","",""
"","html-keyboard-response","182","728501","0.0-99.0-1.0","""event"",""trial"",""time""
""fullscreenenter"",""0"",""3681""
","
","
","""event"",""trial"",""time""
""fullscreenenter"",""0"",""3681""
","
","null","<p></p>","null","","","","","","","","","","","","","","","","","","","","","","","",""
"","do_trial","183","731385","0.0-100.0-0.0","""event"",""trial"",""time""
""fullscreenenter"",""0"",""3681""
","
","
","""event"",""trial"",""time""
""fullscreenenter"",""0"",""3681""
","
","338.8000000715256","","","","","","","","49","0,0,0","6","blank","311","null","0.4503042911989279","0.5530182715438131","0.12200056555557925","0","","","","","","","","",""
"","html-keyboard-response","184","732389","0.0-100.0-1.0","""event"",""trial"",""time""
""fullscreenenter"",""0"",""3681""
","
","
","""event"",""trial"",""time""
""fullscreenenter"",""0"",""3681""
","
","null","<p></p>","null","","","","","","","","","","","","","","","","","","","","","","","",""
"","do_recog","185","735190","0.0-101.0-0.0","""event"",""trial"",""time""
""fullscreenenter"",""0"",""3681""
","
","
","""event"",""trial"",""time""
""fullscreenenter"",""0"",""3681""
","
","1288","","","","","","","","53","","","","312","probe-209","","","","","1","[object Object]","196","4","1","","","",""
"","html-keyboard-response","186","736195","0.0-101.0-1.0","""event"",""trial"",""time""
""fullscreenenter"",""0"",""3681""
","
","
","""event"",""trial"",""time""
""fullscreenenter"",""0"",""3681""
","
","null","<p></p>","null","","","","","","","","","","","","","","","","","","","","","","","",""
"","do_trial","187","739191","0.0-102.0-0.0","""event"",""trial"",""time""
""fullscreenenter"",""0"",""3681""
","
","
","""event"",""trial"",""time""
""fullscreenenter"",""0"",""3681""
","
","444.8000000715256","","","","","","","","49","0,0,0","6","blank","313","null","0.3428385866181746","0.393870506548397","0.2402685680968778","0","","","","","","","","",""
"","html-keyboard-response","188","740196","0.0-102.0-1.0","""event"",""trial"",""time""
""fullscreenenter"",""0"",""3681""
","
","
","""event"",""trial"",""time""
""fullscreenenter"",""0"",""3681""
","
","null","<p></p>","null","","","","","","","","","","","","","","","","","","","","","","","",""
"","do_recog","189","743497","0.0-103.0-0.0","""event"",""trial"",""time""
""fullscreenenter"",""0"",""3681""
","
","
","""event"",""trial"",""time""
""fullscreenenter"",""0"",""3681""
","
","1788.3999999761581","","","","","","","","56","","","","314","probe-255","","","","","0","[object Object]","null","null","1","","","",""
"","html-keyboard-response","190","744502","0.0-103.0-1.0","""event"",""trial"",""time""
""fullscreenenter"",""0"",""3681""
","
","
","""event"",""trial"",""time""
""fullscreenenter"",""0"",""3681""
","
","null","<p></p>","null","","","","","","","","","","","","","","","","","","","","","","","",""
"","do_trial","191","747366","0.0-104.0-0.0","""event"",""trial"",""time""
""fullscreenenter"",""0"",""3681""
","
","
","""event"",""trial"",""time""
""fullscreenenter"",""0"",""3681""
","
","310.59999990463257","","","","","","","","49","0,0,1","6","blank","315","null","0.29308629016414484","0.5446889190292541","0.12431671776813452","0","","","","","","","","",""
"","html-keyboard-response","192","748370","0.0-104.0-1.0","""event"",""trial"",""time""
""fullscreenenter"",""0"",""3681""
","
","
","""event"",""trial"",""time""
""fullscreenenter"",""0"",""3681""
","
","null","<p></p>","null","","","","","","","","","","","","","","","","","","","","","","","",""
"","do_trial","193","751357","0.0-105.0-0.0","""event"",""trial"",""time""
""fullscreenenter"",""0"",""3681""
","
","
","""event"",""trial"",""time""
""fullscreenenter"",""0"",""3681""
","
","439.40000009536743","","","","","","","","51","0,0,0","6","blank","316","null","0.23830194913282754","0.42737095710447776","0.13873746261489053","0","","","","","","","","",""
"","html-keyboard-response","194","752362","0.0-105.0-1.0","""event"",""trial"",""time""
""fullscreenenter"",""0"",""3681""
","
","
","""event"",""trial"",""time""
""fullscreenenter"",""0"",""3681""
","
","null","<p></p>","null","","","","","","","","","","","","","","","","","","","","","","","",""
"","do_trial","195","755379","0.0-106.0-0.0","""event"",""trial"",""time""
""fullscreenenter"",""0"",""3681""
","
","
","""event"",""trial"",""time""
""fullscreenenter"",""0"",""3681""
","
","469.2999999523163","","","","","","","","51","0,1,1","6","blank","317","null","0.30022131054282736","0.611230669255961","0.24316751609748125","1","","","","","","","","",""
"","html-keyboard-response","196","756384","0.0-106.0-1.0","""event"",""trial"",""time""
""fullscreenenter"",""0"",""3681""
","
","
","""event"",""trial"",""time""
""fullscreenenter"",""0"",""3681""
","
","null","<p></p>","null","","","","","","","","","","","","","","","","","","","","","","","",""
"","do_trial","197","759324","0.0-107.0-0.0","""event"",""trial"",""time""
""fullscreenenter"",""0"",""3681""
","
","
","""event"",""trial"",""time""
""fullscreenenter"",""0"",""3681""
","
","390.10000002384186","","","","","","","","51","0,1,0","6","blank","318","null","0.286435399103269","0.5361064072082456","0.05760132609719344","0","","","","","","","","",""
"","html-keyboard-response","198","760330","0.0-107.0-1.0","""event"",""trial"",""time""
""fullscreenenter"",""0"",""3681""
","
","
","""event"",""trial"",""time""
""fullscreenenter"",""0"",""3681""
","
","null","<p></p>","null","","","","","","","","","","","","","","","","","","","","","","","",""
"","do_trial","199","763413","0.0-108.0-0.0","""event"",""trial"",""time""
""fullscreenenter"",""0"",""3681""
","
","
","""event"",""trial"",""time""
""fullscreenenter"",""0"",""3681""
","
","538.1000000238419","","","","","","","","51","0,0,0","6","blank","319","null","0.27095949398762326","0.37996588054351393","0.0854293770341418","0","","","","","","","","",""
"","html-keyboard-response","200","764418","0.0-108.0-1.0","""event"",""trial"",""time""
""fullscreenenter"",""0"",""3681""
","
","
","""event"",""trial"",""time""
""fullscreenenter"",""0"",""3681""
","
","null","<p></p>","null","","","","","","","","","","","","","","","","","","","","","","","",""
"","do_trial","201","767335","0.0-109.0-0.0","""event"",""trial"",""time""
""fullscreenenter"",""0"",""3681""
","
","
","""event"",""trial"",""time""
""fullscreenenter"",""0"",""3681""
","
","363.39999997615814","","","","","","","","50","0,1,1","6","blank","320","null","0.2727629491505836","0.4890728569299879","0.08458257539329525","1","","","","","","","","",""
"","html-keyboard-response","202","768339","0.0-109.0-1.0","""event"",""trial"",""time""
""fullscreenenter"",""0"",""3681""
","
","
","""event"",""trial"",""time""
""fullscreenenter"",""0"",""3681""
","
","null","<p></p>","null","","","","","","","","","","","","","","","","","","","","","","","",""
"","do_recog","203","771536","0.0-110.0-0.0","""event"",""trial"",""time""
""fullscreenenter"",""0"",""3681""
","
","
","""event"",""trial"",""time""
""fullscreenenter"",""0"",""3681""
","
","1688.2000000476837","","","","","","","","53","","","","321","probe-97","","","","","1","[object Object]","153","3","1","","","",""
"","html-keyboard-response","204","772540","0.0-110.0-1.0","""event"",""trial"",""time""
""fullscreenenter"",""0"",""3681""
","
","
","""event"",""trial"",""time""
""fullscreenenter"",""0"",""3681""
","
","null","<p></p>","null","","","","","","","","","","","","","","","","","","","","","","","",""
"","do_trial","205","775500","0.0-111.0-0.0","""event"",""trial"",""time""
""fullscreenenter"",""0"",""3681""
","
","
","""event"",""trial"",""time""
""fullscreenenter"",""0"",""3681""
","
","411.89999997615814","","","","","","","","50","0,1,0","6","blank","322","null","0.26310720935904874","0.4866025430203149","0.22740901373884334","1","","","","","","","","",""
"","html-keyboard-response","206","776505","0.0-111.0-1.0","""event"",""trial"",""time""
""fullscreenenter"",""0"",""3681""
","
","
","""event"",""trial"",""time""
""fullscreenenter"",""0"",""3681""
","
","null","<p></p>","null","","","","","","","","","","","","","","","","","","","","","","","",""
"","do_trial","207","779399","0.0-112.0-0.0","""event"",""trial"",""time""
""fullscreenenter"",""0"",""3681""
","
","
","""event"",""trial"",""time""
""fullscreenenter"",""0"",""3681""
","
","344.89999997615814","","","","","","","","50","0,1,0","6","blank","323","null","0.17838012626448882","0.5345484428789674","0.06924452680640654","1","","","","","","","","",""
"","html-keyboard-response","208","780403","0.0-112.0-1.0","""event"",""trial"",""time""
""fullscreenenter"",""0"",""3681""
","
","
","""event"",""trial"",""time""
""fullscreenenter"",""0"",""3681""
","
","null","<p></p>","null","","","","","","","","","","","","","","","","","","","","","","","",""
"","do_trial","209","783345","0.0-113.0-0.0","""event"",""trial"",""time""
""fullscreenenter"",""0"",""3681""
","
","
","""event"",""trial"",""time""
""fullscreenenter"",""0"",""3681""
","
","392.5","","","","","","","","50","0,0,0","6","blank","324","null","0.23110664448982587","0.508802121106836","0.08662770820586183","0","","","","","","","","",""
"","html-keyboard-response","210","784350","0.0-113.0-1.0","""event"",""trial"",""time""
""fullscreenenter"",""0"",""3681""
","
","
","""event"",""trial"",""time""
""fullscreenenter"",""0"",""3681""
","
","null","<p></p>","null","","","","","","","","","","","","","","","","","","","","","","","",""
"","do_trial","211","787253","0.0-114.0-0.0","""event"",""trial"",""time""
""fullscreenenter"",""0"",""3681""
","
","
","""event"",""trial"",""time""
""fullscreenenter"",""0"",""3681""
","
","348.5","","","","","","","","50","0,1,0","6","blank","325","null","0.2139314132651883","0.5628102349204799","0.2119768579461759","1","","","","","","","","",""
"","html-keyboard-response","212","788256","0.0-114.0-1.0","""event"",""trial"",""time""
""fullscreenenter"",""0"",""3681""
","
","
","""event"",""trial"",""time""
""fullscreenenter"",""0"",""3681""
","
","null","<p></p>","null","","","","","","","","","","","","","","","","","","","","","","","",""
"","do_trial","213","791293","0.0-115.0-0.0","""event"",""trial"",""time""
""fullscreenenter"",""0"",""3681""
","
","
","""event"",""trial"",""time""
""fullscreenenter"",""0"",""3681""
","
","487.89999997615814","","","","","","","","50","0,1,0","6","blank","326","null","0.053862068380835806","0.7394747507961337","0.1948574462124555","1","","","","","","","","",""
"","html-keyboard-response","214","792298","0.0-115.0-1.0","""event"",""trial"",""time""
""fullscreenenter"",""0"",""3681""
","
","
","""event"",""trial"",""time""
""fullscreenenter"",""0"",""3681""
","
","null","<p></p>","null","","","","","","","","","","","","","","","","","","","","","","","",""
"","do_recog","215","795009","0.0-116.0-0.0","""event"",""trial"",""time""
""fullscreenenter"",""0"",""3681""
","
","
","""event"",""trial"",""time""
""fullscreenenter"",""0"",""3681""
","
","1198.2999999523163","","","","","","","","53","","","","327","probe-107","","","","","1","[object Object]","193","4","1","","","",""
"","html-keyboard-response","216","796012","0.0-116.0-1.0","""event"",""trial"",""time""
""fullscreenenter"",""0"",""3681""
","
","
","""event"",""trial"",""time""
""fullscreenenter"",""0"",""3681""
","
","null","<p></p>","null","","","","","","","","","","","","","","","","","","","","","","","",""
"","do_trial","217","799174","0.0-117.0-0.0","""event"",""trial"",""time""
""fullscreenenter"",""0"",""3681""
","
","
","""event"",""trial"",""time""
""fullscreenenter"",""0"",""3681""
","
","612.7999999523163","","","","","","","","50","1,0,0","6","blank","328","null","0.15542036170259654","0.6419196768054719","0.05871065586179755","0","","","","","","","","",""
"","html-keyboard-response","218","800179","0.0-117.0-1.0","""event"",""trial"",""time""
""fullscreenenter"",""0"",""3681""
","
","
","""event"",""trial"",""time""
""fullscreenenter"",""0"",""3681""
","
","null","<p></p>","null","","","","","","","","","","","","","","","","","","","","","","","",""
"","do_recog","219","802970","0.0-118.0-0.0","""event"",""trial"",""time""
""fullscreenenter"",""0"",""3681""
","
","
","""event"",""trial"",""time""
""fullscreenenter"",""0"",""3681""
","
","1278.1000000238419","","","","","","","","53","","","","329","probe-148","","","","","1","[object Object]","154","3","1","","","",""
"","html-keyboard-response","220","803975","0.0-118.0-1.0","""event"",""trial"",""time""
""fullscreenenter"",""0"",""3681""
","
","
","""event"",""trial"",""time""
""fullscreenenter"",""0"",""3681""
","
","null","<p></p>","null","","","","","","","","","","","","","","","","","","","","","","","",""
"","do_trial","221","806969","0.0-119.0-0.0","""event"",""trial"",""time""
""fullscreenenter"",""0"",""3681""
","
","
","""event"",""trial"",""time""
""fullscreenenter"",""0"",""3681""
","
","444.8000000715256","","","","","","","","50","0,0,1","6","blank","330","null","0.27062385946142337","0.5851596864152065","0.1311075725694545","0","","","","","","","","",""
"","html-keyboard-response","222","807974","0.0-119.0-1.0","""event"",""trial"",""time""
""fullscreenenter"",""0"",""3681""
","
","
","""event"",""trial"",""time""
""fullscreenenter"",""0"",""3681""
","
","null","<p></p>","null","","","","","","","","","","","","","","","","","","","","","","","",""
"","do_trial","223","811199","0.0-120.0-0.0","""event"",""trial"",""time""
""fullscreenenter"",""0"",""3681""
","
","
","""event"",""trial"",""time""
""fullscreenenter"",""0"",""3681""
","
","679.6000000238419","","","","","","","","51","0,0,0","6","blank","331","null","0.32249361710710284","0.494392049607949","0.10833766562912256","0","","","","","","","","",""
"","html-keyboard-response","224","812204","0.0-120.0-1.0","""event"",""trial"",""time""
""fullscreenenter"",""0"",""3681""
","
","
","""event"",""trial"",""time""
""fullscreenenter"",""0"",""3681""
","
","null","<p></p>","null","","","","","","","","","","","","","","","","","","","","","","","",""
"","do_trial","225","815157","0.0-121.0-0.0","""event"",""trial"",""time""
""fullscreenenter"",""0"",""3681""
","
","
","""event"",""trial"",""time""
""fullscreenenter"",""0"",""3681""
","
","399.1999999284744","","","","","","","","51","0,1,0","6","blank","332","null","0.3721595840443176","0.6000510516690022","0.07711318323956473","0","","","","","","","","",""
"","html-keyboard-response","226","816163","0.0-121.0-1.0","""event"",""trial"",""time""
""fullscreenenter"",""0"",""3681""
","
","
","""event"",""trial"",""time""
""fullscreenenter"",""0"",""3681""
","
","null","<p></p>","null","","","","","","","","","","","","","","","","","","","","","","","",""
"","do_trial","227","819002","0.0-122.0-0.0","""event"",""trial"",""time""
""fullscreenenter"",""0"",""3681""
","
","
","""event"",""trial"",""time""
""fullscreenenter"",""0"",""3681""
","
","289.7999999523163","","","","","","","","49","0,1,0","6","blank","333","null","0.34037141701004","0.6261819575296234","0.19102814410922433","0","","","","","","","","",""
"","html-keyboard-response","228","820007","0.0-122.0-1.0","""event"",""trial"",""time""
""fullscreenenter"",""0"",""3681""
","
","
","""event"",""trial"",""time""
""fullscreenenter"",""0"",""3681""
","
","null","<p></p>","null","","","","","","","","","","","","","","","","","","","","","","","",""
"","do_trial","229","822867","0.0-123.0-0.0","""event"",""trial"",""time""
""fullscreenenter"",""0"",""3681""
","
","
","""event"",""trial"",""time""
""fullscreenenter"",""0"",""3681""
","
","307.89999997615814","","","","","","","","49","0,1,1","6","blank","334","null","0.2984882454754512","0.6260941110712387","0.07567846987763577","0","","","","","","","","",""
"","html-keyboard-response","230","823871","0.0-123.0-1.0","""event"",""trial"",""time""
""fullscreenenter"",""0"",""3681""
","
","
","""event"",""trial"",""time""
""fullscreenenter"",""0"",""3681""
","
","null","<p></p>","null","","","","","","","","","","","","","","","","","","","","","","","",""
"","do_recog","231","826882","0.0-124.0-0.0","""event"",""trial"",""time""
""fullscreenenter"",""0"",""3681""
","
","
","""event"",""trial"",""time""
""fullscreenenter"",""0"",""3681""
","
","1502.1000000238419","","","","","","","","53","","","","335","probe-77","","","","","1","[object Object]","35","0","1","","","",""
"","html-keyboard-response","232","827886","0.0-124.0-1.0","""event"",""trial"",""time""
""fullscreenenter"",""0"",""3681""
","
","
","""event"",""trial"",""time""
""fullscreenenter"",""0"",""3681""
","
","null","<p></p>","null","","","","","","","","","","","","","","","","","","","","","","","",""
"","do_trial","233","830777","0.0-125.0-0.0","""event"",""trial"",""time""
""fullscreenenter"",""0"",""3681""
","
","
","""event"",""trial"",""time""
""fullscreenenter"",""0"",""3681""
","
","333.2999999523163","","","","","","","","50","0,1,0","6","blank","336","null","0.3730471499459198","0.4887954014918113","0.13249898103242494","1","","","","","","","","",""
"","html-keyboard-response","234","831783","0.0-125.0-1.0","""event"",""trial"",""time""
""fullscreenenter"",""0"",""3681""
","
","
","""event"",""trial"",""time""
""fullscreenenter"",""0"",""3681""
","
","null","<p></p>","null","","","","","","","","","","","","","","","","","","","","","","","",""
"","do_recog","235","834563","0.0-126.0-0.0","""event"",""trial"",""time""
""fullscreenenter"",""0"",""3681""
","
","
","""event"",""trial"",""time""
""fullscreenenter"",""0"",""3681""
","
","1270.6000000238419","","","","","","","","53","","","","337","probe-60","","","","","1","[object Object]","110","2","1","","","",""
"","html-keyboard-response","236","835567","0.0-126.0-1.0","""event"",""trial"",""time""
""fullscreenenter"",""0"",""3681""
","
","
","""event"",""trial"",""time""
""fullscreenenter"",""0"",""3681""
","
","null","<p></p>","null","","","","","","","","","","","","","","","","","","","","","","","",""
"","do_trial","237","838464","0.0-127.0-0.0","""event"",""trial"",""time""
""fullscreenenter"",""0"",""3681""
","
","
","""event"",""trial"",""time""
""fullscreenenter"",""0"",""3681""
","
","350.7999999523163","","","","","","","","50","1,0,1","6","blank","338","null","0.2763806440348585","0.6539846789159179","0.0778653956143187","0","","","","","","","","",""
"","html-keyboard-response","238","839469","0.0-127.0-1.0","""event"",""trial"",""time""
""fullscreenenter"",""0"",""3681""
","
","
","""event"",""trial"",""time""
""fullscreenenter"",""0"",""3681""
","
","null","<p></p>","null","","","","","","","","","","","","","","","","","","","","","","","",""
"","do_trial","239","842334","0.0-128.0-0.0","""event"",""trial"",""time""
""fullscreenenter"",""0"",""3681""
","
","
","""event"",""trial"",""time""
""fullscreenenter"",""0"",""3681""
","
","313.10000002384186","","","","","","","","50","0,0,0","6","blank","339","null","0.2639609482904209","0.6051221328143265","0.06027385985100818","0","","","","","","","","",""
"","html-keyboard-response","240","843339","0.0-128.0-1.0","""event"",""trial"",""time""
""fullscreenenter"",""0"",""3681""
","
","
","""event"",""trial"",""time""
""fullscreenenter"",""0"",""3681""
","
","null","<p></p>","null","","","","","","","","","","","","","","","","","","","","","","","",""
"","do_trial","241","846322","0.0-129.0-0.0","""event"",""trial"",""time""
""fullscreenenter"",""0"",""3681""
","
","
","""event"",""trial"",""time""
""fullscreenenter"",""0"",""3681""
","
","433","","","","","","","","51","0,1,0","6","blank","340","null","0.25124851515092955","0.6193944208227915","0.11336844956543612","0","","","","","","","","",""
"","html-keyboard-response","242","847327","0.0-129.0-1.0","""event"",""trial"",""time""
""fullscreenenter"",""0"",""3681""
","
","
","""event"",""trial"",""time""
""fullscreenenter"",""0"",""3681""
","
","null","<p></p>","null","","","","","","","","","","","","","","","","","","","","","","","",""
"","do_trial","243","850209","0.0-130.0-0.0","""event"",""trial"",""time""
""fullscreenenter"",""0"",""3681""
","
","
","""event"",""trial"",""time""
""fullscreenenter"",""0"",""3681""
","
","328.39999997615814","","","","","","","","51","0,0,1","6","blank","341","null","0.37623621767921495","0.5791453053016291","0.22012217308667453","1","","","","","","","","",""
"","html-keyboard-response","244","851212","0.0-130.0-1.0","""event"",""trial"",""time""
""fullscreenenter"",""0"",""3681""
","
","
","""event"",""trial"",""time""
""fullscreenenter"",""0"",""3681""
","
","null","<p></p>","null","","","","","","","","","","","","","","","","","","","","","","","",""
"","do_trial","245","854094","0.0-131.0-0.0","""event"",""trial"",""time""
""fullscreenenter"",""0"",""3681""
","
","
","""event"",""trial"",""time""
""fullscreenenter"",""0"",""3681""
","
","334.2000000476837","","","","","","","","51","0,1,0","6","blank","342","null","0.4950801001592112","0.5650114163310669","0.27019797599193257","0","","","","","","","","",""
"","html-keyboard-response","246","855096","0.0-131.0-1.0","""event"",""trial"",""time""
""fullscreenenter"",""0"",""3681""
","
","
","""event"",""trial"",""time""
""fullscreenenter"",""0"",""3681""
","
","null","<p></p>","null","","","","","","","","","","","","","","","","","","","","","","","",""
"","do_recog","247","858158","0.0-132.0-0.0","""event"",""trial"",""time""
""fullscreenenter"",""0"",""3681""
","
","
","""event"",""trial"",""time""
""fullscreenenter"",""0"",""3681""
","
","1552.6999999284744","","","","","","","","56","","","","343","probe-241","","","","","0","[object Object]","null","null","1","","","",""
"","html-keyboard-response","248","859163","0.0-132.0-1.0","""event"",""trial"",""time""
""fullscreenenter"",""0"",""3681""
","
","
","""event"",""trial"",""time""
""fullscreenenter"",""0"",""3681""
","
","null","<p></p>","null","","","","","","","","","","","","","","","","","","","","","","","",""
"","do_trial","249","862078","0.0-133.0-0.0","""event"",""trial"",""time""
""fullscreenenter"",""0"",""3681""
","
","
","""event"",""trial"",""time""
""fullscreenenter"",""0"",""3681""
","
","363.09999990463257","","","","","","","","51","0,0,1","6","blank","344","null","0.3093423131911757","0.6889222079427773","0.1787674396287502","1","","","","","","","","",""
"","html-keyboard-response","250","863085","0.0-133.0-1.0","""event"",""trial"",""time""
""fullscreenenter"",""0"",""3681""
","
","
","""event"",""trial"",""time""
""fullscreenenter"",""0"",""3681""
","
","null","<p></p>","null","","","","","","","","","","","","","","","","","","","","","","","",""
"","do_recog","251","866063","0.0-134.0-0.0","""event"",""trial"",""time""
""fullscreenenter"",""0"",""3681""
","
","
","""event"",""trial"",""time""
""fullscreenenter"",""0"",""3681""
","
","1468.8000000715256","","","","","","","","53","","","","345","probe-184","","","","","1","[object Object]","117","2","1","","","",""
"","html-keyboard-response","252","867068","0.0-134.0-1.0","""event"",""trial"",""time""
""fullscreenenter"",""0"",""3681""
","
","
","""event"",""trial"",""time""
""fullscreenenter"",""0"",""3681""
","
","null","<p></p>","null","","","","","","","","","","","","","","","","","","","","","","","",""
"","do_trial","253","869974","0.0-135.0-0.0","""event"",""trial"",""time""
""fullscreenenter"",""0"",""3681""
","
","
","""event"",""trial"",""time""
""fullscreenenter"",""0"",""3681""
","
","351.7999999523163","","","","","","","","51","0,1,0","6","blank","346","null","0.18012342474971496","0.6773075919853634","0.06988106317482934","0","","","","","","","","",""
"","html-keyboard-response","254","870979","0.0-135.0-1.0","""event"",""trial"",""time""
""fullscreenenter"",""0"",""3681""
","
","
","""event"",""trial"",""time""
""fullscreenenter"",""0"",""3681""
","
","null","<p></p>","null","","","","","","","","","","","","","","","","","","","","","","","",""
"","do_trial","255","873825","0.0-136.0-0.0","""event"",""trial"",""time""
""fullscreenenter"",""0"",""3681""
","
","
","""event"",""trial"",""time""
""fullscreenenter"",""0"",""3681""
","
","303.2999999523163","","","","","","","","51","0,1,0","6","blank","347","null","0.32328895875467323","0.6883666907875976","0.07492544147095388","0","","","","","","","","",""
"","html-keyboard-response","256","874827","0.0-136.0-1.0","""event"",""trial"",""time""
""fullscreenenter"",""0"",""3681""
","
","
","""event"",""trial"",""time""
""fullscreenenter"",""0"",""3681""
","
","null","<p></p>","null","","","","","","","","","","","","","","","","","","","","","","","",""
"","do_trial","257","877806","0.0-137.0-0.0","""event"",""trial"",""time""
""fullscreenenter"",""0"",""3681""
","
","
","""event"",""trial"",""time""
""fullscreenenter"",""0"",""3681""
","
","423.89999997615814","","","","","","","","49","0,1,0","6","blank","348","null","0.33418622168295864","0.6142202227380184","0.11366902987635552","0","","","","","","","","",""
"","html-keyboard-response","258","878810","0.0-137.0-1.0","""event"",""trial"",""time""
""fullscreenenter"",""0"",""3681""
","
","
","""event"",""trial"",""time""
""fullscreenenter"",""0"",""3681""
","
","null","<p></p>","null","","","","","","","","","","","","","","","","","","","","","","","",""
"","break","259","879613","0.0-138.0-0.0","""event"",""trial"",""time""
""fullscreenenter"",""0"",""3681""
","
","
","""event"",""trial"",""time""
""fullscreenenter"",""0"",""3681""
","
","801.2000000476837","<div class='center'><p>Time to take a quick break! You have 2 minutes to rest, but you can move on sooner if you'd like.</p><p> Press the <b>space bar</b> to continue.</p></div>","32","","","","","","","","","","","","","","","","","","","","","","","",""
"","do_trial","260","882595","0.0-138.0-1.0","""event"",""trial"",""time""
""fullscreenenter"",""0"",""3681""
","
","
","""event"",""trial"",""time""
""fullscreenenter"",""0"",""3681""
","
","432.2999999523163","","","","","","","","49","0,0,0","6","blank","349","null","0.45892822544106554","0.48220853355364623","0.061423588366090486","0","","","","","","","","",""
"","html-keyboard-response","261","883601","0.0-138.0-2.0","""event"",""trial"",""time""
""fullscreenenter"",""0"",""3681""
","
","
","""event"",""trial"",""time""
""fullscreenenter"",""0"",""3681""
","
","null","<p></p>","null","","","","","","","","","","","","","","","","","","","","","","","",""
"","do_trial","262","886414","0.0-139.0-0.0","""event"",""trial"",""time""
""fullscreenenter"",""0"",""3681""
","
","
","""event"",""trial"",""time""
""fullscreenenter"",""0"",""3681""
","
","262.7000000476837","","","","","","","","49","0,1,0","6","blank","350","null","0.4849777139686625","0.4109179081632622","0.09670354752918342","0","","","","","","","","",""
"","html-keyboard-response","263","887418","0.0-139.0-1.0","""event"",""trial"",""time""
""fullscreenenter"",""0"",""3681""
","
","
","""event"",""trial"",""time""
""fullscreenenter"",""0"",""3681""
","
","null","<p></p>","null","","","","","","","","","","","","","","","","","","","","","","","",""
"","do_trial","264","890251","0.0-140.0-0.0","""event"",""trial"",""time""
""fullscreenenter"",""0"",""3681""
","
","
","""event"",""trial"",""time""
""fullscreenenter"",""0"",""3681""
","
","285.6999999284744","","","","","","","","50","1,0,0","6","blank","351","null","0.5350495638796117","0.38987717120045723","0.06113205454273606","0","","","","","","","","",""
"","html-keyboard-response","265","891256","0.0-140.0-1.0","""event"",""trial"",""time""
""fullscreenenter"",""0"",""3681""
","
","
","""event"",""trial"",""time""
""fullscreenenter"",""0"",""3681""
","
","null","<p></p>","null","","","","","","","","","","","","","","","","","","","","","","","",""
"","do_recog","266","894256","0.0-141.0-0.0","""event"",""trial"",""time""
""fullscreenenter"",""0"",""3681""
","
","
","""event"",""trial"",""time""
""fullscreenenter"",""0"",""3681""
","
","1487.1999999284744","","","","","","","","53","","","","352","probe-104","","","","","1","[object Object]","192","4","1","","","",""
"","html-keyboard-response","267","895260","0.0-141.0-1.0","""event"",""trial"",""time""
""fullscreenenter"",""0"",""3681""
","
","
","""event"",""trial"",""time""
""fullscreenenter"",""0"",""3681""
","
","null","<p></p>","null","","","","","","","","","","","","","","","","","","","","","","","",""
"","do_trial","268","898168","0.0-142.0-0.0","""event"",""trial"",""time""
""fullscreenenter"",""0"",""3681""
","
","
","""event"",""trial"",""time""
""fullscreenenter"",""0"",""3681""
","
","358.5","","","","","","","","50","1,1,0","6","blank","353","null","0.6736416857245742","0.4264006034807462","0.12574889914997509","1","","","","","","","","",""
"","html-keyboard-response","269","899175","0.0-142.0-1.0","""event"",""trial"",""time""
""fullscreenenter"",""0"",""3681""
","
","
","""event"",""trial"",""time""
""fullscreenenter"",""0"",""3681""
","
","null","<p></p>","null","","","","","","","","","","","","","","","","","","","","","","","",""
"","do_trial","270","902087","0.0-143.0-0.0","""event"",""trial"",""time""
""fullscreenenter"",""0"",""3681""
","
","
","""event"",""trial"",""time""
""fullscreenenter"",""0"",""3681""
","
","359.7999999523163","","","","","","","","50","1,0,0","6","blank","354","null","0.586355896376478","0.33876381282306867","0.13988780243132687","0","","","","","","","","",""
"","html-keyboard-response","271","903091","0.0-143.0-1.0","""event"",""trial"",""time""
""fullscreenenter"",""0"",""3681""
","
","
","""event"",""trial"",""time""
""fullscreenenter"",""0"",""3681""
","
","null","<p></p>","null","","","","","","","","","","","","","","","","","","","","","","","",""
"","do_recog","272","905771","0.0-144.0-0.0","""event"",""trial"",""time""
""fullscreenenter"",""0"",""3681""
","
","
","""event"",""trial"",""time""
""fullscreenenter"",""0"",""3681""
","
","1166.2999999523163","","","","","","","","53","","","","355","probe-179","","","","","1","[object Object]","156","3","1","","","",""
"","html-keyboard-response","273","906773","0.0-144.0-1.0","""event"",""trial"",""time""
""fullscreenenter"",""0"",""3681""
","
","
","""event"",""trial"",""time""
""fullscreenenter"",""0"",""3681""
","
","null","<p></p>","null","","","","","","","","","","","","","","","","","","","","","","","",""
"","do_trial","274","909625","0.0-145.0-0.0","""event"",""trial"",""time""
""fullscreenenter"",""0"",""3681""
","
","
","""event"",""trial"",""time""
""fullscreenenter"",""0"",""3681""
","
","298.6999999284744","","","","","","","","50","1,1,0","6","blank","356","null","0.5762091790044499","0.30705743160693383","0.09754478928777563","1","","","","","","","","",""
"","html-keyboard-response","275","910630","0.0-145.0-1.0","""event"",""trial"",""time""
""fullscreenenter"",""0"",""3681""
","
","
","""event"",""trial"",""time""
""fullscreenenter"",""0"",""3681""
","
","null","<p></p>","null","","","","","","","","","","","","","","","","","","","","","","","",""
"","do_recog","276","913587","0.0-146.0-0.0","""event"",""trial"",""time""
""fullscreenenter"",""0"",""3681""
","
","
","""event"",""trial"",""time""
""fullscreenenter"",""0"",""3681""
","
","1447.1000000238419","","","","","","","","56","","","","357","probe-232","","","","","0","[object Object]","null","null","1","","","",""
"","html-keyboard-response","277","914592","0.0-146.0-1.0","""event"",""trial"",""time""
""fullscreenenter"",""0"",""3681""
","
","
","""event"",""trial"",""time""
