success,trial_type,trial_index,time_elapsed,internal_node_id,rt,stimulus,subject_id,key_press,response,choice_outcomes,context_n,context_img_id,trial_n,probe_img_id,pR_red,pR_white,pR_black,outcome,is_valid,image_to_show,probed_trial,probed_context,correct,context_id
TRUE,fullscreen,0,3498,0.0-0.0,,,,,,,,,,,,,,,,,,,,
,pavlovia,1,3502,0.0-1.0,,,,,,,,,,,,,,,,,,,,
,html-keyboard-response,2,21804,0.0-2.0,18298.8,"<div class='center'><p>Like yesterday,as the head captain of the ship, you have one important things to do: </p><b><p> Pick the pirate who you think will be most successful at robbing the next ship.</p></b><p>This is important in determining how much bonus money you’ll win.</p><br><p>The game will start by showing you the pirates. First pick a pirate using the <b> 1, 2, 3 </b> buttons on your keyboard. </p><p> Press <b>'1'</b> to choose red beard, <b>'2'</b> to choose white beard, and <b>'3'</b> to choose black beard</p><p> You only have 3 seconds to pick a pirate, so please make a choice quickly! If you are too slow, you’ll have to wait a bit during the time out.</p><p> Don’t feel rushed, but please do try to make a choice every time.</p><p>How good a pirate is at robbing a ship will change depending on the place they are in and how good the defenses are of the ship.</p><p><b>[Press the space bar to begin the practice game]</b></p></div>",610879c499bf4c12a478adb9,32,,,,,,,,,,,,,,,,
,html-keyboard-response,3,31792,0.0-3.0,9987.4,"<div class='center'><p>You’ve arrived at the final island of your journey! Unfortunately, it’s very foggy out, so you won’t be able to see it in the distance like the previous islands you've visited.</p><p>You’ll still be deciding which pirate you want to rob a ship like before. However, because of the fog, you also won’t be able to see the ship.</p><p>This means you do not have to remember the ships you rob on this island.</p><p><b>[Press the space bar to continue]</b></p></div>",,32,,,,,,,,,,,,,,,,
,html-keyboard-response,4,39577,0.0-4.0,7784.4,"<div class='center'><p> Sometimes you’ll be shown a ship, and you will be asked if you saw this ship on a past island.</p><p> Here is an example of what you will see.</p><p><b>[Press the space bar to continue]</b></p><p><img src='run_exp/static/images/tutorial/example_recog_trial.png' height='500'></p></div>",,32,,,,,,,,,,,,,,,,
,html-keyboard-response,5,45830,0.0-5.0,6252.4,"<div class='center'><p> You will press the 5, 6, 7, 8 buttons on your keyboard to respond.</p><p>If you are very sure saw the ship, press <b>5</b> on your keyboard.</p><p> If you think you  saw it before but are not sure, then press <b>6</b>.</p><p> If you think you have not seen it before but are not sure, then press <b>7</b>.</p><p> If you are sure you did not see the ship before, then press <b>8</b>.</p><p><b>[Press the space bar to continue]</b></p><p><img src='run_exp/static/images/tutorial/example_recog_trial.png' height='500'></p></div>",,32,,,,,,,,,,,,,,,,
,html-keyboard-response,6,54309,0.0-6.0,8477.9,"<div class='center'><p> If you remember correctly, then you’ll get a gold coin like this: </p><p><img src='run_exp/static/images/tutorial/reward_small.png' height='200'></p><p>If you do not remember correctly, then you'll see a red x like this: </p><p><img src='run_exp/static/images/tutorial/reward_no.png' height='200'></p><p>Importantly, when you are shown a ship, take the time to remind yourself which island you saw it on. This will help you in the next part of the study.</p><p><b>[Press the space bar to continue]</b></p></div>",,32,,,,,,,,,,,,,,,,
,html-keyboard-response,7,58543,0.0-7.0,4233.2,"<div class='center'><p>Let's go over the important points again. Your job is to: </p><p>1. Pick the pirate who is best at robbing ships and will bring you back gold coins. </p><p>2. Correctly remember whether or not you saw a ship before. If you did see the ship before, remind yourself on which island you saw the ship. </p><p><b>[Press the space bar to begin the next part of the study]</b></p></div>",,32,,,,,,,,,,,,,,,,
,do_welcome,8,60057,0.0-8.0,null,,,,null,,,,,,,,,,,,,,,
,do_trial,9,64093,0.0-9.0-0.0,1493,,,,49,"0,0,0",6,blank,230,null,0.229777907,0.371124855,0.737877452,0,,,,,,
,html-keyboard-response,10,65098,0.0-9.0-1.0,null,<p></p>,,null,,,,,,,,,,,,,,,,
,do_trial,11,68099,0.0-10.0-0.0,460.6,,,,50,"0,1,1",6,blank,231,null,0.180257317,0.41257033,0.702237796,1,,,,,,
,html-keyboard-response,12,69104,0.0-10.0-1.0,null,<p></p>,,null,,,,,,,,,,,,,,,,
,do_trial,13,72026,0.0-11.0-0.0,381.7,,,,50,"0,0,1",6,blank,232,null,0.169064266,0.419381477,0.675947695,0,,,,,,
,html-keyboard-response,14,73030,0.0-11.0-1.0,null,<p></p>,,null,,,,,,,,,,,,,,,,
,do_trial,15,75852,0.0-12.0-0.0,279.6,,,,50,"0,0,0",6,blank,233,null,0.245415607,0.405951855,0.567020914,0,,,,,,
,html-keyboard-response,16,76856,0.0-12.0-1.0,null,<p></p>,,null,,,,,,,,,,,,,,,,
,do_trial,17,79677,0.0-13.0-0.0,280.3000001,,,,51,"1,1,0",6,blank,234,null,0.309781037,0.511225975,0.604723649,0,,,,,,
,html-keyboard-response,18,80681,0.0-13.0-1.0,null,<p></p>,,null,,,,,,,,,,,,,,,,
,do_trial,19,83499,0.0-14.0-0.0,276.1,,,,51,"0,0,1",6,blank,235,null,0.329132326,0.37434812,0.779542214,1,,,,,,
,html-keyboard-response,20,84503,0.0-14.0-1.0,null,<p></p>,,null,,,,,,,,,,,,,,,,
,do_trial,21,87470,0.0-15.0-0.0,424.6,,,,51,"0,0,1",6,blank,236,null,0.216239207,0.343283707,0.773720543,1,,,,,,
,html-keyboard-response,22,88474,0.0-15.0-1.0,null,<p></p>,,null,,,,,,,,,,,,,,,,
,do_trial,23,91330,0.0-16.0-0.0,317.4,,,,51,"0,0,0",6,blank,237,null,0.084628758,0.403682223,0.828608343,0,,,,,,
,html-keyboard-response,24,92334,0.0-16.0-1.0,null,<p></p>,,null,,,,,,,,,,,,,,,,
,do_trial,25,95182,0.0-17.0-0.0,307.2,,,,51,"0,0,1",6,blank,238,null,0.082881576,0.191601523,0.834812202,1,,,,,,
,html-keyboard-response,26,96186,0.0-17.0-1.0,null,<p></p>,,null,,,,,,,,,,,,,,,,
,do_trial,27,99358,0.0-18.0-0.0,632.9,,,,51,"0,0,1",6,blank,239,null,0.19003426,0.199440982,0.933460666,1,,,,,,
,html-keyboard-response,28,100364,0.0-18.0-1.0,null,<p></p>,,null,,,,,,,,,,,,,,,,
,do_trial,29,103665,0.0-19.0-0.0,760.2,,,,51,"0,0,0",6,blank,240,null,0.175630096,0.234244677,0.939651685,0,,,,,,
,html-keyboard-response,30,104669,0.0-19.0-1.0,null,<p></p>,,null,,,,,,,,,,,,,,,,
,do_recog,31,110684,0.0-20.0-0.0,null,,,,null,,,,241,probe-210,,,,,1,[object Object],160,4,0,
,html-keyboard-response,32,111687,0.0-20.0-1.0,null,<p></p>,,null,,,,,,,,,,,,,,,,
,do_trial,33,115234,0.0-21.0-0.0,1006,,,,51,"0,0,1",6,blank,242,null,0.061125879,0.345422088,0.668900728,1,,,,,,
,html-keyboard-response,34,116238,0.0-21.0-1.0,null,<p></p>,,null,,,,,,,,,,,,,,,,
,do_trial,35,121237,0.0-22.0-0.0,2456.3,,,,51,"0,0,0",6,blank,243,null,0.129748798,0.248913363,0.420350308,0,,,,,,
,html-keyboard-response,36,122240,0.0-22.0-1.0,null,<p></p>,,null,,,,,,,,,,,,,,,,
,do_trial,37,125405,0.0-23.0-0.0,623.2,,,,51,"0,1,0",6,blank,244,null,0.180454356,0.356382594,0.187691941,0,,,,,,
,html-keyboard-response,38,126409,0.0-23.0-1.0,null,<p></p>,,null,,,,,,,,,,,,,,,,
,do_trial,39,129451,0.0-24.0-0.0,504.5,,,,51,"0,1,1",6,blank,245,null,0.066109184,0.481445302,0.164536576,1,,,,,,
,html-keyboard-response,40,130455,0.0-24.0-1.0,null,<p></p>,,null,,,,,,,,,,,,,,,,
,do_trial,41,134511,0.0-25.0-0.0,1515.5,,,,51,"0,0,1",6,blank,246,null,0.215231628,0.561258081,0.236721779,1,,,,,,
,html-keyboard-response,42,135515,0.0-25.0-1.0,null,<p></p>,,null,,,,,,,,,,,,,,,,
,do_recog,43,139006,0.0-26.0-0.0,1983.1,,,,55,,,,247,probe-134,,,,,1,[object Object],204,5,0,
,html-keyboard-response,44,140009,0.0-26.0-1.0,null,<p></p>,,null,,,,,,,,,,,,,,,,
,do_trial,45,143051,0.0-27.0-0.0,506.1,,,,51,"0,1,0",6,blank,248,null,0.258548998,0.778825681,0.216431946,0,,,,,,
,html-keyboard-response,46,144056,0.0-27.0-1.0,null,<p></p>,,null,,,,,,,,,,,,,,,,
,do_trial,47,146906,0.0-28.0-0.0,310.4,,,,51,"1,1,0",6,blank,249,null,0.186288671,0.766854671,0.168273686,0,,,,,,
,html-keyboard-response,48,147910,0.0-28.0-1.0,null,<p></p>,,null,,,,,,,,,,,,,,,,
,do_trial,49,150865,0.0-29.0-0.0,414.5,,,,51,"0,1,1",6,blank,250,null,0.321195714,0.623919464,0.216714431,1,,,,,,
,html-keyboard-response,50,151869,0.0-29.0-1.0,null,<p></p>,,null,,,,,,,,,,,,,,,,
,do_trial,51,155329,0.0-30.0-0.0,918.5,,,,51,"1,1,1",6,blank,251,null,0.470147883,0.597048625,0.150615894,1,,,,,,
,html-keyboard-response,52,156333,0.0-30.0-1.0,null,<p></p>,,null,,,,,,,,,,,,,,,,
,do_trial,53,159352,0.0-31.0-0.0,479.2,,,,51,"0,1,0",6,blank,252,null,0.226274743,0.824440569,0.144582146,0,,,,,,
,html-keyboard-response,54,160357,0.0-31.0-1.0,null,<p></p>,,null,,,,,,,,,,,,,,,,
,do_trial,55,163245,0.0-32.0-0.0,346.4,,,,51,"1,0,0",6,blank,253,null,0.422854888,0.687385997,0.05911312,0,,,,,,
,html-keyboard-response,56,164248,0.0-32.0-1.0,null,<p></p>,,null,,,,,,,,,,,,,,,,
,do_trial,57,168628,0.0-33.0-0.0,1839,,,,51,"1,1,0",6,blank,254,null,0.21819374,0.540867629,0.147747058,0,,,,,,
,html-keyboard-response,58,169632,0.0-33.0-1.0,null,<p></p>,,null,,,,,,,,,,,,,,,,
,do_recog,59,173444,0.0-34.0-0.0,2303.2,,,,53,,,,255,probe-164,,,,,1,[object Object],126,3,1,
,html-keyboard-response,60,174448,0.0-34.0-1.0,null,<p></p>,,null,,,,,,,,,,,,,,,,
,do_trial,61,177403,0.0-35.0-0.0,414.4,,,,51,"1,1,0",6,blank,256,null,0.350447724,0.592597302,0.153294751,0,,,,,,
,html-keyboard-response,62,178407,0.0-35.0-1.0,null,<p></p>,,null,,,,,,,,,,,,,,,,
,do_recog,63,182391,0.0-36.0-0.0,2474.8,,,,53,,,,257,probe-98,,,,,1,[object Object],168,4,1,
,html-keyboard-response,64,183396,0.0-36.0-1.0,null,<p></p>,,null,,,,,,,,,,,,,,,,
,do_trial,65,186360,0.0-37.0-0.0,423.3,,,,51,"0,1,0",6,blank,258,null,0.379353498,0.358424606,0.082652228,0,,,,,,
,html-keyboard-response,66,187364,0.0-37.0-1.0,null,<p></p>,,null,,,,,,,,,,,,,,,,
,do_recog,67,190651,0.0-38.0-0.0,1780.5,,,,56,,,,259,probe-61,,,,,1,[object Object],208,5,0,
,html-keyboard-response,68,191656,0.0-38.0-1.0,null,<p></p>,,null,,,,,,,,,,,,,,,,
,do_trial,69,194605,0.0-39.0-0.0,407.7,,,,51,"0,0,0",6,blank,260,null,0.300296607,0.474350819,0.086034048,0,,,,,,
,html-keyboard-response,70,195608,0.0-39.0-1.0,null,<p></p>,,null,,,,,,,,,,,,,,,,
,do_trial,71,198704,0.0-40.0-0.0,557.2,,,,51,"0,1,0",6,blank,261,null,0.359968751,0.638017171,0.090173503,0,,,,,,
,html-keyboard-response,72,199707,0.0-40.0-1.0,null,<p></p>,,null,,,,,,,,,,,,,,,,
,do_recog,73,202811,0.0-41.0-0.0,1593.7,,,,54,,,,262,probe-185,,,,,1,[object Object],84,2,1,
,html-keyboard-response,74,203815,0.0-41.0-1.0,null,<p></p>,,null,,,,,,,,,,,,,,,,
,do_trial,75,206811,0.0-42.0-0.0,453.9000001,,,,51,"0,1,0",6,blank,263,null,0.372318023,0.739533311,0.119309871,0,,,,,,
,html-keyboard-response,76,207814,0.0-42.0-1.0,null,<p></p>,,null,,,,,,,,,,,,,,,,
,do_trial,77,210785,0.0-43.0-0.0,433,,,,51,"1,1,0",6,blank,264,null,0.276453718,0.434562272,0.068837351,0,,,,,,
,html-keyboard-response,78,211791,0.0-43.0-1.0,null,<p></p>,,null,,,,,,,,,,,,,,,,
,do_trial,79,214875,0.0-44.0-0.0,543.3000001,,,,51,"0,0,0",6,blank,265,null,0.208470607,0.484020451,0.106080851,0,,,,,,
,html-keyboard-response,80,215880,0.0-44.0-1.0,null,<p></p>,,null,,,,,,,,,,,,,,,,
,do_trial,81,218910,0.0-45.0-0.0,487.6,,,,50,"0,1,0",6,blank,266,null,0.23355871,0.519130302,0.250856166,1,,,,,,
,html-keyboard-response,82,219914,0.0-45.0-1.0,null,<p></p>,,null,,,,,,,,,,,,,,,,
,do_trial,83,222979,0.0-46.0-0.0,524.7,,,,50,"0,0,0",6,blank,267,null,0.256160553,0.535235666,0.209019691,0,,,,,,
,html-keyboard-response,84,223983,0.0-46.0-1.0,null,<p></p>,,null,,,,,,,,,,,,,,,,
,do_trial,85,226807,0.0-47.0-0.0,287,,,,49,"0,1,0",6,blank,268,null,0.197192212,0.65506999,0.262275462,0,,,,,,
,html-keyboard-response,86,227813,0.0-47.0-1.0,null,<p></p>,,null,,,,,,,,,,,,,,,,
,do_recog,87,231095,0.0-48.0-0.0,1773,,,,53,,,,269,probe-92,,,,,1,[object Object],40,1,1,
,html-keyboard-response,88,232098,0.0-48.0-1.0,null,<p></p>,,null,,,,,,,,,,,,,,,,
,do_trial,89,235040,0.0-49.0-0.0,399.8,,,,51,"0,1,0",6,blank,270,null,0.219187579,0.648936787,0.059624754,0,,,,,,
,html-keyboard-response,90,236043,0.0-49.0-1.0,null,<p></p>,,null,,,,,,,,,,,,,,,,
,do_trial,91,239070,0.0-50.0-0.0,487.6,,,,51,"0,1,0",6,blank,271,null,0.256104311,0.527159343,0.05406135,0,,,,,,
,html-keyboard-response,92,240075,0.0-50.0-1.0,null,<p></p>,,null,,,,,,,,,,,,,,,,
,do_trial,93,243225,0.0-51.0-0.0,609.1,,,,51,"0,1,0",6,blank,272,null,0.266117774,0.568361145,0.082160704,0,,,,,,
,html-keyboard-response,94,244229,0.0-51.0-1.0,null,<p></p>,,null,,,,,,,,,,,,,,,,
,do_trial,95,247221,0.0-52.0-0.0,449.9,,,,50,"0,1,0",6,blank,273,null,0.13706638,0.669653096,0.066830987,1,,,,,,
,html-keyboard-response,96,248224,0.0-52.0-1.0,null,<p></p>,,null,,,,,,,,,,,,,,,,
,do_recog,97,251590,0.0-53.0-0.0,1854.9,,,,55,,,,274,probe-123,,,,,1,[object Object],83,2,0,
,html-keyboard-response,98,252593,0.0-53.0-1.0,null,<p></p>,,null,,,,,,,,,,,,,,,,
,do_trial,99,255599,0.0-54.0-0.0,462.8,,,,49,"0,1,0",6,blank,275,null,0.176160125,0.672195542,0.192991565,0,,,,,,
,html-keyboard-response,100,256604,0.0-54.0-1.0,null,<p></p>,,null,,,,,,,,,,,,,,,,
,do_recog,101,259719,0.0-55.0-0.0,1606.3,,,,55,,,,276,probe-230,,,,,1,[object Object],49,1,0,
,html-keyboard-response,102,260722,0.0-55.0-1.0,null,<p></p>,,null,,,,,,,,,,,,,,,,
,do_trial,103,263780,0.0-56.0-0.0,518,,,,50,"0,1,0",6,blank,277,null,0.231006079,0.75583601,0.109666705,1,,,,,,
,html-keyboard-response,104,264784,0.0-56.0-1.0,null,<p></p>,,null,,,,,,,,,,,,,,,,
,do_trial,105,267884,0.0-57.0-0.0,559.2,,,,50,"0,0,0",6,blank,278,null,0.196026636,0.705590521,0.128485534,0,,,,,,
,html-keyboard-response,106,268888,0.0-57.0-1.0,null,<p></p>,,null,,,,,,,,,,,,,,,,
,do_trial,107,271767,0.0-58.0-0.0,337.8,,,,51,"1,1,0",6,blank,279,null,0.253737945,0.509306381,0.090851169,0,,,,,,
,html-keyboard-response,108,272772,0.0-58.0-1.0,null,<p></p>,,null,,,,,,,,,,,,,,,,
,do_trial,109,275807,0.0-59.0-0.0,493.8000001,,,,50,"0,0,0",6,blank,280,null,0.282694397,0.598554071,0.086404024,0,,,,,,
,html-keyboard-response,110,276812,0.0-59.0-1.0,null,<p></p>,,null,,,,,,,,,,,,,,,,
,do_trial,111,279705,0.0-60.0-0.0,352.4,,,,51,"1,1,0",6,blank,281,null,0.404098278,0.585302006,0.070022225,0,,,,,,
,html-keyboard-response,112,280709,0.0-60.0-1.0,null,<p></p>,,null,,,,,,,,,,,,,,,,
,do_recog,113,283501,0.0-61.0-0.0,1285.3,,,,55,,,,282,probe-125,,,,,1,[object Object],207,5,0,
,html-keyboard-response,114,284505,0.0-61.0-1.0,null,<p></p>,,null,,,,,,,,,,,,,,,,
,do_trial,115,287391,0.0-62.0-0.0,344,,,,51,"0,1,0",6,blank,283,null,0.428933731,0.608785977,0.194043885,0,,,,,,
,html-keyboard-response,116,288395,0.0-62.0-1.0,null,<p></p>,,null,,,,,,,,,,,,,,,,
,do_trial,117,291286,0.0-63.0-0.0,350.2,,,,50,"0,1,0",6,blank,284,null,0.380973948,0.57494094,0.105075864,1,,,,,,
,html-keyboard-response,118,292289,0.0-63.0-1.0,null,<p></p>,,null,,,,,,,,,,,,,,,,
,do_trial,119,295332,0.0-64.0-0.0,503,,,,50,"1,1,1",6,blank,285,null,0.412195282,0.578692448,0.304921252,1,,,,,,
,html-keyboard-response,120,296335,0.0-64.0-1.0,null,<p></p>,,null,,,,,,,,,,,,,,,,
,do_trial,121,299238,0.0-65.0-0.0,361.4,,,,50,"0,1,0",6,blank,286,null,0.256545785,0.61665682,0.136027165,1,,,,,,
,html-keyboard-response,122,300243,0.0-65.0-1.0,null,<p></p>,,null,,,,,,,,,,,,,,,,
,do_trial,123,303145,0.0-66.0-0.0,360.5999999,,,,50,"0,1,1",6,blank,287,null,0.413193871,0.570752226,0.094207401,1,,,,,,
,html-keyboard-response,124,304149,0.0-66.0-1.0,null,<p></p>,,null,,,,,,,,,,,,,,,,
,do_recog,125,307157,0.0-67.0-0.0,1502.5,,,,54,,,,288,probe-214,,,,,1,[object Object],163,4,1,
,html-keyboard-response,126,308160,0.0-67.0-1.0,null,<p></p>,,null,,,,,,,,,,,,,,,,
,do_trial,127,311009,0.0-68.0-0.0,306.6,,,,50,"0,0,0",6,blank,289,null,0.29323368,0.53250762,0.121449205,0,,,,,,
,html-keyboard-response,128,312012,0.0-68.0-1.0,null,<p></p>,,null,,,,,,,,,,,,,,,,
,do_trial,129,314973,0.0-69.0-0.0,420.6,,,,51,"0,1,1",6,blank,290,null,0.165267806,0.631507262,0.119694667,1,,,,,,
,html-keyboard-response,130,315977,0.0-69.0-1.0,null,<p></p>,,null,,,,,,,,,,,,,,,,
,do_recog,131,318943,0.0-70.0-0.0,1459.9,,,,53,,,,291,probe-26,,,,,1,[object Object],200,5,1,
,html-keyboard-response,132,319948,0.0-70.0-1.0,null,<p></p>,,null,,,,,,,,,,,,,,,,
,do_trial,133,322873,0.0-71.0-0.0,384.1,,,,51,"0,0,0",6,blank,292,null,0.286550385,0.657749291,0.121634985,0,,,,,,
,html-keyboard-response,134,323877,0.0-71.0-1.0,null,<p></p>,,null,,,,,,,,,,,,,,,,
,do_trial,135,326910,0.0-72.0-0.0,493.3000001,,,,50,"0,1,0",6,blank,293,null,0.26303207,0.773171829,0.212461538,1,,,,,,
,html-keyboard-response,136,327915,0.0-72.0-1.0,null,<p></p>,,null,,,,,,,,,,,,,,,,
,do_trial,137,330858,0.0-73.0-0.0,401.6,,,,50,"0,1,1",6,blank,294,null,0.249180951,0.561252389,0.420716728,1,,,,,,
,html-keyboard-response,138,331861,0.0-73.0-1.0,null,<p></p>,,null,,,,,,,,,,,,,,,,
,do_trial,139,334919,0.0-74.0-0.0,517.6,,,,50,"1,1,0",6,blank,295,null,0.341834171,0.297758268,0.563796698,1,,,,,,
,html-keyboard-response,140,335925,0.0-74.0-1.0,null,<p></p>,,null,,,,,,,,,,,,,,,,
,do_recog,141,338919,0.0-75.0-0.0,1484.4,,,,55,,,,296,probe-229,,,,,1,[object Object],129,3,0,
,html-keyboard-response,142,339925,0.0-75.0-1.0,null,<p></p>,,null,,,,,,,,,,,,,,,,
,do_trial,143,342798,0.0-76.0-0.0,332.3,,,,50,"0,1,0",6,blank,297,null,0.323506402,0.37607318,0.653864491,1,,,,,,
,html-keyboard-response,144,343803,0.0-76.0-1.0,null,<p></p>,,null,,,,,,,,,,,,,,,,
,do_recog,145,346624,0.0-77.0-0.0,1313.8,,,,55,,,,298,probe-252,,,,,0,[object Object],null,null,1,
,html-keyboard-response,146,347627,0.0-77.0-1.0,null,<p></p>,,null,,,,,,,,,,,,,,,,
,do_trial,147,350722,0.0-78.0-0.0,553.1999999,,,,50,"0,1,0",6,blank,299,null,0.483727315,0.317146638,0.632912445,1,,,,,,
,html-keyboard-response,148,351727,0.0-78.0-1.0,null,<p></p>,,null,,,,,,,,,,,,,,,,
,do_recog,149,354226,0.0-79.0-0.0,991.4,,,,54,,,,300,probe-192,,,,,1,[object Object],162,4,1,
,html-keyboard-response,150,355230,0.0-79.0-1.0,null,<p></p>,,null,,,,,,,,,,,,,,,,
,do_trial,151,358106,0.0-80.0-0.0,334.7,,,,50,"0,0,1",6,blank,301,null,0.336493328,0.180679677,0.730538077,0,,,,,,
,html-keyboard-response,152,359110,0.0-80.0-1.0,null,<p></p>,,null,,,,,,,,,,,,,,,,
,do_trial,153,362649,0.0-81.0-0.0,998.2,,,,50,"1,0,1",6,blank,302,null,0.294974509,0.176707069,0.747250202,0,,,,,,
,html-keyboard-response,154,363653,0.0-81.0-1.0,null,<p></p>,,null,,,,,,,,,,,,,,,,
,do_trial,155,366556,0.0-82.0-0.0,363.2,,,,51,"0,1,1",6,blank,303,null,0.264543268,0.160823804,0.755589815,1,,,,,,
,html-keyboard-response,156,367560,0.0-82.0-1.0,null,<p></p>,,null,,,,,,,,,,,,,,,,
,do_trial,157,370696,0.0-83.0-0.0,598.1,,,,51,"0,1,1",6,blank,304,null,0.358328305,0.184711566,0.815718824,1,,,,,,
,html-keyboard-response,158,371701,0.0-83.0-1.0,null,<p></p>,,null,,,,,,,,,,,,,,,,
,do_recog,159,374650,0.0-84.0-0.0,1443.7,,,,54,,,,305,probe-25,,,,,1,[object Object],167,4,1,
,html-keyboard-response,160,375655,0.0-84.0-1.0,null,<p></p>,,null,,,,,,,,,,,,,,,,
,do_trial,161,378758,0.0-85.0-0.0,560.5999999,,,,51,"0,1,1",6,blank,306,null,0.444459677,0.109730188,0.81002067,1,,,,,,
,html-keyboard-response,162,379762,0.0-85.0-1.0,null,<p></p>,,null,,,,,,,,,,,,,,,,
,do_recog,163,382344,0.0-86.0-0.0,1072.6,,,,54,,,,307,probe-218,,,,,1,[object Object],164,4,1,
,html-keyboard-response,164,383349,0.0-86.0-1.0,null,<p></p>,,null,,,,,,,,,,,,,,,,
,do_trial,165,386231,0.0-87.0-0.0,341.3000001,,,,51,"1,0,1",6,blank,308,null,0.460881567,0.146003866,0.693449517,1,,,,,,
,html-keyboard-response,166,387235,0.0-87.0-1.0,null,<p></p>,,null,,,,,,,,,,,,,,,,
,do_trial,167,390550,0.0-88.0-0.0,776.2,,,,51,"0,0,0",6,blank,309,null,0.457728649,0.146213711,0.660992796,0,,,,,,
,html-keyboard-response,168,391553,0.0-88.0-1.0,null,<p></p>,,null,,,,,,,,,,,,,,,,
,do_trial,169,394472,0.0-89.0-0.0,376.8,,,,51,"1,0,1",6,blank,310,null,0.362865529,0.132348004,0.639717954,1,,,,,,
,html-keyboard-response,170,395475,0.0-89.0-1.0,null,<p></p>,,null,,,,,,,,,,,,,,,,
,do_trial,171,398543,0.0-90.0-0.0,528.8,,,,51,"1,0,1",6,blank,311,null,0.345539293,0.11493294,0.702435679,1,,,,,,
,html-keyboard-response,172,399549,0.0-90.0-1.0,null,<p></p>,,null,,,,,,,,,,,,,,,,
,do_trial,173,402577,0.0-91.0-0.0,490.2,,,,51,"0,1,0",6,blank,312,null,0.164427454,0.097011393,0.811905949,0,,,,,,
,html-keyboard-response,174,403581,0.0-91.0-1.0,null,<p></p>,,null,,,,,,,,,,,,,,,,
,do_recog,175,406298,0.0-92.0-0.0,1207.3,,,,53,,,,313,probe-43,,,,,1,[object Object],43,1,1,
,html-keyboard-response,176,407302,0.0-92.0-1.0,null,<p></p>,,null,,,,,,,,,,,,,,,,
,do_trial,177,410193,0.0-93.0-0.0,350,,,,51,"0,0,1",6,blank,314,null,0.229015155,0.280852274,0.669415684,1,,,,,,
,html-keyboard-response,178,411199,0.0-93.0-1.0,null,<p></p>,,null,,,,,,,,,,,,,,,,
,do_recog,179,413761,0.0-94.0-0.0,1054.4,,,,54,,,,315,probe-196,,,,,1,[object Object],89,2,1,
,html-keyboard-response,180,414765,0.0-94.0-1.0,null,<p></p>,,null,,,,,,,,,,,,,,,,
,do_trial,181,417705,0.0-95.0-0.0,400.7,,,,51,"0,0,0",6,blank,316,null,0.277956924,0.1512026,0.564944095,0,,,,,,
,html-keyboard-response,182,418708,0.0-95.0-1.0,null,<p></p>,,null,,,,,,,,,,,,,,,,
,do_trial,183,421662,0.0-96.0-0.0,412,,,,51,"1,0,0",6,blank,317,null,0.267280718,0.137748025,0.657669515,0,,,,,,
,html-keyboard-response,184,422666,0.0-96.0-1.0,null,<p></p>,,null,,,,,,,,,,,,,,,,
,do_trial,185,425489,0.0-97.0-0.0,281.9,,,,50,"0,0,1",6,blank,318,null,0.276831001,0.251844072,0.687604988,0,,,,,,
,html-keyboard-response,186,426493,0.0-97.0-1.0,null,<p></p>,,null,,,,,,,,,,,,,,,,
,do_recog,187,429022,0.0-98.0-0.0,1019.5,,,,54,,,,319,probe-78,,,,,1,[object Object],169,4,1,
,html-keyboard-response,188,430026,0.0-98.0-1.0,null,<p></p>,,null,,,,,,,,,,,,,,,,
,do_trial,189,432877,0.0-99.0-0.0,310.0999999,,,,50,"0,1,0",6,blank,320,null,0.290436265,0.21190078,0.563403711,1,,,,,,
,html-keyboard-response,190,433881,0.0-99.0-1.0,null,<p></p>,,null,,,,,,,,,,,,,,,,
,do_trial,191,436826,0.0-100.0-0.0,403.9000001,,,,50,"0,0,1",6,blank,321,null,0.170984677,0.296442235,0.578612675,0,,,,,,
,html-keyboard-response,192,437832,0.0-100.0-1.0,null,<p></p>,,null,,,,,,,,,,,,,,,,
,do_trial,193,440942,0.0-101.0-0.0,570.6,,,,51,"0,0,1",6,blank,322,null,0.130071773,0.252297732,0.548349725,1,,,,,,
,html-keyboard-response,194,441946,0.0-101.0-1.0,null,<p></p>,,null,,,,,,,,,,,,,,,,
,do_recog,195,444831,0.0-102.0-0.0,1377.2,,,,54,,,,323,probe-165,,,,,1,[object Object],122,3,1,
,html-keyboard-response,196,445835,0.0-102.0-1.0,null,<p></p>,,null,,,,,,,,,,,,,,,,
,do_trial,197,448842,0.0-103.0-0.0,465.4,,,,51,"0,1,1",6,blank,324,null,0.243971403,0.287952667,0.447779976,1,,,,,,
,html-keyboard-response,198,449846,0.0-103.0-1.0,null,<p></p>,,null,,,,,,,,,,,,,,,,
,do_recog,199,452852,0.0-104.0-0.0,1495.4,,,,53,,,,325,probe-199,,,,,1,[object Object],161,4,1,
,html-keyboard-response,200,453856,0.0-104.0-1.0,null,<p></p>,,null,,,,,,,,,,,,,,,,
,do_trial,201,456952,0.0-105.0-0.0,557.5999999,,,,51,"0,1,1",6,blank,326,null,0.208559626,0.238921072,0.651580179,1,,,,,,
,html-keyboard-response,202,457956,0.0-105.0-1.0,null,<p></p>,,null,,,,,,,,,,,,,,,,
,do_recog,203,460739,0.0-106.0-0.0,1273.6,,,,54,,,,327,probe-179,,,,,1,[object Object],121,3,1,
,html-keyboard-response,204,461745,0.0-106.0-1.0,null,<p></p>,,null,,,,,,,,,,,,,,,,
,do_trial,205,464823,0.0-107.0-0.0,539.6,,,,51,"0,0,1",6,blank,328,null,0.206835619,0.177242751,0.690551069,1,,,,,,
,html-keyboard-response,206,465827,0.0-107.0-1.0,null,<p></p>,,null,,,,,,,,,,,,,,,,
,do_recog,207,468295,0.0-108.0-0.0,958.8,,,,55,,,,329,probe-219,,,,,1,[object Object],87,2,0,
,html-keyboard-response,208,469301,0.0-108.0-1.0,null,<p></p>,,null,,,,,,,,,,,,,,,,
,do_trial,209,472271,0.0-109.0-0.0,429.8000001,,,,51,"0,0,0",6,blank,330,null,0.233935163,0.074715633,0.580300714,0,,,,,,
,html-keyboard-response,210,473275,0.0-109.0-1.0,null,<p></p>,,null,,,,,,,,,,,,,,,,
,do_trial,211,476346,0.0-110.0-0.0,529,,,,50,"0,0,1",6,blank,331,null,0.169255335,0.125973717,0.541513905,0,,,,,,
,html-keyboard-response,212,477350,0.0-110.0-1.0,null,<p></p>,,null,,,,,,,,,,,,,,,,
,do_trial,213,480346,0.0-111.0-0.0,455.9000001,,,,50,"0,0,1",6,blank,332,null,0.28268863,0.176026823,0.671973963,0,,,,,,
,html-keyboard-response,214,481349,0.0-111.0-1.0,null,<p></p>,,null,,,,,,,,,,,,,,,,
,do_trial,215,484235,0.0-112.0-0.0,345.1,,,,51,"0,0,0",6,blank,333,null,0.2433608,0.2083534,0.682608424,0,,,,,,
,html-keyboard-response,216,485239,0.0-112.0-1.0,null,<p></p>,,null,,,,,,,,,,,,,,,,
,do_recog,217,488047,0.0-113.0-0.0,1297.9,,,,53,,,,334,probe-35,,,,,1,[object Object],125,3,1,
,html-keyboard-response,218,489051,0.0-113.0-1.0,null,<p></p>,,null,,,,,,,,,,,,,,,,
,do_trial,219,491932,0.0-114.0-0.0,342.3,,,,51,"1,0,1",6,blank,335,null,0.19939993,0.277169225,0.581075251,1,,,,,,
,html-keyboard-response,220,492938,0.0-114.0-1.0,null,<p></p>,,null,,,,,,,,,,,,,,,,
,do_recog,221,495707,0.0-115.0-0.0,1258.4,,,,54,,,,336,probe-220,,,,,1,[object Object],128,3,1,
,html-keyboard-response,222,496710,0.0-115.0-1.0,null,<p></p>,,null,,,,,,,,,,,,,,,,
,do_trial,223,499839,0.0-116.0-0.0,589.2,,,,51,"0,0,0",6,blank,337,null,0.352828933,0.226699835,0.594866658,0,,,,,,
,html-keyboard-response,224,500842,0.0-116.0-1.0,null,<p></p>,,null,,,,,,,,,,,,,,,,
,do_trial,225,504144,0.0-117.0-0.0,759.1,,,,51,"1,0,1",6,blank,338,null,0.435815483,0.157860133,0.813459362,1,,,,,,
,html-keyboard-response,226,505149,0.0-117.0-1.0,null,<p></p>,,null,,,,,,,,,,,,,,,,
,do_trial,227,508320,0.0-118.0-0.0,629.6999999,,,,51,"0,0,0",6,blank,339,null,0.36739727,0.154398939,0.729420093,0,,,,,,
,html-keyboard-response,228,509324,0.0-118.0-1.0,null,<p></p>,,null,,,,,,,,,,,,,,,,
,do_recog,229,512073,0.0-119.0-0.0,1241.3,,,,54,,,,340,probe-203,,,,,1,[object Object],86,2,1,
,html-keyboard-response,230,513077,0.0-119.0-1.0,null,<p></p>,,null,,,,,,,,,,,,,,,,
,do_trial,231,515944,0.0-120.0-0.0,327.9,,,,51,"0,0,0",6,blank,341,null,0.35141913,0.06191308,0.532142968,0,,,,,,
,html-keyboard-response,232,516949,0.0-120.0-1.0,null,<p></p>,,null,,,,,,,,,,,,,,,,
,do_trial,233,520133,0.0-121.0-0.0,644.2,,,,51,"0,1,0",6,blank,342,null,0.426259555,0.090407708,0.52374126,0,,,,,,
,html-keyboard-response,234,521137,0.0-121.0-1.0,null,<p></p>,,null,,,,,,,,,,,,,,,,
,do_recog,235,523921,0.0-122.0-0.0,1274.5,,,,54,,,,343,probe-171,,,,,1,[object Object],209,5,1,
,html-keyboard-response,236,524925,0.0-122.0-1.0,null,<p></p>,,null,,,,,,,,,,,,,,,,
,do_trial,237,527824,0.0-123.0-0.0,358.5,,,,51,"0,0,0",6,blank,344,null,0.355666544,0.051372064,0.63617913,0,,,,,,
,html-keyboard-response,238,528828,0.0-123.0-1.0,null,<p></p>,,null,,,,,,,,,,,,,,,,
,do_recog,239,531851,0.0-124.0-0.0,1514.6,,,,55,,,,345,probe-141,,,,,1,[object Object],205,5,0,
,html-keyboard-response,240,532854,0.0-124.0-1.0,null,<p></p>,,null,,,,,,,,,,,,,,,,
,do_trial,241,535739,0.0-125.0-0.0,342.9000001,,,,50,"1,0,1",6,blank,346,null,0.368318054,0.09783383,0.770276134,0,,,,,,
,html-keyboard-response,242,536743,0.0-125.0-1.0,null,<p></p>,,null,,,,,,,,,,,,,,,,
,do_recog,243,539310,0.0-126.0-0.0,1056.8,,,,54,,,,347,probe-57,,,,,1,[object Object],203,5,1,
,html-keyboard-response,244,540313,0.0-126.0-1.0,null,<p></p>,,null,,,,,,,,,,,,,,,,
,do_trial,245,543259,0.0-127.0-0.0,406.9,,,,50,"1,0,0",6,blank,348,null,0.355948158,0.135601275,0.649003398,0,,,,,,
,html-keyboard-response,246,544263,0.0-127.0-1.0,null,<p></p>,,null,,,,,,,,,,,,,,,,
,do_trial,247,547416,0.0-128.0-0.0,612.0999999,,,,50,"0,0,0",6,blank,349,null,0.31958825,0.202430153,0.585350608,0,,,,,,
,html-keyboard-response,248,548420,0.0-128.0-1.0,null,<p></p>,,null,,,,,,,,,,,,,,,,
,do_trial,249,551520,0.0-129.0-0.0,559.2,,,,49,"1,1,1",6,blank,350,null,0.379799934,0.285506626,0.607215662,1,,,,,,
,html-keyboard-response,250,552524,0.0-129.0-1.0,null,<p></p>,,null,,,,,,,,,,,,,,,,
,do_trial,251,555619,0.0-130.0-0.0,554.6,,,,49,"0,0,1",6,blank,351,null,0.396488415,0.344427668,0.542742208,0,,,,,,
,html-keyboard-response,252,556622,0.0-130.0-1.0,null,<p></p>,,null,,,,,,,,,,,,,,,,
,do_trial,253,559664,0.0-131.0-0.0,505.4000001,,,,49,"0,0,0",6,blank,352,null,0.390426953,0.342152918,0.377225955,0,,,,,,
,html-keyboard-response,254,560668,0.0-131.0-1.0,null,<p></p>,,null,,,,,,,,,,,,,,,,
,do_trial,255,563690,0.0-132.0-0.0,482,,,,51,"1,0,0",6,blank,353,null,0.294891027,0.402180457,0.124198085,0,,,,,,
,html-keyboard-response,256,564694,0.0-132.0-1.0,null,<p></p>,,null,,,,,,,,,,,,,,,,
,do_recog,257,567866,0.0-133.0-0.0,1663.8,,,,54,,,,354,probe-06,,,,,1,[object Object],123,3,1,
,html-keyboard-response,258,568870,0.0-133.0-1.0,null,<p></p>,,null,,,,,,,,,,,,,,,,
,do_trial,259,571738,0.0-134.0-0.0,327.6999999,,,,51,"0,1,1",6,blank,355,null,0.288812661,0.576417193,0.222982038,1,,,,,,
,html-keyboard-response,260,572744,0.0-134.0-1.0,null,<p></p>,,null,,,,,,,,,,,,,,,,
,do_trial,261,575859,0.0-135.0-0.0,575.9,,,,51,"0,1,0",6,blank,356,null,0.33269572,0.454479172,0.16102449,0,,,,,,
,html-keyboard-response,262,576864,0.0-135.0-1.0,null,<p></p>,,null,,,,,,,,,,,,,,,,
,do_trial,263,579919,0.0-136.0-0.0,516.8000001,,,,51,"1,1,0",6,blank,357,null,0.310938947,0.486235791,0.093088169,0,,,,,,
,html-keyboard-response,264,580925,0.0-136.0-1.0,null,<p></p>,,null,,,,,,,,,,,,,,,,
,do_trial,265,583932,0.0-137.0-0.0,465.1999999,,,,51,"1,1,0",6,blank,358,null,0.204405586,0.623839321,0.093213064,0,,,,,,
,html-keyboard-response,266,584936,0.0-137.0-1.0,null,<p></p>,,null,,,,,,,,,,,,,,,,
,do_trial,267,588009,0.0-138.0-0.0,531.4000001,,,,51,"0,1,1",6,blank,359,null,0.26351173,0.738187999,0.165926769,1,,,,,,
,html-keyboard-response,268,589013,0.0-138.0-1.0,null,<p></p>,,null,,,,,,,,,,,,,,,,
,do_trial,269,592057,0.0-139.0-0.0,506.6999999,,,,51,"0,0,1",6,blank,360,null,0.30273594,0.719911031,0.235955453,1,,,,,,
,html-keyboard-response,270,593059,0.0-139.0-1.0,null,<p></p>,,null,,,,,,,,,,,,,,,,
,do_recog,271,595629,0.0-140.0-0.0,1060.4,,,,54,,,,361,probe-205,,,,,1,[object Object],166,4,1,
,html-keyboard-response,272,596634,0.0-140.0-1.0,null,<p></p>,,null,,,,,,,,,,,,,,,,
,do_trial,273,599605,0.0-141.0-0.0,430,,,,51,"0,1,0",6,blank,362,null,0.506582195,0.58941041,0.34587758,0,,,,,,
,html-keyboard-response,274,600609,0.0-141.0-1.0,null,<p></p>,,null,,,,,,,,,,,,,,,,
,do_trial,275,603683,0.0-142.0-0.0,531.1999999,,,,50,"1,1,1",6,blank,363,null,0.338641751,0.469004018,0.248923461,1,,,,,,
,html-keyboard-response,276,604687,0.0-142.0-1.0,null,<p></p>,,null,,,,,,,,,,,,,,,,
,do_trial,277,607804,0.0-143.0-0.0,575.9,,,,50,"0,1,0",6,blank,364,null,0.403938389,0.581176292,0.218925177,1,,,,,,
,html-keyboard-response,278,608810,0.0-143.0-1.0,null,<p></p>,,null,,,,,,,,,,,,,,,,
,do_trial,279,612001,0.0-144.0-0.0,652,,,,50,"0,1,0",6,blank,365,null,0.37499564,0.65412159,0.244298766,1,,,,,,
,html-keyboard-response,280,613005,0.0-144.0-1.0,null,<p></p>,,null,,,,,,,,,,,,,,,,
,do_trial,281,616001,0.0-145.0-0.0,456.8,,,,50,"0,0,0",6,blank,366,null,0.329331335,0.668858282,0.154493002,0,,,,,,
,html-keyboard-response,282,617004,0.0-145.0-1.0,null,<p></p>,,null,,,,,,,,,,,,,,,,
,do_trial,283,619994,0.0-146.0-0.0,449.2,,,,50,"0,0,1",6,blank,367,null,0.281936433,0.615916288,0.114733615,0,,,,,,
,html-keyboard-response,284,620999,0.0-146.0-1.0,null,<p></p>,,null,,,,,,,,,,,,,,,,
,do_recog,285,624026,0.0-147.0-0.0,1519.4,,,,53,,,,368,probe-81,,,,,1,[object Object],201,5,1,
,html-keyboard-response,286,625031,0.0-147.0-1.0,null,<p></p>,,null,,,,,,,,,,,,,,,,
,do_trial,287,628138,0.0-148.0-0.0,569.5,,,,50,"0,0,0",6,blank,369,null,0.420240948,0.614185612,0.085305725,0,,,,,,
,html-keyboard-response,288,629143,0.0-148.0-1.0,null,<p></p>,,null,,,,,,,,,,,,,,,,
,do_recog,289,631875,0.0-149.0-0.0,1223,,,,54,,,,370,probe-188,,,,,1,[object Object],46,1,1,
,html-keyboard-response,290,632879,0.0-149.0-1.0,null,<p></p>,,null,,,,,,,,,,,,,,,,
,do_trial,291,636056,0.0-150.0-0.0,639.1999999,,,,51,"1,1,1",6,blank,371,null,0.401716174,0.504428557,0.14872329,1,,,,,,
,html-keyboard-response,292,637060,0.0-150.0-1.0,null,<p></p>,,null,,,,,,,,,,,,,,,,
,do_trial,293,640308,0.0-151.0-0.0,706,,,,51,"1,0,0",6,blank,372,null,0.397377501,0.594533567,0.051152956,0,,,,,,
,html-keyboard-response,294,641314,0.0-151.0-1.0,null,<p></p>,,null,,,,,,,,,,,,,,,,
,do_trial,295,644140,0.0-152.0-0.0,284.9,,,,51,"0,0,0",6,blank,373,null,0.291802151,0.773882915,0.112842812,0,,,,,,
,html-keyboard-response,296,645144,0.0-152.0-1.0,null,<p></p>,,null,,,,,,,,,,,,,,,,
,do_trial,297,648303,0.0-153.0-0.0,619.7,,,,50,"1,1,0",6,blank,374,null,0.179736305,0.799297086,0.142538034,1,,,,,,
,html-keyboard-response,298,649307,0.0-153.0-1.0,null,<p></p>,,null,,,,,,,,,,,,,,,,
,do_trial,299,652379,0.0-154.0-0.0,534,,,,50,"0,0,0",6,blank,375,null,0.14294065,0.692433237,0.085196566,0,,,,,,
,html-keyboard-response,300,653384,0.0-154.0-1.0,null,<p></p>,,null,,,,,,,,,,,,,,,,
,do_trial,301,656488,0.0-155.0-0.0,563.4,,,,50,"0,1,0",6,blank,376,null,0.162280937,0.593856192,0.227040941,1,,,,,,
,html-keyboard-response,302,657491,0.0-155.0-1.0,null,<p></p>,,null,,,,,,,,,,,,,,,,
,do_trial,303,660550,0.0-156.0-0.0,517.7,,,,50,"0,1,0",6,blank,377,null,0.211715581,0.642543008,0.204924231,1,,,,,,
,html-keyboard-response,304,661555,0.0-156.0-1.0,null,<p></p>,,null,,,,,,,,,,,,,,,,
,do_recog,305,664454,0.0-157.0-0.0,1392,,,,54,,,,378,probe-55,,,,,1,[object Object],127,3,1,
,html-keyboard-response,306,665458,0.0-157.0-1.0,null,<p></p>,,null,,,,,,,,,,,,,,,,
,do_trial,307,668335,0.0-158.0-0.0,335.9,,,,50,"1,1,0",6,blank,379,null,0.14889748,0.741872321,0.117814504,1,,,,,,
,html-keyboard-response,308,669339,0.0-158.0-1.0,null,<p></p>,,null,,,,,,,,,,,,,,,,
,do_trial,309,672256,0.0-159.0-0.0,375.6,,,,50,"0,1,0",6,blank,380,null,0.147085933,0.606916523,0.132789319,1,,,,,,
,html-keyboard-response,310,673260,0.0-159.0-1.0,null,<p></p>,,null,,,,,,,,,,,,,,,,
,do_trial,311,677087,0.0-160.0-0.0,1285.3,,,,50,"0,0,1",6,blank,381,null,0.173781032,0.412061093,0.188434708,0,,,,,,
,html-keyboard-response,312,678093,0.0-160.0-1.0,null,<p></p>,,null,,,,,,,,,,,,,,,,
,do_recog,313,681637,0.0-161.0-0.0,1520,,,,54,,,,382,probe-168,,,,,1,[object Object],48,1,1,
,html-keyboard-response,314,683784,0.0-161.0-1.0,null,<p></p>,,null,,,,,,,,,,,,,,,,
,do_trial,315,691749,0.0-162.0-0.0,null,,,,null,"1,0,0",6,blank,383,null,0.236187509,0.50080667,0.130025477,,,,,,,
,html-keyboard-response,316,693568,0.0-162.0-1.0,null,<p></p>,,null,,,,,,,,,,,,,,,,
,do_recog,317,699583,0.0-163.0-0.0,null,,,,null,,,,384,probe-52,,,,,1,[object Object],81,2,0,
,html-keyboard-response,318,700587,0.0-163.0-1.0,null,<p></p>,,null,,,,,,,,,,,,,,,,
,do_trial,319,704217,0.0-164.0-0.0,1091.3,,,,50,"0,0,0",6,blank,385,null,0.295995835,0.380216477,0.213346146,0,,,,,,
,html-keyboard-response,320,705222,0.0-164.0-1.0,null,<p></p>,,null,,,,,,,,,,,,,,,,
,do_recog,321,708714,0.0-165.0-0.0,1983.9,,,,53,,,,386,probe-45,,,,,1,[object Object],124,3,1,
,html-keyboard-response,322,709718,0.0-165.0-1.0,null,<p></p>,,null,,,,,,,,,,,,,,,,
,do_trial,323,713122,0.0-166.0-0.0,861.6999999,,,,50,"0,1,1",6,blank,387,null,0.302488227,0.509399865,0.102157176,1,,,,,,
,html-keyboard-response,324,714127,0.0-166.0-1.0,null,<p></p>,,null,,,,,,,,,,,,,,,,
,do_recog,325,717325,0.0-167.0-0.0,1688.3,,,,54,,,,388,probe-90,,,,,1,[object Object],120,3,1,
,html-keyboard-response,326,718329,0.0-167.0-1.0,null,<p></p>,,null,,,,,,,,,,,,,,,,
,do_trial,327,721348,0.0-168.0-0.0,477.1,,,,50,"0,1,0",6,blank,389,null,0.257991118,0.566891304,0.121114394,1,,,,,,
,html-keyboard-response,328,722352,0.0-168.0-1.0,null,<p></p>,,null,,,,,,,,,,,,,,,,
,do_trial,329,725435,0.0-169.0-0.0,541.7,,,,50,"0,0,0",6,blank,390,null,0.338042968,0.62510242,0.069665083,0,,,,,,
,html-keyboard-response,330,726439,0.0-169.0-1.0,null,<p></p>,,null,,,,,,,,,,,,,,,,
,do_trial,331,729655,0.0-170.0-0.0,674.1999999,,,,50,"0,1,0",6,blank,391,null,0.248518345,0.47880045,0.071205361,1,,,,,,
,html-keyboard-response,332,730659,0.0-170.0-1.0,null,<p></p>,,null,,,,,,,,,,,,,,,,
,do_trial,333,733846,0.0-171.0-0.0,646.6,,,,50,"0,1,0",6,blank,392,null,0.330143079,0.538735204,0.198735423,1,,,,,,
,html-keyboard-response,334,734848,0.0-171.0-1.0,null,<p></p>,,null,,,,,,,,,,,,,,,,
,do_trial,335,738292,0.0-172.0-0.0,907.8,,,,50,"1,0,0",6,blank,393,null,0.367075587,0.526995175,0.111435003,0,,,,,,
,html-keyboard-response,336,739296,0.0-172.0-1.0,null,<p></p>,,null,,,,,,,,,,,,,,,,
,do_trial,337,742431,0.0-173.0-0.0,592.5999999,,,,50,"0,1,0",6,blank,394,null,0.38201799,0.575280675,0.117053527,1,,,,,,
,html-keyboard-response,338,743436,0.0-173.0-1.0,null,<p></p>,,null,,,,,,,,,,,,,,,,
,do_trial,339,746692,0.0-174.0-0.0,716.9,,,,50,"0,1,0",6,blank,395,null,0.311653143,0.542037384,0.191745929,1,,,,,,
,html-keyboard-response,340,747696,0.0-174.0-1.0,null,<p></p>,,null,,,,,,,,,,,,,,,,
,do_recog,341,750382,0.0-175.0-0.0,1177.2,,,,53,,,,396,probe-139,,,,,1,[object Object],85,2,1,
,html-keyboard-response,342,751386,0.0-175.0-1.0,null,<p></p>,,null,,,,,,,,,,,,,,,,
,do_trial,343,754399,0.0-176.0-0.0,471.5,,,,50,"1,0,0",6,blank,397,null,0.259442658,0.483717264,0.320283461,0,,,,,,
,html-keyboard-response,344,755403,0.0-176.0-1.0,null,<p></p>,,null,,,,,,,,,,,,,,,,
,do_trial,345,758395,0.0-177.0-0.0,449.0999999,,,,50,"0,1,0",6,blank,398,null,0.341993965,0.486246213,0.247617823,1,,,,,,
,html-keyboard-response,346,759399,0.0-177.0-1.0,null,<p></p>,,null,,,,,,,,,,,,,,,,
,do_trial,347,762352,0.0-178.0-0.0,411.9,,,,50,"0,1,0",6,blank,399,null,0.241660171,0.494580413,0.265606704,1,,,,,,
,html-keyboard-response,348,763356,0.0-178.0-1.0,null,<p></p>,,null,,,,,,,,,,,,,,,,
,do_trial,349,766423,0.0-179.0-0.0,524.6,,,,50,"0,1,0",6,blank,400,null,0.315928209,0.407907596,0.392302953,1,,,,,,
,html-keyboard-response,350,767427,0.0-179.0-1.0,null,<p></p>,,null,,,,,,,,,,,,,,,,
,do_trial,351,770693,0.0-180.0-0.0,724.7,,,,50,"1,1,1",6,blank,401,null,0.430071171,0.503117634,0.328714465,1,,,,,,
,html-keyboard-response,352,771697,0.0-180.0-1.0,null,<p></p>,,null,,,,,,,,,,,,,,,,
,do_recog,353,774997,0.0-181.0-0.0,1791.8,,,,54,,,,402,probe-222,,,,,1,[object Object],206,5,1,
,html-keyboard-response,354,776001,0.0-181.0-1.0,null,<p></p>,,null,,,,,,,,,,,,,,,,
,do_trial,355,778960,0.0-182.0-0.0,416.6,,,,50,"0,1,0",6,blank,403,null,0.433383164,0.400989879,0.350998083,1,,,,,,
,html-keyboard-response,356,779964,0.0-182.0-1.0,null,<p></p>,,null,,,,,,,,,,,,,,,,
,do_trial,357,783522,0.0-183.0-0.0,1017.3,,,,50,"1,0,1",6,blank,404,null,0.471549437,0.398509504,0.442618738,0,,,,,,
,html-keyboard-response,358,784526,0.0-183.0-1.0,null,<p></p>,,null,,,,,,,,,,,,,,,,
,do_trial,359,787605,0.0-184.0-0.0,536.8000001,,,,50,"1,1,0",6,blank,405,null,0.662700548,0.263334997,0.288133367,1,,,,,,
,html-keyboard-response,360,788610,0.0-184.0-1.0,null,<p></p>,,null,,,,,,,,,,,,,,,,
,do_trial,361,791692,0.0-185.0-0.0,539.8,,,,50,"1,1,0",6,blank,406,null,0.677778836,0.16312739,0.216203549,1,,,,,,
,html-keyboard-response,362,792696,0.0-185.0-1.0,null,<p></p>,,null,,,,,,,,,,,,,,,,
,do_trial,363,795790,0.0-186.0-0.0,554.9,,,,50,"0,1,0",6,blank,407,null,0.632623188,0.135349715,0.273852777,1,,,,,,
,html-keyboard-response,364,796794,0.0-186.0-1.0,null,<p></p>,,null,,,,,,,,,,,,,,,,
,do_trial,365,799992,0.0-187.0-0.0,657.5,,,,50,"1,1,0",6,blank,408,null,0.601332689,0.1347257,0.237806486,1,,,,,,
,html-keyboard-response,366,800997,0.0-187.0-1.0,null,<p></p>,,null,,,,,,,,,,,,,,,,
,do_recog,367,803697,0.0-188.0-0.0,1190.2,,,,53,,,,409,probe-21,,,,,1,[object Object],44,1,1,
,html-keyboard-response,368,804702,0.0-188.0-1.0,null,<p></p>,,null,,,,,,,,,,,,,,,,
,do_trial,369,807695,0.0-189.0-0.0,451.9,,,,50,"1,0,0",6,blank,410,null,0.814964032,0.103171259,0.221593152,0,,,,,,
,html-keyboard-response,370,808698,0.0-189.0-1.0,null,<p></p>,,null,,,,,,,,,,,,,,,,
,do_trial,371,811666,0.0-190.0-0.0,428.5,,,,50,"1,0,0",6,blank,411,null,0.780663974,0.103861343,0.207877766,0,,,,,,
,html-keyboard-response,372,812670,0.0-190.0-1.0,null,<p></p>,,null,,,,,,,,,,,,,,,,
,do_trial,373,815655,0.0-191.0-0.0,443.8,,,,50,"1,1,0",6,blank,412,null,0.741719903,0.11881531,0.207812431,1,,,,,,
,html-keyboard-response,374,816659,0.0-191.0-1.0,null,<p></p>,,null,,,,,,,,,,,,,,,,
,do_recog,375,819878,0.0-192.0-0.0,1710.5,,,,54,,,,413,probe-28,,,,,1,[object Object],202,5,1,
,html-keyboard-response,376,820882,0.0-192.0-1.0,null,<p></p>,,null,,,,,,,,,,,,,,,,
,do_trial,377,823798,0.0-193.0-0.0,374.4,,,,50,"0,0,0",6,blank,414,null,0.845173404,0.107801094,0.144356745,0,,,,,,
,html-keyboard-response,378,824803,0.0-193.0-1.0,null,<p></p>,,null,,,,,,,,,,,,,,,,
,do_recog,379,827804,0.0-194.0-0.0,1493.8,,,,54,,,,415,probe-174,,,,,1,[object Object],165,4,1,
,html-keyboard-response,380,828808,0.0-194.0-1.0,null,<p></p>,,null,,,,,,,,,,,,,,,,
,do_trial,381,831839,0.0-195.0-0.0,488.6,,,,50,"1,0,1",6,blank,416,null,0.672693993,0.129141202,0.300794806,0,,,,,,
,html-keyboard-response,382,832843,0.0-195.0-1.0,null,<p></p>,,null,,,,,,,,,,,,,,,,
,do_trial,383,835786,0.0-196.0-0.0,401.8,,,,50,"1,0,1",6,blank,417,null,0.584325994,0.208561842,0.337583117,0,,,,,,
,html-keyboard-response,384,836790,0.0-196.0-1.0,null,<p></p>,,null,,,,,,,,,,,,,,,,
,do_trial,385,839849,0.0-197.0-0.0,519.2,,,,50,"0,1,1",6,blank,418,null,0.547437315,0.194274882,0.432936976,1,,,,,,
,html-keyboard-response,386,840853,0.0-197.0-1.0,null,<p></p>,,null,,,,,,,,,,,,,,,,
,do_trial,387,843959,0.0-198.0-0.0,566.6,,,,50,"0,0,0",6,blank,419,null,0.534534627,0.07637903,0.406246512,0,,,,,,
,html-keyboard-response,388,844963,0.0-198.0-1.0,null,<p></p>,,null,,,,,,,,,,,,,,,,
,do_trial,389,848446,0.0-199.0-0.0,940.8,,,,51,"1,0,0",6,blank,420,null,0.476766446,0.090969074,0.226465287,0,,,,,,
,html-keyboard-response,390,849451,0.0-199.0-1.0,null,<p></p>,,null,,,,,,,,,,,,,,,,
,do_trial,391,852446,0.0-200.0-0.0,453.9,,,,50,"0,0,0",6,blank,421,null,0.728772084,0.166431125,0.301102979,0,,,,,,
,html-keyboard-response,392,853450,0.0-200.0-1.0,null,<p></p>,,null,,,,,,,,,,,,,,,,
,do_trial,393,856751,0.0-201.0-0.0,758.9,,,,49,"0,0,1",6,blank,422,null,0.654143741,0.194429627,0.383633683,0,,,,,,
,html-keyboard-response,394,857755,0.0-201.0-1.0,null,<p></p>,,null,,,,,,,,,,,,,,,,
,do_recog,395,860527,0.0-202.0-0.0,1264.3,,,,53,,,,423,probe-63,,,,,1,[object Object],47,1,1,
,html-keyboard-response,396,861530,0.0-202.0-1.0,null,<p></p>,,null,,,,,,,,,,,,,,,,
,do_trial,397,864567,0.0-203.0-0.0,497.8000001,,,,50,"1,0,0",6,blank,424,null,0.608897055,0.1534918,0.486065867,0,,,,,,
,html-keyboard-response,398,865571,0.0-203.0-1.0,null,<p></p>,,null,,,,,,,,,,,,,,,,
,do_trial,399,868630,0.0-204.0-0.0,522.4,,,,50,"1,0,0",6,blank,425,null,0.687450104,0.090441118,0.520761828,0,,,,,,
,html-keyboard-response,400,869634,0.0-204.0-1.0,null,<p></p>,,null,,,,,,,,,,,,,,,,
,do_trial,401,872482,0.0-205.0-0.0,307.1,,,,50,"0,0,1",6,blank,426,null,0.551753059,0.219548546,0.470044422,0,,,,,,
,html-keyboard-response,402,873488,0.0-205.0-1.0,null,<p></p>,,null,,,,,,,,,,,,,,,,
,do_recog,403,876037,0.0-206.0-0.0,1040.8,,,,53,,,,427,probe-142,,,,,1,[object Object],41,1,1,
,html-keyboard-response,404,877041,0.0-206.0-1.0,null,<p></p>,,null,,,,,,,,,,,,,,,,
,do_trial,405,880069,0.0-207.0-0.0,486.7,,,,50,"1,0,1",6,blank,428,null,0.647670986,0.058300681,0.530854639,0,,,,,,
,html-keyboard-response,406,881074,0.0-207.0-1.0,null,<p></p>,,null,,,,,,,,,,,,,,,,
,do_trial,407,883914,0.0-208.0-0.0,301.3,,,,50,"1,0,1",6,blank,429,null,0.68797898,0.08277641,0.467303592,0,,,,,,
,html-keyboard-response,408,884919,0.0-208.0-1.0,null,<p></p>,,null,,,,,,,,,,,,,,,,
,do_trial,409,888034,0.0-209.0-0.0,575.5999999,,,,50,"0,0,0",6,blank,430,null,0.566143359,0.135677438,0.407808436,0,,,,,,
,html-keyboard-response,410,889037,0.0-209.0-1.0,null,<p></p>,,null,,,,,,,,,,,,,,,,
,do_trial,411,892244,0.0-210.0-0.0,669.4000001,,,,51,"1,0,1",6,blank,431,null,0.494140059,0.072106998,0.249396109,1,,,,,,
,html-keyboard-response,412,893247,0.0-210.0-1.0,null,<p></p>,,null,,,,,,,,,,,,,,,,
,do_trial,413,896322,0.0-211.0-0.0,535.5999999,,,,51,"1,1,0",6,blank,432,null,0.541069311,0.21336238,0.363160005,0,,,,,,
,html-keyboard-response,414,897325,0.0-211.0-1.0,null,<p></p>,,null,,,,,,,,,,,,,,,,
,do_trial,415,900440,0.0-212.0-0.0,576.8,,,,51,"1,0,1",6,blank,433,null,0.697054714,0.179358605,0.44750069,1,,,,,,
,html-keyboard-response,416,901444,0.0-212.0-1.0,null,<p></p>,,null,,,,,,,,,,,,,,,,
,do_trial,417,904558,0.0-213.0-0.0,573.8,,,,51,"1,0,0",6,blank,434,null,0.496936893,0.131308215,0.42500408,0,,,,,,
,html-keyboard-response,418,905561,0.0-213.0-1.0,null,<p></p>,,null,,,,,,,,,,,,,,,,
,do_recog,419,908295,0.0-214.0-0.0,1227.7,,,,54,,,,435,probe-64,,,,,1,[object Object],42,1,1,
,html-keyboard-response,420,909300,0.0-214.0-1.0,null,<p></p>,,null,,,,,,,,,,,,,,,,
,do_trial,421,912278,0.0-215.0-0.0,438.9000001,,,,51,"1,0,1",6,blank,436,null,0.637795338,0.180967122,0.541058978,1,,,,,,
,html-keyboard-response,422,913281,0.0-215.0-1.0,null,<p></p>,,null,,,,,,,,,,,,,,,,
,do_trial,423,916410,0.0-216.0-0.0,589,,,,51,"1,0,0",6,blank,437,null,0.666862553,0.070169188,0.413421494,0,,,,,,
,html-keyboard-response,424,917414,0.0-216.0-1.0,null,<p></p>,,null,,,,,,,,,,,,,,,,
,do_trial,425,920633,0.0-217.0-0.0,678.6,,,,51,"1,0,1",6,blank,438,null,0.69830286,0.057115686,0.314863267,1,,,,,,
,html-keyboard-response,426,921637,0.0-217.0-1.0,null,<p></p>,,null,,,,,,,,,,,,,,,,
,do_recog,427,924338,0.0-218.0-0.0,1193.6,,,,53,,,,439,probe-84,,,,,1,[object Object],45,1,1,
,html-keyboard-response,428,925343,0.0-218.0-1.0,null,<p></p>,,null,,,,,,,,,,,,,,,,
,do_trial,429,928591,0.0-219.0-0.0,705.6,,,,51,"1,0,1",6,blank,440,null,0.756646797,0.079480937,0.361833415,1,,,,,,
,html-keyboard-response,430,929594,0.0-219.0-1.0,null,<p></p>,,null,,,,,,,,,,,,,,,,
,do_recog,431,932573,0.0-220.0-0.0,1468.5,,,,53,,,,441,probe-68,,,,,1,[object Object],88,2,1,
,html-keyboard-response,432,933578,0.0-220.0-1.0,null,<p></p>,,null,,,,,,,,,,,,,,,,
,do_trial,433,936844,0.0-221.0-0.0,724.9000001,,,,51,"1,0,0",6,blank,442,null,0.694963773,0.084276678,0.318491013,0,,,,,,
,html-keyboard-response,434,937848,0.0-221.0-1.0,null,<p></p>,,null,,,,,,,,,,,,,,,,
,do_trial,435,941101,0.0-222.0-0.0,713.2,,,,51,"1,0,0",6,blank,443,null,0.671701401,0.111071272,0.345716354,0,,,,,,
,html-keyboard-response,436,942106,0.0-222.0-1.0,null,<p></p>,,null,,,,,,,,,,,,,,,,
,do_recog,437,945075,0.0-223.0-0.0,1459.3,,,,54,,,,444,probe-62,,,,,1,[object Object],82,2,1,
,html-keyboard-response,438,946079,0.0-223.0-1.0,null,<p></p>,,null,,,,,,,,,,,,,,,,
,do_trial,439,949028,0.0-224.0-0.0,406.9,,,,51,"1,0,1",6,blank,445,null,0.779746837,0.076331908,0.397259132,1,,,,,,
,html-keyboard-response,440,950032,0.0-224.0-1.0,null,<p></p>,,null,,,,,,,,,,,,,,,,
,do_recog,441,952598,0.0-225.0-0.0,1058.4,,,,53,,,,446,probe-54,,,,,1,[object Object],80,2,1,
,html-keyboard-response,442,953603,0.0-225.0-1.0,null,<p></p>,,null,,,,,,,,,,,,,,,,
,do_trial,443,956660,0.0-226.0-0.0,518.6,,,,51,"1,0,0",6,blank,447,null,0.664865338,0.053281907,0.337308719,0,,,,,,
,html-keyboard-response,444,957666,0.0-226.0-1.0,null,<p></p>,,null,,,,,,,,,,,,,,,,
,do_recog,445,960478,0.0-227.0-0.0,1303.3,,,,55,,,,448,probe-233,,,,,0,[object Object],null,null,1,
,html-keyboard-response,446,961481,0.0-227.0-1.0,null,<p></p>,,null,,,,,,,,,,,,,,,,
,do_trial,447,964518,0.0-228.0-0.0,495,,,,51,"1,0,0",6,blank,449,null,0.790641623,0.223802187,0.399025934,0,,,,,,
,html-keyboard-response,448,965522,0.0-228.0-1.0,null,<p></p>,,null,,,,,,,,,,,,,,,,
,do_recog,449,968570,0.0-229.0-0.0,1540.7,,,,54,,,,450,probe-246,,,,,0,[object Object],null,null,0,
,html-keyboard-response,450,969573,0.0-229.0-1.0,null,<p></p>,,null,,,,,,,,,,,,,,,,
,do_trial,451,972764,0.0-230.0-0.0,649.1,,,,51,"1,0,1",6,blank,451,null,0.787374496,0.251400815,0.399188195,1,,,,,,
,html-keyboard-response,452,973768,0.0-230.0-1.0,null,<p></p>,,null,,,,,,,,,,,,,,,,
,do_recog,453,976522,0.0-231.0-0.0,1244.3,,,,54,,,,452,probe-253,,,,,0,[object Object],null,null,0,
,html-keyboard-response,454,977526,0.0-231.0-1.0,null,<p></p>,,null,,,,,,,,,,,,,,,,
,do_trial,455,980466,0.0-232.0-0.0,399.5,,,,51,"1,0,1",6,blank,453,null,0.764956761,0.070915914,0.30136768,1,,,,,,
,html-keyboard-response,456,981471,0.0-232.0-1.0,null,<p></p>,,null,,,,,,,,,,,,,,,,
,do_trial,457,984691,0.0-233.0-0.0,679.4000001,,,,51,"1,0,0",6,blank,454,null,0.796187799,0.085125525,0.186359932,0,,,,,,
,html-keyboard-response,458,985694,0.0-233.0-1.0,null,<p></p>,,null,,,,,,,,,,,,,,,,
,do_trial,459,988660,0.0-234.0-0.0,424.1999999,,,,51,"1,0,0",6,blank,455,null,0.741192966,0.10035799,0.162162668,0,,,,,,
,html-keyboard-response,460,989664,0.0-234.0-1.0,null,<p></p>,,null,,,,,,,,,,,,,,,,
,do_trial,461,992803,0.0-235.0-0.0,597.6999999,,,,50,"1,0,1",6,blank,456,null,0.614353196,0.272477483,0.204324424,0,,,,,,
,html-keyboard-response,462,993807,0.0-235.0-1.0,null,<p></p>,,null,,,,,,,,,,,,,,,,
,do_trial,463,996780,0.0-236.0-0.0,433.2,,,,50,"1,0,0",6,blank,457,null,0.441714221,0.399555426,0.166665503,0,,,,,,
,html-keyboard-response,464,997785,0.0-236.0-1.0,null,<p></p>,,null,,,,,,,,,,,,,,,,
,do_trial,465,1000711,0.0-237.0-0.0,384.2,,,,50,"0,1,0",6,blank,458,null,0.328616711,0.663417713,0.225834492,1,,,,,,
,html-keyboard-response,466,1001715,0.0-237.0-1.0,null,<p></p>,,null,,,,,,,,,,,,,,,,
,do_recog,467,1004929,0.0-238.0-0.0,1704,,,,54,,,,459,probe-255,,,,,0,[object Object],null,null,0,
,html-keyboard-response,468,1005933,0.0-238.0-1.0,null,<p></p>,,null,,,,,,,,,,,,,,,,
,do_trial,469,1009201,0.0-239.0-0.0,725.9,,,,50,"0,1,1",6,blank,460,null,0.319786305,0.645771588,0.153954407,1,,,,,,
,html-keyboard-response,470,1010205,0.0-239.0-1.0,null,<p></p>,,null,,,,,,,,,,,,,,,,
,do_recog,471,1012959,0.0-240.0-0.0,1245.4,,,,55,,,,461,probe-245,,,,,0,[object Object],null,null,1,
,html-keyboard-response,472,1013963,0.0-240.0-1.0,null,<p></p>,,null,,,,,,,,,,,,,,,,
,do_trial,473,1016991,0.0-241.0-0.0,487.9,,,,50,"1,1,0",6,blank,462,null,0.374130076,0.665619333,0.09399614,1,,,,,,
,html-keyboard-response,474,1017997,0.0-241.0-1.0,null,<p></p>,,null,,,,,,,,,,,,,,,,
,do_recog,475,1020453,0.0-242.0-0.0,947.5,,,,55,,,,463,probe-249,,,,,0,[object Object],null,null,1,
,html-keyboard-response,476,1021457,0.0-242.0-1.0,null,<p></p>,,null,,,,,,,,,,,,,,,,
,do_trial,477,1024445,0.0-243.0-0.0,447,,,,50,"1,0,0",6,blank,464,null,0.380052491,0.550634626,0.188889344,0,,,,,,
,html-keyboard-response,478,1025449,0.0-243.0-1.0,null,<p></p>,,null,,,,,,,,,,,,,,,,
,do_trial,479,1028537,0.0-244.0-0.0,547.6999999,,,,50,"0,0,1",6,blank,465,null,0.481874184,0.453018255,0.232341303,0,,,,,,
,html-keyboard-response,480,1029541,0.0-244.0-1.0,null,<p></p>,,null,,,,,,,,,,,,,,,,
,do_trial,481,1032815,0.0-245.0-0.0,733.3,,,,50,"1,0,0",6,blank,466,null,0.389354774,0.417651791,0.065545439,0,,,,,,
,html-keyboard-response,482,1033821,0.0-245.0-1.0,null,<p></p>,,null,,,,,,,,,,,,,,,,
,do_trial,483,1037308,0.0-246.0-0.0,945.1,,,,50,"0,0,0",6,blank,467,null,0.397641702,0.399670733,0.07878422,0,,,,,,
,html-keyboard-response,484,1038312,0.0-246.0-1.0,null,<p></p>,,null,,,,,,,,,,,,,,,,
,do_trial,485,1041333,0.0-247.0-0.0,478.7,,,,51,"0,1,0",6,blank,468,null,0.356399441,0.432064874,0.122481897,0,,,,,,
,html-keyboard-response,486,1042339,0.0-247.0-1.0,null,<p></p>,,null,,,,,,,,,,,,,,,,
,do_trial,487,1045339,0.0-248.0-0.0,461,,,,51,"0,1,0",6,blank,469,null,0.252247551,0.499045212,0.105220963,0,,,,,,
,html-keyboard-response,488,1046343,0.0-248.0-1.0,null,<p></p>,,null,,,,,,,,,,,,,,,,
,do_recog,489,1048880,0.0-249.0-0.0,1030.3,,,,55,,,,470,probe-236,,,,,0,[object Object],null,null,1,
,html-keyboard-response,490,1049883,0.0-249.0-1.0,null,<p></p>,,null,,,,,,,,,,,,,,,,
,do_trial,491,1053105,0.0-250.0-0.0,681.2,,,,51,"0,1,0",6,blank,471,null,0.31250435,0.480098106,0.208519434,0,,,,,,
,html-keyboard-response,492,1054109,0.0-250.0-1.0,null,<p></p>,,null,,,,,,,,,,,,,,,,
,do_recog,493,1057233,0.0-251.0-0.0,1614.4,,,,54,,,,472,probe-248,,,,,0,[object Object],null,null,0,
,html-keyboard-response,494,1058238,0.0-251.0-1.0,null,<p></p>,,null,,,,,,,,,,,,,,,,
,do_trial,495,1061168,0.0-252.0-0.0,387.6,,,,51,"0,1,0",6,blank,473,null,0.11708163,0.599347245,0.276192322,0,,,,,,
,html-keyboard-response,496,1062172,0.0-252.0-1.0,null,<p></p>,,null,,,,,,,,,,,,,,,,
,do_trial,497,1065116,0.0-253.0-0.0,404.2,,,,51,"0,0,1",6,blank,474,null,0.163787229,0.555080865,0.287030794,1,,,,,,
,html-keyboard-response,498,1066119,0.0-253.0-1.0,null,<p></p>,,null,,,,,,,,,,,,,,,,
,do_trial,499,1069136,0.0-254.0-0.0,476.5,,,,51,"0,0,0",6,blank,475,null,0.114958822,0.575152278,0.278884346,0,,,,,,
,html-keyboard-response,500,1070141,0.0-254.0-1.0,null,<p></p>,,null,,,,,,,,,,,,,,,,
,do_trial,501,1073086,0.0-255.0-0.0,405.9,,,,51,"0,0,0",6,blank,476,null,0.239149891,0.62261087,0.270400442,0,,,,,,
,html-keyboard-response,502,1074090,0.0-255.0-1.0,null,<p></p>,,null,,,,,,,,,,,,,,,,
,do_trial,503,1077027,0.0-256.0-0.0,396.8,,,,51,"1,1,0",6,blank,477,null,0.289948867,0.661914179,0.279620968,0,,,,,,
,html-keyboard-response,504,1078031,0.0-256.0-1.0,null,<p></p>,,null,,,,,,,,,,,,,,,,
,do_trial,505,1081201,0.0-257.0-0.0,628.7,,,,50,"0,1,0",6,blank,478,null,0.26249955,0.655730887,0.227100317,1,,,,,,
,html-keyboard-response,506,1082205,0.0-257.0-1.0,null,<p></p>,,null,,,,,,,,,,,,,,,,
,do_recog,507,1084881,0.0-258.0-0.0,1165.9,,,,54,,,,479,probe-231,,,,,0,[object Object],null,null,0,
,html-keyboard-response,508,1085885,0.0-258.0-1.0,null,<p></p>,,null,,,,,,,,,,,,,,,,
,do_pick_best_pirate,509,1087338,0.0-259.0-0.0,444.9,,,,50,,,,,,,,,,,,,,,
,do_pick_best_pirate,510,1090388,0.0-260.0-0.0,2040.6,,,,51,,,,,,,,,,,,,,,
,do_pick_best_pirate,511,1093395,0.0-261.0-0.0,1997.1,,,,49,,,,,,,,,,,,,,,
,do_pick_best_pirate,512,1095212,0.0-262.0-0.0,806.5,,,,50,,,,,,,,,,,,,,,
,do_pick_best_pirate,513,1097915,0.0-263.0-0.0,1693.6,,,,49,,,,,,,,,,,,,,,
,do_pick_best_pirate,514,1100792,0.0-264.0-0.0,1871.2,,,,50,,,,,,,,,,,,,,,
,html-keyboard-response,515,1108714,0.0-265.0-0.0,7920.4,<p>You are all done with the experiment!</p><p> You made $15 plus $2 in bonus payment!</p><p>Thank you for participating. You will recieve your payment within 3 days.<p><b>[Press the space bar to end the experiment]</b></p></div>,,32,,,,,,,,,,,,,,,,