"success","trial_type","trial_index","time_elapsed","internal_node_id","interactions","blur_events","focus_events","fullscreenenter_events","fullscreenexit_events","rt","stimulus","key_press","subject_id","participant_id","age","gender","prompt","response","choice_outcomes","context_n","context_img_id","trial_n","probe_img_id","pR_red","pR_white","pR_black","outcome","is_valid","image_to_show","probed_trial","probed_context","correct","probe","probed_trial_n","probed_context_n","context_im"
"true","fullscreen","0","27992","0.0-0.0","""event"",""trial"",""time""
""blur"",""0"",""4540""
""focus"",""0"",""25167""
""fullscreenenter"",""0"",""27038""
","""event"",""trial"",""time""
""blur"",""0"",""4540""
","""event"",""trial"",""time""
""focus"",""0"",""25167""
","""event"",""trial"",""time""
""fullscreenenter"",""0"",""27038""
","
","","","","","","","","","","","","","","","","","","","","","","","","","","",""
"","pavlovia","1","27999","0.0-1.0","""event"",""trial"",""time""
""blur"",""0"",""4540""
""focus"",""0"",""25167""
""fullscreenenter"",""0"",""27038""
","""event"",""trial"",""time""
""blur"",""0"",""4540""
","""event"",""trial"",""time""
""focus"",""0"",""25167""
","""event"",""trial"",""time""
""fullscreenenter"",""0"",""27038""
","
","","","","","","","","","","","","","","","","","","","","","","","","","","",""
"","welc_back","2","37848","0.0-2.0","""event"",""trial"",""time""
""blur"",""0"",""4540""
""focus"",""0"",""25167""
""fullscreenenter"",""0"",""27038""
","""event"",""trial"",""time""
""blur"",""0"",""4540""
","""event"",""trial"",""time""
""focus"",""0"",""25167""
","""event"",""trial"",""time""
""fullscreenenter"",""0"",""27038""
","
","null","run_exp/static/audio/clip_29_welcome_back.m4a","null","419","877","25","Male","<div class='center'><p>Welcome to day 2!</p><p> Yesterday, you were the head captain of a pirate ship. You asked your fellow pirates to rob other ships of their gold across six different islands.</p></div>","","","","","","","","","","","","","","","","","","",""
"","html-keyboard-response","3","39762","0.0-3.0","""event"",""trial"",""time""
""blur"",""0"",""4540""
""focus"",""0"",""25167""
""fullscreenenter"",""0"",""27038""
","""event"",""trial"",""time""
""blur"",""0"",""4540""
","""event"",""trial"",""time""
""focus"",""0"",""25167""
","""event"",""trial"",""time""
""fullscreenenter"",""0"",""27038""
","
","1911.2999999523163","<div class='center'><p>Welcome to day 2!</p><p> Yesterday, you were the head captain of a pirate ship. You asked your fellow pirates to rob other ships of their gold across six different islands.</p><p><b>[Press the space bar to continue]</b></p></div>","32","","","","","","","","","","","","","","","","","","","","","","","",""
"","day_1_summary_goal","4","56962","0.0-4.0","""event"",""trial"",""time""
""blur"",""0"",""4540""
""focus"",""0"",""25167""
""fullscreenenter"",""0"",""27038""
","""event"",""trial"",""time""
""blur"",""0"",""4540""
","""event"",""trial"",""time""
""focus"",""0"",""25167""
","""event"",""trial"",""time""
""fullscreenenter"",""0"",""27038""
","
","null","run_exp/static/audio/clip_30_goal_of_game.m4a","null","","","","","<div class='center'><p>Today, like yesterday, you get to pick which pirate you want to rob the next ship.</p><p>If the pirate is successful in robbing a ship, you get gold coins that look like this: </p><p><img src='run_exp/static/images/tutorial/reward.png' height='150'></p><p> If they were not successful in robbing the ship, then you will get no gold coins and you'll see a big red x like this: </p><p><img src='run_exp/static/images/tutorial/reward_no.png' height='150'></p></div>","","","","","","","","","","","","","","","","","","",""
"","html-keyboard-response","5","57852","0.0-5.0","""event"",""trial"",""time""
""blur"",""0"",""4540""
""focus"",""0"",""25167""
""fullscreenenter"",""0"",""27038""
","""event"",""trial"",""time""
""blur"",""0"",""4540""
","""event"",""trial"",""time""
""focus"",""0"",""25167""
","""event"",""trial"",""time""
""fullscreenenter"",""0"",""27038""
","
","887.9000000357628","<div class='center'><p>Today, like yesterday, you get to pick which pirate you want to rob the next ship.</p><p>If the pirate is successful in robbing a ship, you get gold coins that look like this: </p><p><img src='run_exp/static/images/tutorial/reward.png' height='150'></p><p> If they were not successful in robbing the ship, then you will get no gold coins and you'll see a big red x like this: </p><p><img src='run_exp/static/images/tutorial/reward_no.png' height='150'></p><p><b>[Press the space bar to continue]</b></p></div>","32","","","","","","","","","","","","","","","","","","","","","","","",""
"","day_1_summary_pick","6","72556","0.0-6.0","""event"",""trial"",""time""
""blur"",""0"",""4540""
""focus"",""0"",""25167""
""fullscreenenter"",""0"",""27038""
","""event"",""trial"",""time""
""blur"",""0"",""4540""
","""event"",""trial"",""time""
""focus"",""0"",""25167""
","""event"",""trial"",""time""
""fullscreenenter"",""0"",""27038""
","
","null","run_exp/static/audio/clip_31_how_to_pick_a_pirate.m4a","null","","","","","<div class='center'><p>Also, just like yesterday, you will use the 1,2,3 keys on your keyboard to pick a pirate. Press '1' to choose red beard, '2' to choose white beard, and '3' to choose black beard . You only have 3 seconds to pick a pirate, so please make a choice quickly!</p></div>","","","","","","","","","","","","","","","","","","",""
"","html-keyboard-response","7","73191","0.0-7.0","""event"",""trial"",""time""
""blur"",""0"",""4540""
""focus"",""0"",""25167""
""fullscreenenter"",""0"",""27038""
","""event"",""trial"",""time""
""blur"",""0"",""4540""
","""event"",""trial"",""time""
""focus"",""0"",""25167""
","""event"",""trial"",""time""
""fullscreenenter"",""0"",""27038""
","
","633.1000000238419","<div class='center'><p>Also, just like yesterday, you will use the 1,2,3 keys on your keyboard to pick a pirate. Press '1' to choose red beard, '2' to choose white beard, and '3' to choose black beard . You only have 3 seconds to pick a pirate, so please make a choice quickly!</p><p><b>[Press the space bar to continue]</b></p></div>","32","","","","","","","","","","","","","","","","","","","","","","","",""
"","test_phase_begin","8","103597","0.0-8.0","""event"",""trial"",""time""
""blur"",""0"",""4540""
""focus"",""0"",""25167""
""fullscreenenter"",""0"",""27038""
","""event"",""trial"",""time""
""blur"",""0"",""4540""
","""event"",""trial"",""time""
""focus"",""0"",""25167""
","""event"",""trial"",""time""
""fullscreenenter"",""0"",""27038""
","
","null","run_exp/static/audio/clip_32_final_place.m4a","null","","","","","<div class='center'><p>You’ve arrived at the final island of your journey! Unfortunately, it’s very foggy out, so you won’t be able to see it in the distance like the other islands you've visited.</p><p>You’ll still be deciding which pirate you want to rob a ship like before. However, because of the fog, you also won’t be able to see the ship.</p><p>This means you do not have to remember the ships you rob on this island.</p><p>Unlike yesterday, you won't be visiting multiple islands today. You will stay on this island for the entire game. This game will last ~30 minutes.</p></div>","","","","","","","","","","","","","","","","","","",""
"","html-keyboard-response","9","104910","0.0-9.0","""event"",""trial"",""time""
""blur"",""0"",""4540""
""focus"",""0"",""25167""
""fullscreenenter"",""0"",""27038""
","""event"",""trial"",""time""
""blur"",""0"",""4540""
","""event"",""trial"",""time""
""focus"",""0"",""25167""
","""event"",""trial"",""time""
""fullscreenenter"",""0"",""27038""
","
","1311.5","<div class='center'><p>You’ve arrived at the final island of your journey! Unfortunately, it’s very foggy out, so you won’t be able to see it in the distance like the other islands you've visited.</p><p>You’ll still be deciding which pirate you want to rob a ship like before. However, because of the fog, you also won’t be able to see the ship.</p><p>This means you do not have to remember the ships you rob on this island.</p><p>Unlike yesterday, you won't be visiting multiple islands today. You will stay on this island for the entire game. This game will last ~30 minutes.</p><p><b>[Press the space bar to continue]</b></p></div>","32","","","","","","","","","","","","","","","","","","","","","","","",""
"","explain_probe_1","10","112620","0.0-10.0","""event"",""trial"",""time""
""blur"",""0"",""4540""
""focus"",""0"",""25167""
""fullscreenenter"",""0"",""27038""
","""event"",""trial"",""time""
""blur"",""0"",""4540""
","""event"",""trial"",""time""
""focus"",""0"",""25167""
","""event"",""trial"",""time""
""fullscreenenter"",""0"",""27038""
","
","null","run_exp/static/audio/clip_33_recognition_1.m4a","null","","","","","<div class='center'><p> Sometimes you’ll be shown a ship, and you will be asked if you saw this ship on a past island.</p><p> Here is an example of what you will see.</p><p><img src='run_exp/static/images/tutorial/example_recog_trial.png' height='500'></p></div>","","","","","","","","","","","","","","","","","","",""
"","html-keyboard-response","11","113443","0.0-11.0","""event"",""trial"",""time""
""blur"",""0"",""4540""
""focus"",""0"",""25167""
""fullscreenenter"",""0"",""27038""
","""event"",""trial"",""time""
""blur"",""0"",""4540""
","""event"",""trial"",""time""
""focus"",""0"",""25167""
","""event"",""trial"",""time""
""fullscreenenter"",""0"",""27038""
","
","820.6999999880791","<div class='center'><p> Sometimes you’ll be shown a ship, and you will be asked if you saw this ship on a past island.</p><p> Here is an example of what you will see.</p><p><img src='run_exp/static/images/tutorial/example_recog_trial.png' height='500'></p><p><b>[Press the space bar to continue]</b></p></div>","32","","","","","","","","","","","","","","","","","","","","","","","",""
"","explain_probe_2","12","135170","0.0-12.0","""event"",""trial"",""time""
""blur"",""0"",""4540""
""focus"",""0"",""25167""
""fullscreenenter"",""0"",""27038""
","""event"",""trial"",""time""
""blur"",""0"",""4540""
","""event"",""trial"",""time""
""focus"",""0"",""25167""
","""event"",""trial"",""time""
""fullscreenenter"",""0"",""27038""
","
","null","run_exp/static/audio/clip_34_recognition_2.m4a","null","","","","","<div class='center'><p> You will press the 5, 6, 7, 8 keys on your keyboard to respond.</p><p>If you are sure you saw the ship, press <b>5</b> on your keyboard.</p><p> If you think you saw it before but aren't sure, then press <b>6</b>.</p><p> If you think you have <b>not</b> seen it before but aren't sure, then press <b>7</b>.</p><p> If you are sure you did <b>not</b> see the ship before, then press <b>8</b>.</p><p><img src='run_exp/static/images/tutorial/example_recog_trial.png' height='500'></p></div>","","","","","","","","","","","","","","","","","","",""
"","html-keyboard-response","13","135977","0.0-13.0","""event"",""trial"",""time""
""blur"",""0"",""4540""
""focus"",""0"",""25167""
""fullscreenenter"",""0"",""27038""
","""event"",""trial"",""time""
""blur"",""0"",""4540""
","""event"",""trial"",""time""
""focus"",""0"",""25167""
","""event"",""trial"",""time""
""fullscreenenter"",""0"",""27038""
","
","805.3000000119209","<div class='center'><p> You will press the 5, 6, 7, 8 keys on your keyboard to respond.</p><p>If you are sure you saw the ship, press <b>5</b> on your keyboard.</p><p> If you think you saw it before but aren't sure, then press <b>6</b>.</p><p> If you think you have <b>not</b> seen it before but aren't sure, then press <b>7</b>.</p><p> If you are sure you did <b>not</b> see the ship before, then press <b>8</b>.</p><p><img src='run_exp/static/images/tutorial/example_recog_trial.png' height='500'></p><p><b>[Press the space bar to continue]</b></p></div>","32","","","","","","","","","","","","","","","","","","","","","","","",""
"","explain_outcome","14","153175","0.0-14.0","""event"",""trial"",""time""
""blur"",""0"",""4540""
""focus"",""0"",""25167""
""fullscreenenter"",""0"",""27038""
","""event"",""trial"",""time""
""blur"",""0"",""4540""
","""event"",""trial"",""time""
""focus"",""0"",""25167""
","""event"",""trial"",""time""
""fullscreenenter"",""0"",""27038""
","
","null","run_exp/static/audio/clip_35_recognition_3.m4a","null","","","","","<div class='center'><p> If you remember correctly, then you’ll get a gold coin like this: </p><p><img src='run_exp/static/images/tutorial/reward_small.png' height='200'></p><p>If you do not remember correctly, then you'll see a red x like this: </p><p><img src='run_exp/static/images/tutorial/reward_no.png' height='200'></p><p>Importantly, when you are shown a ship, take the time to remind yourself which island you saw it on. This will help you in the next part of the study.</p></div>","","","","","","","","","","","","","","","","","","",""
"","html-keyboard-response","15","153691","0.0-15.0","""event"",""trial"",""time""
""blur"",""0"",""4540""
""focus"",""0"",""25167""
""fullscreenenter"",""0"",""27038""
","""event"",""trial"",""time""
""blur"",""0"",""4540""
","""event"",""trial"",""time""
""focus"",""0"",""25167""
","""event"",""trial"",""time""
""fullscreenenter"",""0"",""27038""
","
","513.6999999880791","<div class='center'><p> If you remember correctly, then you’ll get a gold coin like this: </p><p><img src='run_exp/static/images/tutorial/reward_small.png' height='200'></p><p>If you do not remember correctly, then you'll see a red x like this: </p><p><img src='run_exp/static/images/tutorial/reward_no.png' height='200'></p><p>Importantly, when you are shown a ship, take the time to remind yourself which island you saw it on. This will help you in the next part of the study.</p><p><b>[Press the space bar to continue]</b></p></div>","32","","","","","","","","","","","","","","","","","","","","","","","",""
"","begin_test_phase","16","169495","0.0-16.0","""event"",""trial"",""time""
""blur"",""0"",""4540""
""focus"",""0"",""25167""
""fullscreenenter"",""0"",""27038""
","""event"",""trial"",""time""
""blur"",""0"",""4540""
","""event"",""trial"",""time""
""focus"",""0"",""25167""
","""event"",""trial"",""time""
""fullscreenenter"",""0"",""27038""
","
","null","run_exp/static/audio/clip_36_begin_final.m4a","null","","","","","<div class='center'><p>Let's go over the important points again. Your job is to: </p><p>1. Pick the pirate who is best at robbing ships and will bring you back gold coins. </p><p>2. Correctly remember whether or not you saw a ship before. If you did see the ship before, remind yourself on which island you saw it. </p></div>","","","","","","","","","","","","","","","","","","",""
"","html-keyboard-response","17","177964","0.0-17.0","""event"",""trial"",""time""
""blur"",""0"",""4540""
""focus"",""0"",""25167""
""fullscreenenter"",""0"",""27038""
","""event"",""trial"",""time""
""blur"",""0"",""4540""
","""event"",""trial"",""time""
""focus"",""0"",""25167""
","""event"",""trial"",""time""
""fullscreenenter"",""0"",""27038""
","
","8433.199999988079","<div class='center'><p>Let's go over the important points again. Your job is to: </p><p>1. Pick the pirate who is best at robbing ships and will bring you back gold coins. </p><p>2. Correctly remember whether or not you saw a ship before. If you did see the ship before, remind yourself on which island you saw it. </p><p><b>[Press the space bar to continue]</b></p></div>","32","","","","","","","","","","","","","","","","","","","","","","","",""
"","do_welcome","18","181981","0.0-18.0","""event"",""trial"",""time""
""blur"",""0"",""4540""
""focus"",""0"",""25167""
""fullscreenenter"",""0"",""27038""
","""event"",""trial"",""time""
""blur"",""0"",""4540""
","""event"",""trial"",""time""
""focus"",""0"",""25167""
","""event"",""trial"",""time""
""fullscreenenter"",""0"",""27038""
","
","null","","","","","","","","null","","","","","","","","","","","","","","","","","",""
"","do_trial","19","186017","0.0-19.0-0.0","""event"",""trial"",""time""
""blur"",""0"",""4540""
""focus"",""0"",""25167""
""fullscreenenter"",""0"",""27038""
","""event"",""trial"",""time""
""blur"",""0"",""4540""
","""event"",""trial"",""time""
""focus"",""0"",""25167""
","""event"",""trial"",""time""
""fullscreenenter"",""0"",""27038""
","
","1481","","","","","","","","49","1,0,0","6","blank","230","null","0.35841656322218435","0.5638318825085117","0.37810133762831527","1","","","","","","","","",""
"","html-keyboard-response","20","187025","0.0-19.0-1.0","""event"",""trial"",""time""
""blur"",""0"",""4540""
""focus"",""0"",""25167""
""fullscreenenter"",""0"",""27038""
","""event"",""trial"",""time""
""blur"",""0"",""4540""
","""event"",""trial"",""time""
""focus"",""0"",""25167""
","""event"",""trial"",""time""
""fullscreenenter"",""0"",""27038""
","
","null","<p></p>","null","","","","","","","","","","","","","","","","","","","","","","","",""
"","do_trial","21","190333","0.0-20.0-0.0","""event"",""trial"",""time""
""blur"",""0"",""4540""
""focus"",""0"",""25167""
""fullscreenenter"",""0"",""27038""
","""event"",""trial"",""time""
""blur"",""0"",""4540""
","""event"",""trial"",""time""
""focus"",""0"",""25167""
","""event"",""trial"",""time""
""fullscreenenter"",""0"",""27038""
","
","748.6000000238419","","","","","","","","49","0,0,1","6","blank","231","null","0.3385020167081188","0.5301815444806743","0.34623747542051575","0","","","","","","","","",""
"","html-keyboard-response","22","191338","0.0-20.0-1.0","""event"",""trial"",""time""
""blur"",""0"",""4540""
""focus"",""0"",""25167""
""fullscreenenter"",""0"",""27038""
","""event"",""trial"",""time""
""blur"",""0"",""4540""
","""event"",""trial"",""time""
""focus"",""0"",""25167""
","""event"",""trial"",""time""
""fullscreenenter"",""0"",""27038""
","
","null","<p></p>","null","","","","","","","","","","","","","","","","","","","","","","","",""
"","do_trial","23","194323","0.0-21.0-0.0","""event"",""trial"",""time""
""blur"",""0"",""4540""
""focus"",""0"",""25167""
""fullscreenenter"",""0"",""27038""
","""event"",""trial"",""time""
""blur"",""0"",""4540""
","""event"",""trial"",""time""
""focus"",""0"",""25167""
","""event"",""trial"",""time""
""fullscreenenter"",""0"",""27038""
","
","434.19999998807907","","","","","","","","49","0,0,0","6","blank","232","null","0.2529371995416498","0.5425943162985356","0.35096915927346933","0","","","","","","","","",""
"","html-keyboard-response","24","195330","0.0-21.0-1.0","""event"",""trial"",""time""
""blur"",""0"",""4540""
""focus"",""0"",""25167""
""fullscreenenter"",""0"",""27038""
","""event"",""trial"",""time""
""blur"",""0"",""4540""
","""event"",""trial"",""time""
""focus"",""0"",""25167""
","""event"",""trial"",""time""
""fullscreenenter"",""0"",""27038""
","
","null","<p></p>","null","","","","","","","","","","","","","","","","","","","","","","","",""
"","do_trial","25","197887","0.0-22.0-0.0","""event"",""trial"",""time""
""blur"",""0"",""4540""
""focus"",""0"",""25167""
""fullscreenenter"",""0"",""27038""
","""event"",""trial"",""time""
""blur"",""0"",""4540""
","""event"",""trial"",""time""
""focus"",""0"",""25167""
","""event"",""trial"",""time""
""fullscreenenter"",""0"",""27038""
","
","0.09999996423721313","","","","","","","","50","1,1,0","6","blank","233","null","0.40657643647282093","0.5645501598296631","0.30485567777860156","1","","","","","","","","",""
"","html-keyboard-response","26","198891","0.0-22.0-1.0","""event"",""trial"",""time""
""blur"",""0"",""4540""
""focus"",""0"",""25167""
""fullscreenenter"",""0"",""27038""
","""event"",""trial"",""time""
""blur"",""0"",""4540""
","""event"",""trial"",""time""
""focus"",""0"",""25167""
","""event"",""trial"",""time""
""fullscreenenter"",""0"",""27038""
","
","null","<p></p>","null","","","","","","","","","","","","","","","","","","","","","","","",""
"","do_trial","27","201449","0.0-23.0-0.0","""event"",""trial"",""time""
""blur"",""0"",""4540""
""focus"",""0"",""25167""
""fullscreenenter"",""0"",""27038""
","""event"",""trial"",""time""
""blur"",""0"",""4540""
","""event"",""trial"",""time""
""focus"",""0"",""25167""
","""event"",""trial"",""time""
""fullscreenenter"",""0"",""27038""
","
","0.10000002384185791","","","","","","","","50","0,1,0","6","blank","234","null","0.36717322513046313","0.5235225401717899","0.17394734995827338","1","","","","","","","","",""
"","html-keyboard-response","28","202456","0.0-23.0-1.0","""event"",""trial"",""time""
""blur"",""0"",""4540""
""focus"",""0"",""25167""
""fullscreenenter"",""0"",""27038""
","""event"",""trial"",""time""
""blur"",""0"",""4540""
","""event"",""trial"",""time""
""focus"",""0"",""25167""
","""event"",""trial"",""time""
""fullscreenenter"",""0"",""27038""
","
","null","<p></p>","null","","","","","","","","","","","","","","","","","","","","","","","",""
"","do_trial","29","205069","0.0-24.0-0.0","""event"",""trial"",""time""
""blur"",""0"",""4540""
""focus"",""0"",""25167""
""fullscreenenter"",""0"",""27038""
","""event"",""trial"",""time""
""blur"",""0"",""4540""
","""event"",""trial"",""time""
""focus"",""0"",""25167""
","""event"",""trial"",""time""
""fullscreenenter"",""0"",""27038""
","
","58.90000003576279","","","","","","","","50","0,1,0","6","blank","235","null","0.3458805972495657","0.49150111979694416","0.15617255908313366","1","","","","","","","","",""
"","html-keyboard-response","30","206077","0.0-24.0-1.0","""event"",""trial"",""time""
""blur"",""0"",""4540""
""focus"",""0"",""25167""
""fullscreenenter"",""0"",""27038""
","""event"",""trial"",""time""
""blur"",""0"",""4540""
","""event"",""trial"",""time""
""focus"",""0"",""25167""
","""event"",""trial"",""time""
""fullscreenenter"",""0"",""27038""
","
","null","<p></p>","null","","","","","","","","","","","","","","","","","","","","","","","",""
"","do_trial","31","209143","0.0-25.0-0.0","""event"",""trial"",""time""
""blur"",""0"",""4540""
""focus"",""0"",""25167""
""fullscreenenter"",""0"",""27038""
","""event"",""trial"",""time""
""blur"",""0"",""4540""
","""event"",""trial"",""time""
""focus"",""0"",""25167""
","""event"",""trial"",""time""
""fullscreenenter"",""0"",""27038""
","
","513.6000000238419","","","","","","","","50","0,1,0","6","blank","236","null","0.488125294412189","0.5944664763629054","0.11882316899893852","1","","","","","","","","",""
"","html-keyboard-response","32","210150","0.0-25.0-1.0","""event"",""trial"",""time""
""blur"",""0"",""4540""
""focus"",""0"",""25167""
""fullscreenenter"",""0"",""27038""
","""event"",""trial"",""time""
""blur"",""0"",""4540""
","""event"",""trial"",""time""
""focus"",""0"",""25167""
","""event"",""trial"",""time""
""fullscreenenter"",""0"",""27038""
","
","null","<p></p>","null","","","","","","","","","","","","","","","","","","","","","","","",""
"","do_trial","33","213091","0.0-26.0-0.0","""event"",""trial"",""time""
""blur"",""0"",""4540""
""focus"",""0"",""25167""
""fullscreenenter"",""0"",""27038""
","""event"",""trial"",""time""
""blur"",""0"",""4540""
","""event"",""trial"",""time""
""focus"",""0"",""25167""
","""event"",""trial"",""time""
""fullscreenenter"",""0"",""27038""
","
","388.19999998807907","","","","","","","","50","1,1,0","6","blank","237","null","0.47991630148276443","0.6552797788569731","0.06777915375991078","1","","","","","","","","",""
"","html-keyboard-response","34","214098","0.0-26.0-1.0","""event"",""trial"",""time""
""blur"",""0"",""4540""
""focus"",""0"",""25167""
""fullscreenenter"",""0"",""27038""
","""event"",""trial"",""time""
""blur"",""0"",""4540""
","""event"",""trial"",""time""
""focus"",""0"",""25167""
","""event"",""trial"",""time""
""fullscreenenter"",""0"",""27038""
","
","null","<p></p>","null","","","","","","","","","","","","","","","","","","","","","","","",""
"","do_trial","35","216861","0.0-27.0-0.0","""event"",""trial"",""time""
""blur"",""0"",""4540""
""focus"",""0"",""25167""
""fullscreenenter"",""0"",""27038""
","""event"",""trial"",""time""
""blur"",""0"",""4540""
","""event"",""trial"",""time""
""focus"",""0"",""25167""
","""event"",""trial"",""time""
""fullscreenenter"",""0"",""27038""
","
","211","","","","","","","","50","0,0,0","6","blank","238","null","0.3413292859900467","0.572565253618564","0.06690731659404243","0","","","","","","","","",""
"","html-keyboard-response","36","217863","0.0-27.0-1.0","""event"",""trial"",""time""
""blur"",""0"",""4540""
""focus"",""0"",""25167""
""fullscreenenter"",""0"",""27038""
","""event"",""trial"",""time""
""blur"",""0"",""4540""
","""event"",""trial"",""time""
""focus"",""0"",""25167""
","""event"",""trial"",""time""
""fullscreenenter"",""0"",""27038""
","
","null","<p></p>","null","","","","","","","","","","","","","","","","","","","","","","","",""
"","do_trial","37","220482","0.0-28.0-0.0","""event"",""trial"",""time""
""blur"",""0"",""4540""
""focus"",""0"",""25167""
""fullscreenenter"",""0"",""27038""
","""event"",""trial"",""time""
""blur"",""0"",""4540""
","""event"",""trial"",""time""
""focus"",""0"",""25167""
","""event"",""trial"",""time""
""fullscreenenter"",""0"",""27038""
","
","63.89999997615814","","","","","","","","50","1,1,0","6","blank","239","null","0.39956332465714656","0.7161932083804615","0.0614768015004691","1","","","","","","","","",""
"","html-keyboard-response","38","221488","0.0-28.0-1.0","""event"",""trial"",""time""
""blur"",""0"",""4540""
""focus"",""0"",""25167""
""fullscreenenter"",""0"",""27038""
","""event"",""trial"",""time""
""blur"",""0"",""4540""
","""event"",""trial"",""time""
""focus"",""0"",""25167""
","""event"",""trial"",""time""
""fullscreenenter"",""0"",""27038""
","
","null","<p></p>","null","","","","","","","","","","","","","","","","","","","","","","","",""
"","do_trial","39","224097","0.0-29.0-0.0","""event"",""trial"",""time""
""blur"",""0"",""4540""
""focus"",""0"",""25167""
""fullscreenenter"",""0"",""27038""
","""event"",""trial"",""time""
""blur"",""0"",""4540""
","""event"",""trial"",""time""
""focus"",""0"",""25167""
","""event"",""trial"",""time""
""fullscreenenter"",""0"",""27038""
","
","58.299999952316284","","","","","","","","50","1,1,0","6","blank","240","null","0.5311302556988912","0.6615169954213169","0.12132141194775166","1","","","","","","","","",""
"","html-keyboard-response","40","225102","0.0-29.0-1.0","""event"",""trial"",""time""
""blur"",""0"",""4540""
""focus"",""0"",""25167""
""fullscreenenter"",""0"",""27038""
","""event"",""trial"",""time""
""blur"",""0"",""4540""
","""event"",""trial"",""time""
""focus"",""0"",""25167""
","""event"",""trial"",""time""
""fullscreenenter"",""0"",""27038""
","
","null","<p></p>","null","","","","","","","","","","","","","","","","","","","","","","","",""
"","do_trial","41","228001","0.0-30.0-0.0","""event"",""trial"",""time""
""blur"",""0"",""4540""
""focus"",""0"",""25167""
""fullscreenenter"",""0"",""27038""
","""event"",""trial"",""time""
""blur"",""0"",""4540""
","""event"",""trial"",""time""
""focus"",""0"",""25167""
","""event"",""trial"",""time""
""fullscreenenter"",""0"",""27038""
","
","342","","","","","","","","50","1,1,0","6","blank","241","null","0.5778709906296599","0.6851671786380689","0.2681548343309834","1","","","","","","","","",""
"","html-keyboard-response","42","229006","0.0-30.0-1.0","""event"",""trial"",""time""
""blur"",""0"",""4540""
""focus"",""0"",""25167""
""fullscreenenter"",""0"",""27038""
","""event"",""trial"",""time""
""blur"",""0"",""4540""
","""event"",""trial"",""time""
""focus"",""0"",""25167""
","""event"",""trial"",""time""
""fullscreenenter"",""0"",""27038""
","
","null","<p></p>","null","","","","","","","","","","","","","","","","","","","","","","","",""
"","do_trial","43","231816","0.0-31.0-0.0","""event"",""trial"",""time""
""blur"",""0"",""4540""
""focus"",""0"",""25167""
""fullscreenenter"",""0"",""27038""
","""event"",""trial"",""time""
""blur"",""0"",""4540""
","""event"",""trial"",""time""
""focus"",""0"",""25167""
","""event"",""trial"",""time""
""fullscreenenter"",""0"",""27038""
","
","246.69999998807907","","","","","","","","50","1,1,1","6","blank","242","null","0.39469612000988513","0.37676574866121526","0.3453641571504083","1","","","","","","","","",""
"","html-keyboard-response","44","232823","0.0-31.0-1.0","""event"",""trial"",""time""
""blur"",""0"",""4540""
""focus"",""0"",""25167""
""fullscreenenter"",""0"",""27038""
","""event"",""trial"",""time""
""blur"",""0"",""4540""
","""event"",""trial"",""time""
""focus"",""0"",""25167""
","""event"",""trial"",""time""
""fullscreenenter"",""0"",""27038""
","
","null","<p></p>","null","","","","","","","","","","","","","","","","","","","","","","","",""
"","do_trial","45","235507","0.0-32.0-0.0","""event"",""trial"",""time""
""blur"",""0"",""4540""
""focus"",""0"",""25167""
""fullscreenenter"",""0"",""27038""
","""event"",""trial"",""time""
""blur"",""0"",""4540""
","""event"",""trial"",""time""
""focus"",""0"",""25167""
","""event"",""trial"",""time""
""fullscreenenter"",""0"",""27038""
","
","131.69999998807907","","","","","","","","50","1,0,1","6","blank","243","null","0.2670692887898509","0.31194297322838815","0.37764228743385303","0","","","","","","","","",""
"","html-keyboard-response","46","236510","0.0-32.0-1.0","""event"",""trial"",""time""
""blur"",""0"",""4540""
""focus"",""0"",""25167""
""fullscreenenter"",""0"",""27038""
","""event"",""trial"",""time""
""blur"",""0"",""4540""
","""event"",""trial"",""time""
""focus"",""0"",""25167""
","""event"",""trial"",""time""
""fullscreenenter"",""0"",""27038""
","
","null","<p></p>","null","","","","","","","","","","","","","","","","","","","","","","","",""
"","do_trial","47","239135","0.0-33.0-0.0","""event"",""trial"",""time""
""blur"",""0"",""4540""
""focus"",""0"",""25167""
""fullscreenenter"",""0"",""27038""
","""event"",""trial"",""time""
""blur"",""0"",""4540""
","""event"",""trial"",""time""
""focus"",""0"",""25167""
","""event"",""trial"",""time""
""fullscreenenter"",""0"",""27038""
","
","76.59999996423721","","","","","","","","50","1,0,0","6","blank","244","null","0.20865516973484824","0.46033574107775627","0.6102031773901933","0","","","","","","","","",""
"","html-keyboard-response","48","240138","0.0-33.0-1.0","""event"",""trial"",""time""
""blur"",""0"",""4540""
""focus"",""0"",""25167""
""fullscreenenter"",""0"",""27038""
","""event"",""trial"",""time""
""blur"",""0"",""4540""
","""event"",""trial"",""time""
""focus"",""0"",""25167""
","""event"",""trial"",""time""
""fullscreenenter"",""0"",""27038""
","
","null","<p></p>","null","","","","","","","","","","","","","","","","","","","","","","","",""
"","do_trial","49","242873","0.0-34.0-0.0","""event"",""trial"",""time""
""blur"",""0"",""4540""
""focus"",""0"",""25167""
""fullscreenenter"",""0"",""27038""
","""event"",""trial"",""time""
""blur"",""0"",""4540""
","""event"",""trial"",""time""
""focus"",""0"",""25167""
","""event"",""trial"",""time""
""fullscreenenter"",""0"",""27038""
","
","184.9000000357628","","","","","","","","50","0,1,1","6","blank","245","null","0.13142423519484203","0.46740346480304396","0.5753118306753371","1","","","","","","","","",""
"","html-keyboard-response","50","243877","0.0-34.0-1.0","""event"",""trial"",""time""
""blur"",""0"",""4540""
""focus"",""0"",""25167""
""fullscreenenter"",""0"",""27038""
","""event"",""trial"",""time""
""blur"",""0"",""4540""
","""event"",""trial"",""time""
""focus"",""0"",""25167""
","""event"",""trial"",""time""
""fullscreenenter"",""0"",""27038""
","
","null","<p></p>","null","","","","","","","","","","","","","","","","","","","","","","","",""
"","do_recog","51","249894","0.0-35.0-0.0","""event"",""trial"",""time""
""blur"",""0"",""4540""
""focus"",""0"",""25167""
""fullscreenenter"",""0"",""27038""
","""event"",""trial"",""time""
""blur"",""0"",""4540""
","""event"",""trial"",""time""
""focus"",""0"",""25167""
","""event"",""trial"",""time""
""fullscreenenter"",""0"",""27038""
","
","null","","","","","","","","null","","","","246","probe-09","","","","","1","[object Object]","113","2","0","","","",""
"","html-keyboard-response","52","250898","0.0-35.0-1.0","""event"",""trial"",""time""
""blur"",""0"",""4540""
""focus"",""0"",""25167""
""fullscreenenter"",""0"",""27038""
","""event"",""trial"",""time""
""blur"",""0"",""4540""
","""event"",""trial"",""time""
""focus"",""0"",""25167""
","""event"",""trial"",""time""
""fullscreenenter"",""0"",""27038""
","
","null","<p></p>","null","","","","","","","","","","","","","","","","","","","","","","","",""
"","do_trial","53","254802","0.0-36.0-0.0","""event"",""trial"",""time""
""blur"",""0"",""4540""
""focus"",""0"",""25167""
""fullscreenenter"",""0"",""27038""
","""event"",""trial"",""time""
""blur"",""0"",""4540""
","""event"",""trial"",""time""
""focus"",""0"",""25167""
","""event"",""trial"",""time""
""fullscreenenter"",""0"",""27038""
","
","1348","","","","","","","","50","0,0,0","6","blank","247","null","0.08853906035652515","0.39870544510908695","0.5168773961479096","0","","","","","","","","",""
"","html-keyboard-response","54","255809","0.0-36.0-1.0","""event"",""trial"",""time""
""blur"",""0"",""4540""
""focus"",""0"",""25167""
""fullscreenenter"",""0"",""27038""
","""event"",""trial"",""time""
""blur"",""0"",""4540""
","""event"",""trial"",""time""
""focus"",""0"",""25167""
","""event"",""trial"",""time""
""fullscreenenter"",""0"",""27038""
","
","null","<p></p>","null","","","","","","","","","","","","","","","","","","","","","","","",""
"","do_trial","55","258559","0.0-37.0-0.0","""event"",""trial"",""time""
""blur"",""0"",""4540""
""focus"",""0"",""25167""
""fullscreenenter"",""0"",""27038""
","""event"",""trial"",""time""
""blur"",""0"",""4540""
","""event"",""trial"",""time""
""focus"",""0"",""25167""
","""event"",""trial"",""time""
""fullscreenenter"",""0"",""27038""
","
","195.19999998807907","","","","","","","","50","0,0,0","6","blank","248","null","0.059332685448873115","0.44955254831088304","0.5741294959294866","0","","","","","","","","",""
"","html-keyboard-response","56","259562","0.0-37.0-1.0","""event"",""trial"",""time""
""blur"",""0"",""4540""
""focus"",""0"",""25167""
""fullscreenenter"",""0"",""27038""
","""event"",""trial"",""time""
""blur"",""0"",""4540""
","""event"",""trial"",""time""
""focus"",""0"",""25167""
","""event"",""trial"",""time""
""fullscreenenter"",""0"",""27038""
","
","null","<p></p>","null","","","","","","","","","","","","","","","","","","","","","","","",""
"","do_trial","57","262214","0.0-38.0-0.0","""event"",""trial"",""time""
""blur"",""0"",""4540""
""focus"",""0"",""25167""
""fullscreenenter"",""0"",""27038""
","""event"",""trial"",""time""
""blur"",""0"",""4540""
","""event"",""trial"",""time""
""focus"",""0"",""25167""
","""event"",""trial"",""time""
""fullscreenenter"",""0"",""27038""
","
","100.19999998807907","","","","","","","","50","1,0,1","6","blank","249","null","0.16334329292903707","0.37495416031630435","0.5255209007257923","0","","","","","","","","",""
"","html-keyboard-response","58","263222","0.0-38.0-1.0","""event"",""trial"",""time""
""blur"",""0"",""4540""
""focus"",""0"",""25167""
""fullscreenenter"",""0"",""27038""
","""event"",""trial"",""time""
""blur"",""0"",""4540""
","""event"",""trial"",""time""
""focus"",""0"",""25167""
","""event"",""trial"",""time""
""fullscreenenter"",""0"",""27038""
","
","null","<p></p>","null","","","","","","","","","","","","","","","","","","","","","","","",""
"","do_trial","59","265768","0.0-39.0-0.0","""event"",""trial"",""time""
""blur"",""0"",""4540""
""focus"",""0"",""25167""
""fullscreenenter"",""0"",""27038""
","""event"",""trial"",""time""
""blur"",""0"",""4540""
","""event"",""trial"",""time""
""focus"",""0"",""25167""
","""event"",""trial"",""time""
""fullscreenenter"",""0"",""27038""
","
","0.30000001192092896","","","","","","","","50","1,1,1","6","blank","250","null","0.19932757467036843","0.3403458702103149","0.5271908609931498","1","","","","","","","","",""
"","html-keyboard-response","60","266771","0.0-39.0-1.0","""event"",""trial"",""time""
""blur"",""0"",""4540""
""focus"",""0"",""25167""
""fullscreenenter"",""0"",""27038""
","""event"",""trial"",""time""
""blur"",""0"",""4540""
","""event"",""trial"",""time""
""focus"",""0"",""25167""
","""event"",""trial"",""time""
""fullscreenenter"",""0"",""27038""
","
","null","<p></p>","null","","","","","","","","","","","","","","","","","","","","","","","",""
"","do_trial","61","269328","0.0-40.0-0.0","""event"",""trial"",""time""
""blur"",""0"",""4540""
""focus"",""0"",""25167""
""fullscreenenter"",""0"",""27038""
","""event"",""trial"",""time""
""blur"",""0"",""4540""
","""event"",""trial"",""time""
""focus"",""0"",""25167""
","""event"",""trial"",""time""
""fullscreenenter"",""0"",""27038""
","
","0.09999996423721313","","","","","","","","50","0,0,0","6","blank","251","null","0.06880486986389606","0.34747270347914994","0.6105515212238929","0","","","","","","","","",""
"","html-keyboard-response","62","270334","0.0-40.0-1.0","""event"",""trial"",""time""
""blur"",""0"",""4540""
""focus"",""0"",""25167""
""fullscreenenter"",""0"",""27038""
","""event"",""trial"",""time""
""blur"",""0"",""4540""
","""event"",""trial"",""time""
""focus"",""0"",""25167""
","""event"",""trial"",""time""
""fullscreenenter"",""0"",""27038""
","
","null","<p></p>","null","","","","","","","","","","","","","","","","","","","","","","","",""
"","do_trial","63","272990","0.0-41.0-0.0","""event"",""trial"",""time""
""blur"",""0"",""4540""
""focus"",""0"",""25167""
""fullscreenenter"",""0"",""27038""
","""event"",""trial"",""time""
""blur"",""0"",""4540""
","""event"",""trial"",""time""
""focus"",""0"",""25167""
","""event"",""trial"",""time""
""fullscreenenter"",""0"",""27038""
","
","104.89999997615814","","","","","","","","51","0,0,0","6","blank","252","null","0.06251361193224617","0.27062142293685804","0.552827436783017","0","","","","","","","","",""
"","html-keyboard-response","64","273998","0.0-41.0-1.0","""event"",""trial"",""time""
""blur"",""0"",""4540""
""focus"",""0"",""25167""
""fullscreenenter"",""0"",""27038""
","""event"",""trial"",""time""
""blur"",""0"",""4540""
","""event"",""trial"",""time""
""focus"",""0"",""25167""
","""event"",""trial"",""time""
""fullscreenenter"",""0"",""27038""
","
","null","<p></p>","null","","","","","","","","","","","","","","","","","","","","","","","",""
"","do_recog","65","277568","0.0-42.0-0.0","""event"",""trial"",""time""
""blur"",""0"",""4540""
""focus"",""0"",""25167""
""fullscreenenter"",""0"",""27038""
","""event"",""trial"",""time""
""blur"",""0"",""4540""
","""event"",""trial"",""time""
""focus"",""0"",""25167""
","""event"",""trial"",""time""
""fullscreenenter"",""0"",""27038""
","
","2058.300000011921","","","","","","","","55","","","","253","probe-147","","","","","1","[object Object]","151","3","0","","","",""
"","html-keyboard-response","66","278573","0.0-42.0-1.0","""event"",""trial"",""time""
""blur"",""0"",""4540""
""focus"",""0"",""25167""
""fullscreenenter"",""0"",""27038""
","""event"",""trial"",""time""
""blur"",""0"",""4540""
","""event"",""trial"",""time""
""focus"",""0"",""25167""
","""event"",""trial"",""time""
""fullscreenenter"",""0"",""27038""
","
","null","<p></p>","null","","","","","","","","","","","","","","","","","","","","","","","",""
"","do_trial","67","282346","0.0-43.0-0.0","""event"",""trial"",""time""
""blur"",""0"",""4540""
""focus"",""0"",""25167""
""fullscreenenter"",""0"",""27038""
","""event"",""trial"",""time""
""blur"",""0"",""4540""
","""event"",""trial"",""time""
""focus"",""0"",""25167""
","""event"",""trial"",""time""
""fullscreenenter"",""0"",""27038""
","
","1218.800000011921","","","","","","","","50","0,0,1","6","blank","254","null","0.15654684642557026","0.1826449390400434","0.5948187886071428","0","","","","","","","","",""
"","html-keyboard-response","68","283354","0.0-43.0-1.0","""event"",""trial"",""time""
""blur"",""0"",""4540""
""focus"",""0"",""25167""
""fullscreenenter"",""0"",""27038""
","""event"",""trial"",""time""
""blur"",""0"",""4540""
","""event"",""trial"",""time""
""focus"",""0"",""25167""
","""event"",""trial"",""time""
""fullscreenenter"",""0"",""27038""
","
","null","<p></p>","null","","","","","","","","","","","","","","","","","","","","","","","",""
"","do_recog","69","289372","0.0-44.0-0.0","""event"",""trial"",""time""
""blur"",""0"",""4540""
""focus"",""0"",""25167""
""fullscreenenter"",""0"",""27038""
","""event"",""trial"",""time""
""blur"",""0"",""4540""
","""event"",""trial"",""time""
""focus"",""0"",""25167""
","""event"",""trial"",""time""
""fullscreenenter"",""0"",""27038""
","
","null","","","","","","","","null","","","","255","probe-111","","","","","1","[object Object]","71","1","0","","","",""
"","html-keyboard-response","70","290380","0.0-44.0-1.0","""event"",""trial"",""time""
""blur"",""0"",""4540""
""focus"",""0"",""25167""
""fullscreenenter"",""0"",""27038""
","""event"",""trial"",""time""
""blur"",""0"",""4540""
","""event"",""trial"",""time""
""focus"",""0"",""25167""
","""event"",""trial"",""time""
""fullscreenenter"",""0"",""27038""
","
","null","<p></p>","null","","","","","","","","","","","","","","","","","","","","","","","",""
"","do_trial","71","294022","0.0-45.0-0.0","""event"",""trial"",""time""
""blur"",""0"",""4540""
""focus"",""0"",""25167""
""fullscreenenter"",""0"",""27038""
","""event"",""trial"",""time""
""blur"",""0"",""4540""
","""event"",""trial"",""time""
""focus"",""0"",""25167""
","""event"",""trial"",""time""
""fullscreenenter"",""0"",""27038""
","
","1093.3999999761581","","","","","","","","49","0,0,0","6","blank","256","null","0.18756820848686281","0.3100804456917323","0.7629022041884932","0","","","","","","","","",""
"","html-keyboard-response","72","295030","0.0-45.0-1.0","""event"",""trial"",""time""
""blur"",""0"",""4540""
""focus"",""0"",""25167""
""fullscreenenter"",""0"",""27038""
","""event"",""trial"",""time""
""blur"",""0"",""4540""
","""event"",""trial"",""time""
""focus"",""0"",""25167""
","""event"",""trial"",""time""
""fullscreenenter"",""0"",""27038""
","
","null","<p></p>","null","","","","","","","","","","","","","","","","","","","","","","","",""
"","do_trial","73","297853","0.0-46.0-0.0","""event"",""trial"",""time""
""blur"",""0"",""4540""
""focus"",""0"",""25167""
""fullscreenenter"",""0"",""27038""
","""event"",""trial"",""time""
""blur"",""0"",""4540""
","""event"",""trial"",""time""
""focus"",""0"",""25167""
","""event"",""trial"",""time""
""fullscreenenter"",""0"",""27038""
","
","267","","","","","","","","50","0,0,1","6","blank","257","null","0.061220392769322646","0.3070173399342179","0.780941272568705","0","","","","","","","","",""
"","html-keyboard-response","74","298856","0.0-46.0-1.0","""event"",""trial"",""time""
""blur"",""0"",""4540""
""focus"",""0"",""25167""
""fullscreenenter"",""0"",""27038""
","""event"",""trial"",""time""
""blur"",""0"",""4540""
","""event"",""trial"",""time""
""focus"",""0"",""25167""
","""event"",""trial"",""time""
""fullscreenenter"",""0"",""27038""
","
","null","<p></p>","null","","","","","","","","","","","","","","","","","","","","","","","",""
"","do_trial","75","301698","0.0-47.0-0.0","""event"",""trial"",""time""
""blur"",""0"",""4540""
""focus"",""0"",""25167""
""fullscreenenter"",""0"",""27038""
","""event"",""trial"",""time""
""blur"",""0"",""4540""
","""event"",""trial"",""time""
""focus"",""0"",""25167""
","""event"",""trial"",""time""
""fullscreenenter"",""0"",""27038""
","
","288","","","","","","","","50","1,0,1","6","blank","258","null","0.06649878135748265","0.3222020888915128","0.6626606393508595","0","","","","","","","","",""
"","html-keyboard-response","76","302705","0.0-47.0-1.0","""event"",""trial"",""time""
""blur"",""0"",""4540""
""focus"",""0"",""25167""
""fullscreenenter"",""0"",""27038""
","""event"",""trial"",""time""
""blur"",""0"",""4540""
","""event"",""trial"",""time""
""focus"",""0"",""25167""
","""event"",""trial"",""time""
""fullscreenenter"",""0"",""27038""
","
","null","<p></p>","null","","","","","","","","","","","","","","","","","","","","","","","",""
"","do_trial","77","306091","0.0-48.0-0.0","""event"",""trial"",""time""
""blur"",""0"",""4540""
""focus"",""0"",""25167""
""fullscreenenter"",""0"",""27038""
","""event"",""trial"",""time""
""blur"",""0"",""4540""
","""event"",""trial"",""time""
""focus"",""0"",""25167""
","""event"",""trial"",""time""
""fullscreenenter"",""0"",""27038""
","
","833.1000000238419","","","","","","","","51","0,0,1","6","blank","259","null","0.053689280808786856","0.16261931292878465","0.7020445513254143","1","","","","","","","","",""
"","html-keyboard-response","78","307099","0.0-48.0-1.0","""event"",""trial"",""time""
""blur"",""0"",""4540""
""focus"",""0"",""25167""
""fullscreenenter"",""0"",""27038""
","""event"",""trial"",""time""
""blur"",""0"",""4540""
","""event"",""trial"",""time""
""focus"",""0"",""25167""
","""event"",""trial"",""time""
""fullscreenenter"",""0"",""27038""
","
","null","<p></p>","null","","","","","","","","","","","","","","","","","","","","","","","",""
"","do_recog","79","310736","0.0-49.0-0.0","""event"",""trial"",""time""
""blur"",""0"",""4540""
""focus"",""0"",""25167""
""fullscreenenter"",""0"",""27038""
","""event"",""trial"",""time""
""blur"",""0"",""4540""
","""event"",""trial"",""time""
""focus"",""0"",""25167""
","""event"",""trial"",""time""
""fullscreenenter"",""0"",""27038""
","
","2124.2000000476837","","","","","","","","54","","","","260","probe-245","","","","","0","[object Object]","null","null","0","","","",""
"","html-keyboard-response","80","311744","0.0-49.0-1.0","""event"",""trial"",""time""
""blur"",""0"",""4540""
""focus"",""0"",""25167""
""fullscreenenter"",""0"",""27038""
","""event"",""trial"",""time""
""blur"",""0"",""4540""
","""event"",""trial"",""time""
""focus"",""0"",""25167""
","""event"",""trial"",""time""
""fullscreenenter"",""0"",""27038""
","
","null","<p></p>","null","","","","","","","","","","","","","","","","","","","","","","","",""
"","do_trial","81","315147","0.0-50.0-0.0","""event"",""trial"",""time""
""blur"",""0"",""4540""
""focus"",""0"",""25167""
""fullscreenenter"",""0"",""27038""
","""event"",""trial"",""time""
""blur"",""0"",""4540""
","""event"",""trial"",""time""
""focus"",""0"",""25167""
","""event"",""trial"",""time""
""fullscreenenter"",""0"",""27038""
","
","849.3000000119209","","","","","","","","50","1,0,1","6","blank","261","null","0.09179284194836683","0.15452116676820057","0.6354080729693723","0","","","","","","","","",""
"","html-keyboard-response","82","316153","0.0-50.0-1.0","""event"",""trial"",""time""
""blur"",""0"",""4540""
""focus"",""0"",""25167""
""fullscreenenter"",""0"",""27038""
","""event"",""trial"",""time""
""blur"",""0"",""4540""
","""event"",""trial"",""time""
""focus"",""0"",""25167""
","""event"",""trial"",""time""
""fullscreenenter"",""0"",""27038""
","
","null","<p></p>","null","","","","","","","","","","","","","","","","","","","","","","","",""
"","do_trial","83","318707","0.0-51.0-0.0","""event"",""trial"",""time""
""blur"",""0"",""4540""
""focus"",""0"",""25167""
""fullscreenenter"",""0"",""27038""
","""event"",""trial"",""time""
""blur"",""0"",""4540""
","""event"",""trial"",""time""
""focus"",""0"",""25167""
","""event"",""trial"",""time""
""fullscreenenter"",""0"",""27038""
","
","0.09999996423721313","","","","","","","","51","0,0,1","6","blank","262","null","0.11887667194671636","0.18151261043525377","0.6301020281742108","1","","","","","","","","",""
"","html-keyboard-response","84","319711","0.0-51.0-1.0","""event"",""trial"",""time""
""blur"",""0"",""4540""
""focus"",""0"",""25167""
""fullscreenenter"",""0"",""27038""
","""event"",""trial"",""time""
""blur"",""0"",""4540""
","""event"",""trial"",""time""
""focus"",""0"",""25167""
","""event"",""trial"",""time""
""fullscreenenter"",""0"",""27038""
","
","null","<p></p>","null","","","","","","","","","","","","","","","","","","","","","","","",""
"","do_trial","85","322566","0.0-52.0-0.0","""event"",""trial"",""time""
""blur"",""0"",""4540""
""focus"",""0"",""25167""
""fullscreenenter"",""0"",""27038""
","""event"",""trial"",""time""
""blur"",""0"",""4540""
","""event"",""trial"",""time""
""focus"",""0"",""25167""
","""event"",""trial"",""time""
""fullscreenenter"",""0"",""27038""
","
","302.2999999523163","","","","","","","","51","0,0,0","6","blank","263","null","0.07332291594700045","0.3001875986408066","0.5684179852436829","0","","","","","","","","",""
"","html-keyboard-response","86","323572","0.0-52.0-1.0","""event"",""trial"",""time""
""blur"",""0"",""4540""
""focus"",""0"",""25167""
""fullscreenenter"",""0"",""27038""
","""event"",""trial"",""time""
""blur"",""0"",""4540""
","""event"",""trial"",""time""
""focus"",""0"",""25167""
","""event"",""trial"",""time""
""fullscreenenter"",""0"",""27038""
","
","null","<p></p>","null","","","","","","","","","","","","","","","","","","","","","","","",""
"","do_recog","87","326804","0.0-53.0-0.0","""event"",""trial"",""time""
""blur"",""0"",""4540""
""focus"",""0"",""25167""
""fullscreenenter"",""0"",""27038""
","""event"",""trial"",""time""
""blur"",""0"",""4540""
","""event"",""trial"",""time""
""focus"",""0"",""25167""
","""event"",""trial"",""time""
""fullscreenenter"",""0"",""27038""
","
","1717.7999999523163","","","","","","","","54","","","","264","probe-74","","","","","1","[object Object]","158","3","1","","","",""
"","html-keyboard-response","88","327812","0.0-53.0-1.0","""event"",""trial"",""time""
""blur"",""0"",""4540""
""focus"",""0"",""25167""
""fullscreenenter"",""0"",""27038""
","""event"",""trial"",""time""
""blur"",""0"",""4540""
","""event"",""trial"",""time""
""focus"",""0"",""25167""
","""event"",""trial"",""time""
""fullscreenenter"",""0"",""27038""
","
","null","<p></p>","null","","","","","","","","","","","","","","","","","","","","","","","",""
"","do_trial","89","331156","0.0-54.0-0.0","""event"",""trial"",""time""
""blur"",""0"",""4540""
""focus"",""0"",""25167""
""fullscreenenter"",""0"",""27038""
","""event"",""trial"",""time""
""blur"",""0"",""4540""
","""event"",""trial"",""time""
""focus"",""0"",""25167""
","""event"",""trial"",""time""
""fullscreenenter"",""0"",""27038""
","
","792.1999999880791","","","","","","","","49","0,1,1","6","blank","265","null","0.05438778579316436","0.3739177657610989","0.48340340278865024","0","","","","","","","","",""
"","html-keyboard-response","90","332164","0.0-54.0-1.0","""event"",""trial"",""time""
""blur"",""0"",""4540""
""focus"",""0"",""25167""
""fullscreenenter"",""0"",""27038""
","""event"",""trial"",""time""
""blur"",""0"",""4540""
","""event"",""trial"",""time""
""focus"",""0"",""25167""
","""event"",""trial"",""time""
""fullscreenenter"",""0"",""27038""
","
","null","<p></p>","null","","","","","","","","","","","","","","","","","","","","","","","",""
"","do_trial","91","335387","0.0-55.0-0.0","""event"",""trial"",""time""
""blur"",""0"",""4540""
""focus"",""0"",""25167""
""fullscreenenter"",""0"",""27038""
","""event"",""trial"",""time""
""blur"",""0"",""4540""
","""event"",""trial"",""time""
""focus"",""0"",""25167""
","""event"",""trial"",""time""
""fullscreenenter"",""0"",""27038""
","
","667.3000000119209","","","","","","","","50","1,1,1","6","blank","266","null","0.08588901532305825","0.2505588897192939","0.5472742764664227","1","","","","","","","","",""
"","html-keyboard-response","92","336390","0.0-55.0-1.0","""event"",""trial"",""time""
""blur"",""0"",""4540""
""focus"",""0"",""25167""
""fullscreenenter"",""0"",""27038""
","""event"",""trial"",""time""
""blur"",""0"",""4540""
","""event"",""trial"",""time""
""focus"",""0"",""25167""
","""event"",""trial"",""time""
""fullscreenenter"",""0"",""27038""
","
","null","<p></p>","null","","","","","","","","","","","","","","","","","","","","","","","",""
"","do_trial","93","338944","0.0-56.0-0.0","""event"",""trial"",""time""
""blur"",""0"",""4540""
""focus"",""0"",""25167""
""fullscreenenter"",""0"",""27038""
","""event"",""trial"",""time""
""blur"",""0"",""4540""
","""event"",""trial"",""time""
""focus"",""0"",""25167""
","""event"",""trial"",""time""
""fullscreenenter"",""0"",""27038""
","
","0.09999996423721313","","","","","","","","50","0,0,0","6","blank","267","null","0.18965252779879124","0.35378845053212826","0.5908836353590728","0","","","","","","","","",""
"","html-keyboard-response","94","339949","0.0-56.0-1.0","""event"",""trial"",""time""
""blur"",""0"",""4540""
""focus"",""0"",""25167""
""fullscreenenter"",""0"",""27038""
","""event"",""trial"",""time""
""blur"",""0"",""4540""
","""event"",""trial"",""time""
""focus"",""0"",""25167""
","""event"",""trial"",""time""
""fullscreenenter"",""0"",""27038""
","
","null","<p></p>","null","","","","","","","","","","","","","","","","","","","","","","","",""
"","do_recog","95","343085","0.0-57.0-0.0","""event"",""trial"",""time""
""blur"",""0"",""4540""
""focus"",""0"",""25167""
""fullscreenenter"",""0"",""27038""
","""event"",""trial"",""time""
""blur"",""0"",""4540""
","""event"",""trial"",""time""
""focus"",""0"",""25167""
","""event"",""trial"",""time""
""fullscreenenter"",""0"",""27038""
","
","1624.199999988079","","","","","","","","54","","","","268","probe-202","","","","","1","[object Object]","117","2","1","","","",""
"","html-keyboard-response","96","344092","0.0-57.0-1.0","""event"",""trial"",""time""
""blur"",""0"",""4540""
""focus"",""0"",""25167""
""fullscreenenter"",""0"",""27038""
","""event"",""trial"",""time""
""blur"",""0"",""4540""
","""event"",""trial"",""time""
""focus"",""0"",""25167""
","""event"",""trial"",""time""
""fullscreenenter"",""0"",""27038""
","
","null","<p></p>","null","","","","","","","","","","","","","","","","","","","","","","","",""
"","break","97","346437","0.0-58.0-0.0","""event"",""trial"",""time""
""blur"",""0"",""4540""
""focus"",""0"",""25167""
""fullscreenenter"",""0"",""27038""
","""event"",""trial"",""time""
""blur"",""0"",""4540""
","""event"",""trial"",""time""
""focus"",""0"",""25167""
","""event"",""trial"",""time""
""fullscreenenter"",""0"",""27038""
","
","2342.800000011921","<div class='center'><p>Time to take a quick break! You have 2 minutes to rest, but you can move on sooner if you'd like.</p><p> Press the <b>space bar</b> to continue.</p></div>","32","","","","","","","","","","","","","","","","","","","","","","","",""
"","do_trial","98","349821","0.0-58.0-1.0","""event"",""trial"",""time""
""blur"",""0"",""4540""
""focus"",""0"",""25167""
""fullscreenenter"",""0"",""27038""
","""event"",""trial"",""time""
""blur"",""0"",""4540""
","""event"",""trial"",""time""
""focus"",""0"",""25167""
","""event"",""trial"",""time""
""fullscreenenter"",""0"",""27038""
","
","835.1000000238419","","","","","","","","49","0,0,0","6","blank","269","null","0.13402339447789688","0.16002793133351745","0.5784864208919487","0","","","","","","","","",""
"","html-keyboard-response","99","350828","0.0-58.0-2.0","""event"",""trial"",""time""
""blur"",""0"",""4540""
""focus"",""0"",""25167""
""fullscreenenter"",""0"",""27038""
","""event"",""trial"",""time""
""blur"",""0"",""4540""
","""event"",""trial"",""time""
""focus"",""0"",""25167""
","""event"",""trial"",""time""
""fullscreenenter"",""0"",""27038""
","
","null","<p></p>","null","","","","","","","","","","","","","","","","","","","","","","","",""
"","do_recog","100","354103","0.0-59.0-0.0","""event"",""trial"",""time""
""blur"",""0"",""4540""
""focus"",""0"",""25167""
""fullscreenenter"",""0"",""27038""
","""event"",""trial"",""time""
""blur"",""0"",""4540""
","""event"",""trial"",""time""
""focus"",""0"",""25167""
","""event"",""trial"",""time""
""fullscreenenter"",""0"",""27038""
","
","1762.300000011921","","","","","","","","55","","","","270","probe-123","","","","","1","[object Object]","110","2","0","","","",""
"","html-keyboard-response","101","355111","0.0-59.0-1.0","""event"",""trial"",""time""
""blur"",""0"",""4540""
""focus"",""0"",""25167""
""fullscreenenter"",""0"",""27038""
","""event"",""trial"",""time""
""blur"",""0"",""4540""
","""event"",""trial"",""time""
""focus"",""0"",""25167""
","""event"",""trial"",""time""
""fullscreenenter"",""0"",""27038""
","
","null","<p></p>","null","","","","","","","","","","","","","","","","","","","","","","","",""
"","do_trial","102","358408","0.0-60.0-0.0","""event"",""trial"",""time""
""blur"",""0"",""4540""
""focus"",""0"",""25167""
""fullscreenenter"",""0"",""27038""
","""event"",""trial"",""time""
""blur"",""0"",""4540""
","""event"",""trial"",""time""
""focus"",""0"",""25167""
","""event"",""trial"",""time""
""fullscreenenter"",""0"",""27038""
","
","748.5","","","","","","","","49","0,0,0","6","blank","271","null","0.20056413273400442","0.24334778030674722","0.676223021316306","0","","","","","","","","",""
"","html-keyboard-response","103","359412","0.0-60.0-1.0","""event"",""trial"",""time""
""blur"",""0"",""4540""
""focus"",""0"",""25167""
""fullscreenenter"",""0"",""27038""
","""event"",""trial"",""time""
""blur"",""0"",""4540""
","""event"",""trial"",""time""
""focus"",""0"",""25167""
","""event"",""trial"",""time""
""fullscreenenter"",""0"",""27038""
","
","null","<p></p>","null","","","","","","","","","","","","","","","","","","","","","","","",""
"","do_trial","104","362043","0.0-61.0-0.0","""event"",""trial"",""time""
""blur"",""0"",""4540""
""focus"",""0"",""25167""
""fullscreenenter"",""0"",""27038""
","""event"",""trial"",""time""
""blur"",""0"",""4540""
","""event"",""trial"",""time""
""focus"",""0"",""25167""
","""event"",""trial"",""time""
""fullscreenenter"",""0"",""27038""
","
","85.90000003576279","","","","","","","","50","1,0,1","6","blank","272","null","0.15232311927541234","0.2717325051624504","0.6062358747403945","0","","","","","","","","",""
"","html-keyboard-response","105","363050","0.0-61.0-1.0","""event"",""trial"",""time""
""blur"",""0"",""4540""
""focus"",""0"",""25167""
""fullscreenenter"",""0"",""27038""
","""event"",""trial"",""time""
""blur"",""0"",""4540""
","""event"",""trial"",""time""
""focus"",""0"",""25167""
","""event"",""trial"",""time""
""fullscreenenter"",""0"",""27038""
","
","null","<p></p>","null","","","","","","","","","","","","","","","","","","","","","","","",""
"","do_trial","106","366026","0.0-62.0-0.0","""event"",""trial"",""time""
""blur"",""0"",""4540""
""focus"",""0"",""25167""
""fullscreenenter"",""0"",""27038""
","""event"",""trial"",""time""
""blur"",""0"",""4540""
","""event"",""trial"",""time""
""focus"",""0"",""25167""
","""event"",""trial"",""time""
""fullscreenenter"",""0"",""27038""
","
","422.19999998807907","","","","","","","","50","0,0,0","6","blank","273","null","0.13880856457722882","0.232449950129379","0.6609242271109054","0","","","","","","","","",""
"","html-keyboard-response","107","367033","0.0-62.0-1.0","""event"",""trial"",""time""
""blur"",""0"",""4540""
""focus"",""0"",""25167""
""fullscreenenter"",""0"",""27038""
","""event"",""trial"",""time""
""blur"",""0"",""4540""
","""event"",""trial"",""time""
""focus"",""0"",""25167""
","""event"",""trial"",""time""
""fullscreenenter"",""0"",""27038""
","
","null","<p></p>","null","","","","","","","","","","","","","","","","","","","","","","","",""
"","do_trial","108","369796","0.0-63.0-0.0","""event"",""trial"",""time""
""blur"",""0"",""4540""
""focus"",""0"",""25167""
""fullscreenenter"",""0"",""27038""
","""event"",""trial"",""time""
""blur"",""0"",""4540""
","""event"",""trial"",""time""
""focus"",""0"",""25167""
","""event"",""trial"",""time""
""fullscreenenter"",""0"",""27038""
","
","215.30000001192093","","","","","","","","51","0,0,1","6","blank","274","null","0.1003974739221343","0.2716519339104197","0.598895062933191","1","","","","","","","","",""
"","html-keyboard-response","109","370804","0.0-63.0-1.0","""event"",""trial"",""time""
""blur"",""0"",""4540""
""focus"",""0"",""25167""
""fullscreenenter"",""0"",""27038""
","""event"",""trial"",""time""
""blur"",""0"",""4540""
","""event"",""trial"",""time""
""focus"",""0"",""25167""
","""event"",""trial"",""time""
""fullscreenenter"",""0"",""27038""
","
","null","<p></p>","null","","","","","","","","","","","","","","","","","","","","","","","",""
"","do_trial","110","373734","0.0-64.0-0.0","""event"",""trial"",""time""
""blur"",""0"",""4540""
""focus"",""0"",""25167""
""fullscreenenter"",""0"",""27038""
","""event"",""trial"",""time""
""blur"",""0"",""4540""
","""event"",""trial"",""time""
""focus"",""0"",""25167""
","""event"",""trial"",""time""
""fullscreenenter"",""0"",""27038""
","
","377.5","","","","","","","","51","0,1,1","6","blank","275","null","0.0850279748917429","0.23976973620149797","0.6051877880007741","1","","","","","","","","",""
"","html-keyboard-response","111","374742","0.0-64.0-1.0","""event"",""trial"",""time""
""blur"",""0"",""4540""
""focus"",""0"",""25167""
""fullscreenenter"",""0"",""27038""
","""event"",""trial"",""time""
""blur"",""0"",""4540""
","""event"",""trial"",""time""
""focus"",""0"",""25167""
","""event"",""trial"",""time""
""fullscreenenter"",""0"",""27038""
","
","null","<p></p>","null","","","","","","","","","","","","","","","","","","","","","","","",""
"","do_trial","112","377755","0.0-65.0-0.0","""event"",""trial"",""time""
""blur"",""0"",""4540""
""focus"",""0"",""25167""
""fullscreenenter"",""0"",""27038""
","""event"",""trial"",""time""
""blur"",""0"",""4540""
","""event"",""trial"",""time""
""focus"",""0"",""25167""
","""event"",""trial"",""time""
""fullscreenenter"",""0"",""27038""
","
","458.7000000476837","","","","","","","","51","0,0,0","6","blank","276","null","0.17598168199554123","0.17834670441285752","0.6021875712029455","0","","","","","","","","",""
"","html-keyboard-response","113","378762","0.0-65.0-1.0","""event"",""trial"",""time""
""blur"",""0"",""4540""
""focus"",""0"",""25167""
""fullscreenenter"",""0"",""27038""
","""event"",""trial"",""time""
""blur"",""0"",""4540""
","""event"",""trial"",""time""
""focus"",""0"",""25167""
","""event"",""trial"",""time""
""fullscreenenter"",""0"",""27038""
","
","null","<p></p>","null","","","","","","","","","","","","","","","","","","","","","","","",""
"","do_trial","114","381669","0.0-66.0-0.0","""event"",""trial"",""time""
""blur"",""0"",""4540""
""focus"",""0"",""25167""
""fullscreenenter"",""0"",""27038""
","""event"",""trial"",""time""
""blur"",""0"",""4540""
","""event"",""trial"",""time""
""focus"",""0"",""25167""
","""event"",""trial"",""time""
""fullscreenenter"",""0"",""27038""
","
","356.39999997615814","","","","","","","","51","0,0,0","6","blank","277","null","0.0748326734637419","0.3736916346598075","0.5602612794082567","0","","","","","","","","",""
"","html-keyboard-response","115","382675","0.0-66.0-1.0","""event"",""trial"",""time""
""blur"",""0"",""4540""
""focus"",""0"",""25167""
""fullscreenenter"",""0"",""27038""
","""event"",""trial"",""time""
""blur"",""0"",""4540""
","""event"",""trial"",""time""
""focus"",""0"",""25167""
","""event"",""trial"",""time""
""fullscreenenter"",""0"",""27038""
","
","null","<p></p>","null","","","","","","","","","","","","","","","","","","","","","","","",""
"","do_recog","116","385983","0.0-67.0-0.0","""event"",""trial"",""time""
""blur"",""0"",""4540""
""focus"",""0"",""25167""
""fullscreenenter"",""0"",""27038""
","""event"",""trial"",""time""
""blur"",""0"",""4540""
","""event"",""trial"",""time""
""focus"",""0"",""25167""
","""event"",""trial"",""time""
""fullscreenenter"",""0"",""27038""
","
","1793.3999999761581","","","","","","","","53","","","","278","probe-22","","","","","1","[object Object]","154","3","1","","","",""
"","html-keyboard-response","117","386987","0.0-67.0-1.0","""event"",""trial"",""time""
""blur"",""0"",""4540""
""focus"",""0"",""25167""
""fullscreenenter"",""0"",""27038""
","""event"",""trial"",""time""
""blur"",""0"",""4540""
","""event"",""trial"",""time""
""focus"",""0"",""25167""
","""event"",""trial"",""time""
""fullscreenenter"",""0"",""27038""
","
","null","<p></p>","null","","","","","","","","","","","","","","","","","","","","","","","",""
"","do_trial","118","390256","0.0-68.0-0.0","""event"",""trial"",""time""
""blur"",""0"",""4540""
""focus"",""0"",""25167""
""fullscreenenter"",""0"",""27038""
","""event"",""trial"",""time""
""blur"",""0"",""4540""
","""event"",""trial"",""time""
""focus"",""0"",""25167""
","""event"",""trial"",""time""
""fullscreenenter"",""0"",""27038""
","
","711.1999999880791","","","","","","","","50","1,1,1","6","blank","279","null","0.09286720473050991","0.41672862262398597","0.5373429285887054","1","","","","","","","","",""
"","html-keyboard-response","119","391262","0.0-68.0-1.0","""event"",""trial"",""time""
""blur"",""0"",""4540""
""focus"",""0"",""25167""
""fullscreenenter"",""0"",""27038""
","""event"",""trial"",""time""
""blur"",""0"",""4540""
","""event"",""trial"",""time""
""focus"",""0"",""25167""
","""event"",""trial"",""time""
""fullscreenenter"",""0"",""27038""
","
","null","<p></p>","null","","","","","","","","","","","","","","","","","","","","","","","",""
"","do_trial","120","394133","0.0-69.0-0.0","""event"",""trial"",""time""
""blur"",""0"",""4540""
""focus"",""0"",""25167""
""fullscreenenter"",""0"",""27038""
","""event"",""trial"",""time""
""blur"",""0"",""4540""
","""event"",""trial"",""time""
""focus"",""0"",""25167""
","""event"",""trial"",""time""
""fullscreenenter"",""0"",""27038""
","
","315.5","","","","","","","","50","0,0,0","6","blank","280","null","0.10187813726204377","0.4536266036809865","0.7239360236065449","0","","","","","","","","",""
"","html-keyboard-response","121","395139","0.0-69.0-1.0","""event"",""trial"",""time""
""blur"",""0"",""4540""
""focus"",""0"",""25167""
""fullscreenenter"",""0"",""27038""
","""event"",""trial"",""time""
""blur"",""0"",""4540""
","""event"",""trial"",""time""
""focus"",""0"",""25167""
","""event"",""trial"",""time""
""fullscreenenter"",""0"",""27038""
","
","null","<p></p>","null","","","","","","","","","","","","","","","","","","","","","","","",""
"","do_recog","122","398345","0.0-70.0-0.0","""event"",""trial"",""time""
""blur"",""0"",""4540""
""focus"",""0"",""25167""
""fullscreenenter"",""0"",""27038""
","""event"",""trial"",""time""
""blur"",""0"",""4540""
","""event"",""trial"",""time""
""focus"",""0"",""25167""
","""event"",""trial"",""time""
""fullscreenenter"",""0"",""27038""
","
","1693.1000000238419","","","","","","","","55","","","","281","probe-05","","","","","1","[object Object]","77","1","0","","","",""
"","html-keyboard-response","123","399352","0.0-70.0-1.0","""event"",""trial"",""time""
""blur"",""0"",""4540""
""focus"",""0"",""25167""
""fullscreenenter"",""0"",""27038""
","""event"",""trial"",""time""
""blur"",""0"",""4540""
","""event"",""trial"",""time""
""focus"",""0"",""25167""
","""event"",""trial"",""time""
""fullscreenenter"",""0"",""27038""
","
","null","<p></p>","null","","","","","","","","","","","","","","","","","","","","","","","",""
"","do_trial","124","402341","0.0-71.0-0.0","""event"",""trial"",""time""
""blur"",""0"",""4540""
""focus"",""0"",""25167""
""fullscreenenter"",""0"",""27038""
","""event"",""trial"",""time""
""blur"",""0"",""4540""
","""event"",""trial"",""time""
""focus"",""0"",""25167""
","""event"",""trial"",""time""
""fullscreenenter"",""0"",""27038""
","
","433.30000001192093","","","","","","","","50","0,0,0","6","blank","282","null","0.2162075088389328","0.44524289109613924","0.6515295811175372","0","","","","","","","","",""
"","html-keyboard-response","125","403344","0.0-71.0-1.0","""event"",""trial"",""time""
""blur"",""0"",""4540""
""focus"",""0"",""25167""
""fullscreenenter"",""0"",""27038""
","""event"",""trial"",""time""
""blur"",""0"",""4540""
","""event"",""trial"",""time""
""focus"",""0"",""25167""
","""event"",""trial"",""time""
""fullscreenenter"",""0"",""27038""
","
","null","<p></p>","null","","","","","","","","","","","","","","","","","","","","","","","",""
"","do_trial","126","406194","0.0-72.0-0.0","""event"",""trial"",""time""
""blur"",""0"",""4540""
""focus"",""0"",""25167""
""fullscreenenter"",""0"",""27038""
","""event"",""trial"",""time""
""blur"",""0"",""4540""
","""event"",""trial"",""time""
""focus"",""0"",""25167""
","""event"",""trial"",""time""
""fullscreenenter"",""0"",""27038""
","
","303.39999997615814","","","","","","","","49","0,0,1","6","blank","283","null","0.2637299169014365","0.3638776245648389","0.704264300920773","0","","","","","","","","",""
"","html-keyboard-response","127","407198","0.0-72.0-1.0","""event"",""trial"",""time""
""blur"",""0"",""4540""
""focus"",""0"",""25167""
""fullscreenenter"",""0"",""27038""
","""event"",""trial"",""time""
""blur"",""0"",""4540""
","""event"",""trial"",""time""
""focus"",""0"",""25167""
","""event"",""trial"",""time""
""fullscreenenter"",""0"",""27038""
","
","null","<p></p>","null","","","","","","","","","","","","","","","","","","","","","","","",""
"","do_recog","128","410356","0.0-73.0-0.0","""event"",""trial"",""time""
""blur"",""0"",""4540""
""focus"",""0"",""25167""
""fullscreenenter"",""0"",""27038""
","""event"",""trial"",""time""
""blur"",""0"",""4540""
","""event"",""trial"",""time""
""focus"",""0"",""25167""
","""event"",""trial"",""time""
""fullscreenenter"",""0"",""27038""
","
","1646.1000000238419","","","","","","","","53","","","","284","probe-127","","","","","1","[object Object]","114","2","1","","","",""
"","html-keyboard-response","129","411358","0.0-73.0-1.0","""event"",""trial"",""time""
""blur"",""0"",""4540""
""focus"",""0"",""25167""
""fullscreenenter"",""0"",""27038""
","""event"",""trial"",""time""
""blur"",""0"",""4540""
","""event"",""trial"",""time""
""focus"",""0"",""25167""
","""event"",""trial"",""time""
""fullscreenenter"",""0"",""27038""
","
","null","<p></p>","null","","","","","","","","","","","","","","","","","","","","","","","",""
"","do_trial","130","414491","0.0-74.0-0.0","""event"",""trial"",""time""
""blur"",""0"",""4540""
""focus"",""0"",""25167""
""fullscreenenter"",""0"",""27038""
","""event"",""trial"",""time""
""blur"",""0"",""4540""
","""event"",""trial"",""time""
""focus"",""0"",""25167""
","""event"",""trial"",""time""
""fullscreenenter"",""0"",""27038""
","
","577.1000000238419","","","","","","","","50","1,1,1","6","blank","285","null","0.3334801757938818","0.3058103309013451","0.7044956390505382","1","","","","","","","","",""
"","html-keyboard-response","131","415496","0.0-74.0-1.0","""event"",""trial"",""time""
""blur"",""0"",""4540""
""focus"",""0"",""25167""
""fullscreenenter"",""0"",""27038""
","""event"",""trial"",""time""
""blur"",""0"",""4540""
","""event"",""trial"",""time""
""focus"",""0"",""25167""
","""event"",""trial"",""time""
""fullscreenenter"",""0"",""27038""
","
","null","<p></p>","null","","","","","","","","","","","","","","","","","","","","","","","",""
"","do_trial","132","418407","0.0-75.0-0.0","""event"",""trial"",""time""
""blur"",""0"",""4540""
""focus"",""0"",""25167""
""fullscreenenter"",""0"",""27038""
","""event"",""trial"",""time""
""blur"",""0"",""4540""
","""event"",""trial"",""time""
""focus"",""0"",""25167""
","""event"",""trial"",""time""
""fullscreenenter"",""0"",""27038""
","
","352.39999997615814","","","","","","","","50","0,0,0","6","blank","286","null","0.37052792047052047","0.27248302436752897","0.4870767124052581","0","","","","","","","","",""
"","html-keyboard-response","133","419410","0.0-75.0-1.0","""event"",""trial"",""time""
""blur"",""0"",""4540""
""focus"",""0"",""25167""
""fullscreenenter"",""0"",""27038""
","""event"",""trial"",""time""
""blur"",""0"",""4540""
","""event"",""trial"",""time""
""focus"",""0"",""25167""
","""event"",""trial"",""time""
""fullscreenenter"",""0"",""27038""
","
","null","<p></p>","null","","","","","","","","","","","","","","","","","","","","","","","",""
"","do_trial","134","422212","0.0-76.0-0.0","""event"",""trial"",""time""
""blur"",""0"",""4540""
""focus"",""0"",""25167""
""fullscreenenter"",""0"",""27038""
","""event"",""trial"",""time""
""blur"",""0"",""4540""
","""event"",""trial"",""time""
""focus"",""0"",""25167""
","""event"",""trial"",""time""
""fullscreenenter"",""0"",""27038""
","
","244.80000001192093","","","","","","","","50","0,0,1","6","blank","287","null","0.23228044507554593","0.22271044398398954","0.4795892606432506","0","","","","","","","","",""
"","html-keyboard-response","135","423217","0.0-76.0-1.0","""event"",""trial"",""time""
""blur"",""0"",""4540""
""focus"",""0"",""25167""
""fullscreenenter"",""0"",""27038""
","""event"",""trial"",""time""
""blur"",""0"",""4540""
","""event"",""trial"",""time""
""focus"",""0"",""25167""
","""event"",""trial"",""time""
""fullscreenenter"",""0"",""27038""
","
","null","<p></p>","null","","","","","","","","","","","","","","","","","","","","","","","",""
"","do_recog","136","426205","0.0-77.0-0.0","""event"",""trial"",""time""
""blur"",""0"",""4540""
""focus"",""0"",""25167""
""fullscreenenter"",""0"",""27038""
","""event"",""trial"",""time""
""blur"",""0"",""4540""
","""event"",""trial"",""time""
""focus"",""0"",""25167""
","""event"",""trial"",""time""
""fullscreenenter"",""0"",""27038""
","
","1474.199999988079","","","","","","","","53","","","","288","probe-192","","","","","1","[object Object]","159","3","1","","","",""
"","html-keyboard-response","137","427210","0.0-77.0-1.0","""event"",""trial"",""time""
""blur"",""0"",""4540""
""focus"",""0"",""25167""
""fullscreenenter"",""0"",""27038""
","""event"",""trial"",""time""
""blur"",""0"",""4540""
","""event"",""trial"",""time""
""focus"",""0"",""25167""
","""event"",""trial"",""time""
""fullscreenenter"",""0"",""27038""
","
","null","<p></p>","null","","","","","","","","","","","","","","","","","","","","","","","",""
"","do_trial","138","430303","0.0-78.0-0.0","""event"",""trial"",""time""
""blur"",""0"",""4540""
""focus"",""0"",""25167""
""fullscreenenter"",""0"",""27038""
","""event"",""trial"",""time""
""blur"",""0"",""4540""
","""event"",""trial"",""time""
""focus"",""0"",""25167""
","""event"",""trial"",""time""
""fullscreenenter"",""0"",""27038""
","
","537.5","","","","","","","","51","0,0,1","6","blank","289","null","0.20114547025059154","0.12755028174010705","0.5806636667077065","1","","","","","","","","",""
"","html-keyboard-response","139","431311","0.0-78.0-1.0","""event"",""trial"",""time""
""blur"",""0"",""4540""
""focus"",""0"",""25167""
""fullscreenenter"",""0"",""27038""
","""event"",""trial"",""time""
""blur"",""0"",""4540""
","""event"",""trial"",""time""
""focus"",""0"",""25167""
","""event"",""trial"",""time""
""fullscreenenter"",""0"",""27038""
","
","null","<p></p>","null","","","","","","","","","","","","","","","","","","","","","","","",""
"","do_trial","140","434063","0.0-79.0-0.0","""event"",""trial"",""time""
""blur"",""0"",""4540""
""focus"",""0"",""25167""
""fullscreenenter"",""0"",""27038""
","""event"",""trial"",""time""
""blur"",""0"",""4540""
","""event"",""trial"",""time""
""focus"",""0"",""25167""
","""event"",""trial"",""time""
""fullscreenenter"",""0"",""27038""
","
","199.89999997615814","","","","","","","","51","0,1,1","6","blank","290","null","0.19614761323429822","0.35807110330506947","0.496075291218163","1","","","","","","","","",""
"","html-keyboard-response","141","435067","0.0-79.0-1.0","""event"",""trial"",""time""
""blur"",""0"",""4540""
""focus"",""0"",""25167""
""fullscreenenter"",""0"",""27038""
","""event"",""trial"",""time""
""blur"",""0"",""4540""
","""event"",""trial"",""time""
""focus"",""0"",""25167""
","""event"",""trial"",""time""
""fullscreenenter"",""0"",""27038""
","
","null","<p></p>","null","","","","","","","","","","","","","","","","","","","","","","","",""
"","do_trial","142","437694","0.0-80.0-0.0","""event"",""trial"",""time""
""blur"",""0"",""4540""
""focus"",""0"",""25167""
""fullscreenenter"",""0"",""27038""
","""event"",""trial"",""time""
""blur"",""0"",""4540""
","""event"",""trial"",""time""
""focus"",""0"",""25167""
","""event"",""trial"",""time""
""fullscreenenter"",""0"",""27038""
","
","70.5","","","","","","","","51","0,0,1","6","blank","291","null","0.08365497611622313","0.42821587585214427","0.5032894208204137","1","","","","","","","","",""
"","html-keyboard-response","143","438702","0.0-80.0-1.0","""event"",""trial"",""time""
""blur"",""0"",""4540""
""focus"",""0"",""25167""
""fullscreenenter"",""0"",""27038""
","""event"",""trial"",""time""
""blur"",""0"",""4540""
","""event"",""trial"",""time""
""focus"",""0"",""25167""
","""event"",""trial"",""time""
""fullscreenenter"",""0"",""27038""
","
","null","<p></p>","null","","","","","","","","","","","","","","","","","","","","","","","",""
"","do_trial","144","441609","0.0-81.0-0.0","""event"",""trial"",""time""
""blur"",""0"",""4540""
""focus"",""0"",""25167""
""fullscreenenter"",""0"",""27038""
","""event"",""trial"",""time""
""blur"",""0"",""4540""
","""event"",""trial"",""time""
""focus"",""0"",""25167""
","""event"",""trial"",""time""
""fullscreenenter"",""0"",""27038""
","
","359.7000000476837","","","","","","","","51","0,0,1","6","blank","292","null","0.13528602644288293","0.41630956474868397","0.658933568070877","1","","","","","","","","",""
"","html-keyboard-response","145","442617","0.0-81.0-1.0","""event"",""trial"",""time""
""blur"",""0"",""4540""
""focus"",""0"",""25167""
""fullscreenenter"",""0"",""27038""
","""event"",""trial"",""time""
""blur"",""0"",""4540""
","""event"",""trial"",""time""
""focus"",""0"",""25167""
","""event"",""trial"",""time""
""fullscreenenter"",""0"",""27038""
","
","null","<p></p>","null","","","","","","","","","","","","","","","","","","","","","","","",""
"","do_recog","146","445535","0.0-82.0-0.0","""event"",""trial"",""time""
""blur"",""0"",""4540""
""focus"",""0"",""25167""
""fullscreenenter"",""0"",""27038""
","""event"",""trial"",""time""
""blur"",""0"",""4540""
","""event"",""trial"",""time""
""focus"",""0"",""25167""
","""event"",""trial"",""time""
""fullscreenenter"",""0"",""27038""
","
","1403.699999988079","","","","","","","","55","","","","293","probe-249","","","","","0","[object Object]","null","null","1","","","",""
"","html-keyboard-response","147","446543","0.0-82.0-1.0","""event"",""trial"",""time""
""blur"",""0"",""4540""
""focus"",""0"",""25167""
""fullscreenenter"",""0"",""27038""
","""event"",""trial"",""time""
""blur"",""0"",""4540""
","""event"",""trial"",""time""
""focus"",""0"",""25167""
","""event"",""trial"",""time""
""fullscreenenter"",""0"",""27038""
","
","null","<p></p>","null","","","","","","","","","","","","","","","","","","","","","","","",""
"","do_trial","148","449716","0.0-83.0-0.0","""event"",""trial"",""time""
""blur"",""0"",""4540""
""focus"",""0"",""25167""
""fullscreenenter"",""0"",""27038""
","""event"",""trial"",""time""
""blur"",""0"",""4540""
","""event"",""trial"",""time""
""focus"",""0"",""25167""
","""event"",""trial"",""time""
""fullscreenenter"",""0"",""27038""
","
","619.8999999761581","","","","","","","","50","0,1,0","6","blank","294","null","0.15919009873280263","0.5273459109171684","0.2572141200822543","1","","","","","","","","",""
"","html-keyboard-response","149","450723","0.0-83.0-1.0","""event"",""trial"",""time""
""blur"",""0"",""4540""
""focus"",""0"",""25167""
""fullscreenenter"",""0"",""27038""
","""event"",""trial"",""time""
""blur"",""0"",""4540""
","""event"",""trial"",""time""
""focus"",""0"",""25167""
","""event"",""trial"",""time""
""fullscreenenter"",""0"",""27038""
","
","null","<p></p>","null","","","","","","","","","","","","","","","","","","","","","","","",""
"","do_recog","150","454126","0.0-84.0-0.0","""event"",""trial"",""time""
""blur"",""0"",""4540""
""focus"",""0"",""25167""
""fullscreenenter"",""0"",""27038""
","""event"",""trial"",""time""
""blur"",""0"",""4540""
","""event"",""trial"",""time""
""focus"",""0"",""25167""
","""event"",""trial"",""time""
""fullscreenenter"",""0"",""27038""
","
","1889","","","","","","","","55","","","","295","probe-238","","","","","0","[object Object]","null","null","1","","","",""
"","html-keyboard-response","151","455129","0.0-84.0-1.0","""event"",""trial"",""time""
""blur"",""0"",""4540""
""focus"",""0"",""25167""
""fullscreenenter"",""0"",""27038""
","""event"",""trial"",""time""
""blur"",""0"",""4540""
","""event"",""trial"",""time""
""focus"",""0"",""25167""
","""event"",""trial"",""time""
""fullscreenenter"",""0"",""27038""
","
","null","<p></p>","null","","","","","","","","","","","","","","","","","","","","","","","",""
"","do_trial","152","458157","0.0-85.0-0.0","""event"",""trial"",""time""
""blur"",""0"",""4540""
""focus"",""0"",""25167""
""fullscreenenter"",""0"",""27038""
","""event"",""trial"",""time""
""blur"",""0"",""4540""
","""event"",""trial"",""time""
""focus"",""0"",""25167""
","""event"",""trial"",""time""
""fullscreenenter"",""0"",""27038""
","
","469.30000001192093","","","","","","","","50","0,1,0","6","blank","296","null","0.15923717053248662","0.3827401589290901","0.13905846692392534","1","","","","","","","","",""
"","html-keyboard-response","153","459162","0.0-85.0-1.0","""event"",""trial"",""time""
""blur"",""0"",""4540""
""focus"",""0"",""25167""
""fullscreenenter"",""0"",""27038""
","""event"",""trial"",""time""
""blur"",""0"",""4540""
","""event"",""trial"",""time""
""focus"",""0"",""25167""
","""event"",""trial"",""time""
""fullscreenenter"",""0"",""27038""
","
","null","<p></p>","null","","","","","","","","","","","","","","","","","","","","","","","",""
"","do_trial","154","461990","0.0-86.0-0.0","""event"",""trial"",""time""
""blur"",""0"",""4540""
""focus"",""0"",""25167""
""fullscreenenter"",""0"",""27038""
","""event"",""trial"",""time""
""blur"",""0"",""4540""
","""event"",""trial"",""time""
""focus"",""0"",""25167""
","""event"",""trial"",""time""
""fullscreenenter"",""0"",""27038""
","
","269.69999998807907","","","","","","","","50","1,0,0","6","blank","297","null","0.2159560091972071","0.38598496719685443","0.0803454294737327","0","","","","","","","","",""
"","html-keyboard-response","155","462994","0.0-86.0-1.0","""event"",""trial"",""time""
""blur"",""0"",""4540""
""focus"",""0"",""25167""
""fullscreenenter"",""0"",""27038""
","""event"",""trial"",""time""
""blur"",""0"",""4540""
","""event"",""trial"",""time""
""focus"",""0"",""25167""
","""event"",""trial"",""time""
""fullscreenenter"",""0"",""27038""
","
","null","<p></p>","null","","","","","","","","","","","","","","","","","","","","","","","",""
"","do_trial","156","465570","0.0-87.0-0.0","""event"",""trial"",""time""
""blur"",""0"",""4540""
""focus"",""0"",""25167""
""fullscreenenter"",""0"",""27038""
","""event"",""trial"",""time""
""blur"",""0"",""4540""
","""event"",""trial"",""time""
""focus"",""0"",""25167""
","""event"",""trial"",""time""
""fullscreenenter"",""0"",""27038""
","
","25.399999976158142","","","","","","","","51","0,0,1","6","blank","298","null","0.4140297724169713","0.3962805051329177","0.19443686383346268","1","","","","","","","","",""
"","html-keyboard-response","157","466577","0.0-87.0-1.0","""event"",""trial"",""time""
""blur"",""0"",""4540""
""focus"",""0"",""25167""
""fullscreenenter"",""0"",""27038""
","""event"",""trial"",""time""
""blur"",""0"",""4540""
","""event"",""trial"",""time""
""focus"",""0"",""25167""
","""event"",""trial"",""time""
""fullscreenenter"",""0"",""27038""
","
","null","<p></p>","null","","","","","","","","","","","","","","","","","","","","","","","",""
"","do_recog","158","469615","0.0-88.0-0.0","""event"",""trial"",""time""
""blur"",""0"",""4540""
""focus"",""0"",""25167""
""fullscreenenter"",""0"",""27038""
","""event"",""trial"",""time""
""blur"",""0"",""4540""
","""event"",""trial"",""time""
""focus"",""0"",""25167""
","""event"",""trial"",""time""
""fullscreenenter"",""0"",""27038""
","
","1527.7999999523163","","","","","","","","54","","","","299","probe-243","","","","","0","[object Object]","null","null","0","","","",""
"","html-keyboard-response","159","470622","0.0-88.0-1.0","""event"",""trial"",""time""
""blur"",""0"",""4540""
""focus"",""0"",""25167""
""fullscreenenter"",""0"",""27038""
","""event"",""trial"",""time""
""blur"",""0"",""4540""
","""event"",""trial"",""time""
""focus"",""0"",""25167""
","""event"",""trial"",""time""
""fullscreenenter"",""0"",""27038""
","
","null","<p></p>","null","","","","","","","","","","","","","","","","","","","","","","","",""
"","do_trial","160","473734","0.0-89.0-0.0","""event"",""trial"",""time""
""blur"",""0"",""4540""
""focus"",""0"",""25167""
""fullscreenenter"",""0"",""27038""
","""event"",""trial"",""time""
""blur"",""0"",""4540""
","""event"",""trial"",""time""
""focus"",""0"",""25167""
","""event"",""trial"",""time""
""fullscreenenter"",""0"",""27038""
","
","557.5999999642372","","","","","","","","50","0,1,1","6","blank","300","null","0.40713755918420286","0.5857819989956582","0.1776251990105561","1","","","","","","","","",""
"","html-keyboard-response","161","474737","0.0-89.0-1.0","""event"",""trial"",""time""
""blur"",""0"",""4540""
""focus"",""0"",""25167""
""fullscreenenter"",""0"",""27038""
","""event"",""trial"",""time""
""blur"",""0"",""4540""
","""event"",""trial"",""time""
""focus"",""0"",""25167""
","""event"",""trial"",""time""
""fullscreenenter"",""0"",""27038""
","
","null","<p></p>","null","","","","","","","","","","","","","","","","","","","","","","","",""
"","do_recog","162","477893","0.0-90.0-0.0","""event"",""trial"",""time""
""blur"",""0"",""4540""
""focus"",""0"",""25167""
""fullscreenenter"",""0"",""27038""
","""event"",""trial"",""time""
""blur"",""0"",""4540""
","""event"",""trial"",""time""
""focus"",""0"",""25167""
","""event"",""trial"",""time""
""fullscreenenter"",""0"",""27038""
","
","1649","","","","","","","","53","","","","301","probe-142","","","","","1","[object Object]","78","1","1","","","",""
"","html-keyboard-response","163","478901","0.0-90.0-1.0","""event"",""trial"",""time""
""blur"",""0"",""4540""
""focus"",""0"",""25167""
""fullscreenenter"",""0"",""27038""
","""event"",""trial"",""time""
""blur"",""0"",""4540""
","""event"",""trial"",""time""
""focus"",""0"",""25167""
","""event"",""trial"",""time""
""fullscreenenter"",""0"",""27038""
","
","null","<p></p>","null","","","","","","","","","","","","","","","","","","","","","","","",""
"","do_trial","164","481910","0.0-91.0-0.0","""event"",""trial"",""time""
""blur"",""0"",""4540""
""focus"",""0"",""25167""
""fullscreenenter"",""0"",""27038""
","""event"",""trial"",""time""
""blur"",""0"",""4540""
","""event"",""trial"",""time""
""focus"",""0"",""25167""
","""event"",""trial"",""time""
""fullscreenenter"",""0"",""27038""
","
","460.89999997615814","","","","","","","","50","0,0,0","6","blank","302","null","0.36637784545060537","0.7012808715020133","0.21185871357437044","0","","","","","","","","",""
"","html-keyboard-response","165","482915","0.0-91.0-1.0","""event"",""trial"",""time""
""blur"",""0"",""4540""
""focus"",""0"",""25167""
""fullscreenenter"",""0"",""27038""
","""event"",""trial"",""time""
""blur"",""0"",""4540""
","""event"",""trial"",""time""
""focus"",""0"",""25167""
","""event"",""trial"",""time""
""fullscreenenter"",""0"",""27038""
","
","null","<p></p>","null","","","","","","","","","","","","","","","","","","","","","","","",""
"","do_trial","166","485977","0.0-92.0-0.0","""event"",""trial"",""time""
""blur"",""0"",""4540""
""focus"",""0"",""25167""
""fullscreenenter"",""0"",""27038""
","""event"",""trial"",""time""
""blur"",""0"",""4540""
","""event"",""trial"",""time""
""focus"",""0"",""25167""
","""event"",""trial"",""time""
""fullscreenenter"",""0"",""27038""
","
","500.19999998807907","","","","","","","","50","0,0,0","6","blank","303","null","0.34102529356316824","0.6182998536587051","0.12784505941297036","0","","","","","","","","",""
"","html-keyboard-response","167","486983","0.0-92.0-1.0","""event"",""trial"",""time""
""blur"",""0"",""4540""
""focus"",""0"",""25167""
""fullscreenenter"",""0"",""27038""
","""event"",""trial"",""time""
""blur"",""0"",""4540""
","""event"",""trial"",""time""
""focus"",""0"",""25167""
","""event"",""trial"",""time""
""fullscreenenter"",""0"",""27038""
","
","null","<p></p>","null","","","","","","","","","","","","","","","","","","","","","","","",""
"","do_recog","168","490221","0.0-93.0-0.0","""event"",""trial"",""time""
""blur"",""0"",""4540""
""focus"",""0"",""25167""
""fullscreenenter"",""0"",""27038""
","""event"",""trial"",""time""
""blur"",""0"",""4540""
","""event"",""trial"",""time""
""focus"",""0"",""25167""
","""event"",""trial"",""time""
""fullscreenenter"",""0"",""27038""
","
","1724.9000000357628","","","","","","","","53","","","","304","probe-150","","","","","1","[object Object]","39","0","1","","","",""
"","html-keyboard-response","169","491229","0.0-93.0-1.0","""event"",""trial"",""time""
""blur"",""0"",""4540""
""focus"",""0"",""25167""
""fullscreenenter"",""0"",""27038""
","""event"",""trial"",""time""
""blur"",""0"",""4540""
","""event"",""trial"",""time""
""focus"",""0"",""25167""
","""event"",""trial"",""time""
""fullscreenenter"",""0"",""27038""
","
","null","<p></p>","null","","","","","","","","","","","","","","","","","","","","","","","",""
"","do_trial","170","494138","0.0-94.0-0.0","""event"",""trial"",""time""
""blur"",""0"",""4540""
""focus"",""0"",""25167""
""fullscreenenter"",""0"",""27038""
","""event"",""trial"",""time""
""blur"",""0"",""4540""
","""event"",""trial"",""time""
""focus"",""0"",""25167""
","""event"",""trial"",""time""
""fullscreenenter"",""0"",""27038""
","
","366","","","","","","","","51","0,0,1","6","blank","305","null","0.30044175874629153","0.7667490878129019","0.0611561394176115","1","","","","","","","","",""
"","html-keyboard-response","171","495142","0.0-94.0-1.0","""event"",""trial"",""time""
""blur"",""0"",""4540""
""focus"",""0"",""25167""
""fullscreenenter"",""0"",""27038""
","""event"",""trial"",""time""
""blur"",""0"",""4540""
","""event"",""trial"",""time""
""focus"",""0"",""25167""
","""event"",""trial"",""time""
""fullscreenenter"",""0"",""27038""
","
","null","<p></p>","null","","","","","","","","","","","","","","","","","","","","","","","",""
"","do_trial","172","498096","0.0-95.0-0.0","""event"",""trial"",""time""
""blur"",""0"",""4540""
""focus"",""0"",""25167""
""fullscreenenter"",""0"",""27038""
","""event"",""trial"",""time""
""blur"",""0"",""4540""
","""event"",""trial"",""time""
""focus"",""0"",""25167""
","""event"",""trial"",""time""
""fullscreenenter"",""0"",""27038""
","
","396.5","","","","","","","","51","0,1,0","6","blank","306","null","0.3601950741277565","0.5839170675805999","0.10588373710074922","0","","","","","","","","",""
"","html-keyboard-response","173","499103","0.0-95.0-1.0","""event"",""trial"",""time""
""blur"",""0"",""4540""
""focus"",""0"",""25167""
""fullscreenenter"",""0"",""27038""
","""event"",""trial"",""time""
""blur"",""0"",""4540""
","""event"",""trial"",""time""
""focus"",""0"",""25167""
","""event"",""trial"",""time""
""fullscreenenter"",""0"",""27038""
","
","null","<p></p>","null","","","","","","","","","","","","","","","","","","","","","","","",""
"","do_trial","174","501831","0.0-96.0-0.0","""event"",""trial"",""time""
""blur"",""0"",""4540""
""focus"",""0"",""25167""
""fullscreenenter"",""0"",""27038""
","""event"",""trial"",""time""
""blur"",""0"",""4540""
","""event"",""trial"",""time""
""focus"",""0"",""25167""
","""event"",""trial"",""time""
""fullscreenenter"",""0"",""27038""
","
","179.5999999642372","","","","","","","","51","1,1,0","6","blank","307","null","0.33359620910591786","0.6562713922716426","0.06864986300618794","0","","","","","","","","",""
"","html-keyboard-response","175","502839","0.0-96.0-1.0","""event"",""trial"",""time""
""blur"",""0"",""4540""
""focus"",""0"",""25167""
""fullscreenenter"",""0"",""27038""
","""event"",""trial"",""time""
""blur"",""0"",""4540""
","""event"",""trial"",""time""
""focus"",""0"",""25167""
","""event"",""trial"",""time""
""fullscreenenter"",""0"",""27038""
","
","null","<p></p>","null","","","","","","","","","","","","","","","","","","","","","","","",""
"","do_recog","176","505586","0.0-97.0-0.0","""event"",""trial"",""time""
""blur"",""0"",""4540""
""focus"",""0"",""25167""
""fullscreenenter"",""0"",""27038""
","""event"",""trial"",""time""
""blur"",""0"",""4540""
","""event"",""trial"",""time""
""focus"",""0"",""25167""
","""event"",""trial"",""time""
""fullscreenenter"",""0"",""27038""
","
","1235.5999999642372","","","","","","","","53","","","","308","probe-145","","","","","1","[object Object]","75","1","1","","","",""
"","html-keyboard-response","177","506592","0.0-97.0-1.0","""event"",""trial"",""time""
""blur"",""0"",""4540""
""focus"",""0"",""25167""
""fullscreenenter"",""0"",""27038""
","""event"",""trial"",""time""
""blur"",""0"",""4540""
","""event"",""trial"",""time""
""focus"",""0"",""25167""
","""event"",""trial"",""time""
""fullscreenenter"",""0"",""27038""
","
","null","<p></p>","null","","","","","","","","","","","","","","","","","","","","","","","",""
"","break","178","572120","0.0-98.0-0.0","""event"",""trial"",""time""
""blur"",""0"",""4540""
""focus"",""0"",""25167""
""fullscreenenter"",""0"",""27038""
","""event"",""trial"",""time""
""blur"",""0"",""4540""
","""event"",""trial"",""time""
""focus"",""0"",""25167""
","""event"",""trial"",""time""
""fullscreenenter"",""0"",""27038""
","
","65528","<div class='center'><p>Time to take a quick break! You have 2 minutes to rest, but you can move on sooner if you'd like.</p><p> Press the <b>space bar</b> to continue.</p></div>","32","","","","","","","","","","","","","","","","","","","","","","","",""
"","do_trial","179","576465","0.0-98.0-1.0","""event"",""trial"",""time""
""blur"",""0"",""4540""
""focus"",""0"",""25167""
""fullscreenenter"",""0"",""27038""
","""event"",""trial"",""time""
""blur"",""0"",""4540""
","""event"",""trial"",""time""
""focus"",""0"",""25167""
","""event"",""trial"",""time""
""fullscreenenter"",""0"",""27038""
","
","1790.8999999761581","","","","","","","","51","0,1,0","6","blank","309","null","0.3897179043046745","0.5943805137815512","0.06459248185676522","0","","","","","","","","",""
"","html-keyboard-response","180","577473","0.0-98.0-2.0","""event"",""trial"",""time""
""blur"",""0"",""4540""
""focus"",""0"",""25167""
""fullscreenenter"",""0"",""27038""
","""event"",""trial"",""time""
""blur"",""0"",""4540""
","""event"",""trial"",""time""
""focus"",""0"",""25167""
","""event"",""trial"",""time""
""fullscreenenter"",""0"",""27038""
","
","null","<p></p>","null","","","","","","","","","","","","","","","","","","","","","","","",""
"","do_trial","181","580614","0.0-99.0-0.0","""event"",""trial"",""time""
""blur"",""0"",""4540""
""focus"",""0"",""25167""
""fullscreenenter"",""0"",""27038""
","""event"",""trial"",""time""
""blur"",""0"",""4540""
","""event"",""trial"",""time""
""focus"",""0"",""25167""
","""event"",""trial"",""time""
""fullscreenenter"",""0"",""27038""
","
","589.1000000238419","","","","","","","","50","0,1,0","6","blank","310","null","0.24901690537451054","0.6387364653109561","0.13903468836598382","1","","","","","","","","",""
"","html-keyboard-response","182","581622","0.0-99.0-1.0","""event"",""trial"",""time""
""blur"",""0"",""4540""
""focus"",""0"",""25167""
""fullscreenenter"",""0"",""27038""
","""event"",""trial"",""time""
""blur"",""0"",""4540""
","""event"",""trial"",""time""
""focus"",""0"",""25167""
","""event"",""trial"",""time""
""fullscreenenter"",""0"",""27038""
","
","null","<p></p>","null","","","","","","","","","","","","","","","","","","","","","","","",""
"","do_trial","183","584622","0.0-100.0-0.0","""event"",""trial"",""time""
""blur"",""0"",""4540""
""focus"",""0"",""25167""
""fullscreenenter"",""0"",""27038""
","""event"",""trial"",""time""
""blur"",""0"",""4540""
","""event"",""trial"",""time""
""focus"",""0"",""25167""
","""event"",""trial"",""time""
""fullscreenenter"",""0"",""27038""
","
","448.4000000357628","","","","","","","","50","0,1,0","6","blank","311","null","0.18030474828799378","0.4632387682264149","0.14853432353030785","1","","","","","","","","",""
"","html-keyboard-response","184","585626","0.0-100.0-1.0","""event"",""trial"",""time""
""blur"",""0"",""4540""
""focus"",""0"",""25167""
""fullscreenenter"",""0"",""27038""
","""event"",""trial"",""time""
""blur"",""0"",""4540""
","""event"",""trial"",""time""
""focus"",""0"",""25167""
","""event"",""trial"",""time""
""fullscreenenter"",""0"",""27038""
","
","null","<p></p>","null","","","","","","","","","","","","","","","","","","","","","","","",""
"","do_trial","185","588724","0.0-101.0-0.0","""event"",""trial"",""time""
""blur"",""0"",""4540""
""focus"",""0"",""25167""
""fullscreenenter"",""0"",""27038""
","""event"",""trial"",""time""
""blur"",""0"",""4540""
","""event"",""trial"",""time""
""focus"",""0"",""25167""
","""event"",""trial"",""time""
""fullscreenenter"",""0"",""27038""
","
","541.1999999880791","","","","","","","","50","0,0,1","6","blank","312","null","0.20379630529273932","0.5592428587347843","0.28814417789174845","0","","","","","","","","",""
"","html-keyboard-response","186","589729","0.0-101.0-1.0","""event"",""trial"",""time""
""blur"",""0"",""4540""
""focus"",""0"",""25167""
""fullscreenenter"",""0"",""27038""
","""event"",""trial"",""time""
""blur"",""0"",""4540""
","""event"",""trial"",""time""
""focus"",""0"",""25167""
","""event"",""trial"",""time""
""fullscreenenter"",""0"",""27038""
","
","null","<p></p>","null","","","","","","","","","","","","","","","","","","","","","","","",""
"","do_trial","187","592278","0.0-102.0-0.0","""event"",""trial"",""time""
""blur"",""0"",""4540""
""focus"",""0"",""25167""
