"success","trial_type","trial_index","time_elapsed","internal_node_id","rt","stimulus","key_press","response","choice_outcomes","context_n","context_img_id","trial_n","probe_img_id","pR_red","pR_white","pR_black","outcome","is_valid","image_to_show","probed_trial","probed_context","correct","context_id"
"true","fullscreen","0","35442","0.0-0.0","","","","","","","","","","","","","","","","","","",""
"","pavlovia","1","35447","0.0-1.0","","","","","","","","","","","","","","","","","","",""
"","html-keyboard-response","2","41254","0.0-2.0","5805.679999990389","<div class='center'><p>Welcome! This is the second day of the experiment. This part will last ~30 minutes. </p><br><p>Just as a reminder, you are the head captain of a pirate ship traveling around the world to different places. </p><p>Today,you’ve arrived at the final destination of your journey!</p><p> Unfortunately, it’s very foggy out, so you won’t be able to see it in the distance like the places you visited yesterday.</p><p>You’ll still be deciding which pirates you want to rob ships. Because of the fog, however, you won't be able to see which ship your chosen pirate is robbing. </p><p><b>[Press the space bar to go over the instructions]</b></p></div>","32","","","","","","","","","","","","","","","",""
"","html-keyboard-response","3","45830","0.0-3.0","4574.514999985695","<div class='center'><p>Like yesterday,as the head captain of the ship, you have one important things to do: </p><b><p> Pick the pirate who you think will be most successful at robbing the next ship.</p></b><p>This is important in determining how much bonus money you’ll win.</p><br><p>The game will start by showing you the pirates. First pick a pirate using the <b> 1, 2, 3 </b> buttons on your keyboard. </p><p> Press <b>'1'</b> to choose red beard, <b>'2'</b> to choose white beard, and <b>'3'</b> to choose black beard</p><p> You only have 3 seconds to pick a pirate, so please make a choice quickly! If you are too slow, you’ll have to wait a bit during the time out.</p><p> Don’t feel rushed, but please do try to make a choice every time.</p><p>How good a pirate is at robbing a ship will change depending on the place they are in and how good the defenses are of the ship.</p><p><b>[Press the space bar to begin the practice game]</b></p></div>","32","","","","","","","","","","","","","","","",""
"","html-keyboard-response","4","51294","0.0-4.0","5462.474999949336","<div class='center'><p>Unlike yesterday, sometimes you’ll be asked if you’ve seen a ship before (see the example below). You will use the 5, 6, 7, 8 buttons on your keyboard to respond. </p><p> If you definitely did not see the ship, pick the the big red thumbs down by pressing <b>5</b>.</p><p> If you don’t think you saw it but aren’t sure, then pick the small red thumbs down by pressing <b>6</b>.</p><p> If you think you might have seen it, then pick the small green thumbs up by pressing <b>7</b>.</p><p> If you definitely did see this ship before, then pick the big thumb green thumbs up by pressing <b>8</b>.</p><p> If you recall it correctly, then you’ll get a gold coin!</p><p><b>[Press the space bar to the experiment]</b></p><p><img src='run_exp/static/images/example_recog_trial.png' height='500'></p></div>","32","","","","","","","","","","","","","","","",""
"","do_welcome","5","52807","0.0-5.0-0.0","null","","","null","","","","","","","","","","","","","","",""
"","do_trial","6","57741","0.0-6.0-0.0","2383.3250000607222","","","49","1,1,0","6","blank","240","null","1","0.10556616085429638","0.5671609648437086","1","","","","","",""
"","do_trial","7","63277","0.0-7.0-0.0","2980.1250000018626","","","50","0,1,1","6","blank","241","null","0.8529982323236371","0.11480692448534197","0.5705099994072371","1","","","","","",""
"","do_trial","8","68731","0.0-8.0-0.0","2901.5499998349696","","","51","1,0,1","6","blank","242","null","0.8817250737856401","0.05687220370207308","0.45625461520510757","1","","","","","",""
"","do_recog","9","74740","0.0-9.0-0.0","null","","","null","","","","243","probe-107","","","","","1","[object Object]","123","3","0",""
"","do_trial","10","78385","0.0-10.0-0.0","1093.9899999648333","","","51","1,0,1","6","blank","244","null","0.9229126600926165","0.119058876214366","0.42890947792784095","1","","","","","",""
"","do_recog","11","83011","0.0-11.0-0.0","3116.2249997723848","","","54","","","","245","probe-99","","","","","1","[object Object]","87","2","0",""
"","do_trial","12","87311","0.0-12.0-0.0","1753.8600000552833","","","49","1,0,0","6","blank","246","null","0.8041074416005478","0.20049676569075062","0.3607841623052562","1","","","","","",""
"","do_recog","13","91716","0.0-13.0-0.0","2892.06500002183","","","54","","","","247","probe-27","","","","","1","[object Object]","41","1","0",""
"","do_trial","14","96439","0.0-14.0-0.0","2175.5850000772625","","","49","1,0,0","6","blank","248","null","0.6518782896941214","0.20926014066281567","0.4745365150202425","1","","","","","",""
"","do_trial","15","101449","0.0-15.0-0.0","2460.865000030026","","","51","1,1,0","6","blank","249","null","0.7704785469895856","0.15409674934109957","0.4082558981638469","0","","","","","",""
"","do_recog","16","105745","0.0-16.0-0.0","2783.660000190139","","","55","","","","250","probe-163","","","","","1","[object Object]","125","3","1",""
"","do_trial","17","109610","0.0-17.0-0.0","1314.3899999558926","","","51","1,0,0","6","blank","251","null","0.6695589640548164","0.05310242588456918","0.27669729302697244","0","","","","","",""
"","do_recog","18","113745","0.0-18.0-0.0","2623.579999897629","","","56","","","","252","probe-11","","","","","1","[object Object]","80","2","1",""
"","do_trial","19","119795","0.0-19.0-0.0","null","","","null","0,0,0","6","blank","253","null","0.7461267999545856","0.13915116943429678","0.24378525580720073","","","","","","",""
"","do_recog","20","125812","0.0-20.0-0.0","null","","","null","","","","254","probe-245","","","","","0","[object Object]","null","null","0",""
"","do_trial","21","129212","0.0-21.0-0.0","852.1350000519305","","","49","1,0,0","6","blank","255","null","0.7249445637985207","0.13229136112313414","0.36759853373112433","1","","","","","",""
"","do_trial","22","133421","0.0-22.0-0.0","1463.715000078082","","","50","1,0,0","6","blank","256","null","0.591344009364609","0.3727993685855315","0.33184974330080047","0","","","","","",""
"","do_trial","23","141033","0.0-23.0-0.0","null","","","null","0,1,0","6","blank","257","null","0.5332352171127309","0.3968034395746625","0.2580571927789013","","","","","","",""
"","do_trial","24","144971","0.0-24.0-0.0","1384.9650002084672","","","51","1,0,0","6","blank","258","null","0.47680962513542857","0.6197221122383305","0.2835359340579369","0","","","","","",""
"","do_recog","25","150987","0.0-25.0-0.0","null","","","null","","","","259","probe-248","","","","","0","[object Object]","null","null","0",""
"","do_trial","26","154574","0.0-26.0-0.0","1035.5849999468774","","","49","0,0,0","6","blank","260","null","0.580831558653346","0.584141905923635","0.3335274790781327","0","","","","","",""
"","do_recog","27","157155","0.0-27.0-0.0","1070.8449999801815","","","55","","","","261","probe-254","","","","","0","[object Object]","null","null","0",""
"","do_trial","28","161015","0.0-28.0-0.0","1308.2600000780076","","","51","0,0,0","6","blank","262","null","0.45754670978087286","0.7117315630233944","0.2098717987716715","0","","","","","",""
"","do_recog","29","163437","0.0-29.0-0.0","909.8600000143051","","","55","","","","263","probe-17","","","","","1","[object Object]","84","2","1",""
"","do_trial","30","167395","0.0-30.0-0.0","1409.4249999616295","","","49","1,1,0","6","blank","264","null","0.4007484576380395","0.859989093583693","0.05201948142827392","1","","","","","",""
"","do_trial","31","171537","0.0-31.0-0.0","1589.4450000487268","","","51","0,1,0","6","blank","265","null","0.4237002203368722","0.9364073863227043","0.05579750952251802","0","","","","","",""
"","do_recog","32","175666","0.0-32.0-0.0","2617.4249998293817","","","53","","","","266","probe-139","","","","","1","[object Object]","206","5","0",""
"","do_trial","33","179281","0.0-33.0-0.0","1063.1000001449138","","","51","0,1,0","6","blank","267","null","0.3747665917093028","0.8405132562748667","0.06738877290725691","0","","","","","",""
"","do_recog","34","181294","0.0-34.0-0.0","500.59000006876886","","","56","","","","268","probe-145","","","","","1","[object Object]","127","3","1",""
"","do_trial","35","184925","0.0-35.0-0.0","1080.0850000232458","","","50","0,1,0","6","blank","269","null","0.3954056267654214","0.9051052683751546","0.16323907527218828","1","","","","","",""
"","do_recog","36","187601","0.0-36.0-0.0","1164.2549999523908","","","55","","","","270","probe-180","","","","","1","[object Object]","129","3","1",""
"","do_trial","37","191073","0.0-37.0-0.0","925.0400001183152","","","49","0,1,0","6","blank","271","null","0.4257551438621512","0.8691018909200845","0.16117798195496952","0","","","","","",""
"","do_trial","38","194553","0.0-38.0-0.0","928.0499999877065","","","50","1,1,0","6","blank","272","null","0.6017161687648812","0.8671249109758765","0.2355145731042481","1","","","","","",""
"","do_trial","39","198034","0.0-39.0-0.0","928.5349999554455","","","50","0,1,0","6","blank","273","null","0.4539902846950809","0.7932166648004563","0.24533838694608281","1","","","","","",""
"","do_trial","40","201101","0.0-40.0-0.0","516.5250001009554","","","50","1,1,1","6","blank","274","null","0.5045224347099773","0.7683276344607154","0.17145347093201252","1","","","","","",""
"","do_recog","41","204418","0.0-41.0-0.0","1803.5549998749048","","","55","","","","275","probe-249","","","","","0","[object Object]","null","null","0",""
"","do_trial","42","207922","0.0-42.0-0.0","952.2899999283254","","","51","1,1,0","6","blank","276","null","0.5151235387025311","0.7164755128556602","0.11262360408384824","0","","","","","",""
"","do_trial","43","211021","0.0-43.0-0.0","550.2649999689311","","","51","0,1,1","6","blank","277","null","0.6096916441104447","0.6744302101884447","0.14605600125286874","1","","","","","",""
"","do_recog","44","213860","0.0-44.0-0.0","1325.1250002067536","","","56","","","","278","probe-52","","","","","1","[object Object]","126","3","1",""
"","do_trial","45","217455","0.0-45.0-0.0","1044.1250000149012","","","51","1,1,1","6","blank","279","null","0.7151405838164321","0.6350575509638905","0.147704860168656","1","","","","","",""
"","do_trial","46","220943","0.0-46.0-0.0","936.1100001260638","","","50","1,1,0","6","blank","280","null","0.3916446299216739","0.5497761193504027","0.20914252657701782","1","","","","","",""
"","do_trial","47","224343","0.0-47.0-0.0","848.1050000991672","","","50","1,1,0","6","blank","281","null","0.4603291113776241","0.7370443481761066","0.052764237452604","1","","","","","",""
"","do_recog","48","227352","0.0-48.0-0.0","1497.2950001247227","","","55","","","","282","probe-41","","","","","1","[object Object]","83","2","1",""
"","do_trial","49","230835","0.0-49.0-0.0","933.1750001292676","","","50","1,1,0","6","blank","283","null","0.31116100668229635","0.8009773617264029","0.20045544412338118","1","","","","","",""
"","do_recog","50","232935","0.0-50.0-0.0","589.9399998597801","","","56","","","","284","probe-230","","","","","1","[object Object]","124","3","1",""
"","do_trial","51","236544","0.0-51.0-0.0","1060.4450001847","","","51","0,1,0","6","blank","285","null","0.37290749075120255","0.8822366826154897","0.1348252633089546","0","","","","","",""
"","do_recog","52","239435","0.0-52.0-0.0","1379.04499983415","","","55","","","","286","probe-209","","","","","1","[object Object]","48","1","1",""
"","do_trial","53","243101","0.0-53.0-0.0","1115.165000082925","","","51","1,1,0","6","blank","287","null","0.36552260503804657","1","0.0812587833408144","0","","","","","",""
"","do_recog","54","245755","0.0-54.0-0.0","1141.489999834448","","","56","","","","288","probe-237","","","","","1","[object Object]","82","2","1",""
"","do_trial","55","249246","0.0-55.0-0.0","938.6650000233203","","","50","0,1,0","6","blank","289","null","0.342848408406946","0.9395434396521566","0.15035796554160094","1","","","","","",""
"","do_recog","56","251907","0.0-56.0-0.0","1148.7400000914931","","","55","","","","290","probe-108","","","","","1","[object Object]","85","2","1",""
"","do_trial","57","255211","0.0-57.0-0.0","752.2799998987466","","","50","0,1,0","6","blank","291","null","0.2675509852787963","0.92560620554357","0.16292799711445227","1","","","","","",""
"","do_trial","58","259174","0.0-58.0-0.0","1415.4099998995662","","","49","0,1,0","6","blank","292","null","0.338273125972772","0.8756571779734648","0.07325696541799663","0","","","","","",""
"","do_recog","59","261872","0.0-59.0-0.0","1191.8049999512732","","","56","","","","293","probe-01","","","","","1","[object Object]","122","3","1",""
"","do_trial","60","265260","0.0-60.0-0.0","837.2049999888986","","","49","1,1,0","6","blank","294","null","0.37429457754459516","0.9388195927026167","0.05564026713926762","1","","","","","",""
"","do_trial","61","268483","0.0-61.0-0.0","674.5550001505762","","","49","0,1,0","6","blank","295","null","0.3904259336229324","0.8815262980459204","0.139021424104804","0","","","","","",""
"","do_trial","62","271594","0.0-62.0-0.0","559.9850001744926","","","51","1,1,0","6","blank","296","null","0.44129322787732866","0.8162843928656242","0.19940741358227393","0","","","","","",""
"","do_trial","63","274926","0.0-63.0-0.0","783.9150000363588","","","51","1,1,0","6","blank","297","null","0.3878897965913406","0.7099361472102683","0.11184130652713194","0","","","","","",""
"","do_recog","64","277858","0.0-64.0-0.0","1424.5450000744313","","","56","","","","298","probe-244","","","","","0","[object Object]","null","null","0",""
"","do_trial","65","281205","0.0-65.0-0.0","797.4600000306964","","","49","1,0,0","6","blank","299","null","0.36112855044122605","0.7004511999961054","0.12869845558325704","1","","","","","",""
"","do_trial","66","284628","0.0-66.0-0.0","875.1499999780208","","","51","0,1,0","6","blank","300","null","0.3286383429649938","0.7010456132772598","0.16039544444644008","0","","","","","",""
"","do_trial","67","287868","0.0-67.0-0.0","693.1549999862909","","","51","0,1,1","6","blank","301","null","0.350151488923189","0.6262695272747637","0.1997893851614461","1","","","","","",""
"","do_trial","68","291081","0.0-68.0-0.0","665.4899998102337","","","51","0,0,1","6","blank","302","null","0.26388117249230364","0.6499522531863359","0.32220437725645346","1","","","","","",""
"","do_recog","69","293836","0.0-69.0-0.0","1241.9400000944734","","","55","","","","303","probe-157","","","","","1","[object Object]","89","2","1",""
"","do_trial","70","297185","0.0-70.0-0.0","800.4099999088794","","","49","0,0,1","6","blank","304","null","0.13601711166424632","0.6625382686406844","0.3334068110859134","0","","","","","",""
"","do_trial","71","300540","0.0-71.0-0.0","807.8300000634044","","","51","0,1,1","6","blank","305","null","0.1496620716201128","0.6390664080088859","0.5569096316698795","1","","","","","",""
"","do_recog","72","303153","0.0-72.0-0.0","1101.0549999773502","","","55","","","","306","probe-62","","","","","1","[object Object]","162","4","1",""
"","do_trial","73","306432","0.0-73.0-0.0","731.1150000896305","","","49","0,1,0","6","blank","307","null","0.14407884701816534","0.4026838133654536","0.6221952359868083","0","","","","","",""
"","do_recog","74","310160","0.0-74.0-0.0","2220.6099999602884","","","55","","","","308","probe-160","","","","","1","[object Object]","42","1","1",""
"","do_trial","75","313360","0.0-75.0-0.0","648.3000000007451","","","51","0,0,0","6","blank","309","null","0.0695218297981316","0.23325208501643066","0.6675471611734141","0","","","","","",""
"","do_recog","76","316164","0.0-76.0-0.0","1294.8900000192225","","","56","","","","310","probe-203","","","","","1","[object Object]","163","4","1",""
"","do_trial","77","319547","0.0-77.0-0.0","830.1550000905991","","","50","1,0,1","6","blank","311","null","0.10088821344779174","0.27527160319647476","0.8382557689927888","0","","","","","",""
"","do_recog","78","321744","0.0-78.0-0.0","685.7000000309199","","","55","","","","312","probe-214","","","","","1","[object Object]","45","1","1",""
"","do_trial","79","324961","0.0-79.0-0.0","665.2550001163036","","","51","0,0,1","6","blank","313","null","0.05696150738236639","0.36123924674188473","0.9089129661750464","1","","","","","",""
"","do_trial","80","328153","0.0-80.0-0.0","639.4400000572205","","","51","0,0,1","6","blank","314","null","0.17477614263887176","0.3142475932201221","0.8967369386495035","1","","","","","",""
"","do_trial","81","331211","0.0-81.0-0.0","510.2150000166148","","","51","0,0,0","6","blank","315","null","0.0821075442415046","0.3515771706426684","0.6946712465883094","0","","","","","",""
"","do_trial","82","334344","0.0-82.0-0.0","583.5999997798353","","","50","0,0,0","6","blank","316","null","0.05848405655285927","0.5128554058692645","0.6386529651979369","0","","","","","",""
"","do_trial","83","337607","0.0-83.0-0.0","710.7700000051409","","","51","0,0,0","6","blank","317","null","0.18080014471165384","0.3730241976463933","0.6771668727171499","0","","","","","",""
"","do_recog","84","340464","0.0-84.0-0.0","1346.0599998943508","","","55","","","","318","probe-218","","","","","1","[object Object]","86","2","1",""
"","do_trial","85","344531","0.0-85.0-0.0","1517.289999872446","","","51","0,1,1","6","blank","319","null","0.22298381608312354","0.45233068230141693","0.7001458203831296","1","","","","","",""
"","do_trial","86","347629","0.0-86.0-0.0","545.2499999664724","","","51","0,1,0","6","blank","320","null","0.24469024044296253","0.44407457537236505","0.6177311661185018","0","","","","","",""
"","do_trial","87","350671","0.0-87.0-0.0","492.68499994650483","","","50","1,0,1","6","blank","321","null","0.21290822449718722","0.5076014260658505","0.7875882702044246","0","","","","","",""
"","do_trial","88","354041","0.0-88.0-0.0","821.5799999888986","","","49","0,0,1","6","blank","322","null","0.06450529797608778","0.3949141688236315","0.7151306655656098","0","","","","","",""
"","do_trial","89","357098","0.0-89.0-0.0","508.88999993912876","","","51","0,1,1","6","blank","323","null","0.08827549005926855","0.46674052649220493","0.7283004642737824","1","","","","","",""
"","do_trial","90","360354","0.0-90.0-0.0","707.9199999570847","","","51","0,1,1","6","blank","324","null","0.12476707800711424","0.41192366373961536","0.657889091651663","1","","","","","",""
"","do_recog","91","362650","0.0-91.0-0.0","786.5850001107901","","","56","","","","325","probe-39","","","","","1","[object Object]","209","5","1",""
"","do_trial","92","365778","0.0-92.0-0.0","578.8450001273304","","","51","1,0,1","6","blank","326","null","0.17485403130318897","0.48020082349572896","0.5711917906632413","1","","","","","",""
"","do_recog","93","368002","0.0-93.0-0.0","711.6149999201298","","","56","","","","327","probe-212","","","","","1","[object Object]","81","2","1",""
"","do_trial","94","371176","0.0-94.0-0.0","624.6250001713634","","","51","0,0,1","6","blank","328","null","0.09468987557827392","0.26134291853537767","0.7129656420751883","1","","","","","",""
"","do_trial","95","374376","0.0-95.0-0.0","646.7900001443923","","","51","0,1,1","6","blank","329","null","0.09065832033431179","0.3370228709446418","1","1","","","","","",""
"","do_trial","96","377397","0.0-96.0-0.0","470.1549999881536","","","51","0,0,1","6","blank","330","null","0.08919993540129977","0.4554814162790436","0.8921683778009858","1","","","","","",""
"","do_trial","97","380469","0.0-97.0-0.0","521.6800000052899","","","51","0,0,1","6","blank","331","null","0.053603527986547855","0.44034992011024693","0.8098823671666426","1","","","","","",""
"","do_recog","98","382893","0.0-98.0-0.0","912.7050000242889","","","56","","","","332","probe-38","","","","","1","[object Object]","203","5","1",""
"","do_trial","99","385952","0.0-99.0-0.0","511.0949999652803","","","51","0,0,1","6","blank","333","null","0.060574924619546514","0.2848807889254141","0.7285416649887726","1","","","","","",""
"","do_recog","100","388079","0.0-100.0-0.0","616.3099999539554","","","56","","","","334","probe-55","","","","","1","[object Object]","202","5","1",""
"","do_trial","101","391326","0.0-101.0-0.0","696.6599998995662","","","51","0,0,1","6","blank","335","null","0.05702039885294965","0.24403286383023762","0.7855345844423738","1","","","","","",""
"","do_recog","102","393760","0.0-102.0-0.0","921.2650000117719","","","55","","","","336","probe-45","","","","","1","[object Object]","207","5","1",""
"","do_trial","103","397124","0.0-103.0-0.0","811.6550000850111","","","50","0,1,1","6","blank","337","null","0.12719180174388567","0.29367379569011254","0.7841555134960101","1","","","","","",""
"","do_trial","104","400548","0.0-104.0-0.0","872.1450001467019","","","50","0,0,1","6","blank","338","null","0.07116278859478033","0.19547928490141014","0.9181654538770685","0","","","","","",""
"","do_trial","105","403551","0.0-105.0-0.0","452.6800001040101","","","49","0,1,1","6","blank","339","null","0.08330488581225896","0.3250655313773148","0.9063460344474039","0","","","","","",""
"","do_trial","106","406478","0.0-106.0-0.0","374.5049999561161","","","49","0,0,0","6","blank","340","null","0.07032638156024625","0.09963380806967262","0.7693336776084525","0","","","","","",""
"","do_trial","107","409462","0.0-107.0-0.0","431.9050000049174","","","49","0,0,1","6","blank","341","null","0.05705034700802458","0.17166596380419982","0.7277820199267104","0","","","","","",""
"","do_trial","108","412472","0.0-108.0-0.0","459.1249998193234","","","51","1,0,1","6","blank","342","null","0.34037676695755614","0.16732320822928212","0.6554970241977168","1","","","","","",""
"","do_recog","109","414853","0.0-109.0-0.0","869.4450000766665","","","55","","","","343","probe-220","","","","","1","[object Object]","44","1","1",""
"","do_trial","110","417973","0.0-110.0-0.0","572.700000135228","","","51","1,0,1","6","blank","344","null","0.5952446595638153","0.23554670157621937","0.554933945915587","1","","","","","",""
"","do_recog","111","420092","0.0-111.0-0.0","607.9150000587106","","","55","","","","345","probe-95","","","","","1","[object Object]","201","5","1",""
"","do_trial","112","423334","0.0-112.0-0.0","692.6049999892712","","","51","1,0,1","6","blank","346","null","0.73323846163224","0.16366836930742065","0.3754000975994907","1","","","","","",""
"","do_recog","113","425622","0.0-113.0-0.0","775.1150000840425","","","55","","","","347","probe-147","","","","","1","[object Object]","200","5","1",""
"","do_trial","114","428861","0.0-114.0-0.0","686.6600001230836","","","51","1,0,1","6","blank","348","null","0.8538660854727488","0.12644874613244494","0.4101475249364031","1","","","","","",""
"","do_recog","115","431094","0.0-115.0-0.0","725.4849998280406","","","55","","","","349","probe-178","","","","","1","[object Object]","128","3","1",""
"","do_trial","116","434443","0.0-116.0-0.0","800.9199998341501","","","51","1,0,1","6","blank","350","null","0.9442231712184075","0.0980952831418468","0.44833337014795055","1","","","","","",""
"","do_trial","117","437550","0.0-117.0-0.0","555.6900000665337","","","51","1,0,0","6","blank","351","null","0.9264860750653913","0.12650921408126678","0.45075650043936116","0","","","","","",""
"","do_trial","118","440527","0.0-118.0-0.0","427.4999999906868","","","50","0,1,0","6","blank","352","null","0.7956007238446842","0.18171989868110583","0.38377754432717076","1","","","","","",""
"","do_trial","119","444149","0.0-119.0-0.0","1070.5999999772757","","","51","1,0,1","6","blank","353","null","0.8973131474590282","0.13128030613435862","0.48484467352163974","1","","","","","",""
"","do_trial","120","447320","0.0-120.0-0.0","618.2549998629838","","","51","1,0,0","6","blank","354","null","0.910428702334427","0.19716323061593866","0.3914585653402204","0","","","","","",""
"","do_recog","121","450137","0.0-121.0-0.0","1307.5749999843538","","","55","","","","355","probe-76","","","","","1","[object Object]","168","4","1",""
"","do_trial","122","453367","0.0-122.0-0.0","678.4399999305606","","","51","1,0,1","6","blank","356","null","0.9150358174521027","0.16696082356304529","0.4488501627852033","1","","","","","",""
"","do_trial","123","456423","0.0-123.0-0.0","508.07500001974404","","","51","1,0,0","6","blank","357","null","0.9042341215770513","0.18806364922262794","0.28772161761793597","0","","","","","",""
"","do_trial","124","459751","0.0-124.0-0.0","777.1649998612702","","","50","1,0,0","6","blank","358","null","0.8829954505254769","0.11022315850879182","0.2962525413402243","0","","","","","",""
"","do_trial","125","462802","0.0-125.0-0.0","502.43999995291233","","","50","0,0,0","6","blank","359","null","0.6984824643283305","0.11786194247062014","0.23352668421019437","0","","","","","",""
"","do_trial","126","465726","0.0-126.0-0.0","372.81000008806586","","","51","1,1,1","6","blank","360","null","0.6729672175955146","0.12303844605419947","0.26590981636828664","1","","","","","",""
"","do_recog","127","467854","0.0-127.0-0.0","614.1900001093745","","","56","","","","361","probe-33","","","","","1","[object Object]","43","1","1",""
"","do_trial","128","471023","0.0-128.0-0.0","617.2400000505149","","","51","1,0,1","6","blank","362","null","0.8025372279030372","0.14197087960041074","0.4246455237851134","1","","","","","",""
"","do_recog","129","473161","0.0-129.0-0.0","627.4249998386949","","","56","","","","363","probe-119","","","","","1","[object Object]","169","4","1",""
"","do_trial","130","476212","0.0-130.0-0.0","500.41499990038574","","","51","1,0,1","6","blank","364","null","0.8340248819595926","0.10381804086930987","0.3823521031109714","1","","","","","",""
"","do_trial","131","479526","0.0-131.0-0.0","762.2100000735372","","","51","1,0,1","6","blank","365","null","0.8580417292466826","0.08265073008527356","0.4810666679535095","1","","","","","",""
"","do_trial","132","483139","0.0-132.0-0.0","1063.7399998959154","","","51","1,0,0","6","blank","366","null","0.9355674473892238","0.06600032806797508","0.5461629889236113","0","","","","","",""
"","do_recog","133","487537","0.0-133.0-0.0","2885.8299998100847","","","56","","","","367","probe-246","","","","","0","[object Object]","null","null","0",""
"","do_trial","134","490828","0.0-134.0-0.0","741.2849999964237","","","50","1,0,1","6","blank","368","null","0.8920946404990288","0.14866439505927317","0.49888430223928915","0","","","","","",""
"","do_trial","135","493850","0.0-135.0-0.0","471.0099999792874","","","51","1,0,0","6","blank","369","null","0.9126237223490185","0.09267936660503623","0.41284505063033505","0","","","","","",""
"","do_trial","136","496800","0.0-136.0-0.0","400.68500000052154","","","49","1,0,0","6","blank","370","null","1","0.10094611055050988","0.3669775675651193","1","","","","","",""
"","do_recog","137","499005","0.0-137.0-0.0","692.2400000039488","","","55","","","","371","probe-14","","","","","1","[object Object]","164","4","1",""
"","do_trial","138","502815","0.0-138.0-0.0","1258.29999987036","","","51","1,0,1","6","blank","372","null","0.9423483758204739","0.053554225491935455","0.34818770858977394","1","","","","","",""
"","do_trial","139","506064","0.0-139.0-0.0","696.8799999449402","","","51","0,0,0","6","blank","373","null","0.8645082881267306","0.05556459938101277","0.3549739958352871","0","","","","","",""
"","do_trial","140","509599","0.0-140.0-0.0","987.3899999074638","","","51","0,0,1","6","blank","374","null","0.7313395123074687","0.07751010216754771","0.48802621867854334","1","","","","","",""
"","do_recog","141","511802","0.0-141.0-0.0","690.3750000055879","","","55","","","","375","probe-63","","","","","1","[object Object]","205","5","1",""
"","do_trial","142","515413","0.0-142.0-0.0","1060.3350000455976","","","49","1,0,1","6","blank","376","null","0.7357973177401889","0.05200530329626593","0.41003318705155506","1","","","","","",""
"","do_recog","143","518091","0.0-143.0-0.0","1169.0249999519438","","","55","","","","377","probe-93","","","","","1","[object Object]","161","4","1",""
"","do_trial","144","523567","0.0-144.0-0.0","2929.2300001252443","","","51","1,1,1","6","blank","378","null","0.7626824158366218","0.07281684443936323","0.43245267197315473","1","","","","","",""
"","do_recog","145","525691","0.0-145.0-0.0","613.9199999161065","","","56","","","","379","probe-176","","","","","1","[object Object]","166","4","1",""
"","do_trial","146","529778","0.0-146.0-0.0","1536.2050000112504","","","50","1,0,0","6","blank","380","null","0.7600618343648361","0.14524289047100553","0.31907789050761975","0","","","","","",""
"","do_recog","147","532026","0.0-147.0-0.0","738.2199999410659","","","55","","","","381","probe-179","","","","","1","[object Object]","88","2","1",""
"","do_trial","148","535026","0.0-148.0-0.0","447.9900000151247","","","51","1,1,0","6","blank","382","null","0.845765965563038","0.22390185101142734","0.4242528603241766","0","","","","","",""
"","do_recog","149","537512","0.0-149.0-0.0","975.7299998309463","","","56","","","","383","probe-193","","","","","1","[object Object]","204","5","1",""
"","do_trial","150","540552","0.0-150.0-0.0","488.7550000566989","","","50","1,0,1","6","blank","384","null","0.9350368396781846","0.2585695921858474","0.4873902076914201","0","","","","","",""
"","do_recog","151","543353","0.0-151.0-0.0","1288.3900001179427","","","55","","","","385","probe-183","","","","","1","[object Object]","40","1","1",""
"","do_trial","152","546381","0.0-152.0-0.0","475.1899999100715","","","51","1,1,1","6","blank","386","null","0.9231721077871262","0.0899572710572615","0.46494736536307574","1","","","","","",""
"","do_trial","153","549490","0.0-153.0-0.0","559.0500000398606","","","51","1,0,1","6","blank","387","null","0.804300567609663","0.328942145712154","0.26207923676525724","1","","","","","",""
"","do_trial","154","552523","0.0-154.0-0.0","493.9399999566376","","","51","0,0,1","6","blank","388","null","0.6780388685404884","0.6331394901870157","0.272306706146503","1","","","","","",""
"","do_trial","155","556322","0.0-155.0-0.0","1249.7749999165535","","","51","1,1,0","6","blank","389","null","0.7322687278262255","0.7247739437041654","0.24847239610202054","0","","","","","",""
"","do_recog","156","558746","0.0-156.0-0.0","917.9200001526624","","","56","","","","390","probe-117","","","","","1","[object Object]","208","5","1",""
"","do_trial","157","561647","0.0-157.0-0.0","350.8099999744445","","","51","1,1,0","6","blank","391","null","0.5992745574064218","0.6759150429977906","0.3629602236293096","0","","","","","",""
"","do_recog","158","564527","0.0-158.0-0.0","1365.8900000154972","","","56","","","","392","probe-85","","","","","1","[object Object]","46","1","1",""
"","do_trial","159","568472","0.0-159.0-0.0","1393.0149998050183","","","51","1,0,0","6","blank","393","null","0.5378032748755669","0.7097446408081645","0.20578575864920962","0","","","","","",""
"","do_recog","160","570681","0.0-160.0-0.0","698.9649999886751","","","56","","","","394","probe-144","","","","","1","[object Object]","165","4","1",""
"","do_trial","161","573696","0.0-161.0-0.0","462.47000014409423","","","49","1,0,0","6","blank","395","null","0.5436360062199903","0.6857846756725385","0.2792214370432479","1","","","","","",""
"","do_recog","162","576491","0.0-162.0-0.0","1281.9850000087172","","","56","","","","396","probe-114","","","","","1","[object Object]","121","3","1",""
"","do_trial","163","579448","0.0-163.0-0.0","409.77000002749264","","","50","1,1,1","6","blank","397","null","0.5053265097932333","0.6124552813861507","0.21615846019278714","1","","","","","",""
"","do_recog","164","581962","0.0-164.0-0.0","1001.1100000701845","","","56","","","","398","probe-21","","","","","1","[object Object]","47","1","1",""
"","do_trial","165","584810","0.0-165.0-0.0","296.9550001434982","","","50","1,0,0","6","blank","399","null","0.3505744764731354","0.599661146347992","0.10638228746236379","0","","","","","",""
"","do_recog","166","587173","0.0-166.0-0.0","852.7299999259412","","","56","","","","400","probe-256","","","","","0","[object Object]","null","null","0",""
"","do_trial","167","590085","0.0-167.0-0.0","360.1100000087172","","","51","0,0,0","6","blank","401","null","0.44645224651637533","0.5425011153853209","0.0804270642590209","0","","","","","",""
"","do_trial","168","593662","0.0-168.0-0.0","1027.405000058934","","","51","0,0,0","6","blank","402","null","0.5415973099197878","0.6149464036746456","0.10303651049839518","0","","","","","",""
"","do_trial","169","596494","0.0-169.0-0.0","282.7900000847876","","","49","0,0,1","6","blank","403","null","0.6679886794923181","0.735406126251278","0.18761423521934933","0","","","","","",""
"","do_trial","170","599560","0.0-170.0-0.0","518.8249999191612","","","50","0,1,0","6","blank","404","null","0.47445510919271067","0.6954646298361115","0.17367477911633863","1","","","","","",""
"","do_trial","171","602461","0.0-171.0-0.0","350.73500010184944","","","50","1,1,0","6","blank","405","null","0.4906096817514261","0.7954586007406336","0.19306585471072257","1","","","","","",""
"","do_recog","172","604996","0.0-172.0-0.0","1024.7550001367927","","","55","","","","406","probe-257","","","","","0","[object Object]","null","null","0",""
"","do_trial","173","607851","0.0-173.0-0.0","304.6549998689443","","","50","1,1,0","6","blank","407","null","0.48346516374370896","0.7902733242095105","0.29641024239429326","1","","","","","",""
"","do_recog","174","610061","0.0-174.0-0.0","703.8349998183548","","","55","","","","408","probe-243","","","","","0","[object Object]","null","null","0",""
"","do_trial","175","613181","0.0-175.0-0.0","568.0700000375509","","","49","0,0,1","6","blank","409","null","0.3238837907266741","0.7667278452529968","0.1702947011167843","0","","","","","",""
"","do_recog","176","616193","0.0-176.0-0.0","1504.0450000669807","","","53","","","","410","probe-252","","","","","0","[object Object]","null","null","1",""
"","do_trial","177","619447","0.0-177.0-0.0","704.1350000072271","","","49","1,1,1","6","blank","411","null","0.4058664135378395","0.7971417276778867","0.16026924960987196","1","","","","","",""
"","do_trial","178","622480","0.0-178.0-0.0","480.2149999886751","","","49","0,1,1","6","blank","412","null","0.533405071198186","0.6346193364827385","0.14866848265170268","0","","","","","",""
"","do_recog","179","625265","0.0-179.0-0.0","1273.0150001589209","","","54","","","","413","probe-247","","","","","0","[object Object]","null","null","1",""
"","do_trial","180","628317","0.0-180.0-0.0","504.17499989271164","","","51","0,1,0","6","blank","414","null","0.4648827786343616","0.6449993907492122","0.13439429315440607","0","","","","","",""
"","do_recog","181","631088","0.0-181.0-0.0","1258.0600001383573","","","56","","","","415","probe-251","","","","","0","[object Object]","null","null","0",""
"","do_trial","182","634113","0.0-182.0-0.0","473.31000003032386","","","50","0,1,0","6","blank","416","null","0.43855477795253955","0.7331753023775021","0.1801743499747339","1","","","","","",""
"","do_recog","183","637449","0.0-183.0-0.0","1823.710000142455","","","54","","","","417","probe-258","","","","","0","[object Object]","null","null","1",""
"","do_trial","184","640304","0.0-184.0-0.0","304.77500008419156","","","50","0,0,0","6","blank","418","null","0.39534500822934815","0.6625342388866057","0.10642547736900144","0","","","","","",""
"","do_recog","185","643770","0.0-185.0-0.0","1953.48499994725","","","54","","","","419","probe-241","","","","","0","[object Object]","null","null","1",""
"","do_pick_best_pirate","186","645403","0.0-186.0-0.0","620.7350001204759","","","49","","","","","","","","","","","","","","",""
"","do_pick_best_pirate","187","647986","0.0-187.0-0.0","1570.985000114888","","","51","","","","","","","","","","","","","","",""
"","do_pick_best_pirate","188","650123","0.0-188.0-0.0","1126.600000075996","","","50","","","","","","","","","","","","","","",""
"","do_pick_best_pirate","189","652237","0.0-189.0-0.0","1103.6499999463558","","","50","","","","","","","","","","","","","","",""
"","do_pick_best_pirate","190","654187","0.0-190.0-0.0","939.310000045225","","","51","","","","","","","","","","","","","","",""
"","do_pick_best_pirate","191","656313","0.0-191.0-0.0","1118.0449998937547","","","50","","","","","","","","","","","","","","",""
"","html-keyboard-response","192","662880","0.0-192.0-0.0","6564.95500006713","<div class='center'>You are all done with both parts of the experiment! You made $15 plus $3 in bonus payment!! Thank you for participating. You will recieve your payment within 3 days<p><b>[Press the space bar to end the experiment]</b></p></div>","32","","","","","","","","","","","","","","","",""
"","pavlovia","193","662895","0.0-192.0-1.0","","","","","","","","","","","","","","","","","","",""
