success,trial_type,trial_index,time_elapsed,internal_node_id,rt,stimulus,subject_id,key_press,response,choice_outcomes,context_n,context_img_id,trial_n,probe_img_id,pR_red,pR_white,pR_black,outcome,is_valid,image_to_show,probed_trial,probed_context,correct,context_id
TRUE,fullscreen,0,4845,0.0-0.0,,,,,,,,,,,,,,,,,,,,
,pavlovia,1,4858,0.0-1.0,,,,,,,,,,,,,,,,,,,,
,html-keyboard-response,2,33268,0.0-2.0,28407.46,"<div class='center'><p>Like yesterday,as the head captain of the ship, you have one important things to do: </p><b><p> Pick the pirate who you think will be most successful at robbing the next ship.</p></b><p>This is important in determining how much bonus money you’ll win.</p><br><p>The game will start by showing you the pirates. First pick a pirate using the <b> 1, 2, 3 </b> buttons on your keyboard. </p><p> Press <b>'1'</b> to choose red beard, <b>'2'</b> to choose white beard, and <b>'3'</b> to choose black beard</p><p> You only have 3 seconds to pick a pirate, so please make a choice quickly! If you are too slow, you’ll have to wait a bit during the time out.</p><p> Don’t feel rushed, but please do try to make a choice every time.</p><p>How good a pirate is at robbing a ship will change depending on the place they are in and how good the defenses are of the ship.</p><p><b>[Press the space bar to begin the practice game]</b></p></div>",5aa9e691f0536100014124f9,32,,,,,,,,,,,,,,,,
,html-keyboard-response,3,49326,0.0-3.0,16055.705,"<div class='center'><p>You’ve arrived at the final island of your journey! Unfortunately, it’s very foggy out, so you won’t be able to see it in the distance like the previous islands you've visited.</p><p>You’ll still be deciding which pirate you want to rob a ship like before. However, because of the fog, you also won’t be able to see the ship.</p><p>This means you do not have to remember the ships you rob on this island.</p><p><b>[Press the space bar to continue]</b></p></div>",,32,,,,,,,,,,,,,,,,
,html-keyboard-response,4,61537,0.0-4.0,12206.745,"<div class='center'><p> Sometimes you’ll be shown a ship, and you will be asked if you saw this ship on a past island.</p><p> Here is an example of what you will see.</p><p><b>[Press the space bar to continue]</b></p><p><img src='run_exp/static/images/tutorial/example_recog_trial.png' height='500'></p></div>",,32,,,,,,,,,,,,,,,,
,html-keyboard-response,5,74558,0.0-5.0,13018.025,"<div class='center'><p> You will press the 5, 6, 7, 8 buttons on your keyboard to respond.</p><p>If you are very sure saw the ship, press <b>5</b> on your keyboard.</p><p> If you think you  saw it before but are not sure, then press <b>6</b>.</p><p> If you think you have not seen it before but are not sure, then press <b>7</b>.</p><p> If you are sure you did not see the ship before, then press <b>8</b>.</p><p><b>[Press the space bar to continue]</b></p><p><img src='run_exp/static/images/tutorial/example_recog_trial.png' height='500'></p></div>",,32,,,,,,,,,,,,,,,,
,html-keyboard-response,6,85175,0.0-6.0,10613.85,"<div class='center'><p> If you remember correctly, then you’ll get a gold coin like this: </p><p><img src='run_exp/static/images/tutorial/reward_small.png' height='200'></p><p>If you do not remember correctly, then you'll see a red x like this: </p><p><img src='run_exp/static/images/tutorial/reward_no.png' height='200'></p><p>Importantly, when you are shown a ship, take the time to remind yourself which island you saw it on. This will help you in the next part of the study.</p><p><b>[Press the space bar to continue]</b></p></div>",,32,,,,,,,,,,,,,,,,
,html-keyboard-response,7,94428,0.0-7.0,9250.225,"<div class='center'><p>Let's go over the important points again. Your job is to: </p><p>1. Pick the pirate who is best at robbing ships and will bring you back gold coins. </p><p>2. Correctly remember whether or not you saw a ship before. If you did see the ship before, remind yourself on which island you saw the ship. </p><p><b>[Press the space bar to begin the next part of the study]</b></p></div>",,32,,,,,,,,,,,,,,,,
,do_welcome,8,95981,0.0-8.0,null,,,,null,,,,,,,,,,,,,,,
,do_trial,9,100174,0.0-9.0-0.0,1571.18,,,,50,"1,0,1",6,blank,230,null,0.500694319,0.132491061,0.613079732,0,,,,,,
,html-keyboard-response,10,101178,0.0-9.0-1.0,null,<p></p>,,null,,,,,,,,,,,,,,,,
,do_trial,11,105730,0.0-10.0-0.0,1933.41,,,,49,"0,0,1",6,blank,231,null,0.545852552,0.104680926,0.581014763,0,,,,,,
,html-keyboard-response,12,106733,0.0-10.0-1.0,null,<p></p>,,null,,,,,,,,,,,,,,,,
,do_trial,13,110665,0.0-11.0-0.0,1327.875,,,,50,"1,0,0",6,blank,232,null,0.490502423,0.099772746,0.584067324,0,,,,,,
,html-keyboard-response,14,111668,0.0-11.0-1.0,null,<p></p>,,null,,,,,,,,,,,,,,,,
,do_trial,15,114862,0.0-12.0-0.0,589.87,,,,51,"0,0,0",6,blank,233,null,0.337619265,0.167573554,0.640753668,0,,,,,,
,html-keyboard-response,16,115865,0.0-12.0-1.0,null,<p></p>,,null,,,,,,,,,,,,,,,,
,do_trial,17,119294,0.0-13.0-0.0,824.82,,,,49,"1,0,0",6,blank,234,null,0.464515587,0.154384081,0.441311614,1,,,,,,
,html-keyboard-response,18,120296,0.0-13.0-1.0,null,<p></p>,,null,,,,,,,,,,,,,,,,
,do_trial,19,124309,0.0-14.0-0.0,1409.8,,,,49,"1,0,1",6,blank,235,null,0.447207919,0.113237726,0.442782069,1,,,,,,
,html-keyboard-response,20,125311,0.0-14.0-1.0,null,<p></p>,,null,,,,,,,,,,,,,,,,
,do_trial,21,128687,0.0-15.0-0.0,772.48,,,,49,"0,0,1",6,blank,236,null,0.406736068,0.093169054,0.610398057,0,,,,,,
,html-keyboard-response,22,129690,0.0-15.0-1.0,null,<p></p>,,null,,,,,,,,,,,,,,,,
,do_trial,23,132826,0.0-16.0-0.0,533.52,,,,51,"1,0,0",6,blank,237,null,0.494229416,0.064399133,0.648785231,0,,,,,,
,html-keyboard-response,24,133831,0.0-16.0-1.0,null,<p></p>,,null,,,,,,,,,,,,,,,,
,do_trial,25,136968,0.0-17.0-0.0,532.17,,,,49,"1,0,1",6,blank,238,null,0.494110888,0.110905232,0.545351812,1,,,,,,
,html-keyboard-response,26,137970,0.0-17.0-1.0,null,<p></p>,,null,,,,,,,,,,,,,,,,
,do_trial,27,141054,0.0-18.0-0.0,476.39,,,,50,"0,1,1",6,blank,239,null,0.444255183,0.102431209,0.647145862,1,,,,,,
,html-keyboard-response,28,142057,0.0-18.0-1.0,null,<p></p>,,null,,,,,,,,,,,,,,,,
,do_trial,29,145170,0.0-19.0-0.0,499.775,,,,49,"0,0,1",6,blank,240,null,0.490694964,0.186734398,0.76083896,0,,,,,,
,html-keyboard-response,30,146174,0.0-19.0-1.0,null,<p></p>,,null,,,,,,,,,,,,,,,,
,do_trial,31,149209,0.0-20.0-0.0,429.285,,,,50,"1,0,1",6,blank,241,null,0.409926031,0.169946184,0.799148043,0,,,,,,
,html-keyboard-response,32,150213,0.0-20.0-1.0,null,<p></p>,,null,,,,,,,,,,,,,,,,
,do_trial,33,153493,0.0-21.0-0.0,671.895,,,,49,"1,0,0",6,blank,242,null,0.226400896,0.352018138,0.467131692,1,,,,,,
,html-keyboard-response,34,154497,0.0-21.0-1.0,null,<p></p>,,null,,,,,,,,,,,,,,,,
,do_recog,35,160518,0.0-22.0-0.0,null,,,,null,,,,243,probe-25,,,,,1,[object Object],87,2,0,
,html-keyboard-response,36,161521,0.0-22.0-1.0,null,<p></p>,,null,,,,,,,,,,,,,,,,
,do_trial,37,165776,0.0-23.0-0.0,1642.865,,,,50,"0,1,0",6,blank,244,null,0.212294712,0.39419293,0.406908554,1,,,,,,
,html-keyboard-response,38,166780,0.0-23.0-1.0,null,<p></p>,,null,,,,,,,,,,,,,,,,
,do_trial,39,170127,0.0-24.0-0.0,742,,,,51,"0,0,0",6,blank,245,null,0.117144079,0.37828077,0.371202419,0,,,,,,
,html-keyboard-response,40,171131,0.0-24.0-1.0,null,<p></p>,,null,,,,,,,,,,,,,,,,
,do_trial,41,174529,0.0-25.0-0.0,793.285,,,,49,"0,1,0",6,blank,246,null,0.051064024,0.479265597,0.407883581,0,,,,,,
,html-keyboard-response,42,175533,0.0-25.0-1.0,null,<p></p>,,null,,,,,,,,,,,,,,,,
,do_recog,43,178810,0.0-26.0-0.0,1763.445,,,,54,,,,247,probe-140,,,,,1,[object Object],41,1,1,
,html-keyboard-response,44,179812,0.0-26.0-1.0,null,<p></p>,,null,,,,,,,,,,,,,,,,
,do_trial,45,183250,0.0-27.0-0.0,835.855,,,,51,"0,1,0",6,blank,248,null,0.144079348,0.622712198,0.319935256,0,,,,,,
,html-keyboard-response,46,184253,0.0-27.0-1.0,null,<p></p>,,null,,,,,,,,,,,,,,,,
,do_recog,47,188108,0.0-28.0-0.0,2340.335,,,,56,,,,249,probe-197,,,,,1,[object Object],83,2,0,
,html-keyboard-response,48,189112,0.0-28.0-1.0,null,<p></p>,,null,,,,,,,,,,,,,,,,
,do_trial,49,193349,0.0-29.0-0.0,1609.205,,,,51,"0,1,0",6,blank,250,null,0.172820602,0.578001649,0.268709461,0,,,,,,
,html-keyboard-response,50,194354,0.0-29.0-1.0,null,<p></p>,,null,,,,,,,,,,,,,,,,
,do_trial,51,197330,0.0-30.0-0.0,362.68,,,,49,"0,0,0",6,blank,251,null,0.225623082,0.6015422,0.398566099,0,,,,,,
,html-keyboard-response,52,198334,0.0-30.0-1.0,null,<p></p>,,null,,,,,,,,,,,,,,,,
,do_trial,53,201608,0.0-31.0-0.0,664.7,,,,51,"0,1,0",6,blank,252,null,0.328097162,0.469782941,0.455918932,0,,,,,,
,html-keyboard-response,54,202612,0.0-31.0-1.0,null,<p></p>,,null,,,,,,,,,,,,,,,,
,do_trial,55,205897,0.0-32.0-0.0,673.055,,,,50,"0,1,0",6,blank,253,null,0.206412815,0.631890398,0.428779102,1,,,,,,
,html-keyboard-response,56,206903,0.0-32.0-1.0,null,<p></p>,,null,,,,,,,,,,,,,,,,
,do_trial,57,210164,0.0-33.0-0.0,650.95,,,,50,"1,1,0",6,blank,254,null,0.188629846,0.752891077,0.499748354,1,,,,,,
,html-keyboard-response,58,211168,0.0-33.0-1.0,null,<p></p>,,null,,,,,,,,,,,,,,,,
,do_trial,59,214399,0.0-34.0-0.0,625.92,,,,49,"1,0,1",6,blank,255,null,0.162138897,0.658068663,0.40308194,1,,,,,,
,html-keyboard-response,60,215403,0.0-34.0-1.0,null,<p></p>,,null,,,,,,,,,,,,,,,,
,do_trial,61,218403,0.0-35.0-0.0,381.65,,,,50,"0,1,0",6,blank,256,null,0.181223021,0.700999699,0.412088464,1,,,,,,
,html-keyboard-response,62,219405,0.0-35.0-1.0,null,<p></p>,,null,,,,,,,,,,,,,,,,
,do_recog,63,223430,0.0-36.0-0.0,2514.235,,,,55,,,,257,probe-83,,,,,1,[object Object],209,5,0,
,html-keyboard-response,64,224434,0.0-36.0-1.0,null,<p></p>,,null,,,,,,,,,,,,,,,,
,do_trial,65,227531,0.0-37.0-0.0,491.695,,,,49,"0,0,0",6,blank,258,null,0.230141594,0.61351514,0.438947641,0,,,,,,
,html-keyboard-response,66,228534,0.0-37.0-1.0,null,<p></p>,,null,,,,,,,,,,,,,,,,
,do_recog,67,232161,0.0-38.0-0.0,2108.095,,,,56,,,,259,probe-235,,,,,0,[object Object],null,null,1,
,html-keyboard-response,68,233170,0.0-38.0-1.0,null,<p></p>,,null,,,,,,,,,,,,,,,,
,do_trial,69,236382,0.0-39.0-0.0,585.75,,,,49,"0,1,0",6,blank,260,null,0.288352731,0.612437621,0.291285863,0,,,,,,
,html-keyboard-response,70,237391,0.0-39.0-1.0,null,<p></p>,,null,,,,,,,,,,,,,,,,
,do_trial,71,240556,0.0-40.0-0.0,557.22,,,,50,"0,1,0",6,blank,261,null,0.208316914,0.649940672,0.342370817,1,,,,,,
,html-keyboard-response,72,241559,0.0-40.0-1.0,null,<p></p>,,null,,,,,,,,,,,,,,,,
,do_trial,73,244812,0.0-41.0-0.0,627.59,,,,49,"0,0,1",6,blank,262,null,0.104928132,0.497122184,0.284837396,0,,,,,,
,html-keyboard-response,74,245815,0.0-41.0-1.0,null,<p></p>,,null,,,,,,,,,,,,,,,,
,do_trial,75,248912,0.0-42.0-0.0,484.37,,,,50,"0,0,0",6,blank,263,null,0.075182715,0.542761436,0.189627998,0,,,,,,
,html-keyboard-response,76,249914,0.0-42.0-1.0,null,<p></p>,,null,,,,,,,,,,,,,,,,
,do_trial,77,252862,0.0-43.0-0.0,343.68,,,,49,"0,0,0",6,blank,264,null,0.091101874,0.496896895,0.16859275,0,,,,,,
,html-keyboard-response,78,253865,0.0-43.0-1.0,null,<p></p>,,null,,,,,,,,,,,,,,,,
,do_trial,79,257774,0.0-44.0-0.0,1304.23,,,,51,"0,1,0",6,blank,265,null,0.066417434,0.501013306,0.191810106,0,,,,,,
,html-keyboard-response,80,258777,0.0-44.0-1.0,null,<p></p>,,null,,,,,,,,,,,,,,,,
,do_recog,81,262535,0.0-45.0-0.0,2243.51,,,,54,,,,266,probe-04,,,,,1,[object Object],47,1,1,
,html-keyboard-response,82,263537,0.0-45.0-1.0,null,<p></p>,,null,,,,,,,,,,,,,,,,
,do_trial,83,266676,0.0-46.0-0.0,534.445,,,,49,"1,0,0",6,blank,267,null,0.156192682,0.468545892,0.161756984,1,,,,,,
,html-keyboard-response,84,267678,0.0-46.0-1.0,null,<p></p>,,null,,,,,,,,,,,,,,,,
,do_trial,85,270848,0.0-47.0-0.0,553.335,,,,50,"0,1,0",6,blank,268,null,0.070687641,0.657308667,0.165488406,1,,,,,,
,html-keyboard-response,86,271850,0.0-47.0-1.0,null,<p></p>,,null,,,,,,,,,,,,,,,,
,do_trial,87,275189,0.0-48.0-0.0,728.825,,,,49,"1,0,1",6,blank,269,null,0.223983401,0.649231689,0.333225152,1,,,,,,
,html-keyboard-response,88,276193,0.0-48.0-1.0,null,<p></p>,,null,,,,,,,,,,,,,,,,
,do_trial,89,279477,0.0-49.0-0.0,669.535,,,,50,"1,1,1",6,blank,270,null,0.202068783,0.687905673,0.127080978,1,,,,,,
,html-keyboard-response,90,280481,0.0-49.0-1.0,null,<p></p>,,null,,,,,,,,,,,,,,,,
,do_trial,91,283500,0.0-50.0-0.0,412.485,,,,49,"0,1,0",6,blank,271,null,0.09654956,0.682424432,0.352951159,0,,,,,,
,html-keyboard-response,92,284503,0.0-50.0-1.0,null,<p></p>,,null,,,,,,,,,,,,,,,,
,do_trial,93,287654,0.0-51.0-0.0,536.015,,,,50,"1,1,0",6,blank,272,null,0.187335601,0.645976159,0.412872845,1,,,,,,
,html-keyboard-response,94,288657,0.0-51.0-1.0,null,<p></p>,,null,,,,,,,,,,,,,,,,
,do_trial,95,291730,0.0-52.0-0.0,468.1,,,,50,"0,1,0",6,blank,273,null,0.264175405,0.530927352,0.330247289,1,,,,,,
,html-keyboard-response,96,292734,0.0-52.0-1.0,null,<p></p>,,null,,,,,,,,,,,,,,,,
,do_recog,97,296417,0.0-53.0-0.0,2169.225,,,,54,,,,274,probe-128,,,,,1,[object Object],166,4,1,
,html-keyboard-response,98,297421,0.0-53.0-1.0,null,<p></p>,,null,,,,,,,,,,,,,,,,
,do_trial,99,300546,0.0-54.0-0.0,519.955,,,,49,"0,1,0",6,blank,275,null,0.200797832,0.530309509,0.18450033,0,,,,,,
,html-keyboard-response,100,301548,0.0-54.0-1.0,null,<p></p>,,null,,,,,,,,,,,,,,,,
,do_recog,101,304722,0.0-55.0-0.0,1657.86,,,,56,,,,276,probe-245,,,,,0,[object Object],null,null,1,
,html-keyboard-response,102,305725,0.0-55.0-1.0,null,<p></p>,,null,,,,,,,,,,,,,,,,
,do_trial,103,309013,0.0-56.0-0.0,676.045,,,,50,"0,1,0",6,blank,277,null,0.231588094,0.442988818,0.217061587,1,,,,,,
,html-keyboard-response,104,310017,0.0-56.0-1.0,null,<p></p>,,null,,,,,,,,,,,,,,,,
,do_trial,105,313018,0.0-57.0-0.0,391.23,,,,49,"0,1,1",6,blank,278,null,0.063566235,0.542453416,0.270294662,0,,,,,,
,html-keyboard-response,106,314021,0.0-57.0-1.0,null,<p></p>,,null,,,,,,,,,,,,,,,,
,do_trial,107,317208,0.0-58.0-0.0,573.89,,,,50,"0,0,1",6,blank,279,null,0.116433429,0.432612189,0.304146866,0,,,,,,
,html-keyboard-response,108,318213,0.0-58.0-1.0,null,<p></p>,,null,,,,,,,,,,,,,,,,
,do_recog,109,321708,0.0-59.0-0.0,1974.555,,,,55,,,,280,probe-105,,,,,1,[object Object],124,3,0,
,html-keyboard-response,110,322712,0.0-59.0-1.0,null,<p></p>,,null,,,,,,,,,,,,,,,,
,do_trial,111,326454,0.0-60.0-0.0,1122.695,,,,50,"0,1,0",6,blank,281,null,0.122940483,0.511969418,0.29806549,1,,,,,,
,html-keyboard-response,112,327455,0.0-60.0-1.0,null,<p></p>,,null,,,,,,,,,,,,,,,,
,do_trial,113,330489,0.0-61.0-0.0,425.51,,,,49,"0,1,1",6,blank,282,null,0.156430105,0.50557708,0.180148188,0,,,,,,
,html-keyboard-response,114,331493,0.0-61.0-1.0,null,<p></p>,,null,,,,,,,,,,,,,,,,
,do_trial,115,334768,0.0-62.0-0.0,664.98,,,,50,"0,1,1",6,blank,283,null,0.07983286,0.496331703,0.21168278,1,,,,,,
,html-keyboard-response,116,335770,0.0-62.0-1.0,null,<p></p>,,null,,,,,,,,,,,,,,,,
,do_trial,117,338809,0.0-63.0-0.0,435.705,,,,50,"1,0,0",6,blank,284,null,0.121155102,0.419369111,0.357770964,0,,,,,,
,html-keyboard-response,118,339812,0.0-63.0-1.0,null,<p></p>,,null,,,,,,,,,,,,,,,,
,do_trial,119,342688,0.0-64.0-0.0,269.1,,,,50,"0,1,1",6,blank,285,null,0.159243809,0.498613943,0.437370035,1,,,,,,
,html-keyboard-response,120,343690,0.0-64.0-1.0,null,<p></p>,,null,,,,,,,,,,,,,,,,
,do_trial,121,346677,0.0-65.0-0.0,382.305,,,,49,"0,1,0",6,blank,286,null,0.186047242,0.610597365,0.325630867,0,,,,,,
,html-keyboard-response,122,347681,0.0-65.0-1.0,null,<p></p>,,null,,,,,,,,,,,,,,,,
,do_recog,123,351099,0.0-66.0-0.0,1902.085,,,,53,,,,287,probe-21,,,,,1,[object Object],48,1,1,
,html-keyboard-response,124,352103,0.0-66.0-1.0,null,<p></p>,,null,,,,,,,,,,,,,,,,
,do_trial,125,355116,0.0-67.0-0.0,399.99,,,,49,"0,1,0",6,blank,288,null,0.274867886,0.452749067,0.259992537,0,,,,,,
,html-keyboard-response,126,356120,0.0-67.0-1.0,null,<p></p>,,null,,,,,,,,,,,,,,,,
,do_trial,127,359126,0.0-68.0-0.0,391.755,,,,50,"0,0,0",6,blank,289,null,0.305832801,0.442763841,0.275795492,0,,,,,,
,html-keyboard-response,128,360129,0.0-68.0-1.0,null,<p></p>,,null,,,,,,,,,,,,,,,,
,do_trial,129,363126,0.0-69.0-0.0,382.46,,,,50,"0,0,1",6,blank,290,null,0.338071287,0.455324524,0.207793575,0,,,,,,
,html-keyboard-response,130,364130,0.0-69.0-1.0,null,<p></p>,,null,,,,,,,,,,,,,,,,
,do_trial,131,367097,0.0-70.0-0.0,348.8,,,,49,"0,1,0",6,blank,291,null,0.322156665,0.45409219,0.300181437,0,,,,,,
,html-keyboard-response,132,368102,0.0-70.0-1.0,null,<p></p>,,null,,,,,,,,,,,,,,,,
,do_recog,133,371413,0.0-71.0-0.0,1794.455,,,,55,,,,292,probe-220,,,,,1,[object Object],167,4,0,
,html-keyboard-response,134,372416,0.0-71.0-1.0,null,<p></p>,,null,,,,,,,,,,,,,,,,
,do_trial,135,375850,0.0-72.0-0.0,830.815,,,,51,"0,0,0",6,blank,293,null,0.415060859,0.299781039,0.228540546,0,,,,,,
,html-keyboard-response,136,376854,0.0-72.0-1.0,null,<p></p>,,null,,,,,,,,,,,,,,,,
,do_recog,137,380268,0.0-73.0-0.0,1892.54,,,,55,,,,294,probe-52,,,,,1,[object Object],207,5,0,
,html-keyboard-response,138,381271,0.0-73.0-1.0,null,<p></p>,,null,,,,,,,,,,,,,,,,
,do_trial,139,384295,0.0-74.0-0.0,418.09,,,,49,"0,0,0",6,blank,295,null,0.444734707,0.366638963,0.062588085,0,,,,,,
,html-keyboard-response,140,385297,0.0-74.0-1.0,null,<p></p>,,null,,,,,,,,,,,,,,,,
,do_trial,141,388519,0.0-75.0-0.0,615.08,,,,50,"1,0,0",6,blank,296,null,0.438219396,0.320310901,0.058761836,0,,,,,,
,html-keyboard-response,142,389525,0.0-75.0-1.0,null,<p></p>,,null,,,,,,,,,,,,,,,,
,do_recog,143,392707,0.0-76.0-0.0,1667.91,,,,54,,,,297,probe-143,,,,,1,[object Object],40,1,1,
,html-keyboard-response,144,393711,0.0-76.0-1.0,null,<p></p>,,null,,,,,,,,,,,,,,,,
,do_trial,145,396887,0.0-77.0-0.0,565.91,,,,49,"1,0,0",6,blank,298,null,0.518628373,0.261602588,0.07067273,1,,,,,,
,html-keyboard-response,146,397890,0.0-77.0-1.0,null,<p></p>,,null,,,,,,,,,,,,,,,,
,do_trial,147,400992,0.0-78.0-0.0,495.555,,,,50,"0,0,1",6,blank,299,null,0.531555135,0.138834616,0.072781471,0,,,,,,
,html-keyboard-response,148,401994,0.0-78.0-1.0,null,<p></p>,,null,,,,,,,,,,,,,,,,
,do_trial,149,404886,0.0-79.0-0.0,288.42,,,,50,"1,0,0",6,blank,300,null,0.545343779,0.188154909,0.12418795,0,,,,,,
,html-keyboard-response,150,405889,0.0-79.0-1.0,null,<p></p>,,null,,,,,,,,,,,,,,,,
,do_trial,151,408867,0.0-80.0-0.0,375.7,,,,49,"1,0,0",6,blank,301,null,0.729985535,0.243385486,0.076947876,1,,,,,,
,html-keyboard-response,152,409870,0.0-80.0-1.0,null,<p></p>,,null,,,,,,,,,,,,,,,,
,do_trial,153,412888,0.0-81.0-0.0,414.685,,,,49,"0,0,0",6,blank,302,null,0.694748345,0.194815171,0.061297173,0,,,,,,
,html-keyboard-response,154,413892,0.0-81.0-1.0,null,<p></p>,,null,,,,,,,,,,,,,,,,
,do_trial,155,417082,0.0-82.0-0.0,584.225,,,,49,"1,0,0",6,blank,303,null,0.761310182,0.117145046,0.169926386,1,,,,,,
,html-keyboard-response,156,418086,0.0-82.0-1.0,null,<p></p>,,null,,,,,,,,,,,,,,,,
,do_recog,157,421104,0.0-83.0-0.0,1505.625,,,,55,,,,304,probe-15,,,,,1,[object Object],121,3,0,
,html-keyboard-response,158,422106,0.0-83.0-1.0,null,<p></p>,,null,,,,,,,,,,,,,,,,
,do_trial,159,425618,0.0-84.0-0.0,903.81,,,,49,"0,0,0",6,blank,305,null,0.712469968,0.18377908,0.113653606,0,,,,,,
,html-keyboard-response,160,426621,0.0-84.0-1.0,null,<p></p>,,null,,,,,,,,,,,,,,,,
,do_trial,161,429611,0.0-85.0-0.0,378.04,,,,50,"0,0,0",6,blank,306,null,0.685736912,0.186799275,0.139797782,0,,,,,,
,html-keyboard-response,162,430615,0.0-85.0-1.0,null,<p></p>,,null,,,,,,,,,,,,,,,,
,do_recog,163,433880,0.0-86.0-0.0,1747.265,,,,55,,,,307,probe-248,,,,,0,[object Object],null,null,1,
,html-keyboard-response,164,434884,0.0-86.0-1.0,null,<p></p>,,null,,,,,,,,,,,,,,,,
,do_trial,165,438061,0.0-87.0-0.0,572.905,,,,49,"1,0,0",6,blank,308,null,0.77745223,0.165920151,0.051991239,1,,,,,,
,html-keyboard-response,166,439064,0.0-87.0-1.0,null,<p></p>,,null,,,,,,,,,,,,,,,,
,do_trial,167,442481,0.0-88.0-0.0,812.65,,,,50,"1,0,0",6,blank,309,null,0.655099502,0.315723266,0.05925675,0,,,,,,
,html-keyboard-response,168,443485,0.0-88.0-1.0,null,<p></p>,,null,,,,,,,,,,,,,,,,
,do_trial,169,446492,0.0-89.0-0.0,393.93,,,,49,"0,0,0",6,blank,310,null,0.614538302,0.318400848,0.066059365,0,,,,,,
,html-keyboard-response,170,447496,0.0-89.0-1.0,null,<p></p>,,null,,,,,,,,,,,,,,,,
,do_recog,171,450937,0.0-90.0-0.0,1928.3,,,,53,,,,311,probe-191,,,,,1,[object Object],205,5,1,
,html-keyboard-response,172,451940,0.0-90.0-1.0,null,<p></p>,,null,,,,,,,,,,,,,,,,
,do_trial,173,455171,0.0-91.0-0.0,627.37,,,,49,"0,1,0",6,blank,312,null,0.476808451,0.258920468,0.100599922,0,,,,,,
,html-keyboard-response,174,456174,0.0-91.0-1.0,null,<p></p>,,null,,,,,,,,,,,,,,,,
,do_trial,175,459290,0.0-92.0-0.0,509.66,,,,49,"1,1,0",6,blank,313,null,0.477069968,0.245852157,0.162905657,1,,,,,,
,html-keyboard-response,176,460293,0.0-92.0-1.0,null,<p></p>,,null,,,,,,,,,,,,,,,,
,do_trial,177,463283,0.0-93.0-0.0,386.4,,,,50,"0,0,0",6,blank,314,null,0.661700081,0.309975919,0.058123042,0,,,,,,
,html-keyboard-response,178,464288,0.0-93.0-1.0,null,<p></p>,,null,,,,,,,,,,,,,,,,
,do_trial,179,467413,0.0-94.0-0.0,517.705,,,,49,"1,0,0",6,blank,315,null,0.670433886,0.284699482,0.086500473,1,,,,,,
,html-keyboard-response,180,468416,0.0-94.0-1.0,null,<p></p>,,null,,,,,,,,,,,,,,,,
,do_recog,181,471310,0.0-95.0-0.0,1376.47,,,,55,,,,316,probe-80,,,,,1,[object Object],162,4,0,
,html-keyboard-response,182,472315,0.0-95.0-1.0,null,<p></p>,,null,,,,,,,,,,,,,,,,
,do_trial,183,475335,0.0-96.0-0.0,406.145,,,,49,"1,0,0",6,blank,317,null,0.643291519,0.265150284,0.051976151,1,,,,,,
,html-keyboard-response,184,476337,0.0-96.0-1.0,null,<p></p>,,null,,,,,,,,,,,,,,,,
,do_trial,185,479595,0.0-97.0-0.0,648.46,,,,49,"1,0,0",6,blank,318,null,0.725974825,0.331313649,0.141420406,1,,,,,,
,html-keyboard-response,186,480599,0.0-97.0-1.0,null,<p></p>,,null,,,,,,,,,,,,,,,,
,do_trial,187,483954,0.0-98.0-0.0,739.605,,,,49,"1,1,0",6,blank,319,null,0.377111955,0.240252286,0.079022126,1,,,,,,
,html-keyboard-response,188,484957,0.0-98.0-1.0,null,<p></p>,,null,,,,,,,,,,,,,,,,
,do_recog,189,488196,0.0-99.0-0.0,1724.235,,,,53,,,,320,probe-157,,,,,1,[object Object],80,2,1,
,html-keyboard-response,190,489199,0.0-99.0-1.0,null,<p></p>,,null,,,,,,,,,,,,,,,,
,do_trial,191,492548,0.0-100.0-0.0,736.51,,,,49,"0,0,0",6,blank,321,null,0.529585679,0.262500968,0.139135742,0,,,,,,
,html-keyboard-response,192,493553,0.0-100.0-1.0,null,<p></p>,,null,,,,,,,,,,,,,,,,
,do_recog,193,497905,0.0-101.0-0.0,2839.015,,,,54,,,,322,probe-159,,,,,1,[object Object],163,4,1,
,html-keyboard-response,194,498908,0.0-101.0-1.0,null,<p></p>,,null,,,,,,,,,,,,,,,,
,do_trial,195,502220,0.0-102.0-0.0,699.18,,,,50,"1,0,0",6,blank,323,null,0.655030521,0.293169931,0.11146134,0,,,,,,
,html-keyboard-response,196,503222,0.0-102.0-1.0,null,<p></p>,,null,,,,,,,,,,,,,,,,
,do_trial,197,506335,0.0-103.0-0.0,506.625,,,,49,"0,0,0",6,blank,324,null,0.62952251,0.14892412,0.203395176,0,,,,,,
,html-keyboard-response,198,507338,0.0-103.0-1.0,null,<p></p>,,null,,,,,,,,,,,,,,,,
,do_trial,199,510385,0.0-104.0-0.0,440.82,,,,51,"1,1,0",6,blank,325,null,0.525926693,0.160616186,0.116704558,0,,,,,,
,html-keyboard-response,200,511388,0.0-104.0-1.0,null,<p></p>,,null,,,,,,,,,,,,,,,,
,do_trial,201,514465,0.0-105.0-0.0,466.565,,,,49,"1,1,0",6,blank,326,null,0.549288409,0.183456453,0.139292772,1,,,,,,
,html-keyboard-response,202,515468,0.0-105.0-1.0,null,<p></p>,,null,,,,,,,,,,,,,,,,
,do_recog,203,518617,0.0-106.0-0.0,1636.265,,,,55,,,,327,probe-73,,,,,1,[object Object],82,2,0,
,html-keyboard-response,204,519621,0.0-106.0-1.0,null,<p></p>,,null,,,,,,,,,,,,,,,,
,do_trial,205,522738,0.0-107.0-0.0,504.075,,,,49,"1,0,0",6,blank,328,null,0.520255131,0.327937577,0.240689234,1,,,,,,
,html-keyboard-response,206,523742,0.0-107.0-1.0,null,<p></p>,,null,,,,,,,,,,,,,,,,
,do_trial,207,526747,0.0-108.0-0.0,400.58,,,,49,"0,0,0",6,blank,329,null,0.617435016,0.342787294,0.130978083,0,,,,,,
,html-keyboard-response,208,527752,0.0-108.0-1.0,null,<p></p>,,null,,,,,,,,,,,,,,,,
,do_trial,209,530741,0.0-109.0-0.0,378.255,,,,50,"1,0,1",6,blank,330,null,0.49634313,0.351426256,0.231050669,0,,,,,,
,html-keyboard-response,210,531746,0.0-109.0-1.0,null,<p></p>,,null,,,,,,,,,,,,,,,,
,do_trial,211,534710,0.0-110.0-0.0,357.425,,,,49,"1,1,0",6,blank,331,null,0.546285024,0.350445665,0.101624758,1,,,,,,
,html-keyboard-response,212,535713,0.0-110.0-1.0,null,<p></p>,,null,,,,,,,,,,,,,,,,
,do_trial,213,538853,0.0-111.0-0.0,530.11,,,,49,"1,0,0",6,blank,332,null,0.47653605,0.340443838,0.133580135,1,,,,,,
,html-keyboard-response,214,539857,0.0-111.0-1.0,null,<p></p>,,null,,,,,,,,,,,,,,,,
,do_recog,215,542984,0.0-112.0-0.0,1607.365,,,,53,,,,333,probe-228,,,,,1,[object Object],129,3,1,
,html-keyboard-response,216,543987,0.0-112.0-1.0,null,<p></p>,,null,,,,,,,,,,,,,,,,
,do_trial,217,546974,0.0-113.0-0.0,385.005,,,,49,"0,0,0",6,blank,334,null,0.546960402,0.397134234,0.134673917,0,,,,,,
,html-keyboard-response,218,547977,0.0-113.0-1.0,null,<p></p>,,null,,,,,,,,,,,,,,,,
,do_trial,219,550961,0.0-114.0-0.0,375.43,,,,50,"1,0,0",6,blank,335,null,0.492856931,0.404797327,0.102212308,0,,,,,,
,html-keyboard-response,220,551963,0.0-114.0-1.0,null,<p></p>,,null,,,,,,,,,,,,,,,,
,do_trial,221,555030,0.0-115.0-0.0,464.48,,,,49,"0,1,0",6,blank,336,null,0.502832752,0.411041112,0.162707351,0,,,,,,
,html-keyboard-response,222,556032,0.0-115.0-1.0,null,<p></p>,,null,,,,,,,,,,,,,,,,
,do_trial,223,559159,0.0-116.0-0.0,520.245,,,,49,"0,1,0",6,blank,337,null,0.507356908,0.44857725,0.138293572,0,,,,,,
,html-keyboard-response,224,560162,0.0-116.0-1.0,null,<p></p>,,null,,,,,,,,,,,,,,,,
,do_trial,225,563117,0.0-117.0-0.0,339.795,,,,50,"1,0,1",6,blank,338,null,0.604915687,0.45761158,0.197532193,0,,,,,,
,html-keyboard-response,226,564121,0.0-117.0-1.0,null,<p></p>,,null,,,,,,,,,,,,,,,,
,do_recog,227,567146,0.0-118.0-0.0,1512.37,,,,55,,,,339,probe-106,,,,,1,[object Object],126,3,0,
,html-keyboard-response,228,568149,0.0-118.0-1.0,null,<p></p>,,null,,,,,,,,,,,,,,,,
,do_trial,229,571169,0.0-119.0-0.0,414.14,,,,49,"1,1,1",6,blank,340,null,0.789674824,0.305465348,0.235548997,1,,,,,,
,html-keyboard-response,230,572172,0.0-119.0-1.0,null,<p></p>,,null,,,,,,,,,,,,,,,,
,do_recog,231,575408,0.0-120.0-0.0,1721.095,,,,53,,,,341,probe-210,,,,,1,[object Object],161,4,1,
,html-keyboard-response,232,576412,0.0-120.0-1.0,null,<p></p>,,null,,,,,,,,,,,,,,,,
,do_trial,233,579356,0.0-121.0-0.0,328.865,,,,51,"1,0,0",6,blank,342,null,0.790831248,0.309688397,0.212018238,0,,,,,,
,html-keyboard-response,234,580358,0.0-121.0-1.0,null,<p></p>,,null,,,,,,,,,,,,,,,,
,do_recog,235,584006,0.0-122.0-0.0,2138.19,,,,54,,,,343,probe-78,,,,,1,[object Object],164,4,1,
,html-keyboard-response,236,585012,0.0-122.0-1.0,null,<p></p>,,null,,,,,,,,,,,,,,,,
,do_trial,237,588391,0.0-123.0-0.0,768.695,,,,49,"1,0,0",6,blank,344,null,0.737657628,0.240378532,0.194909177,1,,,,,,
,html-keyboard-response,238,589396,0.0-123.0-1.0,null,<p></p>,,null,,,,,,,,,,,,,,,,
,do_trial,239,592480,0.0-124.0-0.0,480.91,,,,49,"1,0,0",6,blank,345,null,0.658603234,0.320868997,0.143446798,1,,,,,,
,html-keyboard-response,240,593483,0.0-124.0-1.0,null,<p></p>,,null,,,,,,,,,,,,,,,,
,do_trial,241,596845,0.0-125.0-0.0,759.865,,,,49,"1,0,1",6,blank,346,null,0.492257572,0.293487198,0.365800168,1,,,,,,
,html-keyboard-response,242,597850,0.0-125.0-1.0,null,<p></p>,,null,,,,,,,,,,,,,,,,
,do_trial,243,601125,0.0-126.0-0.0,660.575,,,,49,"0,1,0",6,blank,347,null,0.431389766,0.329853923,0.485271844,0,,,,,,
,html-keyboard-response,244,602129,0.0-126.0-1.0,null,<p></p>,,null,,,,,,,,,,,,,,,,
,do_recog,245,604863,0.0-127.0-0.0,1217.825,,,,53,,,,348,probe-172,,,,,1,[object Object],46,1,1,
,html-keyboard-response,246,605866,0.0-127.0-1.0,null,<p></p>,,null,,,,,,,,,,,,,,,,
,do_trial,247,608893,0.0-128.0-0.0,424.1,,,,49,"1,1,1",6,blank,349,null,0.310869904,0.217865609,0.649610043,1,,,,,,
,html-keyboard-response,248,609898,0.0-128.0-1.0,null,<p></p>,,null,,,,,,,,,,,,,,,,
,do_trial,249,612919,0.0-129.0-0.0,413.79,,,,49,"1,0,1",6,blank,350,null,0.42262196,0.139708124,0.763804461,1,,,,,,
,html-keyboard-response,250,613923,0.0-129.0-1.0,null,<p></p>,,null,,,,,,,,,,,,,,,,
,do_trial,251,617612,0.0-130.0-0.0,1078.845,,,,49,"1,0,1",6,blank,351,null,0.437294699,0.265559008,0.769369377,1,,,,,,
,html-keyboard-response,252,618620,0.0-130.0-1.0,null,<p></p>,,null,,,,,,,,,,,,,,,,
,do_trial,253,621837,0.0-131.0-0.0,610.82,,,,49,"0,1,1",6,blank,352,null,0.42572255,0.21361779,0.725897768,0,,,,,,
,html-keyboard-response,254,622840,0.0-131.0-1.0,null,<p></p>,,null,,,,,,,,,,,,,,,,
,do_trial,255,626258,0.0-132.0-0.0,809.65,,,,50,"0,1,0",6,blank,353,null,0.438378244,0.16514787,0.602285739,1,,,,,,
,html-keyboard-response,256,627261,0.0-132.0-1.0,null,<p></p>,,null,,,,,,,,,,,,,,,,
,do_recog,257,631690,0.0-133.0-0.0,2913.37,,,,54,,,,354,probe-182,,,,,1,[object Object],208,5,1,
,html-keyboard-response,258,632693,0.0-133.0-1.0,null,<p></p>,,null,,,,,,,,,,,,,,,,
,do_trial,259,636055,0.0-134.0-0.0,754.575,,,,49,"0,0,1",6,blank,355,null,0.458120474,0.127070553,0.621714043,0,,,,,,
,html-keyboard-response,260,637058,0.0-134.0-1.0,null,<p></p>,,null,,,,,,,,,,,,,,,,
,do_trial,261,640034,0.0-135.0-0.0,366.63,,,,49,"1,0,1",6,blank,356,null,0.495427102,0.075057949,0.629418213,1,,,,,,
,html-keyboard-response,262,641037,0.0-135.0-1.0,null,<p></p>,,null,,,,,,,,,,,,,,,,
,do_trial,263,644156,0.0-136.0-0.0,506.69,,,,49,"0,0,1",6,blank,357,null,0.3290863,0.1327996,0.730283479,0,,,,,,
,html-keyboard-response,264,645159,0.0-136.0-1.0,null,<p></p>,,null,,,,,,,,,,,,,,,,
,do_trial,265,648450,0.0-137.0-0.0,685.885,,,,50,"0,0,0",6,blank,358,null,0.241170732,0.108410757,0.654432034,0,,,,,,
,html-keyboard-response,266,649453,0.0-137.0-1.0,null,<p></p>,,null,,,,,,,,,,,,,,,,
,do_trial,267,652650,0.0-138.0-0.0,587.565,,,,49,"0,0,0",6,blank,359,null,0.212466034,0.131815942,0.696706263,0,,,,,,
,html-keyboard-response,268,653654,0.0-138.0-1.0,null,<p></p>,,null,,,,,,,,,,,,,,,,
,do_recog,269,656840,0.0-139.0-0.0,1668.86,,,,53,,,,360,probe-57,,,,,1,[object Object],44,1,1,
,html-keyboard-response,270,657843,0.0-139.0-1.0,null,<p></p>,,null,,,,,,,,,,,,,,,,
,do_trial,271,661088,0.0-140.0-0.0,636.32,,,,49,"0,1,1",6,blank,361,null,0.349850374,0.109243407,0.712230208,0,,,,,,
,html-keyboard-response,272,662092,0.0-140.0-1.0,null,<p></p>,,null,,,,,,,,,,,,,,,,
,do_trial,273,665429,0.0-141.0-0.0,732.61,,,,50,"0,0,1",6,blank,362,null,0.232261893,0.168847919,0.670057681,0,,,,,,
,html-keyboard-response,274,666432,0.0-141.0-1.0,null,<p></p>,,null,,,,,,,,,,,,,,,,
,do_trial,275,669561,0.0-142.0-0.0,524.55,,,,50,"0,0,1",6,blank,363,null,0.253943396,0.095970795,0.708966733,0,,,,,,
,html-keyboard-response,276,670564,0.0-142.0-1.0,null,<p></p>,,null,,,,,,,,,,,,,,,,
,do_trial,277,673556,0.0-143.0-0.0,391.245,,,,49,"1,0,1",6,blank,364,null,0.400460579,0.076345109,0.572984019,1,,,,,,
,html-keyboard-response,278,674559,0.0-143.0-1.0,null,<p></p>,,null,,,,,,,,,,,,,,,,
,do_recog,279,677583,0.0-144.0-0.0,1509.33,,,,53,,,,365,probe-224,,,,,1,[object Object],43,1,1,
,html-keyboard-response,280,678587,0.0-144.0-1.0,null,<p></p>,,null,,,,,,,,,,,,,,,,
,do_trial,281,682128,0.0-145.0-0.0,936.245,,,,49,"1,0,0",6,blank,366,null,0.354678986,0.216481319,0.470083831,1,,,,,,
,html-keyboard-response,282,683131,0.0-145.0-1.0,null,<p></p>,,null,,,,,,,,,,,,,,,,
,do_recog,283,686010,0.0-146.0-0.0,1364.95,,,,55,,,,367,probe-67,,,,,1,[object Object],89,2,0,
,html-keyboard-response,284,687013,0.0-146.0-1.0,null,<p></p>,,null,,,,,,,,,,,,,,,,
,do_trial,285,690057,0.0-147.0-0.0,439.18,,,,49,"0,0,0",6,blank,368,null,0.400096221,0.208842546,0.511451995,0,,,,,,
,html-keyboard-response,286,691061,0.0-147.0-1.0,null,<p></p>,,null,,,,,,,,,,,,,,,,
,do_recog,287,694070,0.0-148.0-0.0,1497.84,,,,53,,,,369,probe-65,,,,,1,[object Object],204,5,1,
,html-keyboard-response,288,695072,0.0-148.0-1.0,null,<p></p>,,null,,,,,,,,,,,,,,,,
,do_trial,289,698376,0.0-149.0-0.0,688.75,,,,49,"0,0,1",6,blank,370,null,0.434337047,0.158050089,0.591924776,0,,,,,,
,html-keyboard-response,290,699380,0.0-149.0-1.0,null,<p></p>,,null,,,,,,,,,,,,,,,,
,do_trial,291,702442,0.0-150.0-0.0,458.54,,,,50,"0,0,1",6,blank,371,null,0.335364544,0.07219082,0.525207117,0,,,,,,
,html-keyboard-response,292,703445,0.0-150.0-1.0,null,<p></p>,,null,,,,,,,,,,,,,,,,
,do_trial,293,706687,0.0-151.0-0.0,630.515,,,,51,"0,0,0",6,blank,372,null,0.442562786,0.096748169,0.434509489,0,,,,,,
,html-keyboard-response,294,707692,0.0-151.0-1.0,null,<p></p>,,null,,,,,,,,,,,,,,,,
,do_recog,295,710816,0.0-152.0-0.0,1609.865,,,,53,,,,373,probe-107,,,,,1,[object Object],128,3,1,
,html-keyboard-response,296,711823,0.0-152.0-1.0,null,<p></p>,,null,,,,,,,,,,,,,,,,
,do_trial,297,714791,0.0-153.0-0.0,352.76,,,,49,"0,0,1",6,blank,374,null,0.376726479,0.08956955,0.47295985,0,,,,,,
,html-keyboard-response,298,715794,0.0-153.0-1.0,null,<p></p>,,null,,,,,,,,,,,,,,,,
,do_recog,299,719502,0.0-154.0-0.0,2196.855,,,,55,,,,375,probe-193,,,,,1,[object Object],88,2,0,
,html-keyboard-response,300,720507,0.0-154.0-1.0,null,<p></p>,,null,,,,,,,,,,,,,,,,
,do_trial,301,723597,0.0-155.0-0.0,483.4,,,,50,"0,0,1",6,blank,376,null,0.326785457,0.063209597,0.471179576,0,,,,,,
,html-keyboard-response,302,724602,0.0-155.0-1.0,null,<p></p>,,null,,,,,,,,,,,,,,,,
,do_recog,303,727606,0.0-156.0-0.0,1490.69,,,,53,,,,377,probe-218,,,,,1,[object Object],49,1,1,
,html-keyboard-response,304,728609,0.0-156.0-1.0,null,<p></p>,,null,,,,,,,,,,,,,,,,
,do_trial,305,731670,0.0-157.0-0.0,440.535,,,,49,"0,1,1",6,blank,378,null,0.214674743,0.127845753,0.391461232,0,,,,,,
,html-keyboard-response,306,732674,0.0-157.0-1.0,null,<p></p>,,null,,,,,,,,,,,,,,,,
,do_trial,307,735665,0.0-158.0-0.0,384.2,,,,50,"1,0,1",6,blank,379,null,0.180607768,0.126458215,0.491178131,0,,,,,,
,html-keyboard-response,308,736671,0.0-158.0-1.0,null,<p></p>,,null,,,,,,,,,,,,,,,,
,do_recog,309,739300,0.0-159.0-0.0,1104.955,,,,53,,,,380,probe-203,,,,,1,[object Object],81,2,1,
,html-keyboard-response,310,740305,0.0-159.0-1.0,null,<p></p>,,null,,,,,,,,,,,,,,,,
,do_trial,311,743615,0.0-160.0-0.0,697.5,,,,49,"0,1,1",6,blank,381,null,0.164579376,0.135451361,0.396832387,0,,,,,,
,html-keyboard-response,312,744618,0.0-160.0-1.0,null,<p></p>,,null,,,,,,,,,,,,,,,,
,do_recog,313,747964,0.0-161.0-0.0,1827.73,,,,55,,,,382,probe-26,,,,,1,[object Object],168,4,0,
,html-keyboard-response,314,748967,0.0-161.0-1.0,null,<p></p>,,null,,,,,,,,,,,,,,,,
,do_trial,315,752156,0.0-162.0-0.0,581.565,,,,49,"0,0,1",6,blank,383,null,0.186338469,0.235432828,0.423239867,0,,,,,,
,html-keyboard-response,316,753158,0.0-162.0-1.0,null,<p></p>,,null,,,,,,,,,,,,,,,,
,do_trial,317,756228,0.0-163.0-0.0,463.515,,,,49,"1,1,1",6,blank,384,null,0.186072297,0.180918157,0.552887524,1,,,,,,
,html-keyboard-response,318,757231,0.0-163.0-1.0,null,<p></p>,,null,,,,,,,,,,,,,,,,
,do_trial,319,760207,0.0-164.0-0.0,368.215,,,,49,"0,0,0",6,blank,385,null,0.228172834,0.259547102,0.515409967,0,,,,,,
,html-keyboard-response,320,761210,0.0-164.0-1.0,null,<p></p>,,null,,,,,,,,,,,,,,,,
,do_trial,321,764274,0.0-165.0-0.0,461.06,,,,50,"0,0,0",6,blank,386,null,0.15993016,0.247483432,0.445141277,0,,,,,,
,html-keyboard-response,322,765276,0.0-165.0-1.0,null,<p></p>,,null,,,,,,,,,,,,,,,,
,do_trial,323,768384,0.0-166.0-0.0,505.42,,,,50,"0,0,0",6,blank,387,null,0.194876851,0.135367355,0.578214498,0,,,,,,
,html-keyboard-response,324,769387,0.0-166.0-1.0,null,<p></p>,,null,,,,,,,,,,,,,,,,
,do_trial,325,772583,0.0-167.0-0.0,587.37,,,,50,"0,0,1",6,blank,388,null,0.199200258,0.288798606,0.496187112,0,,,,,,
,html-keyboard-response,326,773585,0.0-167.0-1.0,null,<p></p>,,null,,,,,,,,,,,,,,,,
,do_recog,327,777134,0.0-168.0-0.0,2032.67,,,,54,,,,389,probe-124,,,,,1,[object Object],45,1,1,
,html-keyboard-response,328,778137,0.0-168.0-1.0,null,<p></p>,,null,,,,,,,,,,,,,,,,
,do_trial,329,781114,0.0-169.0-0.0,363.605,,,,49,"0,0,0",6,blank,390,null,0.110384426,0.166362221,0.50286318,0,,,,,,
,html-keyboard-response,330,782117,0.0-169.0-1.0,null,<p></p>,,null,,,,,,,,,,,,,,,,
,do_recog,331,785119,0.0-170.0-0.0,1484.575,,,,53,,,,391,probe-201,,,,,1,[object Object],85,2,1,
,html-keyboard-response,332,786122,0.0-170.0-1.0,null,<p></p>,,null,,,,,,,,,,,,,,,,
,do_trial,333,789209,0.0-171.0-0.0,476.345,,,,49,"1,0,1",6,blank,392,null,0.290305482,0.10731741,0.555790842,1,,,,,,
,html-keyboard-response,334,790213,0.0-171.0-1.0,null,<p></p>,,null,,,,,,,,,,,,,,,,
,do_trial,335,793328,0.0-172.0-0.0,505.105,,,,49,"0,0,0",6,blank,393,null,0.265898581,0.053335771,0.560578393,0,,,,,,
,html-keyboard-response,336,794331,0.0-172.0-1.0,null,<p></p>,,null,,,,,,,,,,,,,,,,
,do_trial,337,797618,0.0-173.0-0.0,684.74,,,,49,"0,1,1",6,blank,394,null,0.194458936,0.191654858,0.616844748,0,,,,,,
,html-keyboard-response,338,798623,0.0-173.0-1.0,null,<p></p>,,null,,,,,,,,,,,,,,,,
,do_trial,339,801839,0.0-174.0-0.0,604.53,,,,50,"0,0,1",6,blank,395,null,0.200156739,0.199863506,0.685434261,0,,,,,,
,html-keyboard-response,340,802844,0.0-174.0-1.0,null,<p></p>,,null,,,,,,,,,,,,,,,,
,do_trial,341,806124,0.0-175.0-0.0,675.19,,,,49,"0,0,0",6,blank,396,null,0.341615414,0.207265234,0.582787183,0,,,,,,
,html-keyboard-response,342,807127,0.0-175.0-1.0,null,<p></p>,,null,,,,,,,,,,,,,,,,
,do_trial,343,810263,0.0-176.0-0.0,533.1,,,,49,"0,0,0",6,blank,397,null,0.219844384,0.196089398,0.539502062,0,,,,,,
,html-keyboard-response,344,811266,0.0-176.0-1.0,null,<p></p>,,null,,,,,,,,,,,,,,,,
,do_recog,345,814060,0.0-177.0-0.0,1283.43,,,,53,,,,398,probe-219,,,,,1,[object Object],127,3,1,
,html-keyboard-response,346,815063,0.0-177.0-1.0,null,<p></p>,,null,,,,,,,,,,,,,,,,
,do_trial,347,819048,0.0-178.0-0.0,1382.22,,,,49,"0,0,0",6,blank,399,null,0.185050378,0.063974102,0.502088861,0,,,,,,
,html-keyboard-response,348,820051,0.0-178.0-1.0,null,<p></p>,,null,,,,,,,,,,,,,,,,
,do_trial,349,823050,0.0-179.0-0.0,393.67,,,,51,"0,1,0",6,blank,400,null,0.395603772,0.175334465,0.383111902,0,,,,,,
,html-keyboard-response,350,824053,0.0-179.0-1.0,null,<p></p>,,null,,,,,,,,,,,,,,,,
,do_recog,351,827083,0.0-180.0-0.0,1512.93,,,,53,,,,401,probe-217,,,,,1,[object Object],84,2,1,
,html-keyboard-response,352,828088,0.0-180.0-1.0,null,<p></p>,,null,,,,,,,,,,,,,,,,
,do_trial,353,832233,0.0-181.0-0.0,1528.28,,,,49,"0,0,0",6,blank,402,null,0.427756237,0.162843474,0.256803733,0,,,,,,
,html-keyboard-response,354,833235,0.0-181.0-1.0,null,<p></p>,,null,,,,,,,,,,,,,,,,
,do_recog,355,836458,0.0-182.0-0.0,1712.25,,,,53,,,,403,probe-02,,,,,1,[object Object],165,4,1,
,html-keyboard-response,356,837464,0.0-182.0-1.0,null,<p></p>,,null,,,,,,,,,,,,,,,,
,do_trial,357,840792,0.0-183.0-0.0,724.555,,,,50,"0,0,0",6,blank,404,null,0.395025173,0.111794148,0.251073383,0,,,,,,
,html-keyboard-response,358,841805,0.0-183.0-1.0,null,<p></p>,,null,,,,,,,,,,,,,,,,
,do_trial,359,844925,0.0-184.0-0.0,502.245,,,,49,"1,0,0",6,blank,405,null,0.422845995,0.218108516,0.147418939,1,,,,,,
,html-keyboard-response,360,845929,0.0-184.0-1.0,null,<p></p>,,null,,,,,,,,,,,,,,,,
,do_trial,361,848972,0.0-185.0-0.0,438.785,,,,49,"1,0,0",6,blank,406,null,0.402561725,0.152323596,0.062560988,1,,,,,,
,html-keyboard-response,362,849975,0.0-185.0-1.0,null,<p></p>,,null,,,,,,,,,,,,,,,,
,do_trial,363,853094,0.0-186.0-0.0,504.51,,,,49,"1,0,0",6,blank,407,null,0.370949119,0.263740138,0.146465627,1,,,,,,
,html-keyboard-response,364,854097,0.0-186.0-1.0,null,<p></p>,,null,,,,,,,,,,,,,,,,
,do_trial,365,857231,0.0-187.0-0.0,524.755,,,,49,"0,0,0",6,blank,408,null,0.54036498,0.25430675,0.235670591,0,,,,,,
,html-keyboard-response,366,858233,0.0-187.0-1.0,null,<p></p>,,null,,,,,,,,,,,,,,,,
,do_recog,367,861729,0.0-188.0-0.0,1978.19,,,,55,,,,409,probe-199,,,,,1,[object Object],169,4,0,
,html-keyboard-response,368,862732,0.0-188.0-1.0,null,<p></p>,,null,,,,,,,,,,,,,,,,
,do_trial,369,865945,0.0-189.0-0.0,598.82,,,,50,"0,1,0",6,blank,410,null,0.528022213,0.205209439,0.14621356,1,,,,,,
,html-keyboard-response,370,866947,0.0-189.0-1.0,null,<p></p>,,null,,,,,,,,,,,,,,,,
,do_recog,371,869742,0.0-190.0-0.0,1281.365,,,,53,,,,411,probe-33,,,,,1,[object Object],200,5,1,
,html-keyboard-response,372,870744,0.0-190.0-1.0,null,<p></p>,,null,,,,,,,,,,,,,,,,
,do_trial,373,874022,0.0-191.0-0.0,669.715,,,,50,"0,0,0",6,blank,412,null,0.45227036,0.226583201,0.188326055,0,,,,,,
,html-keyboard-response,374,875025,0.0-191.0-1.0,null,<p></p>,,null,,,,,,,,,,,,,,,,
,do_recog,375,877688,0.0-192.0-0.0,1141.99,,,,53,,,,413,probe-06,,,,,1,[object Object],160,4,1,
,html-keyboard-response,376,878690,0.0-192.0-1.0,null,<p></p>,,null,,,,,,,,,,,,,,,,
,do_trial,377,881726,0.0-193.0-0.0,428.86,,,,50,"1,0,0",6,blank,414,null,0.705461853,0.15791997,0.143436815,0,,,,,,
,html-keyboard-response,378,882729,0.0-193.0-1.0,null,<p></p>,,null,,,,,,,,,,,,,,,,
,do_trial,379,886394,0.0-194.0-0.0,1062.915,,,,49,"1,0,0",6,blank,415,null,0.732211797,0.188519975,0.239486842,1,,,,,,
,html-keyboard-response,380,887396,0.0-194.0-1.0,null,<p></p>,,null,,,,,,,,,,,,,,,,
,do_trial,381,890429,0.0-195.0-0.0,410.965,,,,49,"1,0,0",6,blank,416,null,0.761839405,0.312087341,0.161525283,1,,,,,,
,html-keyboard-response,382,891432,0.0-195.0-1.0,null,<p></p>,,null,,,,,,,,,,,,,,,,
,do_trial,383,894523,0.0-196.0-0.0,487.515,,,,49,"0,0,0",6,blank,417,null,0.719265686,0.459110567,0.133176778,0,,,,,,
,html-keyboard-response,384,895527,0.0-196.0-1.0,null,<p></p>,,null,,,,,,,,,,,,,,,,
,do_trial,385,898970,0.0-197.0-0.0,831.525,,,,49,"0,0,0",6,blank,418,null,0.711688642,0.337894457,0.185605504,0,,,,,,
,html-keyboard-response,386,899974,0.0-197.0-1.0,null,<p></p>,,null,,,,,,,,,,,,,,,,
,do_recog,387,902406,0.0-198.0-0.0,909.65,,,,53,,,,419,probe-195,,,,,1,[object Object],202,5,1,
,html-keyboard-response,388,903408,0.0-198.0-1.0,null,<p></p>,,null,,,,,,,,,,,,,,,,
,do_trial,389,906556,0.0-199.0-0.0,544.71,,,,49,"1,0,0",6,blank,420,null,0.645358033,0.303428883,0.089770533,1,,,,,,
,html-keyboard-response,390,907559,0.0-199.0-1.0,null,<p></p>,,null,,,,,,,,,,,,,,,,
,do_trial,391,910884,0.0-200.0-0.0,722.735,,,,49,"0,1,0",6,blank,421,null,0.553985589,0.260685741,0.123958219,0,,,,,,
,html-keyboard-response,392,911887,0.0-200.0-1.0,null,<p></p>,,null,,,,,,,,,,,,,,,,
,do_trial,393,915026,0.0-201.0-0.0,534.84,,,,49,"0,0,1",6,blank,422,null,0.523725987,0.272010108,0.243543968,0,,,,,,
,html-keyboard-response,394,916030,0.0-201.0-1.0,null,<p></p>,,null,,,,,,,,,,,,,,,,
,do_trial,395,919148,0.0-202.0-0.0,506.715,,,,49,"1,0,0",6,blank,423,null,0.619697467,0.157400408,0.280487048,1,,,,,,
,html-keyboard-response,396,920150,0.0-202.0-1.0,null,<p></p>,,null,,,,,,,,,,,,,,,,
,do_trial,397,923324,0.0-203.0-0.0,567.165,,,,49,"1,0,1",6,blank,424,null,0.664534701,0.301906214,0.337798151,1,,,,,,
,html-keyboard-response,398,924327,0.0-203.0-1.0,null,<p></p>,,null,,,,,,,,,,,,,,,,
,do_trial,399,927459,0.0-204.0-0.0,525.81,,,,49,"0,1,0",6,blank,425,null,0.625270848,0.319621526,0.145397486,0,,,,,,
,html-keyboard-response,400,928461,0.0-204.0-1.0,null,<p></p>,,null,,,,,,,,,,,,,,,,
,do_trial,401,932003,0.0-205.0-0.0,939.32,,,,49,"1,0,0",6,blank,426,null,0.462577513,0.279209242,0.196496625,1,,,,,,
,html-keyboard-response,402,933005,0.0-205.0-1.0,null,<p></p>,,null,,,,,,,,,,,,,,,,
,do_recog,403,935834,0.0-206.0-0.0,1309.805,,,,53,,,,427,probe-94,,,,,1,[object Object],42,1,1,
,html-keyboard-response,404,936838,0.0-206.0-1.0,null,<p></p>,,null,,,,,,,,,,,,,,,,
,do_trial,405,939970,0.0-207.0-0.0,517.825,,,,49,"0,0,1",6,blank,428,null,0.438885922,0.194356488,0.139711021,0,,,,,,
,html-keyboard-response,406,940973,0.0-207.0-1.0,null,<p></p>,,null,,,,,,,,,,,,,,,,
,do_trial,407,944186,0.0-208.0-0.0,609.575,,,,49,"1,0,1",6,blank,429,null,0.600386001,0.262800331,0.214227823,1,,,,,,
,html-keyboard-response,408,945189,0.0-208.0-1.0,null,<p></p>,,null,,,,,,,,,,,,,,,,
,do_trial,409,948295,0.0-209.0-0.0,494.83,,,,50,"0,0,0",6,blank,430,null,0.563048469,0.120674423,0.190517057,0,,,,,,
,html-keyboard-response,410,949298,0.0-209.0-1.0,null,<p></p>,,null,,,,,,,,,,,,,,,,
,do_trial,411,952243,0.0-210.0-0.0,338.99,,,,49,"1,1,1",6,blank,431,null,0.711261951,0.240848838,0.146989047,1,,,,,,
,html-keyboard-response,412,953246,0.0-210.0-1.0,null,<p></p>,,null,,,,,,,,,,,,,,,,
,do_trial,413,956279,0.0-211.0-0.0,428.77,,,,49,"1,1,0",6,blank,432,null,0.579744876,0.320722511,0.092056418,1,,,,,,
,html-keyboard-response,414,957282,0.0-211.0-1.0,null,<p></p>,,null,,,,,,,,,,,,,,,,
,do_recog,415,961173,0.0-212.0-0.0,2379.97,,,,54,,,,433,probe-167,,,,,1,[object Object],125,3,1,
,html-keyboard-response,416,962177,0.0-212.0-1.0,null,<p></p>,,null,,,,,,,,,,,,,,,,
,do_trial,417,965258,0.0-213.0-0.0,470.58,,,,49,"1,0,0",6,blank,434,null,0.563293309,0.226693572,0.125421577,1,,,,,,
,html-keyboard-response,418,966263,0.0-213.0-1.0,null,<p></p>,,null,,,,,,,,,,,,,,,,
,do_trial,419,969560,0.0-214.0-0.0,686.675,,,,49,"1,0,0",6,blank,435,null,0.570812322,0.30838129,0.117334657,1,,,,,,
,html-keyboard-response,420,970563,0.0-214.0-1.0,null,<p></p>,,null,,,,,,,,,,,,,,,,
,do_trial,421,973997,0.0-215.0-0.0,821.485,,,,49,"1,0,1",6,blank,436,null,0.541169627,0.198009553,0.144860097,1,,,,,,
,html-keyboard-response,422,975002,0.0-215.0-1.0,null,<p></p>,,null,,,,,,,,,,,,,,,,
,do_trial,423,978103,0.0-216.0-0.0,465.765,,,,49,"0,1,0",6,blank,437,null,0.634140299,0.299570505,0.23359819,0,,,,,,
,html-keyboard-response,424,979108,0.0-216.0-1.0,null,<p></p>,,null,,,,,,,,,,,,,,,,
,do_trial,425,982375,0.0-217.0-0.0,647.625,,,,49,"0,0,1",6,blank,438,null,0.546262866,0.387805442,0.170022804,0,,,,,,
,html-keyboard-response,426,983378,0.0-217.0-1.0,null,<p></p>,,null,,,,,,,,,,,,,,,,
,do_recog,427,986174,0.0-218.0-0.0,1283.15,,,,53,,,,439,probe-162,,,,,1,[object Object],203,5,1,
,html-keyboard-response,428,987177,0.0-218.0-1.0,null,<p></p>,,null,,,,,,,,,,,,,,,,
,do_trial,429,990283,0.0-219.0-0.0,492.91,,,,50,"1,0,0",6,blank,440,null,0.591144012,0.408476195,0.085864798,0,,,,,,
,html-keyboard-response,430,991287,0.0-219.0-1.0,null,<p></p>,,null,,,,,,,,,,,,,,,,
,do_recog,431,993782,0.0-220.0-0.0,971.605,,,,53,,,,441,probe-186,,,,,1,[object Object],206,5,1,
,html-keyboard-response,432,994785,0.0-220.0-1.0,null,<p></p>,,null,,,,,,,,,,,,,,,,
,do_trial,433,998344,0.0-221.0-0.0,953.695,,,,49,"0,1,0",6,blank,442,null,0.642432049,0.416008542,0.151433618,0,,,,,,
,html-keyboard-response,434,999347,0.0-221.0-1.0,null,<p></p>,,null,,,,,,,,,,,,,,,,
,do_recog,435,1001952,0.0-222.0-0.0,1089.875,,,,53,,,,443,probe-13,,,,,1,[object Object],86,2,1,
,html-keyboard-response,436,1002959,0.0-222.0-1.0,null,<p></p>,,null,,,,,,,,,,,,,,,,
,do_trial,437,1006299,0.0-223.0-0.0,724.28,,,,49,"0,1,0",6,blank,444,null,0.704054356,0.290974404,0.081306216,0,,,,,,
,html-keyboard-response,438,1007303,0.0-223.0-1.0,null,<p></p>,,null,,,,,,,,,,,,,,,,
,do_recog,439,1009881,0.0-224.0-0.0,1056.575,,,,53,,,,445,probe-09,,,,,1,[object Object],201,5,1,
,html-keyboard-response,440,1010888,0.0-224.0-1.0,null,<p></p>,,null,,,,,,,,,,,,,,,,
,do_trial,441,1013908,0.0-225.0-0.0,406.965,,,,50,"0,0,0",6,blank,446,null,0.548891941,0.281897488,0.062995202,0,,,,,,
,html-keyboard-response,442,1014915,0.0-225.0-1.0,null,<p></p>,,null,,,,,,,,,,,,,,,,
,do_trial,443,1017940,0.0-226.0-0.0,411.575,,,,49,"1,0,0",6,blank,447,null,0.601287897,0.274428282,0.081696071,1,,,,,,
,html-keyboard-response,444,1018943,0.0-226.0-1.0,null,<p></p>,,null,,,,,,,,,,,,,,,,
,do_recog,445,1022102,0.0-227.0-0.0,1639.34,,,,56,,,,448,probe-34,,,,,1,[object Object],122,3,0,
,html-keyboard-response,446,1023105,0.0-227.0-1.0,null,<p></p>,,null,,,,,,,,,,,,,,,,
,do_trial,447,1026252,0.0-228.0-0.0,538.185,,,,49,"0,0,1",6,blank,449,null,0.56057967,0.215512338,0.240506228,0,,,,,,
,html-keyboard-response,448,1027255,0.0-228.0-1.0,null,<p></p>,,null,,,,,,,,,,,,,,,,
,do_recog,449,1030164,0.0-229.0-0.0,1393.38,,,,54,,,,450,probe-239,,,,,0,[object Object],null,null,0,
,html-keyboard-response,450,1031167,0.0-229.0-1.0,null,<p></p>,,null,,,,,,,,,,,,,,,,
,do_trial,451,1034565,0.0-230.0-0.0,784.4,,,,49,"1,0,1",6,blank,451,null,0.493651427,0.361694595,0.196271836,1,,,,,,
,html-keyboard-response,452,1035569,0.0-230.0-1.0,null,<p></p>,,null,,,,,,,,,,,,,,,,
,do_trial,453,1038608,0.0-231.0-0.0,426.175,,,,49,"0,0,0",6,blank,452,null,0.419680985,0.293464331,0.125085438,0,,,,,,
,html-keyboard-response,454,1039615,0.0-231.0-1.0,null,<p></p>,,null,,,,,,,,,,,,,,,,
,do_trial,455,1042833,0.0-232.0-0.0,610.07,,,,50,"0,0,1",6,blank,453,null,0.366863432,0.186116326,0.305459678,0,,,,,,
,html-keyboard-response,456,1043836,0.0-232.0-1.0,null,<p></p>,,null,,,,,,,,,,,,,,,,
,do_trial,457,1046900,0.0-233.0-0.0,454.905,,,,50,"0,0,1",6,blank,454,null,0.429320327,0.133260854,0.40996324,0,,,,,,
,html-keyboard-response,458,1047903,0.0-233.0-1.0,null,<p></p>,,null,,,,,,,,,,,,,,,,
,do_trial,459,1050937,0.0-234.0-0.0,429.085,,,,49,"0,0,0",6,blank,455,null,0.308065831,0.071658333,0.436356947,0,,,,,,
,html-keyboard-response,460,1051940,0.0-234.0-1.0,null,<p></p>,,null,,,,,,,,,,,,,,,,
,do_trial,461,1054988,0.0-235.0-0.0,437.57,,,,49,"0,1,1",6,blank,456,null,0.203612214,0.146080178,0.439370501,0,,,,,,
,html-keyboard-response,462,1055993,0.0-235.0-1.0,null,<p></p>,,null,,,,,,,,,,,,,,,,
,do_trial,463,1059112,0.0-236.0-0.0,502.965,,,,49,"1,1,1",6,blank,457,null,0.235575265,0.159217229,0.57481423,1,,,,,,
,html-keyboard-response,464,1060117,0.0-236.0-1.0,null,<p></p>,,null,,,,,,,,,,,,,,,,
,do_recog,465,1063307,0.0-237.0-0.0,1675.98,,,,54,,,,458,probe-236,,,,,0,[object Object],null,null,0,
,html-keyboard-response,466,1064311,0.0-237.0-1.0,null,<p></p>,,null,,,,,,,,,,,,,,,,
,do_trial,467,1067472,0.0-238.0-0.0,557.275,,,,50,"0,0,1",6,blank,459,null,0.324644225,0.073746896,0.562537824,0,,,,,,
,html-keyboard-response,468,1068474,0.0-238.0-1.0,null,<p></p>,,null,,,,,,,,,,,,,,,,
,do_trial,469,1071834,0.0-239.0-0.0,759.4,,,,50,"0,1,1",6,blank,460,null,0.251568412,0.101504621,0.520317557,1,,,,,,
,html-keyboard-response,470,1072836,0.0-239.0-1.0,null,<p></p>,,null,,,,,,,,,,,,,,,,
,do_trial,471,1075838,0.0-240.0-0.0,399.53,,,,50,"0,0,0",6,blank,461,null,0.214721477,0.159380535,0.590242779,0,,,,,,
,html-keyboard-response,472,1076840,0.0-240.0-1.0,null,<p></p>,,null,,,,,,,,,,,,,,,,
,do_trial,473,1079702,0.0-241.0-0.0,258.79,,,,50,"1,0,0",6,blank,462,null,0.157233891,0.101746652,0.485977206,0,,,,,,
,html-keyboard-response,474,1080706,0.0-241.0-1.0,null,<p></p>,,null,,,,,,,,,,,,,,,,
,do_recog,475,1083854,0.0-242.0-0.0,1633.89,,,,56,,,,463,probe-243,,,,,0,[object Object],null,null,1,
,html-keyboard-response,476,1084859,0.0-242.0-1.0,null,<p></p>,,null,,,,,,,,,,,,,,,,
,do_trial,477,1087864,0.0-243.0-0.0,400.595,,,,49,"0,0,1",6,blank,464,null,0.108584844,0.197269158,0.57475463,0,,,,,,
,html-keyboard-response,478,1088867,0.0-243.0-1.0,null,<p></p>,,null,,,,,,,,,,,,,,,,
,do_recog,479,1092271,0.0-244.0-0.0,1891.03,,,,56,,,,465,probe-242,,,,,0,[object Object],null,null,1,
,html-keyboard-response,480,1093274,0.0-244.0-1.0,null,<p></p>,,null,,,,,,,,,,,,,,,,
,do_trial,481,1096224,0.0-245.0-0.0,342.19,,,,49,"0,0,0",6,blank,466,null,0.294317243,0.169832962,0.54260792,0,,,,,,
,html-keyboard-response,482,1097229,0.0-245.0-1.0,null,<p></p>,,null,,,,,,,,,,,,,,,,
,do_trial,483,1100615,0.0-246.0-0.0,772.535,,,,49,"0,0,0",6,blank,467,null,0.354337468,0.090961952,0.627383202,0,,,,,,
,html-keyboard-response,484,1101617,0.0-246.0-1.0,null,<p></p>,,null,,,,,,,,,,,,,,,,
,do_trial,485,1104806,0.0-247.0-0.0,583.96,,,,51,"0,0,1",6,blank,468,null,0.372608295,0.087905126,0.602493388,1,,,,,,
,html-keyboard-response,486,1105811,0.0-247.0-1.0,null,<p></p>,,null,,,,,,,,,,,,,,,,
,do_trial,487,1109048,0.0-248.0-0.0,635.055,,,,51,"1,1,1",6,blank,469,null,0.328487271,0.12170171,0.702697669,1,,,,,,
,html-keyboard-response,488,1110050,0.0-248.0-1.0,null,<p></p>,,null,,,,,,,,,,,,,,,,
,do_recog,489,1113540,0.0-249.0-0.0,1971.81,,,,55,,,,470,probe-240,,,,,0,[object Object],null,null,1,
,html-keyboard-response,490,1114544,0.0-249.0-1.0,null,<p></p>,,null,,,,,,,,,,,,,,,,
,do_trial,491,1117598,0.0-250.0-0.0,442.74,,,,51,"0,0,1",6,blank,471,null,0.251892248,0.060651948,0.716979462,1,,,,,,
,html-keyboard-response,492,1118602,0.0-250.0-1.0,null,<p></p>,,null,,,,,,,,,,,,,,,,
,do_recog,493,1121727,0.0-251.0-0.0,1606.5,,,,55,,,,472,probe-233,,,,,0,[object Object],null,null,1,
,html-keyboard-response,494,1122729,0.0-251.0-1.0,null,<p></p>,,null,,,,,,,,,,,,,,,,
,do_trial,495,1125789,0.0-252.0-0.0,453.325,,,,51,"0,0,0",6,blank,473,null,0.351293083,0.081899527,0.464084752,0,,,,,,
,html-keyboard-response,496,1126792,0.0-252.0-1.0,null,<p></p>,,null,,,,,,,,,,,,,,,,
,do_recog,497,1129630,0.0-253.0-0.0,1322.37,,,,55,,,,474,probe-251,,,,,0,[object Object],null,null,1,
,html-keyboard-response,498,1130635,0.0-253.0-1.0,null,<p></p>,,null,,,,,,,,,,,,,,,,
,do_trial,499,1133550,0.0-254.0-0.0,303.15,,,,51,"0,1,0",6,blank,475,null,0.396390592,0.143636075,0.519356872,0,,,,,,
,html-keyboard-response,500,1134554,0.0-254.0-1.0,null,<p></p>,,null,,,,,,,,,,,,,,,,
,do_trial,501,1137500,0.0-255.0-0.0,330.62,,,,51,"1,0,1",6,blank,476,null,0.262707693,0.104935428,0.410182441,1,,,,,,
,html-keyboard-response,502,1138503,0.0-255.0-1.0,null,<p></p>,,null,,,,,,,,,,,,,,,,
,do_recog,503,1141804,0.0-256.0-0.0,1789.47,,,,54,,,,477,probe-237,,,,,0,[object Object],null,null,0,
,html-keyboard-response,504,1142807,0.0-256.0-1.0,null,<p></p>,,null,,,,,,,,,,,,,,,,
,do_trial,505,1145714,0.0-257.0-0.0,301.165,,,,51,"1,0,0",6,blank,478,null,0.235812836,0.266326738,0.581347591,0,,,,,,
,html-keyboard-response,506,1146718,0.0-257.0-1.0,null,<p></p>,,null,,,,,,,,,,,,,,,,
,do_recog,507,1149825,0.0-258.0-0.0,1591.975,,,,55,,,,479,probe-253,,,,,0,[object Object],null,null,1,
,html-keyboard-response,508,1150831,0.0-258.0-1.0,null,<p></p>,,null,,,,,,,,,,,,,,,,
,do_pick_best_pirate,509,1168718,0.0-259.0-0.0,16867.68,,,,50,,,,,,,,,,,,,,,
,do_pick_best_pirate,510,1179007,0.0-260.0-0.0,9274.365,,,,51,,,,,,,,,,,,,,,
,do_pick_best_pirate,511,1190043,0.0-261.0-0.0,10021.835,,,,50,,,,,,,,,,,,,,,
,do_pick_best_pirate,512,1196256,0.0-262.0-0.0,5200.725,,,,49,,,,,,,,,,,,,,,
,do_pick_best_pirate,513,1209731,0.0-263.0-0.0,12460.905,,,,49,,,,,,,,,,,,,,,
,do_pick_best_pirate,514,1216039,0.0-264.0-0.0,5295.515,,,,50,,,,,,,,,,,,,,,
,html-keyboard-response,515,1222843,0.0-265.0-0.0,6799.63,<p>You are all done with the experiment!</p><p> You made $15 plus $2 in bonus payment!</p><p>Thank you for participating. You will recieve your payment within 3 days.<p><b>[Press the space bar to end the experiment]</b></p></div>,,32,,,,,,,,,,,,,,,,