"success","trial_type","trial_index","time_elapsed","internal_node_id","interactions","blur_events","focus_events","fullscreenenter_events","fullscreenexit_events","rt","stimulus","key_press","subject_id","participant_id","age","gender","prompt","response","choice_outcomes","context_n","context_img_id","trial_n","probe_img_id","pR_red","pR_white","pR_black","outcome","is_valid","image_to_show","probed_trial","probed_context","correct","probe","probed_trial_n","probed_context_n","context_im"
"true","fullscreen","0","3309","0.0-0.0","""event"",""trial"",""time""
""fullscreenenter"",""0"",""2324""
","
","
","""event"",""trial"",""time""
""fullscreenenter"",""0"",""2324""
","
","","","","","","","","","","","","","","","","","","","","","","","","","","",""
"","pavlovia","1","3316","0.0-1.0","""event"",""trial"",""time""
""fullscreenenter"",""0"",""2324""
","
","
","""event"",""trial"",""time""
""fullscreenenter"",""0"",""2324""
","
","","","","","","","","","","","","","","","","","","","","","","","","","","",""
"","welc_back","2","13173","0.0-2.0","""event"",""trial"",""time""
""fullscreenenter"",""0"",""2324""
","
","
","""event"",""trial"",""time""
""fullscreenenter"",""0"",""2324""
","
","null","run_exp/static/audio/clip_29_welcome_back.m4a","null","422","229","10","Female","<div class='center'><p>Welcome to day 2!</p><p> Yesterday, you were the head captain of a pirate ship. You asked your fellow pirates to rob other ships of their gold across six different islands.</p></div>","","","","","","","","","","","","","","","","","","",""
"","html-keyboard-response","3","14088","0.0-3.0","""event"",""trial"",""time""
""fullscreenenter"",""0"",""2324""
","
","
","""event"",""trial"",""time""
""fullscreenenter"",""0"",""2324""
","
","913.1999998092651","<div class='center'><p>Welcome to day 2!</p><p> Yesterday, you were the head captain of a pirate ship. You asked your fellow pirates to rob other ships of their gold across six different islands.</p><p><b>[Press the space bar to continue]</b></p></div>","32","","","","","","","","","","","","","","","","","","","","","","","",""
"","day_1_summary_goal","4","31307","0.0-4.0","""event"",""trial"",""time""
""fullscreenenter"",""0"",""2324""
","
","
","""event"",""trial"",""time""
""fullscreenenter"",""0"",""2324""
","
","null","run_exp/static/audio/clip_30_goal_of_game.m4a","null","","","","","<div class='center'><p>Today, like yesterday, you get to pick which pirate you want to rob the next ship.</p><p>If the pirate is successful in robbing a ship, you get gold coins that look like this: </p><p><img src='run_exp/static/images/tutorial/reward.png' height='150'></p><p> If they were not successful in robbing the ship, then you will get no gold coins and you'll see a big red x like this: </p><p><img src='run_exp/static/images/tutorial/reward_no.png' height='150'></p></div>","","","","","","","","","","","","","","","","","","",""
"","html-keyboard-response","5","32027","0.0-5.0","""event"",""trial"",""time""
""fullscreenenter"",""0"",""2324""
","
","
","""event"",""trial"",""time""
""fullscreenenter"",""0"",""2324""
","
","718.0999999046326","<div class='center'><p>Today, like yesterday, you get to pick which pirate you want to rob the next ship.</p><p>If the pirate is successful in robbing a ship, you get gold coins that look like this: </p><p><img src='run_exp/static/images/tutorial/reward.png' height='150'></p><p> If they were not successful in robbing the ship, then you will get no gold coins and you'll see a big red x like this: </p><p><img src='run_exp/static/images/tutorial/reward_no.png' height='150'></p><p><b>[Press the space bar to continue]</b></p></div>","32","","","","","","","","","","","","","","","","","","","","","","","",""
"","day_1_summary_pick","6","46748","0.0-6.0","""event"",""trial"",""time""
""fullscreenenter"",""0"",""2324""
","
","
","""event"",""trial"",""time""
""fullscreenenter"",""0"",""2324""
","
","null","run_exp/static/audio/clip_31_how_to_pick_a_pirate.m4a","null","","","","","<div class='center'><p>Also, just like yesterday, you will use the 1,2,3 keys on your keyboard to pick a pirate. Press '1' to choose red beard, '2' to choose white beard, and '3' to choose black beard . You only have 3 seconds to pick a pirate, so please make a choice quickly!</p></div>","","","","","","","","","","","","","","","","","","",""
"","html-keyboard-response","7","48014","0.0-7.0","""event"",""trial"",""time""
""fullscreenenter"",""0"",""2324""
","
","
","""event"",""trial"",""time""
""fullscreenenter"",""0"",""2324""
","
","1265.2000002861023","<div class='center'><p>Also, just like yesterday, you will use the 1,2,3 keys on your keyboard to pick a pirate. Press '1' to choose red beard, '2' to choose white beard, and '3' to choose black beard . You only have 3 seconds to pick a pirate, so please make a choice quickly!</p><p><b>[Press the space bar to continue]</b></p></div>","32","","","","","","","","","","","","","","","","","","","","","","","",""
"","test_phase_begin","8","78490","0.0-8.0","""event"",""trial"",""time""
""fullscreenenter"",""0"",""2324""
","
","
","""event"",""trial"",""time""
""fullscreenenter"",""0"",""2324""
","
","null","run_exp/static/audio/clip_32_final_place.m4a","null","","","","","<div class='center'><p>You’ve arrived at the final island of your journey! Unfortunately, it’s very foggy out, so you won’t be able to see it in the distance like the other islands you've visited.</p><p>You’ll still be deciding which pirate you want to rob a ship like before. However, because of the fog, you also won’t be able to see the ship.</p><p>This means you do not have to remember the ships you rob on this island.</p><p>Unlike yesterday, you won't be visiting multiple islands today. You will stay on this island for the entire game. This game will last ~30 minutes.</p></div>","","","","","","","","","","","","","","","","","","",""
"","html-keyboard-response","9","79033","0.0-9.0","""event"",""trial"",""time""
""fullscreenenter"",""0"",""2324""
","
","
","""event"",""trial"",""time""
""fullscreenenter"",""0"",""2324""
","
","541.9000000953674","<div class='center'><p>You’ve arrived at the final island of your journey! Unfortunately, it’s very foggy out, so you won’t be able to see it in the distance like the other islands you've visited.</p><p>You’ll still be deciding which pirate you want to rob a ship like before. However, because of the fog, you also won’t be able to see the ship.</p><p>This means you do not have to remember the ships you rob on this island.</p><p>Unlike yesterday, you won't be visiting multiple islands today. You will stay on this island for the entire game. This game will last ~30 minutes.</p><p><b>[Press the space bar to continue]</b></p></div>","32","","","","","","","","","","","","","","","","","","","","","","","",""
"","explain_probe_1","10","86757","0.0-10.0","""event"",""trial"",""time""
""fullscreenenter"",""0"",""2324""
","
","
","""event"",""trial"",""time""
""fullscreenenter"",""0"",""2324""
","
","null","run_exp/static/audio/clip_33_recognition_1.m4a","null","","","","","<div class='center'><p> Sometimes you’ll be shown a ship, and you will be asked if you saw this ship on a past island.</p><p> Here is an example of what you will see.</p><p><img src='run_exp/static/images/tutorial/example_recog_trial.png' height='500'></p></div>","","","","","","","","","","","","","","","","","","",""
"","html-keyboard-response","11","90264","0.0-11.0","""event"",""trial"",""time""
""fullscreenenter"",""0"",""2324""
","
","
","""event"",""trial"",""time""
""fullscreenenter"",""0"",""2324""
","
","3505.2000002861023","<div class='center'><p> Sometimes you’ll be shown a ship, and you will be asked if you saw this ship on a past island.</p><p> Here is an example of what you will see.</p><p><img src='run_exp/static/images/tutorial/example_recog_trial.png' height='500'></p><p><b>[Press the space bar to continue]</b></p></div>","32","","","","","","","","","","","","","","","","","","","","","","","",""
"","explain_probe_2","12","112020","0.0-12.0","""event"",""trial"",""time""
""fullscreenenter"",""0"",""2324""
","
","
","""event"",""trial"",""time""
""fullscreenenter"",""0"",""2324""
","
","null","run_exp/static/audio/clip_34_recognition_2.m4a","null","","","","","<div class='center'><p> You will press the 5, 6, 7, 8 keys on your keyboard to respond.</p><p>If you are sure you saw the ship, press <b>5</b> on your keyboard.</p><p> If you think you saw it before but aren't sure, then press <b>6</b>.</p><p> If you think you have <b>not</b> seen it before but aren't sure, then press <b>7</b>.</p><p> If you are sure you did <b>not</b> see the ship before, then press <b>8</b>.</p><p><img src='run_exp/static/images/tutorial/example_recog_trial.png' height='500'></p></div>","","","","","","","","","","","","","","","","","","",""
"","html-keyboard-response","13","112633","0.0-13.0","""event"",""trial"",""time""
""fullscreenenter"",""0"",""2324""
","
","
","""event"",""trial"",""time""
""fullscreenenter"",""0"",""2324""
","
","611.8000001907349","<div class='center'><p> You will press the 5, 6, 7, 8 keys on your keyboard to respond.</p><p>If you are sure you saw the ship, press <b>5</b> on your keyboard.</p><p> If you think you saw it before but aren't sure, then press <b>6</b>.</p><p> If you think you have <b>not</b> seen it before but aren't sure, then press <b>7</b>.</p><p> If you are sure you did <b>not</b> see the ship before, then press <b>8</b>.</p><p><img src='run_exp/static/images/tutorial/example_recog_trial.png' height='500'></p><p><b>[Press the space bar to continue]</b></p></div>","32","","","","","","","","","","","","","","","","","","","","","","","",""
"","explain_outcome","14","129853","0.0-14.0","""event"",""trial"",""time""
""fullscreenenter"",""0"",""2324""
","
","
","""event"",""trial"",""time""
""fullscreenenter"",""0"",""2324""
","
","null","run_exp/static/audio/clip_35_recognition_3.m4a","null","","","","","<div class='center'><p> If you remember correctly, then you’ll get a gold coin like this: </p><p><img src='run_exp/static/images/tutorial/reward_small.png' height='200'></p><p>If you do not remember correctly, then you'll see a red x like this: </p><p><img src='run_exp/static/images/tutorial/reward_no.png' height='200'></p><p>Importantly, when you are shown a ship, take the time to remind yourself which island you saw it on. This will help you in the next part of the study.</p></div>","","","","","","","","","","","","","","","","","","",""
"","html-keyboard-response","15","130455","0.0-15.0","""event"",""trial"",""time""
""fullscreenenter"",""0"",""2324""
","
","
","""event"",""trial"",""time""
""fullscreenenter"",""0"",""2324""
","
","600.1999998092651","<div class='center'><p> If you remember correctly, then you’ll get a gold coin like this: </p><p><img src='run_exp/static/images/tutorial/reward_small.png' height='200'></p><p>If you do not remember correctly, then you'll see a red x like this: </p><p><img src='run_exp/static/images/tutorial/reward_no.png' height='200'></p><p>Importantly, when you are shown a ship, take the time to remind yourself which island you saw it on. This will help you in the next part of the study.</p><p><b>[Press the space bar to continue]</b></p></div>","32","","","","","","","","","","","","","","","","","","","","","","","",""
"","begin_test_phase","16","146293","0.0-16.0","""event"",""trial"",""time""
""fullscreenenter"",""0"",""2324""
","
","
","""event"",""trial"",""time""
""fullscreenenter"",""0"",""2324""
","
","null","run_exp/static/audio/clip_36_begin_final.m4a","null","","","","","<div class='center'><p>Let's go over the important points again. Your job is to: </p><p>1. Pick the pirate who is best at robbing ships and will bring you back gold coins. </p><p>2. Correctly remember whether or not you saw a ship before. If you did see the ship before, remind yourself on which island you saw it. </p></div>","","","","","","","","","","","","","","","","","","",""
"","html-keyboard-response","17","147729","0.0-17.0","""event"",""trial"",""time""
""fullscreenenter"",""0"",""2324""
","
","
","""event"",""trial"",""time""
""fullscreenenter"",""0"",""2324""
","
","1347.7000002861023","<div class='center'><p>Let's go over the important points again. Your job is to: </p><p>1. Pick the pirate who is best at robbing ships and will bring you back gold coins. </p><p>2. Correctly remember whether or not you saw a ship before. If you did see the ship before, remind yourself on which island you saw it. </p><p><b>[Press the space bar to continue]</b></p></div>","32","","","","","","","","","","","","","","","","","","","","","","","",""
"","do_welcome","18","151739","0.0-18.0","""event"",""trial"",""time""
""fullscreenenter"",""0"",""2324""
","
","
","""event"",""trial"",""time""
""fullscreenenter"",""0"",""2324""
","
","null","","","","","","","","null","","","","","","","","","","","","","","","","","",""
"","do_trial","19","156138","0.0-19.0-0.0","""event"",""trial"",""time""
""fullscreenenter"",""0"",""2324""
","
","
","""event"",""trial"",""time""
""fullscreenenter"",""0"",""2324""
","
","1844.1999998092651","","","","","","","","50","1,0,0","6","blank","230","null","0.6168305294168606","0.08824455029593395","0.22470475045442462","0","","","","","","","","",""
"","html-keyboard-response","20","157145","0.0-19.0-1.0","""event"",""trial"",""time""
""fullscreenenter"",""0"",""2324""
","
","
","""event"",""trial"",""time""
""fullscreenenter"",""0"",""2324""
","
","null","<p></p>","null","","","","","","","","","","","","","","","","","","","","","","","",""
"","do_trial","21","160037","0.0-20.0-0.0","""event"",""trial"",""time""
""fullscreenenter"",""0"",""2324""
","
","
","""event"",""trial"",""time""
""fullscreenenter"",""0"",""2324""
","
","336.09999990463257","","","","","","","","49","1,0,0","6","blank","231","null","0.5565310663250448","0.11009779731364097","0.2192601383926735","1","","","","","","","","",""
"","html-keyboard-response","22","161043","0.0-20.0-1.0","""event"",""trial"",""time""
""fullscreenenter"",""0"",""2324""
","
","
","""event"",""trial"",""time""
""fullscreenenter"",""0"",""2324""
","
","null","<p></p>","null","","","","","","","","","","","","","","","","","","","","","","","",""
"","do_trial","23","163927","0.0-21.0-0.0","""event"",""trial"",""time""
""fullscreenenter"",""0"",""2324""
","
","
","""event"",""trial"",""time""
""fullscreenenter"",""0"",""2324""
","
","328","","","","","","","","49","1,1,0","6","blank","232","null","0.47679742985820356","0.2386613696371286","0.170028930049035","1","","","","","","","","",""
"","html-keyboard-response","24","164933","0.0-21.0-1.0","""event"",""trial"",""time""
""fullscreenenter"",""0"",""2324""
","
","
","""event"",""trial"",""time""
""fullscreenenter"",""0"",""2324""
","
","null","<p></p>","null","","","","","","","","","","","","","","","","","","","","","","","",""
"","do_trial","25","167800","0.0-22.0-0.0","""event"",""trial"",""time""
""fullscreenenter"",""0"",""2324""
","
","
","""event"",""trial"",""time""
""fullscreenenter"",""0"",""2324""
","
","314.40000009536743","","","","","","","","49","0,0,1","6","blank","233","null","0.5226968985398657","0.3702732344526976","0.2036551099215526","0","","","","","","","","",""
"","html-keyboard-response","26","168805","0.0-22.0-1.0","""event"",""trial"",""time""
""fullscreenenter"",""0"",""2324""
","
","
","""event"",""trial"",""time""
""fullscreenenter"",""0"",""2324""
","
","null","<p></p>","null","","","","","","","","","","","","","","","","","","","","","","","",""
"","do_trial","27","171783","0.0-23.0-0.0","""event"",""trial"",""time""
""fullscreenenter"",""0"",""2324""
","
","
","""event"",""trial"",""time""
""fullscreenenter"",""0"",""2324""
","
","423","","","","","","","","49","0,0,1","6","blank","234","null","0.5573663913112911","0.3062956118492432","0.46446337316636604","0","","","","","","","","",""
"","html-keyboard-response","28","172788","0.0-23.0-1.0","""event"",""trial"",""time""
""fullscreenenter"",""0"",""2324""
","
","
","""event"",""trial"",""time""
""fullscreenenter"",""0"",""2324""
","
","null","<p></p>","null","","","","","","","","","","","","","","","","","","","","","","","",""
"","do_trial","29","175740","0.0-24.0-0.0","""event"",""trial"",""time""
""fullscreenenter"",""0"",""2324""
","
","
","""event"",""trial"",""time""
""fullscreenenter"",""0"",""2324""
","
","399.90000009536743","","","","","","","","49","0,0,0","6","blank","235","null","0.47862602338276766","0.3305449499970204","0.3930376098784624","0","","","","","","","","",""
"","html-keyboard-response","30","176746","0.0-24.0-1.0","""event"",""trial"",""time""
""fullscreenenter"",""0"",""2324""
","
","
","""event"",""trial"",""time""
""fullscreenenter"",""0"",""2324""
","
","null","<p></p>","null","","","","","","","","","","","","","","","","","","","","","","","",""
"","do_trial","31","179563","0.0-25.0-0.0","""event"",""trial"",""time""
""fullscreenenter"",""0"",""2324""
","
","
","""event"",""trial"",""time""
""fullscreenenter"",""0"",""2324""
","
","262.7000002861023","","","","","","","","51","1,1,0","6","blank","236","null","0.524933510087725","0.16911711629539747","0.31449886039707475","0","","","","","","","","",""
"","html-keyboard-response","32","180569","0.0-25.0-1.0","""event"",""trial"",""time""
""fullscreenenter"",""0"",""2324""
","
","
","""event"",""trial"",""time""
""fullscreenenter"",""0"",""2324""
","
","null","<p></p>","null","","","","","","","","","","","","","","","","","","","","","","","",""
"","do_trial","33","183457","0.0-26.0-0.0","""event"",""trial"",""time""
""fullscreenenter"",""0"",""2324""
","
","
","""event"",""trial"",""time""
""fullscreenenter"",""0"",""2324""
","
","333","","","","","","","","49","0,0,0","6","blank","237","null","0.4103210061672503","0.2120058678206872","0.4004625811945239","0","","","","","","","","",""
"","html-keyboard-response","34","184460","0.0-26.0-1.0","""event"",""trial"",""time""
""fullscreenenter"",""0"",""2324""
","
","
","""event"",""trial"",""time""
""fullscreenenter"",""0"",""2324""
","
","null","<p></p>","null","","","","","","","","","","","","","","","","","","","","","","","",""
"","do_trial","35","187380","0.0-27.0-0.0","""event"",""trial"",""time""
""fullscreenenter"",""0"",""2324""
","
","
","""event"",""trial"",""time""
""fullscreenenter"",""0"",""2324""
","
","364.80000019073486","","","","","","","","50","1,1,0","6","blank","238","null","0.5025632151507196","0.22245012922507149","0.25008102227719775","1","","","","","","","","",""
"","html-keyboard-response","36","188383","0.0-27.0-1.0","""event"",""trial"",""time""
""fullscreenenter"",""0"",""2324""
","
","
","""event"",""trial"",""time""
""fullscreenenter"",""0"",""2324""
","
","null","<p></p>","null","","","","","","","","","","","","","","","","","","","","","","","",""
"","do_trial","37","191320","0.0-28.0-0.0","""event"",""trial"",""time""
""fullscreenenter"",""0"",""2324""
","
","
","""event"",""trial"",""time""
""fullscreenenter"",""0"",""2324""
","
","384.7999997138977","","","","","","","","50","1,0,1","6","blank","239","null","0.5931090678899661","0.15168491899142889","0.3329216578338964","0","","","","","","","","",""
"","html-keyboard-response","38","192325","0.0-28.0-1.0","""event"",""trial"",""time""
""fullscreenenter"",""0"",""2324""
","
","
","""event"",""trial"",""time""
""fullscreenenter"",""0"",""2324""
","
","null","<p></p>","null","","","","","","","","","","","","","","","","","","","","","","","",""
"","do_trial","39","195186","0.0-29.0-0.0","""event"",""trial"",""time""
""fullscreenenter"",""0"",""2324""
","
","
","""event"",""trial"",""time""
""fullscreenenter"",""0"",""2324""
","
","310.40000009536743","","","","","","","","49","1,0,0","6","blank","240","null","0.5728288245703643","0.10179537483682863","0.33964415513740476","1","","","","","","","","",""
"","html-keyboard-response","40","196188","0.0-29.0-1.0","""event"",""trial"",""time""
""fullscreenenter"",""0"",""2324""
","
","
","""event"",""trial"",""time""
""fullscreenenter"",""0"",""2324""
","
","null","<p></p>","null","","","","","","","","","","","","","","","","","","","","","","","",""
"","do_recog","41","202206","0.0-30.0-0.0","""event"",""trial"",""time""
""fullscreenenter"",""0"",""2324""
","
","
","""event"",""trial"",""time""
""fullscreenenter"",""0"",""2324""
","
","null","","","","","","","","null","","","","241","probe-216","","","","","1","[object Object]","157","3","0","","","",""
"","html-keyboard-response","42","203212","0.0-30.0-1.0","""event"",""trial"",""time""
""fullscreenenter"",""0"",""2324""
","
","
","""event"",""trial"",""time""
""fullscreenenter"",""0"",""2324""
","
","null","<p></p>","null","","","","","","","","","","","","","","","","","","","","","","","",""
"","do_trial","43","207053","0.0-31.0-0.0","""event"",""trial"",""time""
""fullscreenenter"",""0"",""2324""
","
","
","""event"",""trial"",""time""
""fullscreenenter"",""0"",""2324""
","
","1291.8999996185303","","","","","","","","50","0,0,1","6","blank","242","null","0.4589030474454075","0.06135215429214522","0.4235877489687234","0","","","","","","","","",""
"","html-keyboard-response","44","208059","0.0-31.0-1.0","""event"",""trial"",""time""
""fullscreenenter"",""0"",""2324""
","
","
","""event"",""trial"",""time""
""fullscreenenter"",""0"",""2324""
","
","null","<p></p>","null","","","","","","","","","","","","","","","","","","","","","","","",""
"","do_recog","45","211283","0.0-32.0-0.0","""event"",""trial"",""time""
""fullscreenenter"",""0"",""2324""
","
","
","""event"",""trial"",""time""
""fullscreenenter"",""0"",""2324""
","
","1710.6000003814697","","","","","","","","53","","","","243","probe-73","","","","","1","[object Object]","31","0","1","","","",""
"","html-keyboard-response","46","212288","0.0-32.0-1.0","""event"",""trial"",""time""
""fullscreenenter"",""0"",""2324""
","
","
","""event"",""trial"",""time""
""fullscreenenter"",""0"",""2324""
","
","null","<p></p>","null","","","","","","","","","","","","","","","","","","","","","","","",""
"","do_trial","47","215662","0.0-33.0-0.0","""event"",""trial"",""time""
""fullscreenenter"",""0"",""2324""
","
","
","""event"",""trial"",""time""
""fullscreenenter"",""0"",""2324""
","
","826.0999999046326","","","","","","","","49","0,0,1","6","blank","244","null","0.4312755378024614","0.1226217543313808","0.5597809371998745","0","","","","","","","","",""
"","html-keyboard-response","48","216667","0.0-33.0-1.0","""event"",""trial"",""time""
""fullscreenenter"",""0"",""2324""
","
","
","""event"",""trial"",""time""
""fullscreenenter"",""0"",""2324""
","
","null","<p></p>","null","","","","","","","","","","","","","","","","","","","","","","","",""
"","do_recog","49","220008","0.0-34.0-0.0","""event"",""trial"",""time""
""fullscreenenter"",""0"",""2324""
","
","
","""event"",""trial"",""time""
""fullscreenenter"",""0"",""2324""
","
","1828.1999998092651","","","","","","","","53","","","","245","probe-189","","","","","1","[object Object]","150","3","1","","","",""
"","html-keyboard-response","50","221014","0.0-34.0-1.0","""event"",""trial"",""time""
""fullscreenenter"",""0"",""2324""
","
","
","""event"",""trial"",""time""
""fullscreenenter"",""0"",""2324""
","
","null","<p></p>","null","","","","","","","","","","","","","","","","","","","","","","","",""
"","do_trial","51","224084","0.0-35.0-0.0","""event"",""trial"",""time""
""fullscreenenter"",""0"",""2324""
","
","
","""event"",""trial"",""time""
""fullscreenenter"",""0"",""2324""
","
","517.4000000953674","","","","","","","","49","0,0,1","6","blank","246","null","0.3136544012755202","0.14959907410654544","0.6698944507875538","0","","","","","","","","",""
"","html-keyboard-response","52","225088","0.0-35.0-1.0","""event"",""trial"",""time""
""fullscreenenter"",""0"",""2324""
","
","
","""event"",""trial"",""time""
""fullscreenenter"",""0"",""2324""
","
","null","<p></p>","null","","","","","","","","","","","","","","","","","","","","","","","",""
"","do_recog","53","228584","0.0-36.0-0.0","""event"",""trial"",""time""
""fullscreenenter"",""0"",""2324""
","
","
","""event"",""trial"",""time""
""fullscreenenter"",""0"",""2324""
","
","1983.7000002861023","","","","","","","","56","","","","247","probe-252","","","","","0","[object Object]","null","null","1","","","",""
"","html-keyboard-response","54","229589","0.0-36.0-1.0","""event"",""trial"",""time""
""fullscreenenter"",""0"",""2324""
","
","
","""event"",""trial"",""time""
""fullscreenenter"",""0"",""2324""
","
","null","<p></p>","null","","","","","","","","","","","","","","","","","","","","","","","",""
"","do_trial","55","233204","0.0-37.0-0.0","""event"",""trial"",""time""
""fullscreenenter"",""0"",""2324""
","
","
","""event"",""trial"",""time""
""fullscreenenter"",""0"",""2324""
","
","1060.6999998092651","","","","","","","","50","0,0,1","6","blank","248","null","0.25945264077245767","0.12956643183410785","0.6833782613104077","0","","","","","","","","",""
"","html-keyboard-response","56","234210","0.0-37.0-1.0","""event"",""trial"",""time""
""fullscreenenter"",""0"",""2324""
","
","
","""event"",""trial"",""time""
""fullscreenenter"",""0"",""2324""
","
","null","<p></p>","null","","","","","","","","","","","","","","","","","","","","","","","",""
"","do_recog","57","237289","0.0-38.0-0.0","""event"",""trial"",""time""
""fullscreenenter"",""0"",""2324""
","
","
","""event"",""trial"",""time""
""fullscreenenter"",""0"",""2324""
","
","1567.3000001907349","","","","","","","","53","","","","249","probe-220","","","","","1","[object Object]","190","4","1","","","",""
"","html-keyboard-response","58","238294","0.0-38.0-1.0","""event"",""trial"",""time""
""fullscreenenter"",""0"",""2324""
","
","
","""event"",""trial"",""time""
""fullscreenenter"",""0"",""2324""
","
","null","<p></p>","null","","","","","","","","","","","","","","","","","","","","","","","",""
"","do_trial","59","241268","0.0-39.0-0.0","""event"",""trial"",""time""
""fullscreenenter"",""0"",""2324""
","
","
","""event"",""trial"",""time""
""fullscreenenter"",""0"",""2324""
","
","424.7000002861023","","","","","","","","49","1,0,1","6","blank","250","null","0.3340152888085208","0.1815882063040767","0.6092494709895598","1","","","","","","","","",""
"","html-keyboard-response","60","242273","0.0-39.0-1.0","""event"",""trial"",""time""
""fullscreenenter"",""0"",""2324""
","
","
","""event"",""trial"",""time""
""fullscreenenter"",""0"",""2324""
","
","null","<p></p>","null","","","","","","","","","","","","","","","","","","","","","","","",""
"","do_trial","61","245368","0.0-40.0-0.0","""event"",""trial"",""time""
""fullscreenenter"",""0"",""2324""
","
","
","""event"",""trial"",""time""
""fullscreenenter"",""0"",""2324""
","
","543.6999998092651","","","","","","","","49","1,0,0","6","blank","251","null","0.21281909632162113","0.15120499203367968","0.48295287302829837","1","","","","","","","","",""
"","html-keyboard-response","62","246374","0.0-40.0-1.0","""event"",""trial"",""time""
""fullscreenenter"",""0"",""2324""
","
","
","""event"",""trial"",""time""
""fullscreenenter"",""0"",""2324""
","
","null","<p></p>","null","","","","","","","","","","","","","","","","","","","","","","","",""
"","do_recog","63","250341","0.0-41.0-0.0","""event"",""trial"",""time""
""fullscreenenter"",""0"",""2324""
","
","
","""event"",""trial"",""time""
""fullscreenenter"",""0"",""2324""
","
","2455.199999809265","","","","","","","","55","","","","252","probe-251","","","","","0","[object Object]","null","null","1","","","",""
"","html-keyboard-response","64","251344","0.0-41.0-1.0","""event"",""trial"",""time""
""fullscreenenter"",""0"",""2324""
","
","
","""event"",""trial"",""time""
""fullscreenenter"",""0"",""2324""
","
","null","<p></p>","null","","","","","","","","","","","","","","","","","","","","","","","",""
"","do_trial","65","254550","0.0-42.0-0.0","""event"",""trial"",""time""
""fullscreenenter"",""0"",""2324""
","
","
","""event"",""trial"",""time""
""fullscreenenter"",""0"",""2324""
","
","651.5","","","","","","","","49","0,0,0","6","blank","253","null","0.34895178077320943","0.1472680316185984","0.47523958635705166","0","","","","","","","","",""
"","html-keyboard-response","66","255556","0.0-42.0-1.0","""event"",""trial"",""time""
""fullscreenenter"",""0"",""2324""
","
","
","""event"",""trial"",""time""
""fullscreenenter"",""0"",""2324""
","
","null","<p></p>","null","","","","","","","","","","","","","","","","","","","","","","","",""
"","do_recog","67","261570","0.0-43.0-0.0","""event"",""trial"",""time""
""fullscreenenter"",""0"",""2324""
","
","
","""event"",""trial"",""time""
""fullscreenenter"",""0"",""2324""
","
","null","","","","","","","","null","","","","254","probe-255","","","","","0","[object Object]","null","null","0","","","",""
"","html-keyboard-response","68","262575","0.0-43.0-1.0","""event"",""trial"",""time""
""fullscreenenter"",""0"",""2324""
","
","
","""event"",""trial"",""time""
""fullscreenenter"",""0"",""2324""
","
","null","<p></p>","null","","","","","","","","","","","","","","","","","","","","","","","",""
"","do_trial","69","265610","0.0-44.0-0.0","""event"",""trial"",""time""
""fullscreenenter"",""0"",""2324""
","
","
","""event"",""trial"",""time""
""fullscreenenter"",""0"",""2324""
","
","473.19999980926514","","","","","","","","49","1,0,0","6","blank","255","null","0.23515344236233138","0.10293243343923575","0.6751734232477216","1","","","","","","","","",""
"","html-keyboard-response","70","266615","0.0-44.0-1.0","""event"",""trial"",""time""
""fullscreenenter"",""0"",""2324""
","
","
","""event"",""trial"",""time""
""fullscreenenter"",""0"",""2324""
","
","null","<p></p>","null","","","","","","","","","","","","","","","","","","","","","","","",""
"","do_trial","71","269695","0.0-45.0-0.0","""event"",""trial"",""time""
""fullscreenenter"",""0"",""2324""
","
","
","""event"",""trial"",""time""
""fullscreenenter"",""0"",""2324""
","
","524.4000000953674","","","","","","","","49","0,0,0","6","blank","256","null","0.23297334081753257","0.07429177255327148","0.6682945366299139","0","","","","","","","","",""
"","html-keyboard-response","72","270697","0.0-45.0-1.0","""event"",""trial"",""time""
""fullscreenenter"",""0"",""2324""
","
","
","""event"",""trial"",""time""
""fullscreenenter"",""0"",""2324""
","
","null","<p></p>","null","","","","","","","","","","","","","","","","","","","","","","","",""
"","do_trial","73","273645","0.0-46.0-0.0","""event"",""trial"",""time""
""fullscreenenter"",""0"",""2324""
","
","
","""event"",""trial"",""time""
""fullscreenenter"",""0"",""2324""
","
","397.40000009536743","","","","","","","","50","1,0,1","6","blank","257","null","0.37330230992799385","0.15879864923027165","0.5764792972325384","0","","","","","","","","",""
"","html-keyboard-response","74","274648","0.0-46.0-1.0","""event"",""trial"",""time""
""fullscreenenter"",""0"",""2324""
","
","
","""event"",""trial"",""time""
""fullscreenenter"",""0"",""2324""
","
","null","<p></p>","null","","","","","","","","","","","","","","","","","","","","","","","",""
"","do_trial","75","277830","0.0-47.0-0.0","""event"",""trial"",""time""
""fullscreenenter"",""0"",""2324""
","
","
","""event"",""trial"",""time""
""fullscreenenter"",""0"",""2324""
","
","627.1999998092651","","","","","","","","49","0,0,0","6","blank","258","null","0.4318392057857706","0.2588035320328853","0.6244787340724803","0","","","","","","","","",""
"","html-keyboard-response","76","278835","0.0-47.0-1.0","""event"",""trial"",""time""
""fullscreenenter"",""0"",""2324""
","
","
","""event"",""trial"",""time""
""fullscreenenter"",""0"",""2324""
","
","null","<p></p>","null","","","","","","","","","","","","","","","","","","","","","","","",""
"","do_trial","77","281713","0.0-48.0-0.0","""event"",""trial"",""time""
""fullscreenenter"",""0"",""2324""
","
","
","""event"",""trial"",""time""
""fullscreenenter"",""0"",""2324""
","
","326","","","","","","","","51","1,0,0","6","blank","259","null","0.3254202953196332","0.26175889874178615","0.445352293980689","0","","","","","","","","",""
"","html-keyboard-response","78","282715","0.0-48.0-1.0","""event"",""trial"",""time""
""fullscreenenter"",""0"",""2324""
","
","
","""event"",""trial"",""time""
""fullscreenenter"",""0"",""2324""
","
","null","<p></p>","null","","","","","","","","","","","","","","","","","","","","","","","",""
"","do_trial","79","286018","0.0-49.0-0.0","""event"",""trial"",""time""
""fullscreenenter"",""0"",""2324""
","
","
","""event"",""trial"",""time""
""fullscreenenter"",""0"",""2324""
","
","747.9000000953674","","","","","","","","50","1,0,0","6","blank","260","null","0.25372842387231775","0.2546818169342046","0.4289608545668036","0","","","","","","","","",""
"","html-keyboard-response","80","287023","0.0-49.0-1.0","""event"",""trial"",""time""
""fullscreenenter"",""0"",""2324""
","
","
","""event"",""trial"",""time""
""fullscreenenter"",""0"",""2324""
","
","null","<p></p>","null","","","","","","","","","","","","","","","","","","","","","","","",""
"","do_recog","81","289950","0.0-50.0-0.0","""event"",""trial"",""time""
""fullscreenenter"",""0"",""2324""
","
","
","""event"",""trial"",""time""
""fullscreenenter"",""0"",""2324""
","
","1418.5999999046326","","","","","","","","56","","","","261","probe-54","","","","","1","[object Object]","36","0","0","","","",""
"","html-keyboard-response","82","290955","0.0-50.0-1.0","""event"",""trial"",""time""
""fullscreenenter"",""0"",""2324""
","
","
","""event"",""trial"",""time""
""fullscreenenter"",""0"",""2324""
","
","null","<p></p>","null","","","","","","","","","","","","","","","","","","","","","","","",""
"","do_trial","83","294081","0.0-51.0-0.0","""event"",""trial"",""time""
""fullscreenenter"",""0"",""2324""
","
","
","""event"",""trial"",""time""
""fullscreenenter"",""0"",""2324""
","
","570.1999998092651","","","","","","","","49","1,0,0","6","blank","262","null","0.2358346591980043","0.31683655433543245","0.41614565729856057","1","","","","","","","","",""
"","html-keyboard-response","84","295087","0.0-51.0-1.0","""event"",""trial"",""time""
""fullscreenenter"",""0"",""2324""
","
","
","""event"",""trial"",""time""
""fullscreenenter"",""0"",""2324""
","
","null","<p></p>","null","","","","","","","","","","","","","","","","","","","","","","","",""
"","do_recog","85","297885","0.0-52.0-0.0","""event"",""trial"",""time""
""fullscreenenter"",""0"",""2324""
","
","
","""event"",""trial"",""time""
""fullscreenenter"",""0"",""2324""
","
","1290.5","","","","","","","","53","","","","263","probe-26","","","","","1","[object Object]","158","3","1","","","",""
"","html-keyboard-response","86","298890","0.0-52.0-1.0","""event"",""trial"",""time""
""fullscreenenter"",""0"",""2324""
","
","
","""event"",""trial"",""time""
""fullscreenenter"",""0"",""2324""
","
","null","<p></p>","null","","","","","","","","","","","","","","","","","","","","","","","",""
"","do_trial","87","302189","0.0-53.0-0.0","""event"",""trial"",""time""
""fullscreenenter"",""0"",""2324""
","
","
","""event"",""trial"",""time""
""fullscreenenter"",""0"",""2324""
","
","743.2999997138977","","","","","","","","49","1,0,1","6","blank","264","null","0.15863661862640338","0.05063868861391274","0.47310042800153507","1","","","","","","","","",""
"","html-keyboard-response","88","303195","0.0-53.0-1.0","""event"",""trial"",""time""
""fullscreenenter"",""0"",""2324""
","
","
","""event"",""trial"",""time""
""fullscreenenter"",""0"",""2324""
","
","null","<p></p>","null","","","","","","","","","","","","","","","","","","","","","","","",""
"","do_trial","89","306385","0.0-54.0-0.0","""event"",""trial"",""time""
""fullscreenenter"",""0"",""2324""
","
","
","""event"",""trial"",""time""
""fullscreenenter"",""0"",""2324""
","
","634.7999997138977","","","","","","","","49","0,1,0","6","blank","265","null","0.23539345529363742","0.09041659459398246","0.5622312463895932","0","","","","","","","","",""
"","html-keyboard-response","90","307391","0.0-54.0-1.0","""event"",""trial"",""time""
""fullscreenenter"",""0"",""2324""
","
","
","""event"",""trial"",""time""
""fullscreenenter"",""0"",""2324""
","
","null","<p></p>","null","","","","","","","","","","","","","","","","","","","","","","","",""
"","do_recog","91","310277","0.0-55.0-0.0","""event"",""trial"",""time""
""fullscreenenter"",""0"",""2324""
","
","
","""event"",""trial"",""time""
""fullscreenenter"",""0"",""2324""
","
","1374.1999998092651","","","","","","","","53","","","","266","probe-122","","","","","1","[object Object]","193","4","1","","","",""
"","html-keyboard-response","92","311282","0.0-55.0-1.0","""event"",""trial"",""time""
""fullscreenenter"",""0"",""2324""
","
","
","""event"",""trial"",""time""
""fullscreenenter"",""0"",""2324""
","
","null","<p></p>","null","","","","","","","","","","","","","","","","","","","","","","","",""
"","do_trial","93","314332","0.0-56.0-0.0","""event"",""trial"",""time""
""fullscreenenter"",""0"",""2324""
","
","
","""event"",""trial"",""time""
""fullscreenenter"",""0"",""2324""
","
","495.7999997138977","","","","","","","","49","1,0,1","6","blank","267","null","0.26598617837063365","0.08811079064449323","0.576513508384429","1","","","","","","","","",""
"","html-keyboard-response","94","315338","0.0-56.0-1.0","""event"",""trial"",""time""
""fullscreenenter"",""0"",""2324""
","
","
","""event"",""trial"",""time""
""fullscreenenter"",""0"",""2324""
","
","null","<p></p>","null","","","","","","","","","","","","","","","","","","","","","","","",""
"","do_trial","95","318308","0.0-57.0-0.0","""event"",""trial"",""time""
""fullscreenenter"",""0"",""2324""
","
","
","""event"",""trial"",""time""
""fullscreenenter"",""0"",""2324""
","
","418.09999990463257","","","","","","","","49","0,1,1","6","blank","268","null","0.25190376553845073","0.19061300032251688","0.6432910121630593","0","","","","","","","","",""
"","html-keyboard-response","96","319309","0.0-57.0-1.0","""event"",""trial"",""time""
""fullscreenenter"",""0"",""2324""
","
","
","""event"",""trial"",""time""
""fullscreenenter"",""0"",""2324""
","
","null","<p></p>","null","","","","","","","","","","","","","","","","","","","","","","","",""
"","break","97","324631","0.0-58.0-0.0","""event"",""trial"",""time""
""fullscreenenter"",""0"",""2324""
","
","
","""event"",""trial"",""time""
""fullscreenenter"",""0"",""2324""
","
","5320.199999809265","<div class='center'><p>Time to take a quick break! You have 2 minutes to rest, but you can move on sooner if you'd like.</p><p> Press the <b>space bar</b> to continue.</p></div>","32","","","","","","","","","","","","","","","","","","","","","","","",""
"","do_trial","98","328032","0.0-58.0-1.0","""event"",""trial"",""time""
""fullscreenenter"",""0"",""2324""
","
","
","""event"",""trial"",""time""
""fullscreenenter"",""0"",""2324""
","
","850","","","","","","","","49","1,0,1","6","blank","269","null","0.2899589248730496","0.26502910391664264","0.6483641695771705","1","","","","","","","","",""
"","html-keyboard-response","99","329038","0.0-58.0-2.0","""event"",""trial"",""time""
""fullscreenenter"",""0"",""2324""
","
","
","""event"",""trial"",""time""
""fullscreenenter"",""0"",""2324""
","
","null","<p></p>","null","","","","","","","","","","","","","","","","","","","","","","","",""
"","do_recog","100","331551","0.0-59.0-0.0","""event"",""trial"",""time""
""fullscreenenter"",""0"",""2324""
","
","
","""event"",""trial"",""time""
""fullscreenenter"",""0"",""2324""
","
","1001.8000001907349","","","","","","","","53","","","","270","probe-179","","","","","1","[object Object]","33","0","1","","","",""
"","html-keyboard-response","101","332556","0.0-59.0-1.0","""event"",""trial"",""time""
""fullscreenenter"",""0"",""2324""
","
","
","""event"",""trial"",""time""
""fullscreenenter"",""0"",""2324""
","
","null","<p></p>","null","","","","","","","","","","","","","","","","","","","","","","","",""
"","do_trial","102","335660","0.0-60.0-0.0","""event"",""trial"",""time""
""fullscreenenter"",""0"",""2324""
","
","
","""event"",""trial"",""time""
""fullscreenenter"",""0"",""2324""
","
","549.2999997138977","","","","","","","","49","0,0,1","6","blank","271","null","0.3171893095631772","0.1506498890380206","0.5806007639626778","0","","","","","","","","",""
"","html-keyboard-response","103","336666","0.0-60.0-1.0","""event"",""trial"",""time""
""fullscreenenter"",""0"",""2324""
","
","
","""event"",""trial"",""time""
""fullscreenenter"",""0"",""2324""
","
","null","<p></p>","null","","","","","","","","","","","","","","","","","","","","","","","",""
"","do_trial","104","339561","0.0-61.0-0.0","""event"",""trial"",""time""
""fullscreenenter"",""0"",""2324""
","
","
","""event"",""trial"",""time""
""fullscreenenter"",""0"",""2324""
","
","342.1000003814697","","","","","","","","49","0,0,1","6","blank","272","null","0.2069811220656666","0.05696836764769114","0.7184574401385966","0","","","","","","","","",""
"","html-keyboard-response","105","340564","0.0-61.0-1.0","""event"",""trial"",""time""
""fullscreenenter"",""0"",""2324""
","
","
","""event"",""trial"",""time""
""fullscreenenter"",""0"",""2324""
","
","null","<p></p>","null","","","","","","","","","","","","","","","","","","","","","","","",""
"","do_recog","106","343422","0.0-62.0-0.0","""event"",""trial"",""time""
""fullscreenenter"",""0"",""2324""
","
","
","""event"",""trial"",""time""
""fullscreenenter"",""0"",""2324""
","
","1349.9000000953674","","","","","","","","53","","","","273","probe-98","","","","","1","[object Object]","71","1","1","","","",""
"","html-keyboard-response","107","344427","0.0-62.0-1.0","""event"",""trial"",""time""
""fullscreenenter"",""0"",""2324""
","
","
","""event"",""trial"",""time""
""fullscreenenter"",""0"",""2324""
","
","null","<p></p>","null","","","","","","","","","","","","","","","","","","","","","","","",""
"","do_trial","108","347449","0.0-63.0-0.0","""event"",""trial"",""time""
""fullscreenenter"",""0"",""2324""
","
","
","""event"",""trial"",""time""
""fullscreenenter"",""0"",""2324""
","
","472.69999980926514","","","","","","","","49","1,0,1","6","blank","274","null","0.33367541653562866","0.2312373041989295","0.6492989020751538","1","","","","","","","","",""
"","html-keyboard-response","109","348454","0.0-63.0-1.0","""event"",""trial"",""time""
""fullscreenenter"",""0"",""2324""
","
","
","""event"",""trial"",""time""
""fullscreenenter"",""0"",""2324""
","
","null","<p></p>","null","","","","","","","","","","","","","","","","","","","","","","","",""
"","do_trial","110","351358","0.0-64.0-0.0","""event"",""trial"",""time""
""fullscreenenter"",""0"",""2324""
","
","
","""event"",""trial"",""time""
""fullscreenenter"",""0"",""2324""
","
","352.8999996185303","","","","","","","","49","0,0,1","6","blank","275","null","0.3690733346054671","0.2815454223805676","0.6055016133096557","0","","","","","","","","",""
"","html-keyboard-response","111","352363","0.0-64.0-1.0","""event"",""trial"",""time""
""fullscreenenter"",""0"",""2324""
","
","
","""event"",""trial"",""time""
""fullscreenenter"",""0"",""2324""
","
","null","<p></p>","null","","","","","","","","","","","","","","","","","","","","","","","",""
"","do_trial","112","355404","0.0-65.0-0.0","""event"",""trial"",""time""
""fullscreenenter"",""0"",""2324""
","
","
","""event"",""trial"",""time""
""fullscreenenter"",""0"",""2324""
","
","489.5","","","","","","","","49","0,0,0","6","blank","276","null","0.3016429353197423","0.13896475814602233","0.5446630236442807","0","","","","","","","","",""
"","html-keyboard-response","113","356409","0.0-65.0-1.0","""event"",""trial"",""time""
""fullscreenenter"",""0"",""2324""
","
","
","""event"",""trial"",""time""
""fullscreenenter"",""0"",""2324""
","
","null","<p></p>","null","","","","","","","","","","","","","","","","","","","","","","","",""
"","do_trial","114","359625","0.0-66.0-0.0","""event"",""trial"",""time""
""fullscreenenter"",""0"",""2324""
","
","
","""event"",""trial"",""time""
""fullscreenenter"",""0"",""2324""
","
","663.5","","","","","","","","50","1,0,1","6","blank","277","null","0.35102516836530007","0.20224204751944574","0.6013032833125547","0","","","","","","","","",""
"","html-keyboard-response","115","360631","0.0-66.0-1.0","""event"",""trial"",""time""
""fullscreenenter"",""0"",""2324""
","
","
","""event"",""trial"",""time""
""fullscreenenter"",""0"",""2324""
","
","null","<p></p>","null","","","","","","","","","","","","","","","","","","","","","","","",""
"","do_trial","116","363622","0.0-67.0-0.0","""event"",""trial"",""time""
""fullscreenenter"",""0"",""2324""
","
","
","""event"",""trial"",""time""
""fullscreenenter"",""0"",""2324""
","
","437.30000019073486","","","","","","","","49","0,0,1","6","blank","278","null","0.33570064939382027","0.15803697119888382","0.5375809008547949","0","","","","","","","","",""
"","html-keyboard-response","117","364628","0.0-67.0-1.0","""event"",""trial"",""time""
""fullscreenenter"",""0"",""2324""
","
","
","""event"",""trial"",""time""
""fullscreenenter"",""0"",""2324""
","
","null","<p></p>","null","","","","","","","","","","","","","","","","","","","","","","","",""
"","do_trial","118","368792","0.0-68.0-0.0","""event"",""trial"",""time""
""fullscreenenter"",""0"",""2324""
","
","
","""event"",""trial"",""time""
""fullscreenenter"",""0"",""2324""
","
","1609.5","","","","","","","","51","0,0,0","6","blank","279","null","0.17518555590032556","0.060447675200742755","0.6610393230983871","0","","","","","","","","",""
"","html-keyboard-response","119","369797","0.0-68.0-1.0","""event"",""trial"",""time""
""fullscreenenter"",""0"",""2324""
","
","
","""event"",""trial"",""time""
""fullscreenenter"",""0"",""2324""
","
","null","<p></p>","null","","","","","","","","","","","","","","","","","","","","","","","",""
"","do_trial","120","372850","0.0-69.0-0.0","""event"",""trial"",""time""
""fullscreenenter"",""0"",""2324""
","
","
","""event"",""trial"",""time""
""fullscreenenter"",""0"",""2324""
","
","501.40000009536743","","","","","","","","49","0,0,1","6","blank","280","null","0.18034311722294824","0.10357605964421975","0.6476537421000476","0","","","","","","","","",""
"","html-keyboard-response","121","373856","0.0-69.0-1.0","""event"",""trial"",""time""
""fullscreenenter"",""0"",""2324""
","
","
","""event"",""trial"",""time""
""fullscreenenter"",""0"",""2324""
","
","null","<p></p>","null","","","","","","","","","","","","","","","","","","","","","","","",""
"","do_recog","122","377206","0.0-70.0-0.0","""event"",""trial"",""time""
""fullscreenenter"",""0"",""2324""
","
","
","""event"",""trial"",""time""
""fullscreenenter"",""0"",""2324""
","
","1842.5","","","","","","","","55","","","","281","probe-209","","","","","1","[object Object]","79","1","0","","","",""
"","html-keyboard-response","123","378211","0.0-70.0-1.0","""event"",""trial"",""time""
""fullscreenenter"",""0"",""2324""
","
","
","""event"",""trial"",""time""
""fullscreenenter"",""0"",""2324""
","
","null","<p></p>","null","","","","","","","","","","","","","","","","","","","","","","","",""
"","do_trial","124","382041","0.0-71.0-0.0","""event"",""trial"",""time""
""fullscreenenter"",""0"",""2324""
","
","
","""event"",""trial"",""time""
""fullscreenenter"",""0"",""2324""
","
","1275.2999997138977","","","","","","","","49","0,0,0","6","blank","282","null","0.2904638783176623","0.0764641555858149","0.4521912928137635","0","","","","","","","","",""
"","html-keyboard-response","125","383046","0.0-71.0-1.0","""event"",""trial"",""time""
""fullscreenenter"",""0"",""2324""
","
","
","""event"",""trial"",""time""
""fullscreenenter"",""0"",""2324""
","
","null","<p></p>","null","","","","","","","","","","","","","","","","","","","","","","","",""
"","do_trial","126","386065","0.0-72.0-0.0","""event"",""trial"",""time""
""fullscreenenter"",""0"",""2324""
","
","
","""event"",""trial"",""time""
""fullscreenenter"",""0"",""2324""
","
","468.59999990463257","","","","","","","","49","0,1,1","6","blank","283","null","0.13910926675815816","0.1440290198664113","0.42514909781149646","0","","","","","","","","",""
"","html-keyboard-response","127","387071","0.0-72.0-1.0","""event"",""trial"",""time""
""fullscreenenter"",""0"",""2324""
","
","
","""event"",""trial"",""time""
""fullscreenenter"",""0"",""2324""
","
","null","<p></p>","null","","","","","","","","","","","","","","","","","","","","","","","",""
"","do_trial","128","390535","0.0-73.0-0.0","""event"",""trial"",""time""
""fullscreenenter"",""0"",""2324""
","
","
","""event"",""trial"",""time""
""fullscreenenter"",""0"",""2324""
","
","912","","","","","","","","50","0,0,0","6","blank","284","null","0.10144902923168982","0.05564392232012205","0.43642091568463126","0","","","","","","","","",""
"","html-keyboard-response","129","391540","0.0-73.0-1.0","""event"",""trial"",""time""
""fullscreenenter"",""0"",""2324""
","
","
","""event"",""trial"",""time""
""fullscreenenter"",""0"",""2324""
","
","null","<p></p>","null","","","","","","","","","","","","","","","","","","","","","","","",""
"","do_trial","130","394462","0.0-74.0-0.0","""event"",""trial"",""time""
""fullscreenenter"",""0"",""2324""
","
","
","""event"",""trial"",""time""
""fullscreenenter"",""0"",""2324""
","
","366.8999996185303","","","","","","","","50","0,0,1","6","blank","285","null","0.16762470498763557","0.12102920376471993","0.5010950998366599","0","","","","","","","","",""
"","html-keyboard-response","131","395467","0.0-74.0-1.0","""event"",""trial"",""time""
""fullscreenenter"",""0"",""2324""
","
","
","""event"",""trial"",""time""
""fullscreenenter"",""0"",""2324""
","
","null","<p></p>","null","","","","","","","","","","","","","","","","","","","","","","","",""
"","do_recog","132","398142","0.0-75.0-0.0","""event"",""trial"",""time""
""fullscreenenter"",""0"",""2324""
","
","
","""event"",""trial"",""time""
""fullscreenenter"",""0"",""2324""
","
","1165.1000003814697","","","","","","","","53","","","","286","probe-229","","","","","1","[object Object]","199","4","1","","","",""
"","html-keyboard-response","133","399147","0.0-75.0-1.0","""event"",""trial"",""time""
""fullscreenenter"",""0"",""2324""
","
","
","""event"",""trial"",""time""
""fullscreenenter"",""0"",""2324""
","
","null","<p></p>","null","","","","","","","","","","","","","","","","","","","","","","","",""
"","do_trial","134","402833","0.0-76.0-0.0","""event"",""trial"",""time""
""fullscreenenter"",""0"",""2324""
","
","
","""event"",""trial"",""time""
""fullscreenenter"",""0"",""2324""
","
","1135.8000001907349","","","","","","","","49","0,0,0","6","blank","287","null","0.32796177099237894","0.1095751146177444","0.6873904221132787","0","","","","","","","","",""
"","html-keyboard-response","135","403839","0.0-76.0-1.0","""event"",""trial"",""time""
""fullscreenenter"",""0"",""2324""
","
","
","""event"",""trial"",""time""
""fullscreenenter"",""0"",""2324""
","
","null","<p></p>","null","","","","","","","","","","","","","","","","","","","","","","","",""
"","do_trial","136","407202","0.0-77.0-0.0","""event"",""trial"",""time""
""fullscreenenter"",""0"",""2324""
","
","
","""event"",""trial"",""time""
""fullscreenenter"",""0"",""2324""
","
","808.6000003814697","","","","","","","","51","1,0,1","6","blank","288","null","0.28065454942568524","0.14536094801768656","0.683791378372088","1","","","","","","","","",""
"","html-keyboard-response","137","408206","0.0-77.0-1.0","""event"",""trial"",""time""
""fullscreenenter"",""0"",""2324""
","
","
","""event"",""trial"",""time""
""fullscreenenter"",""0"",""2324""
","
","null","<p></p>","null","","","","","","","","","","","","","","","","","","","","","","","",""
"","do_trial","138","411321","0.0-78.0-0.0","""event"",""trial"",""time""
""fullscreenenter"",""0"",""2324""
","
","
","""event"",""trial"",""time""
""fullscreenenter"",""0"",""2324""
","
","565.6999998092651","","","","","","","","51","1,0,1","6","blank","289","null","0.27572793934337525","0.07183851318615005","0.679466713906382","1","","","","","","","","",""
"","html-keyboard-response","139","412323","0.0-78.0-1.0","""event"",""trial"",""time""
""fullscreenenter"",""0"",""2324""
","
","
","""event"",""trial"",""time""
""fullscreenenter"",""0"",""2324""
","
","null","<p></p>","null","","","","","","","","","","","","","","","","","","","","","","","",""
"","do_trial","140","415243","0.0-79.0-0.0","""event"",""trial"",""time""
""fullscreenenter"",""0"",""2324""
","
","
","""event"",""trial"",""time""
""fullscreenenter"",""0"",""2324""
","
","369.80000019073486","","","","","","","","51","0,0,0","6","blank","290","null","0.33393587423263527","0.05840055916694016","0.6024101068711951","0","","","","","","","","",""
"","html-keyboard-response","141","416248","0.0-79.0-1.0","""event"",""trial"",""time""
""fullscreenenter"",""0"",""2324""
","
","
","""event"",""trial"",""time""
""fullscreenenter"",""0"",""2324""
","
","null","<p></p>","null","","","","","","","","","","","","","","","","","","","","","","","",""
"","do_recog","142","420059","0.0-80.0-0.0","""event"",""trial"",""time""
""fullscreenenter"",""0"",""2324""
","
","
","""event"",""trial"",""time""
""fullscreenenter"",""0"",""2324""
","
","2298.0999999046326","","","","","","","","56","","","","291","probe-104","","","","","1","[object Object]","73","1","0","","","",""
"","html-keyboard-response","143","421063","0.0-80.0-1.0","""event"",""trial"",""time""
""fullscreenenter"",""0"",""2324""
","
","
","""event"",""trial"",""time""
""fullscreenenter"",""0"",""2324""
","
","null","<p></p>","null","","","","","","","","","","","","","","","","","","","","","","","",""
"","do_trial","144","424368","0.0-81.0-0.0","""event"",""trial"",""time""
""fullscreenenter"",""0"",""2324""
","
","
","""event"",""trial"",""time""
""fullscreenenter"",""0"",""2324""
","
","749.9000000953674","","","","","","","","51","0,0,1","6","blank","292","null","0.31208423724960604","0.19112704352935445","0.565890766442201","1","","","","","","","","",""
"","html-keyboard-response","145","425374","0.0-81.0-1.0","""event"",""trial"",""time""
""fullscreenenter"",""0"",""2324""
","
","
","""event"",""trial"",""time""
""fullscreenenter"",""0"",""2324""
","
","null","<p></p>","null","","","","","","","","","","","","","","","","","","","","","","","",""
"","do_recog","146","428290","0.0-82.0-0.0","""event"",""trial"",""time""
""fullscreenenter"",""0"",""2324""
","
","
","""event"",""trial"",""time""
""fullscreenenter"",""0"",""2324""
","
","1404","","","","","","","","53","","","","293","probe-123","","","","","1","[object Object]","37","0","1","","","",""
"","html-keyboard-response","147","429294","0.0-82.0-1.0","""event"",""trial"",""time""
""fullscreenenter"",""0"",""2324""
","
","
","""event"",""trial"",""time""
""fullscreenenter"",""0"",""2324""
","
","null","<p></p>","null","","","","","","","","","","","","","","","","","","","","","","","",""
"","do_trial","148","432826","0.0-83.0-0.0","""event"",""trial"",""time""
""fullscreenenter"",""0"",""2324""
","
","
","""event"",""trial"",""time""
""fullscreenenter"",""0"",""2324""
","
","978.6999998092651","","","","","","","","51","0,0,0","6","blank","294","null","0.2417839513928258","0.08495874029549776","0.3525158574601982","0","","","","","","","","",""
"","html-keyboard-response","149","433833","0.0-83.0-1.0","""event"",""trial"",""time""
""fullscreenenter"",""0"",""2324""
","
","
","""event"",""trial"",""time""
""fullscreenenter"",""0"",""2324""
","
","null","<p></p>","null","","","","","","","","","","","","","","","","","","","","","","","",""
"","do_recog","150","437650","0.0-84.0-0.0","""event"",""trial"",""time""
""fullscreenenter"",""0"",""2324""
","
","
","""event"",""trial"",""time""
""fullscreenenter"",""0"",""2324""
","
","2308.699999809265","","","","","","","","55","","","","295","probe-76","","","","","1","[object Object]","112","2","0","","","",""
"","html-keyboard-response","151","438654","0.0-84.0-1.0","""event"",""trial"",""time""
""fullscreenenter"",""0"",""2324""
","
","
","""event"",""trial"",""time""
""fullscreenenter"",""0"",""2324""
","
","null","<p></p>","null","","","","","","","","","","","","","","","","","","","","","","","",""
"","do_trial","152","442640","0.0-85.0-0.0","""event"",""trial"",""time""
""fullscreenenter"",""0"",""2324""
","
","
","""event"",""trial"",""time""
""fullscreenenter"",""0"",""2324""
","
","1431.6999998092651","","","","","","","","51","0,0,1","6","blank","296","null","0.21440710171856037","0.07652361036496022","0.3727931669924058","1","","","","","","","","",""
"","html-keyboard-response","153","443645","0.0-85.0-1.0","""event"",""trial"",""time""
""fullscreenenter"",""0"",""2324""
","
","
","""event"",""trial"",""time""
""fullscreenenter"",""0"",""2324""
","
","null","<p></p>","null","","","","","","","","","","","","","","","","","","","","","","","",""
"","do_trial","154","447024","0.0-86.0-0.0","""event"",""trial"",""time""
""fullscreenenter"",""0"",""2324""
","
","
","""event"",""trial"",""time""
""fullscreenenter"",""0"",""2324""
","
","827.5999999046326","","","","","","","","51","0,0,1","6","blank","297","null","0.25679802389791173","0.11299515385981343","0.3937552182451079","1","","","","","","","","",""
"","html-keyboard-response","155","448027","0.0-86.0-1.0","""event"",""trial"",""time""
""fullscreenenter"",""0"",""2324""
","
","
","""event"",""trial"",""time""
""fullscreenenter"",""0"",""2324""
","
","null","<p></p>","null","","","","","","","","","","","","","","","","","","","","","","","",""
"","do_recog","156","451045","0.0-87.0-0.0","""event"",""trial"",""time""
""fullscreenenter"",""0"",""2324""
","
","
","""event"",""trial"",""time""
""fullscreenenter"",""0"",""2324""
","
","1509.7000002861023","","","","","","","","53","","","","298","probe-107","","","","","1","[object Object]","35","0","1","","","",""
"","html-keyboard-response","157","452049","0.0-87.0-1.0","""event"",""trial"",""time""
""fullscreenenter"",""0"",""2324""
","
","
","""event"",""trial"",""time""
""fullscreenenter"",""0"",""2324""
","
","null","<p></p>","null","","","","","","","","","","","","","","","","","","","","","","","",""
"","do_trial","158","455650","0.0-88.0-0.0","""event"",""trial"",""time""
""fullscreenenter"",""0"",""2324""
","
","
","""event"",""trial"",""time""
""fullscreenenter"",""0"",""2324""
","
","1047.5999999046326","","","","","","","","51","1,0,0","6","blank","299","null","0.28977748020479405","0.20631379972844655","0.29919228169189416","0","","","","","","","","",""
"","html-keyboard-response","159","456655","0.0-88.0-1.0","""event"",""trial"",""time""
""fullscreenenter"",""0"",""2324""
","
","
","""event"",""trial"",""time""
""fullscreenenter"",""0"",""2324""
","
","null","<p></p>","null","","","","","","","","","","","","","","","","","","","","","","","",""
"","do_trial","160","459639","0.0-89.0-0.0","""event"",""trial"",""time""
""fullscreenenter"",""0"",""2324""
","
","
","""event"",""trial"",""time""
""fullscreenenter"",""0"",""2324""
","
","434.40000009536743","","","","","","","","51","0,0,0","6","blank","300","null","0.503937935635169","0.18170678987423006","0.20908716209154887","0","","","","","","","","",""
"","html-keyboard-response","161","460642","0.0-89.0-1.0","""event"",""trial"",""time""
""fullscreenenter"",""0"",""2324""
","
","
","""event"",""trial"",""time""
""fullscreenenter"",""0"",""2324""
","
","null","<p></p>","null","","","","","","","","","","","","","","","","","","","","","","","",""
"","do_trial","162","463876","0.0-90.0-0.0","""event"",""trial"",""time""
""fullscreenenter"",""0"",""2324""
","
","
","""event"",""trial"",""time""
""fullscreenenter"",""0"",""2324""
","
","681.5","","","","","","","","50","1,0,0","6","blank","301","null","0.4919279220961272","0.24039028737217652","0.11871707707447424","0","","","","","","","","",""
"","html-keyboard-response","163","464881","0.0-90.0-1.0","""event"",""trial"",""time""
""fullscreenenter"",""0"",""2324""
","
","
","""event"",""trial"",""time""
""fullscreenenter"",""0"",""2324""
","
","null","<p></p>","null","","","","","","","","","","","","","","","","","","","","","","","",""
"","do_recog","164","468054","0.0-91.0-0.0","""event"",""trial"",""time""
""fullscreenenter"",""0"",""2324""
","
","
","""event"",""trial"",""time""
""fullscreenenter"",""0"",""2324""
","
","1664.3000001907349","","","","","","","","56","","","","302","probe-232","","","","","0","[object Object]","null","null","1","","","",""
"","html-keyboard-response","165","469059","0.0-91.0-1.0","""event"",""trial"",""time""
""fullscreenenter"",""0"",""2324""
","
","
","""event"",""trial"",""time""
""fullscreenenter"",""0"",""2324""
","
","null","<p></p>","null","","","","","","","","","","","","","","","","","","","","","","","",""
"","do_trial","166","472118","0.0-92.0-0.0","""event"",""trial"",""time""
""fullscreenenter"",""0"",""2324""
","
","
","""event"",""trial"",""time""
""fullscreenenter"",""0"",""2324""
","
","508.8999996185303","","","","","","","","51","0,0,0","6","blank","303","null","0.4557749156993777","0.15110775688765032","0.21795586790917107","0","","","","","","","","",""
"","html-keyboard-response","167","473124","0.0-92.0-1.0","""event"",""trial"",""time""
""fullscreenenter"",""0"",""2324""
","
","
","""event"",""trial"",""time""
""fullscreenenter"",""0"",""2324""
","
","null","<p></p>","null","","","","","","","","","","","","","","","","","","","","","","","",""
"","do_trial","168","476109","0.0-93.0-0.0","""event"",""trial"",""time""
""fullscreenenter"",""0"",""2324""
","
","
","""event"",""trial"",""time""
""fullscreenenter"",""0"",""2324""
","
","432.59999990463257","","","","","","","","50","1,0,1","6","blank","304","null","0.4916681902341976","0.2471217052349613","0.2809888709007793","0","","","","","","","","",""
"","html-keyboard-response","169","477114","0.0-93.0-1.0","""event"",""trial"",""time""
""fullscreenenter"",""0"",""2324""
","
","
","""event"",""trial"",""time""
""fullscreenenter"",""0"",""2324""
","
","null","<p></p>","null","","","","","","","","","","","","","","","","","","","","","","","",""
"","do_trial","170","480145","0.0-94.0-0.0","""event"",""trial"",""time""
""fullscreenenter"",""0"",""2324""
","
","
","""event"",""trial"",""time""
""fullscreenenter"",""0"",""2324""
","
","475.40000009536743","","","","","","","","49","0,0,0","6","blank","305","null","0.6265774202401931","0.37483132529001817","0.17195415840763748","0","","","","","","","","",""
"","html-keyboard-response","171","481150","0.0-94.0-1.0","""event"",""trial"",""time""
""fullscreenenter"",""0"",""2324""
","
","
","""event"",""trial"",""time""
""fullscreenenter"",""0"",""2324""
","
","null","<p></p>","null","","","","","","","","","","","","","","","","","","","","","","","",""
"","do_trial","172","484623","0.0-95.0-0.0","""event"",""trial"",""time""
""fullscreenenter"",""0"",""2324""
","
","
","""event"",""trial"",""time""
""fullscreenenter"",""0"",""2324""
","
","923.1999998092651","","","","","","","","49","1,0,0","6","blank","306","null","0.638286273610691","0.36550951178989843","0.15534130426739493","1","","","","","","","","",""
"","html-keyboard-response","173","485629","0.0-95.0-1.0","""event"",""trial"",""time""
""fullscreenenter"",""0"",""2324""
","
","
","""event"",""trial"",""time""
""fullscreenenter"",""0"",""2324""
","
","null","<p></p>","null","","","","","","","","","","","","","","","","","","","","","","","",""
"","do_trial","174","488730","0.0-96.0-0.0","""event"",""trial"",""time""
""fullscreenenter"",""0"",""2324""
","
","
","""event"",""trial"",""time""
""fullscreenenter"",""0"",""2324""
","
","546.5999999046326","","","","","","","","49","1,0,1","6","blank","307","null","0.5500835062684055","0.34824678006874193","0.30154322531131256","1","","","","","","","","",""
"","html-keyboard-response","175","489735","0.0-96.0-1.0","""event"",""trial"",""time""
""fullscreenenter"",""0"",""2324""
","
","
","""event"",""trial"",""time""
""fullscreenenter"",""0"",""2324""
","
","null","<p></p>","null","","","","","","","","","","","","","","","","","","","","","","","",""
"","do_trial","176","492710","0.0-97.0-0.0","""event"",""trial"",""time""
""fullscreenenter"",""0"",""2324""
","
","
","""event"",""trial"",""time""
""fullscreenenter"",""0"",""2324""
","
","420.69999980926514","","","","","","","","49","1,0,1","6","blank","308","null","0.7023073844136879","0.42823842725962097","0.20809088023314257","1","","","","","","","","",""
"","html-keyboard-response","177","493716","0.0-97.0-1.0","""event"",""trial"",""time""
""fullscreenenter"",""0"",""2324""
","
","
","""event"",""trial"",""time""
""fullscreenenter"",""0"",""2324""
","
","null","<p></p>","null","","","","","","","","","","","","","","","","","","","","","","","",""
"","break","178","501207","0.0-98.0-0.0","""event"",""trial"",""time""
""fullscreenenter"",""0"",""2324""
","
","
","""event"",""trial"",""time""
""fullscreenenter"",""0"",""2324""
","
","7489.699999809265","<div class='center'><p>Time to take a quick break! You have 2 minutes to rest, but you can move on sooner if you'd like.</p><p> Press the <b>space bar</b> to continue.</p></div>","32","","","","","","","","","","","","","","","","","","","","","","","",""
"","do_recog","179","504197","0.0-98.0-1.0","""event"",""trial"",""time""
""fullscreenenter"",""0"",""2324""
","
","
","""event"",""trial"",""time""
""fullscreenenter"",""0"",""2324""
","
","1474.7999997138977","","","","","","","","55","","","","309","probe-240","","","","","0","[object Object]","null","null","1","","","",""
"","html-keyboard-response","180","505202","0.0-98.0-2.0","""event"",""trial"",""time""
""fullscreenenter"",""0"",""2324""
","
","
","""event"",""trial"",""time""
""fullscreenenter"",""0"",""2324""
","
","null","<p></p>","null","","","","","","","","","","","","","","","","","","","","","","","",""
"","do_trial","181","508517","0.0-99.0-0.0","""event"",""trial"",""time""
""fullscreenenter"",""0"",""2324""
","
","
","""event"",""trial"",""time""
""fullscreenenter"",""0"",""2324""
","
","756.7999997138977","","","","","","","","49","0,1,0","6","blank","310","null","0.5436479557450705","0.510643467431797","0.08127831268170352","0","","","","","","","","",""
"","html-keyboard-response","182","509522","0.0-99.0-1.0","""event"",""trial"",""time""
""fullscreenenter"",""0"",""2324""
","
","
","""event"",""trial"",""time""
""fullscreenenter"",""0"",""2324""
","
","null","<p></p>","null","","","","","","","","","","","","","","","","","","","","","","","",""
"","do_trial","183","512612","0.0-100.0-0.0","""event"",""trial"",""time""
""fullscreenenter"",""0"",""2324""
","
","
","""event"",""trial"",""time""
""fullscreenenter"",""0"",""2324""
","
","534.0999999046326","","","","","","","","50","1,0,0","6","blank","311","null","0.5967641815995323","0.40132089218221273","0.10049435820330059","0","","","","","","","","",""
"","html-keyboard-response","184","513617","0.0-100.0-1.0","""event"",""trial"",""time""
""fullscreenenter"",""0"",""2324""
","
","
","""event"",""trial"",""time""
""fullscreenenter"",""0"",""2324""
","
","null","<p></p>","null","","","","","","","","","","","","","","","","","","","","","","","",""
"","do_trial","185","516500","0.0-101.0-0.0","""event"",""trial"",""time""
""fullscreenenter"",""0"",""2324""
","
","
","""event"",""trial"",""time""
""fullscreenenter"",""0"",""2324""
","
","329","","","","","","","","51","1,1,0","6","blank","312","null","0.7186702478350488","0.40169079443960154","0.17171608275038214","0","","","","","","","","",""
"","html-keyboard-response","186","517506","0.0-101.0-1.0","""event"",""trial"",""time""
""fullscreenenter"",""0"",""2324""
","
","
","""event"",""trial"",""time""
""fullscreenenter"",""0"",""2324""
","
","null","<p></p>","null","","","","","","","","","","","","","","","","","","","","","","","",""
"","do_trial","187","520447","0.0-102.0-0.0","""event"",""trial"",""time""
""fullscreenenter"",""0"",""2324""
","
","
","""event"",""trial"",""time""
""fullscreenenter"",""0"",""2324""
","
","390.69999980926514","","","","","","","","49","1,0,0","6","blank","313","null","0.6062551926016466","0.5256614617102144","0.10653004063389038","1","","","","","","","","",""
"","html-keyboard-response","188","521452","0.0-102.0-1.0","""event"",""trial"",""time""
""fullscreenenter"",""0"",""2324""
","
","
","""event"",""trial"",""time""
""fullscreenenter"",""0"",""2324""
","
","null","<p></p>","null","","","","","","","","","","","","","","","","","","","","","","","",""
"","do_trial","189","524500","0.0-103.0-0.0","""event"",""trial"",""time""
""fullscreenenter"",""0"",""2324""
","
","
","""event"",""trial"",""time""
""fullscreenenter"",""0"",""2324""
","
","493.80000019073486","","","","","","","","49","0,0,0","6","blank","314","null","0.43438287149580773","0.45273631896727595","0.11668529824189128","0","","","","","","","","",""
"","html-keyboard-response","190","525505","0.0-103.0-1.0","""event"",""trial"",""time""
""fullscreenenter"",""0"",""2324""
","
","
","""event"",""trial"",""time""
""fullscreenenter"",""0"",""2324""
","
","null","<p></p>","null","","","","","","","","","","","","","","","","","","","","","","","",""
"","do_trial","191","528367","0.0-104.0-0.0","""event"",""trial"",""time""
""fullscreenenter"",""0"",""2324""
","
","
","""event"",""trial"",""time""
""fullscreenenter"",""0"",""2324""
","
","310.09999990463257","","","","","","","","49","0,0,0","6","blank","315","null","0.41387499862405663","0.43183534091374376","0.1518019424893698","0","","","","","","","","",""
"","html-keyboard-response","192","529372","0.0-104.0-1.0","""event"",""trial"",""time""
""fullscreenenter"",""0"",""2324""
","
","
","""event"",""trial"",""time""
""fullscreenenter"",""0"",""2324""
","
","null","<p></p>","null","","","","","","","","","","","","","","","","","","","","","","","",""
"","do_recog","193","532850","0.0-105.0-0.0","""event"",""trial"",""time""
""fullscreenenter"",""0"",""2324""
","
","
","""event"",""trial"",""time""
""fullscreenenter"",""0"",""2324""
","
","1967.5","","","","","","","","56","","","","316","probe-82","","","","","1","[object Object]","156","3","0","","","",""
"","html-keyboard-response","194","533855","0.0-105.0-1.0","""event"",""trial"",""time""
""fullscreenenter"",""0"",""2324""
","
","
","""event"",""trial"",""time""
""fullscreenenter"",""0"",""2324""
","
","null","<p></p>","null","","","","","","","","","","","","","","","","","","","","","","","",""
"","do_trial","195","537258","0.0-106.0-0.0","""event"",""trial"",""time""
""fullscreenenter"",""0"",""2324""
","
","
","""event"",""trial"",""time""
""fullscreenenter"",""0"",""2324""
","
","850.7999997138977","","","","","","","","49","1,1,0","6","blank","317","null","0.566923055877761","0.34063347114491804","0.0661048565995168","1","","","","","","","","",""
"","html-keyboard-response","196","538263","0.0-106.0-1.0","""event"",""trial"",""time""
""fullscreenenter"",""0"",""2324""
","
","
","""event"",""trial"",""time""
""fullscreenenter"",""0"",""2324""
","
","null","<p></p>","null","","","","","","","","","","","","","","","","","","","","","","","",""
"","do_trial","197","541474","0.0-107.0-0.0","""event"",""trial"",""time""
""fullscreenenter"",""0"",""2324""
","
","
","""event"",""trial"",""time""
""fullscreenenter"",""0"",""2324""
","
","658.0999999046326","","","","","","","","49","1,0,0","6","blank","318","null","0.6656035763270454","0.2880032534244848","0.08463131322448296","1","","","","","","","","",""
"","html-keyboard-response","198","542481","0.0-107.0-1.0","""event"",""trial"",""time""
""fullscreenenter"",""0"",""2324""
","
","
","""event"",""trial"",""time""
""fullscreenenter"",""0"",""2324""
","
","null","<p></p>","null","","","","","","","","","","","","","","","","","","","","","","","",""
"","do_trial","199","545907","0.0-108.0-0.0","""event"",""trial"",""time""
""fullscreenenter"",""0"",""2324""
","
","
","""event"",""trial"",""time""
""fullscreenenter"",""0"",""2324""
","
","870","","","","","","","","49","1,1,0","6","blank","319","null","0.7780962960299967","0.1920288720839119","0.142370105323845","1","","","","","","","","",""
"","html-keyboard-response","200","546913","0.0-108.0-1.0","""event"",""trial"",""time""
""fullscreenenter"",""0"",""2324""
","
","
","""event"",""trial"",""time""
""fullscreenenter"",""0"",""2324""
","
","null","<p></p>","null","","","","","","","","","","","","","","","","","","","","","","","",""
"","do_trial","201","550065","0.0-109.0-0.0","""event"",""trial"",""time""
""fullscreenenter"",""0"",""2324""
","
","
","""event"",""trial"",""time""
""fullscreenenter"",""0"",""2324""
","
","597.8000001907349","","","","","","","","49","0,0,0","6","blank","320","null","0.7053389194160458","0.2096909003999626","0.2486230672680018","0","","","","","","","","",""
"","html-keyboard-response","202","551071","0.0-109.0-1.0","""event"",""trial"",""time""
""fullscreenenter"",""0"",""2324""
","
","
","""event"",""trial"",""time""
""fullscreenenter"",""0"",""2324""
","
","null","<p></p>","null","","","","","","","","","","","","","","","","","","","","","","","",""
"","do_trial","203","554170","0.0-110.0-0.0","""event"",""trial"",""time""
""fullscreenenter"",""0"",""2324""
","
","
","""event"",""trial"",""time""
""fullscreenenter"",""0"",""2324""
","
","548.4000000953674","","","","","","","","49","1,0,0","6","blank","321","null","0.6722013392693892","0.18134634700769106","0.060630295270452786","1","","","","","","","","",""
"","html-keyboard-response","204","555175","0.0-110.0-1.0","""event"",""trial"",""time""
""fullscreenenter"",""0"",""2324""
","
","
","""event"",""trial"",""time""
""fullscreenenter"",""0"",""2324""
","
","null","<p></p>","null","","","","","","","","","","","","","","","","","","","","","","","",""
"","do_recog","205","558053","0.0-111.0-0.0","""event"",""trial"",""time""
""fullscreenenter"",""0"",""2324""
","
","
","""event"",""trial"",""time""
""fullscreenenter"",""0"",""2324""
","
","1367","","","","","","","","53","","","","322","probe-62","","","","","1","[object Object]","198","4","1","","","",""
"","html-keyboard-response","206","559058","0.0-111.0-1.0","""event"",""trial"",""time""
""fullscreenenter"",""0"",""2324""
","
","
","""event"",""trial"",""time""
""fullscreenenter"",""0"",""2324""
","
","null","<p></p>","null","","","","","","","","","","","","","","","","","","","","","","","",""
"","do_trial","207","562370","0.0-112.0-0.0","""event"",""trial"",""time""
""fullscreenenter"",""0"",""2324""
","
","
","""event"",""trial"",""time""
""fullscreenenter"",""0"",""2324""
","
","760.2000002861023","","","","","","","","49","1,0,1","6","blank","323","null","0.6705532315840609","0.1915891131998787","0.20709003741944046","1","","","","","","","","",""
"","html-keyboard-response","208","563374","0.0-112.0-1.0","""event"",""trial"",""time""
""fullscreenenter"",""0"",""2324""
","
","
","""event"",""trial"",""time""
""fullscreenenter"",""0"",""2324""
","
","null","<p></p>","null","","","","","","","","","","","","","","","","","","","","","","","",""
"","do_recog","209","566695","0.0-113.0-0.0","""event"",""trial"",""time""
""fullscreenenter"",""0"",""2324""
","
","
","""event"",""trial"",""time""
""fullscreenenter"",""0"",""2324""
","
","1808.7999997138977","","","","","","","","55","","","","324","probe-147","","","","","1","[object Object]","191","4","0","","","",""
"","html-keyboard-response","210","567700","0.0-113.0-1.0","""event"",""trial"",""time""
""fullscreenenter"",""0"",""2324""
","
","
","""event"",""trial"",""time""
""fullscreenenter"",""0"",""2324""
","
","null","<p></p>","null","","","","","","","","","","","","","","","","","","","","","","","",""
"","do_trial","211","570820","0.0-114.0-0.0","""event"",""trial"",""time""
""fullscreenenter"",""0"",""2324""
","
","
","""event"",""trial"",""time""
""fullscreenenter"",""0"",""2324""
","
","568.4000000953674","","","","","","","","49","1,0,0","6","blank","325","null","0.5798800592131211","0.19208139542786185","0.19864387897695898","1","","","","","","","","",""
"","html-keyboard-response","212","571826","0.0-114.0-1.0","""event"",""trial"",""time""
""fullscreenenter"",""0"",""2324""
","
","
","""event"",""trial"",""time""
""fullscreenenter"",""0"",""2324""
","
","null","<p></p>","null","","","","","","","","","","","","","","","","","","","","","","","",""
"","do_trial","213","574838","0.0-115.0-0.0","""event"",""trial"",""time""
""fullscreenenter"",""0"",""2324""
","
","
","""event"",""trial"",""time""
""fullscreenenter"",""0"",""2324""
","
","461.7000002861023","","","","","","","","49","0,0,0","6","blank","326","null","0.5829025046615929","0.1773811700480732","0.18474300034555868","0","","","","","","","","",""
"","html-keyboard-response","214","575844","0.0-115.0-1.0","""event"",""trial"",""time""
""fullscreenenter"",""0"",""2324""
","
","
","""event"",""trial"",""time""
""fullscreenenter"",""0"",""2324""
","
","null","<p></p>","null","","","","","","","","","","","","","","","","","","","","","","","",""
"","do_recog","215","579435","0.0-116.0-0.0","""event"",""trial"",""time""
""fullscreenenter"",""0"",""2324""
","
","
","""event"",""trial"",""time""
""fullscreenenter"",""0"",""2324""
","
","2078.800000190735","","","","","","","","56","","","","327","probe-250","","","","","0","[object Object]","null","null","1","","","",""
"","html-keyboard-response","216","580442","0.0-116.0-1.0","""event"",""trial"",""time""
""fullscreenenter"",""0"",""2324""
","
","
","""event"",""trial"",""time""
""fullscreenenter"",""0"",""2324""
","
","null","<p></p>","null","","","","","","","","","","","","","","","","","","","","","","","",""
"","do_trial","217","583626","0.0-117.0-0.0","""event"",""trial"",""time""
""fullscreenenter"",""0"",""2324""
","
","
","""event"",""trial"",""time""
""fullscreenenter"",""0"",""2324""
","
","631.7999997138977","","","","","","","","49","1,0,0","6","blank","328","null","0.545336333737117","0.19044000730161187","0.25446568218591575","1","","","","","","","","",""
"","html-keyboard-response","218","584632","0.0-117.0-1.0","""event"",""trial"",""time""
""fullscreenenter"",""0"",""2324""
","
","
","""event"",""trial"",""time""
""fullscreenenter"",""0"",""2324""
","
","null","<p></p>","null","","","","","","","","","","","","","","","","","","","","","","","",""
"","do_recog","219","587995","0.0-118.0-0.0","""event"",""trial"",""time""
""fullscreenenter"",""0"",""2324""
","
","
","""event"",""trial"",""time""
""fullscreenenter"",""0"",""2324""
","
","1853","","","","","","","","55","","","","329","probe-114","","","","","1","[object Object]","159","3","0","","","",""
"","html-keyboard-response","220","589000","0.0-118.0-1.0","""event"",""trial"",""time""
""fullscreenenter"",""0"",""2324""
","
","
","""event"",""trial"",""time""
""fullscreenenter"",""0"",""2324""
","
","null","<p></p>","null","","","","","","","","","","","","","","","","","","","","","","","",""
"","do_trial","221","592447","0.0-119.0-0.0","""event"",""trial"",""time""
""fullscreenenter"",""0"",""2324""
","
","
","""event"",""trial"",""time""
""fullscreenenter"",""0"",""2324""
","
","889.9000000953674","","","","","","","","49","0,0,1","6","blank","330","null","0.5235102017337444","0.21653736320555866","0.12497022290629914","0","","","","","","","","",""
"","html-keyboard-response","222","593453","0.0-119.0-1.0","""event"",""trial"",""time""
""fullscreenenter"",""0"",""2324""
","
","
","""event"",""trial"",""time""
""fullscreenenter"",""0"",""2324""
","
","null","<p></p>","null","","","","","","","","","","","","","","","","","","","","","","","",""
"","do_trial","223","596665","0.0-120.0-0.0","""event"",""trial"",""time""
""fullscreenenter"",""0"",""2324""
","
","
","""event"",""trial"",""time""
""fullscreenenter"",""0"",""2324""
","
","656.5","","","","","","","","49","1,0,0","6","blank","331","null","0.5025771900362173","0.23239959646056002","0.19198392854816593","1","","","","","","","","",""
"","html-keyboard-response","224","597671","0.0-120.0-1.0","""event"",""trial"",""time""
""fullscreenenter"",""0"",""2324""
","
","
","""event"",""trial"",""time""
""fullscreenenter"",""0"",""2324""
","
","null","<p></p>","null","","","","","","","","","","","","","","","","","","","","","","","",""
"","do_trial","225","600836","0.0-121.0-0.0","""event"",""trial"",""time""
""fullscreenenter"",""0"",""2324""
","
","
","""event"",""trial"",""time""
""fullscreenenter"",""0"",""2324""
","
","613","","","","","","","","49","0,0,0","6","blank","332","null","0.46161582509570104","0.33005491247826607","0.0762060070504535","0","","","","","","","","",""
"","html-keyboard-response","226","601845","0.0-121.0-1.0","""event"",""trial"",""time""
""fullscreenenter"",""0"",""2324""
","
","
","""event"",""trial"",""time""
""fullscreenenter"",""0"",""2324""
","
","null","<p></p>","null","","","","","","","","","","","","","","","","","","","","","","","",""
"","do_trial","227","605132","0.0-122.0-0.0","""event"",""trial"",""time""
""fullscreenenter"",""0"",""2324""
","
","
","""event"",""trial"",""time""
""fullscreenenter"",""0"",""2324""
","
","731.4000000953674","","","","","","","","50","1,0,0","6","blank","333","null","0.5456844724254815","0.2462870557622334","0.13537088117169513","0","","","","","","","","",""
"","html-keyboard-response","228","606138","0.0-122.0-1.0","""event"",""trial"",""time""
""fullscreenenter"",""0"",""2324""
","
","
","""event"",""trial"",""time""
""fullscreenenter"",""0"",""2324""
","
","null","<p></p>","null","","","","","","","","","","","","","","","","","","","","","","","",""
"","do_trial","229","609311","0.0-123.0-0.0","""event"",""trial"",""time""
""fullscreenenter"",""0"",""2324""
","
","
","""event"",""trial"",""time""
""fullscreenenter"",""0"",""2324""
","
","618.5999999046326","","","","","","","","51","0,0,0","6","blank","334","null","0.5105006667820586","0.12533780305435782","0.050630935888422254","0","","","","","","","","",""
"","html-keyboard-response","230","610316","0.0-123.0-1.0","""event"",""trial"",""time""
""fullscreenenter"",""0"",""2324""
","
","
","""event"",""trial"",""time""
""fullscreenenter"",""0"",""2324""
","
","null","<p></p>","null","","","","","","","","","","","","","","","","","","","","","","","",""
"","do_trial","231","613173","0.0-124.0-0.0","""event"",""trial"",""time""
""fullscreenenter"",""0"",""2324""
","
","
","""event"",""trial"",""time""
""fullscreenenter"",""0"",""2324""
","
","305.8999996185303","","","","","","","","49","0,0,0","6","blank","335","null","0.5492166743808775","0.16602586859483826","0.18814710061363898","0","","","","","","","","",""
"","html-keyboard-response","232","614177","0.0-124.0-1.0","""event"",""trial"",""time""
""fullscreenenter"",""0"",""2324""
","
","
","""event"",""trial"",""time""
""fullscreenenter"",""0"",""2324""
","
","null","<p></p>","null","","","","","","","","","","","","","","","","","","","","","","","",""
"","do_trial","233","617085","0.0-125.0-0.0","""event"",""trial"",""time""
""fullscreenenter"",""0"",""2324""
","
","
","""event"",""trial"",""time""
""fullscreenenter"",""0"",""2324""
","
","353.2999997138977","","","","","","","","49","1,0,0","6","blank","336","null","0.5158822842344702","0.25465415726319035","0.08731856525622941","1","","","","","","","","",""
"","html-keyboard-response","234","618091","0.0-125.0-1.0","""event"",""trial"",""time""
""fullscreenenter"",""0"",""2324""
","
","
","""event"",""trial"",""time""
""fullscreenenter"",""0"",""2324""
","
","null","<p></p>","null","","","","","","","","","","","","","","","","","","","","","","","",""
"","do_recog","235","621360","0.0-126.0-0.0","""event"",""trial"",""time""
""fullscreenenter"",""0"",""2324""
","
","
","""event"",""trial"",""time""
""fullscreenenter"",""0"",""2324""
","
","1760.3000001907349","","","","","","","","53","","","","337","probe-127","","","","","1","[object Object]","114","2","1","","","",""
"","html-keyboard-response","236","622374","0.0-126.0-1.0","""event"",""trial"",""time""
""fullscreenenter"",""0"",""2324""
","
","
","""event"",""trial"",""time""
""fullscreenenter"",""0"",""2324""
","
","null","<p></p>","null","","","","","","","","","","","","","","","","","","","","","","","",""
"","do_trial","237","625445","0.0-127.0-0.0","""event"",""trial"",""time""
""fullscreenenter"",""0"",""2324""
","
","
","""event"",""trial"",""time""
""fullscreenenter"",""0"",""2324""
","
","519.5","","","","","","","","49","0,0,0","6","blank","338","null","0.3485094931545691","0.2089604934953732","0.06202080371125788","0","","","","","","","","",""
"","html-keyboard-response","238","626465","0.0-127.0-1.0","""event"",""trial"",""time""
""fullscreenenter"",""0"",""2324""
","
","
","""event"",""trial"",""time""
""fullscreenenter"",""0"",""2324""
","
","null","<p></p>","null","","","","","","","","","","","","","","","","","","","","","","","",""
"","do_recog","239","629587","0.0-128.0-0.0","""event"",""trial"",""time""
""fullscreenenter"",""0"",""2324""
","
","
","""event"",""trial"",""time""
""fullscreenenter"",""0"",""2324""
","
","1612.6999998092651","","","","","","","","56","","","","339","probe-171","","","","","1","[object Object]","111","2","0","","","",""
"","html-keyboard-response","240","630591","0.0-128.0-1.0","""event"",""trial"",""time""
""fullscreenenter"",""0"",""2324""
","
","
","""event"",""trial"",""time""
""fullscreenenter"",""0"",""2324""
","
","null","<p></p>","null","","","","","","","","","","","","","","","","","","","","","","","",""
"","do_trial","241","633639","0.0-129.0-0.0","""event"",""trial"",""time""
""fullscreenenter"",""0"",""2324""
","
","
","""event"",""trial"",""time""
""fullscreenenter"",""0"",""2324""
","
","498.2999997138977","","","","","","","","49","1,0,0","6","blank","340","null","0.442533069023677","0.31530537652226975","0.14185324646971578","1","","","","","","","","",""
"","html-keyboard-response","242","634645","0.0-129.0-1.0","""event"",""trial"",""time""
""fullscreenenter"",""0"",""2324""
","
","
","""event"",""trial"",""time""
""fullscreenenter"",""0"",""2324""
","
","null","<p></p>","null","","","","","","","","","","","","","","","","","","","","","","","",""
"","do_trial","243","637676","0.0-130.0-0.0","""event"",""trial"",""time""
""fullscreenenter"",""0"",""2324""
","
","
","""event"",""trial"",""time""
""fullscreenenter"",""0"",""2324""
","
","478","","","","","","","","49","0,0,1","6","blank","341","null","0.48593284030289413","0.4123696888758544","0.19855545491552307","0","","","","","","","","",""
"","html-keyboard-response","244","638681","0.0-130.0-1.0","""event"",""trial"",""time""
""fullscreenenter"",""0"",""2324""
","
","
","""event"",""trial"",""time""
""fullscreenenter"",""0"",""2324""
","
","null","<p></p>","null","","","","","","","","","","","","","","","","","","","","","","","",""
"","do_trial","245","641534","0.0-131.0-0.0","""event"",""trial"",""time""
""fullscreenenter"",""0"",""2324""
","
","
","""event"",""trial"",""time""
""fullscreenenter"",""0"",""2324""
","
","302.30000019073486","","","","","","","","49","0,0,0","6","blank","342","null","0.5082537679897127","0.39687035965035605","0.1915407707394365","0","","","","","","","","",""
"","html-keyboard-response","246","642539","0.0-131.0-1.0","""event"",""trial"",""time""
""fullscreenenter"",""0"",""2324""
","
","
","""event"",""trial"",""time""
""fullscreenenter"",""0"",""2324""
","
","null","<p></p>","null","","","","","","","","","","","","","","","","","","","","","","","",""
"","do_trial","247","645761","0.0-132.0-0.0","""event"",""trial"",""time""
""fullscreenenter"",""0"",""2324""
","
","
","""event"",""trial"",""time""
""fullscreenenter"",""0"",""2324""
","
","673.2000002861023","","","","","","","","49","1,0,0","6","blank","343","null","0.6322947502865087","0.30654938031861445","0.2628002817769751","1","","","","","","","","",""
"","html-keyboard-response","248","646767","0.0-132.0-1.0","""event"",""trial"",""time""
""fullscreenenter"",""0"",""2324""
","
","
","""event"",""trial"",""time""
""fullscreenenter"",""0"",""2324""
","
","null","<p></p>","null","","","","","","","","","","","","","","","","","","","","","","","",""
"","do_trial","249","650197","0.0-133.0-0.0","""event"",""trial"",""time""
""fullscreenenter"",""0"",""2324""
","
","
","""event"",""trial"",""time""
""fullscreenenter"",""0"",""2324""
","
","876.4000000953674","","","","","","","","49","0,0,0","6","blank","344","null","0.5965259205165756","0.49349846831733685","0.17893690024597736","0","","","","","","","","",""
"","html-keyboard-response","250","651203","0.0-133.0-1.0","""event"",""trial"",""time""
""fullscreenenter"",""0"",""2324""
","
","
","""event"",""trial"",""time""
""fullscreenenter"",""0"",""2324""
","
","null","<p></p>","null","","","","","","","","","","","","","","","","","","","","","","","",""
"","do_recog","251","654823","0.0-134.0-0.0","""event"",""trial"",""time""
""fullscreenenter"",""0"",""2324""
","
","
","""event"",""trial"",""time""
""fullscreenenter"",""0"",""2324""
","
","2108.9000000953674","","","","","","","","54","","","","345","probe-206","","","","","1","[object Object]","195","4","1","","","",""
"","html-keyboard-response","252","655827","0.0-134.0-1.0","""event"",""trial"",""time""
""fullscreenenter"",""0"",""2324""
","
","
","""event"",""trial"",""time""
""fullscreenenter"",""0"",""2324""
","
","null","<p></p>","null","","","","","","","","","","","","","","","","","","","","","","","",""
"","do_trial","253","659512","0.0-135.0-0.0","""event"",""trial"",""time""
""fullscreenenter"",""0"",""2324""
","
","
","""event"",""trial"",""time""
""fullscreenenter"",""0"",""2324""
","
","1130.4000000953674","","","","","","","","49","0,1,0","6","blank","346","null","0.6027765266827488","0.556686264316461","0.16029189483601655","0","","","","","","","","",""
"","html-keyboard-response","254","660517","0.0-135.0-1.0","""event"",""trial"",""time""
""fullscreenenter"",""0"",""2324""
","
","
","""event"",""trial"",""time""
""fullscreenenter"",""0"",""2324""
","
","null","<p></p>","null","","","","","","","","","","","","","","","","","","","","","","","",""
"","do_trial","255","663543","0.0-136.0-0.0","""event"",""trial"",""time""
""fullscreenenter"",""0"",""2324""
","
","
","""event"",""trial"",""time""
""fullscreenenter"",""0"",""2324""
","
","474.69999980926514","","","","","","","","49","1,0,0","6","blank","347","null","0.5572697542807559","0.40174263332127136","0.13580269527427744","1","","","","","","","","",""
"","html-keyboard-response","256","664548","0.0-136.0-1.0","""event"",""trial"",""time""
""fullscreenenter"",""0"",""2324""
","
","
","""event"",""trial"",""time""
""fullscreenenter"",""0"",""2324""
","
","null","<p></p>","null","","","","","","","","","","","","","","","","","","","","","","","",""
"","do_trial","257","667594","0.0-137.0-0.0","""event"",""trial"",""time""
""fullscreenenter"",""0"",""2324""
","
","
","""event"",""trial"",""time""
""fullscreenenter"",""0"",""2324""
","
","493.40000009536743","","","","","","","","49","0,1,0","6","blank","348","null","0.499054693670097","0.42384067499980715","0.18670611816285615","0","","","","","","","","",""
"","html-keyboard-response","258","668600","0.0-137.0-1.0","""event"",""trial"",""time""
""fullscreenenter"",""0"",""2324""
","
","
","""event"",""trial"",""time""
""fullscreenenter"",""0"",""2324""
","
","null","<p></p>","null","","","","","","","","","","","","","","","","","","","","","","","",""
"","break","259","674075","0.0-138.0-0.0","""event"",""trial"",""time""
""fullscreenenter"",""0"",""2324""
","
","
","""event"",""trial"",""time""
""fullscreenenter"",""0"",""2324""
","
","5464.299999713898","<div class='center'><p>Time to take a quick break! You have 2 minutes to rest, but you can move on sooner if you'd like.</p><p> Press the <b>space bar</b> to continue.</p></div>","32","","","","","","","","","","","","","","","","","","","","","","","",""
"","do_trial","260","677414","0.0-138.0-1.0","""event"",""trial"",""time""
""fullscreenenter"",""0"",""2324""
","
","
","""event"",""trial"",""time""
""fullscreenenter"",""0"",""2324""
","
","788.7999997138977","","","","","","","","49","1,1,0","6","blank","349","null","0.5594486266204699","0.4244970132400663","0.11243410467741567","1","","","","","","","","",""
"","html-keyboard-response","261","678420","0.0-138.0-2.0","""event"",""trial"",""time""
""fullscreenenter"",""0"",""2324""
","
","
","""event"",""trial"",""time""
""fullscreenenter"",""0"",""2324""
","
","null","<p></p>","null","","","","","","","","","","","","","","","","","","","","","","","",""
"","do_trial","262","681446","0.0-139.0-0.0","""event"",""trial"",""time""
""fullscreenenter"",""0"",""2324""
","
","
","""event"",""trial"",""time""
""fullscreenenter"",""0"",""2324""
","
","474","","","","","","","","49","1,0,1","6","blank","350","null","0.5054715482929184","0.2379467693976889","0.21093655084632382","1","","","","","","","","",""
"","html-keyboard-response","263","682450","0.0-139.0-1.0","""event"",""trial"",""time""
""fullscreenenter"",""0"",""2324""
","
","
","""event"",""trial"",""time""
""fullscreenenter"",""0"",""2324""
","
","null","<p></p>","null","","","","","","","","","","","","","","","","","","","","","","","",""
"","do_trial","264","685504","0.0-140.0-0.0","""event"",""trial"",""time""
""fullscreenenter"",""0"",""2324""
","
","
","""event"",""trial"",""time""
""fullscreenenter"",""0"",""2324""
","
","498.2000002861023","","","","","","","","49","1,0,0","6","blank","351","null","0.5618958405938687","0.21513798352505611","0.3968661679114673","1","","","","","","","","",""
"","html-keyboard-response","265","686510","0.0-140.0-1.0","""event"",""trial"",""time""
""fullscreenenter"",""0"",""2324""
","
","
","""event"",""trial"",""time""
""fullscreenenter"",""0"",""2324""
","
","null","<p></p>","null","","","","","","","","","","","","","","","","","","","","","","","",""
"","do_recog","266","689363","0.0-141.0-0.0","""event"",""trial"",""time""
""fullscreenenter"",""0"",""2324""
","
","
","""event"",""trial"",""time""
""fullscreenenter"",""0"",""2324""
","
","1344.0999999046326","","","","","","","","53","","","","352","probe-09","","","","","1","[object Object]","70","1","1","","","",""
"","html-keyboard-response","267","690368","0.0-141.0-1.0","""event"",""trial"",""time""
""fullscreenenter"",""0"",""2324""
","
","
","""event"",""trial"",""time""
""fullscreenenter"",""0"",""2324""
","
","null","<p></p>","null","","","","","","","","","","","","","","","","","","","","","","","",""
"","do_trial","268","693449","0.0-142.0-0.0","""event"",""trial"",""time""
""fullscreenenter"",""0"",""2324""
","
","
","""event"",""trial"",""time""
""fullscreenenter"",""0"",""2324""
","
","530.7000002861023","","","","","","","","49","1,0,1","6","blank","353","null","0.562518004976442","0.19946762161249518","0.524879059283623","1","","","","","","","","",""
"","html-keyboard-response","269","694454","0.0-142.0-1.0","""event"",""trial"",""time""
""fullscreenenter"",""0"",""2324""
","
","
","""event"",""trial"",""time""
""fullscreenenter"",""0"",""2324""
","
","null","<p></p>","null","","","","","","","","","","","","","","","","","","","","","","","",""
"","do_trial","270","697441","0.0-143.0-0.0","""event"",""trial"",""time""
""fullscreenenter"",""0"",""2324""
","
","
","""event"",""trial"",""time""
""fullscreenenter"",""0"",""2324""
","
","432.5","","","","","","","","49","1,0,0","6","blank","354","null","0.3960252916597623","0.22791706583067325","0.4462823067704397","1","","","","","","","","",""
"","html-keyboard-response","271","698447","0.0-143.0-1.0","""event"",""trial"",""time""
""fullscreenenter"",""0"",""2324""
","
","
","""event"",""trial"",""time""
""fullscreenenter"",""0"",""2324""
","
","null","<p></p>","null","","","","","","","","","","","","","","","","","","","","","","","",""
"","do_trial","272","701541","0.0-144.0-0.0","""event"",""trial"",""time""
""fullscreenenter"",""0"",""2324""
","
","
","""event"",""trial"",""time""
""fullscreenenter"",""0"",""2324""
","
","540.7999997138977","","","","","","","","49","0,0,0","6","blank","355","null","0.34133456994681405","0.169601164931514","0.5588106935134737","0","","","","","","","","",""
"","html-keyboard-response","273","702547","0.0-144.0-1.0","""event"",""trial"",""time""
""fullscreenenter"",""0"",""2324""
","
","
","""event"",""trial"",""time""
""fullscreenenter"",""0"",""2324""
","
","null","<p></p>","null","","","","","","","","","","","","","","","","","","","","","","","",""
"","do_trial","274","705532","0.0-145.0-0.0","""event"",""trial"",""time""
""fullscreenenter"",""0"",""2324""
","
","
","""event"",""trial"",""time""
""fullscreenenter"",""0"",""2324""
","
","430.19999980926514","","","","","","","","49","0,0,1","6","blank","356","null","0.23915463455035516","0.09183226683334082","0.650887826018019","0","","","","","","","","",""
"","html-keyboard-response","275","706537","0.0-145.0-1.0","""event"",""trial"",""time""
""fullscreenenter"",""0"",""2324""
","
","
","""event"",""trial"",""time""
""fullscreenenter"",""0"",""2324""
","
","null","<p></p>","null","","","","","","","","","","","","","","","","","","","","","","","",""
"","do_trial","276","709403","0.0-146.0-0.0","""event"",""trial"",""time""
""fullscreenenter"",""0"",""2324""
","
","
","""event"",""trial"",""time""
""fullscreenenter"",""0"",""2324""
","
","310.80000019073486","","","","","","","","49","1,0,0","6","blank","357","null","0.3830739792634107","0.19984841514282664","0.5803891620989041","1","","","","","","","","",""
"","html-keyboard-response","277","710409","0.0-146.0-1.0","""event"",""trial"",""time""
""fullscreenenter"",""0"",""2324""
","
","
