"success","trial_type","trial_index","time_elapsed","internal_node_id","interactions","blur_events","focus_events","fullscreenenter_events","fullscreenexit_events","rt","stimulus","key_press","subject_id","participant_id","age","gender","prompt","response","choice_outcomes","context_n","context_img_id","trial_n","probe_img_id","pR_red","pR_white","pR_black","outcome","is_valid","image_to_show","probed_trial","probed_context","correct","probe","probed_trial_n","probed_context_n","context_im"
"true","fullscreen","0","15763","0.0-0.0","""event"",""trial"",""time""
""fullscreenenter"",""0"",""14788""
","
","
","""event"",""trial"",""time""
""fullscreenenter"",""0"",""14788""
","
","","","","","","","","","","","","","","","","","","","","","","","","","","",""
"","pavlovia","1","15773","0.0-1.0","""event"",""trial"",""time""
""fullscreenenter"",""0"",""14788""
","
","
","""event"",""trial"",""time""
""fullscreenenter"",""0"",""14788""
","
","","","","","","","","","","","","","","","","","","","","","","","","","","",""
"","welc_back","2","25677","0.0-2.0","""event"",""trial"",""time""
""fullscreenenter"",""0"",""14788""
","
","
","""event"",""trial"",""time""
""fullscreenenter"",""0"",""14788""
","
","null","run_exp/static/audio/clip_29_welcome_back.m4a","null","1478","1403","8","Female","<div class='center'><p>Welcome to day 2!</p><p> Yesterday, you were the head captain of a pirate ship. You asked your fellow pirates to rob other ships of their gold across six different islands.</p></div>","","","","","","","","","","","","","","","","","","",""
"","html-keyboard-response","3","27621","0.0-3.0","""event"",""trial"",""time""
""fullscreenenter"",""0"",""14788""
","
","
","""event"",""trial"",""time""
""fullscreenenter"",""0"",""14788""
","
","1932.300000011921","<div class='center'><p>Welcome to day 2!</p><p> Yesterday, you were the head captain of a pirate ship. You asked your fellow pirates to rob other ships of their gold across six different islands.</p><p><b>[Press the space bar to continue]</b></p></div>","32","","","","","","","","","","","","","","","","","","","","","","","",""
"","day_1_summary_goal","4","44832","0.0-4.0","""event"",""trial"",""time""
""fullscreenenter"",""0"",""14788""
","
","
","""event"",""trial"",""time""
""fullscreenenter"",""0"",""14788""
","
","null","run_exp/static/audio/clip_30_goal_of_game.m4a","null","","","","","<div class='center'><p>Today, like yesterday, you get to pick which pirate you want to rob the next ship.</p><p>If the pirate is successful in robbing a ship, you get gold coins that look like this: </p><p><img src='run_exp/static/images/tutorial/reward.png' height='150'></p><p> If they were not successful in robbing the ship, then you will get no gold coins and you'll see a big red x like this: </p><p><img src='run_exp/static/images/tutorial/reward_no.png' height='150'></p></div>","","","","","","","","","","","","","","","","","","",""
"","html-keyboard-response","5","46612","0.0-5.0","""event"",""trial"",""time""
""fullscreenenter"",""0"",""14788""
","
","
","""event"",""trial"",""time""
""fullscreenenter"",""0"",""14788""
","
","1774.5","<div class='center'><p>Today, like yesterday, you get to pick which pirate you want to rob the next ship.</p><p>If the pirate is successful in robbing a ship, you get gold coins that look like this: </p><p><img src='run_exp/static/images/tutorial/reward.png' height='150'></p><p> If they were not successful in robbing the ship, then you will get no gold coins and you'll see a big red x like this: </p><p><img src='run_exp/static/images/tutorial/reward_no.png' height='150'></p><p><b>[Press the space bar to continue]</b></p></div>","32","","","","","","","","","","","","","","","","","","","","","","","",""
"","day_1_summary_pick","6","61309","0.0-6.0","""event"",""trial"",""time""
""fullscreenenter"",""0"",""14788""
","
","
","""event"",""trial"",""time""
""fullscreenenter"",""0"",""14788""
","
","null","run_exp/static/audio/clip_31_how_to_pick_a_pirate.m4a","null","","","","","<div class='center'><p>Also, just like yesterday, you will use the 1,2,3 keys on your keyboard to pick a pirate. Press '1' to choose red beard, '2' to choose white beard, and '3' to choose black beard . You only have 3 seconds to pick a pirate, so please make a choice quickly!</p></div>","","","","","","","","","","","","","","","","","","",""
"","html-keyboard-response","7","61967","0.0-7.0","""event"",""trial"",""time""
""fullscreenenter"",""0"",""14788""
","
","
","""event"",""trial"",""time""
""fullscreenenter"",""0"",""14788""
","
","656.1999999880791","<div class='center'><p>Also, just like yesterday, you will use the 1,2,3 keys on your keyboard to pick a pirate. Press '1' to choose red beard, '2' to choose white beard, and '3' to choose black beard . You only have 3 seconds to pick a pirate, so please make a choice quickly!</p><p><b>[Press the space bar to continue]</b></p></div>","32","","","","","","","","","","","","","","","","","","","","","","","",""
"","test_phase_begin","8","92367","0.0-8.0","""event"",""trial"",""time""
""fullscreenenter"",""0"",""14788""
","
","
","""event"",""trial"",""time""
""fullscreenenter"",""0"",""14788""
","
","null","run_exp/static/audio/clip_32_final_place.m4a","null","","","","","<div class='center'><p>You’ve arrived at the final island of your journey! Unfortunately, it’s very foggy out, so you won’t be able to see it in the distance like the other islands you've visited.</p><p>You’ll still be deciding which pirate you want to rob a ship like before. However, because of the fog, you also won’t be able to see the ship.</p><p>This means you do not have to remember the ships you rob on this island.</p><p>Unlike yesterday, you won't be visiting multiple islands today. You will stay on this island for the entire game. This game will last ~30 minutes.</p></div>","","","","","","","","","","","","","","","","","","",""
"","html-keyboard-response","9","93173","0.0-9.0","""event"",""trial"",""time""
""fullscreenenter"",""0"",""14788""
","
","
","""event"",""trial"",""time""
""fullscreenenter"",""0"",""14788""
","
","804.3000000119209","<div class='center'><p>You’ve arrived at the final island of your journey! Unfortunately, it’s very foggy out, so you won’t be able to see it in the distance like the other islands you've visited.</p><p>You’ll still be deciding which pirate you want to rob a ship like before. However, because of the fog, you also won’t be able to see the ship.</p><p>This means you do not have to remember the ships you rob on this island.</p><p>Unlike yesterday, you won't be visiting multiple islands today. You will stay on this island for the entire game. This game will last ~30 minutes.</p><p><b>[Press the space bar to continue]</b></p></div>","32","","","","","","","","","","","","","","","","","","","","","","","",""
"","explain_probe_1","10","100889","0.0-10.0","""event"",""trial"",""time""
""fullscreenenter"",""0"",""14788""
","
","
","""event"",""trial"",""time""
""fullscreenenter"",""0"",""14788""
","
","null","run_exp/static/audio/clip_33_recognition_1.m4a","null","","","","","<div class='center'><p> Sometimes you’ll be shown a ship, and you will be asked if you saw this ship on a past island.</p><p> Here is an example of what you will see.</p><p><img src='run_exp/static/images/tutorial/example_recog_trial.png' height='500'></p></div>","","","","","","","","","","","","","","","","","","",""
"","html-keyboard-response","11","108168","0.0-11.0","""event"",""trial"",""time""
""fullscreenenter"",""0"",""14788""
","
","
","""event"",""trial"",""time""
""fullscreenenter"",""0"",""14788""
","
","7275.199999988079","<div class='center'><p> Sometimes you’ll be shown a ship, and you will be asked if you saw this ship on a past island.</p><p> Here is an example of what you will see.</p><p><img src='run_exp/static/images/tutorial/example_recog_trial.png' height='500'></p><p><b>[Press the space bar to continue]</b></p></div>","32","","","","","","","","","","","","","","","","","","","","","","","",""
"","explain_probe_2","12","129889","0.0-12.0","""event"",""trial"",""time""
""fullscreenenter"",""0"",""14788""
","
","
","""event"",""trial"",""time""
""fullscreenenter"",""0"",""14788""
","
","null","run_exp/static/audio/clip_34_recognition_2.m4a","null","","","","","<div class='center'><p> You will press the 5, 6, 7, 8 keys on your keyboard to respond.</p><p>If you are sure you saw the ship, press <b>5</b> on your keyboard.</p><p> If you think you saw it before but aren't sure, then press <b>6</b>.</p><p> If you think you have <b>not</b> seen it before but aren't sure, then press <b>7</b>.</p><p> If you are sure you did <b>not</b> see the ship before, then press <b>8</b>.</p><p><img src='run_exp/static/images/tutorial/example_recog_trial.png' height='500'></p></div>","","","","","","","","","","","","","","","","","","",""
"","html-keyboard-response","13","130358","0.0-13.0","""event"",""trial"",""time""
""fullscreenenter"",""0"",""14788""
","
","
","""event"",""trial"",""time""
""fullscreenenter"",""0"",""14788""
","
","465","<div class='center'><p> You will press the 5, 6, 7, 8 keys on your keyboard to respond.</p><p>If you are sure you saw the ship, press <b>5</b> on your keyboard.</p><p> If you think you saw it before but aren't sure, then press <b>6</b>.</p><p> If you think you have <b>not</b> seen it before but aren't sure, then press <b>7</b>.</p><p> If you are sure you did <b>not</b> see the ship before, then press <b>8</b>.</p><p><img src='run_exp/static/images/tutorial/example_recog_trial.png' height='500'></p><p><b>[Press the space bar to continue]</b></p></div>","32","","","","","","","","","","","","","","","","","","","","","","","",""
"","explain_outcome","14","147566","0.0-14.0","""event"",""trial"",""time""
""fullscreenenter"",""0"",""14788""
","
","
","""event"",""trial"",""time""
""fullscreenenter"",""0"",""14788""
","
","null","run_exp/static/audio/clip_35_recognition_3.m4a","null","","","","","<div class='center'><p> If you remember correctly, then you’ll get a gold coin like this: </p><p><img src='run_exp/static/images/tutorial/reward_small.png' height='200'></p><p>If you do not remember correctly, then you'll see a red x like this: </p><p><img src='run_exp/static/images/tutorial/reward_no.png' height='200'></p><p>Importantly, when you are shown a ship, take the time to remind yourself which island you saw it on. This will help you in the next part of the study.</p></div>","","","","","","","","","","","","","","","","","","",""
"","html-keyboard-response","15","148248","0.0-15.0","""event"",""trial"",""time""
""fullscreenenter"",""0"",""14788""
","
","
","""event"",""trial"",""time""
""fullscreenenter"",""0"",""14788""
","
","679.5999999642372","<div class='center'><p> If you remember correctly, then you’ll get a gold coin like this: </p><p><img src='run_exp/static/images/tutorial/reward_small.png' height='200'></p><p>If you do not remember correctly, then you'll see a red x like this: </p><p><img src='run_exp/static/images/tutorial/reward_no.png' height='200'></p><p>Importantly, when you are shown a ship, take the time to remind yourself which island you saw it on. This will help you in the next part of the study.</p><p><b>[Press the space bar to continue]</b></p></div>","32","","","","","","","","","","","","","","","","","","","","","","","",""
"","begin_test_phase","16","164047","0.0-16.0","""event"",""trial"",""time""
""fullscreenenter"",""0"",""14788""
","
","
","""event"",""trial"",""time""
""fullscreenenter"",""0"",""14788""
","
","null","run_exp/static/audio/clip_36_begin_final.m4a","null","","","","","<div class='center'><p>Let's go over the important points again. Your job is to: </p><p>1. Pick the pirate who is best at robbing ships and will bring you back gold coins. </p><p>2. Correctly remember whether or not you saw a ship before. If you did see the ship before, remind yourself on which island you saw it. </p></div>","","","","","","","","","","","","","","","","","","",""
"","html-keyboard-response","17","164762","0.0-17.0","""event"",""trial"",""time""
""fullscreenenter"",""0"",""14788""
","
","
","""event"",""trial"",""time""
""fullscreenenter"",""0"",""14788""
","
","665.6999999880791","<div class='center'><p>Let's go over the important points again. Your job is to: </p><p>1. Pick the pirate who is best at robbing ships and will bring you back gold coins. </p><p>2. Correctly remember whether or not you saw a ship before. If you did see the ship before, remind yourself on which island you saw it. </p><p><b>[Press the space bar to continue]</b></p></div>","32","","","","","","","","","","","","","","","","","","","","","","","",""
"","do_welcome","18","168786","0.0-18.0","""event"",""trial"",""time""
""fullscreenenter"",""0"",""14788""
","
","
","""event"",""trial"",""time""
""fullscreenenter"",""0"",""14788""
","
","null","","","","","","","","null","","","","","","","","","","","","","","","","","",""
"","do_trial","19","174871","0.0-19.0-0.0","""event"",""trial"",""time""
""fullscreenenter"",""0"",""14788""
","
","
","""event"",""trial"",""time""
""fullscreenenter"",""0"",""14788""
","
","null","","","","","","","","null","1,1,0","6","blank","230","null","0.5945172759406419","0.24067918612688807","0.2152557930398666","","","","","","","","","",""
"","html-keyboard-response","20","175887","0.0-19.0-1.0","""event"",""trial"",""time""
""fullscreenenter"",""0"",""14788""
","
","
","""event"",""trial"",""time""
""fullscreenenter"",""0"",""14788""
","
","null","<p></p>","null","","","","","","","","","","","","","","","","","","","","","","","",""
"","do_trial","21","179496","0.0-20.0-0.0","""event"",""trial"",""time""
""fullscreenenter"",""0"",""14788""
","
","
","""event"",""trial"",""time""
""fullscreenenter"",""0"",""14788""
","
","1022.0999999642372","","","","","","","","49","1,1,0","6","blank","231","null","0.5301621522458309","0.28619899837720647","0.16892852167904635","1","","","","","","","","",""
"","html-keyboard-response","22","180501","0.0-20.0-1.0","""event"",""trial"",""time""
""fullscreenenter"",""0"",""14788""
","
","
","""event"",""trial"",""time""
""fullscreenenter"",""0"",""14788""
","
","null","<p></p>","null","","","","","","","","","","","","","","","","","","","","","","","",""
"","do_trial","23","184008","0.0-21.0-0.0","""event"",""trial"",""time""
""fullscreenenter"",""0"",""14788""
","
","
","""event"",""trial"",""time""
""fullscreenenter"",""0"",""14788""
","
","949.8999999761581","","","","","","","","51","1,0,0","6","blank","232","null","0.581472694143305","0.37899982343650435","0.0805352825340009","0","","","","","","","","",""
"","html-keyboard-response","24","185011","0.0-21.0-1.0","""event"",""trial"",""time""
""fullscreenenter"",""0"",""14788""
","
","
","""event"",""trial"",""time""
""fullscreenenter"",""0"",""14788""
","
","null","<p></p>","null","","","","","","","","","","","","","","","","","","","","","","","",""
"","do_trial","25","188156","0.0-22.0-0.0","""event"",""trial"",""time""
""fullscreenenter"",""0"",""14788""
","
","
","""event"",""trial"",""time""
""fullscreenenter"",""0"",""14788""
","
","558.0999999642372","","","","","","","","50","1,1,0","6","blank","233","null","0.4571221369400712","0.41568809705047527","0.14803866218636266","1","","","","","","","","",""
"","html-keyboard-response","26","189173","0.0-22.0-1.0","""event"",""trial"",""time""
""fullscreenenter"",""0"",""14788""
","
","
","""event"",""trial"",""time""
""fullscreenenter"",""0"",""14788""
","
","null","<p></p>","null","","","","","","","","","","","","","","","","","","","","","","","",""
"","do_trial","27","192530","0.0-23.0-0.0","""event"",""trial"",""time""
""fullscreenenter"",""0"",""14788""
","
","
","""event"",""trial"",""time""
""fullscreenenter"",""0"",""14788""
","
","783.6000000238419","","","","","","","","49","0,0,0","6","blank","234","null","0.607946168919409","0.37887184768705245","0.2427792197003972","0","","","","","","","","",""
"","html-keyboard-response","28","193532","0.0-23.0-1.0","""event"",""trial"",""time""
""fullscreenenter"",""0"",""14788""
","
","
","""event"",""trial"",""time""
""fullscreenenter"",""0"",""14788""
","
","null","<p></p>","null","","","","","","","","","","","","","","","","","","","","","","","",""
"","do_trial","29","196507","0.0-24.0-0.0","""event"",""trial"",""time""
""fullscreenenter"",""0"",""14788""
","
","
","""event"",""trial"",""time""
""fullscreenenter"",""0"",""14788""
","
","427.39999997615814","","","","","","","","50","1,0,0","6","blank","235","null","0.6198552794977061","0.30699420077935724","0.1825041729474658","0","","","","","","","","",""
"","html-keyboard-response","30","197509","0.0-24.0-1.0","""event"",""trial"",""time""
""fullscreenenter"",""0"",""14788""
","
","
","""event"",""trial"",""time""
""fullscreenenter"",""0"",""14788""
","
","null","<p></p>","null","","","","","","","","","","","","","","","","","","","","","","","",""
"","do_trial","31","200948","0.0-25.0-0.0","""event"",""trial"",""time""
""fullscreenenter"",""0"",""14788""
","
","
","""event"",""trial"",""time""
""fullscreenenter"",""0"",""14788""
","
","851.8999999761581","","","","","","","","51","1,1,0","6","blank","236","null","0.6695278010971694","0.3406754167614477","0.0779038942116337","0","","","","","","","","",""
"","html-keyboard-response","32","201966","0.0-25.0-1.0","""event"",""trial"",""time""
""fullscreenenter"",""0"",""14788""
","
","
","""event"",""trial"",""time""
""fullscreenenter"",""0"",""14788""
","
","null","<p></p>","null","","","","","","","","","","","","","","","","","","","","","","","",""
"","do_trial","33","205172","0.0-26.0-0.0","""event"",""trial"",""time""
""fullscreenenter"",""0"",""14788""
","
","
","""event"",""trial"",""time""
""fullscreenenter"",""0"",""14788""
","
","651.1999999880791","","","","","","","","49","1,1,0","6","blank","237","null","0.5682065455784973","0.3580754479199701","0.09891395867215586","1","","","","","","","","",""
"","html-keyboard-response","34","206196","0.0-26.0-1.0","""event"",""trial"",""time""
""fullscreenenter"",""0"",""14788""
","
","
","""event"",""trial"",""time""
""fullscreenenter"",""0"",""14788""
","
","null","<p></p>","null","","","","","","","","","","","","","","","","","","","","","","","",""
"","do_trial","35","210505","0.0-27.0-0.0","""event"",""trial"",""time""
""fullscreenenter"",""0"",""14788""
","
","
","""event"",""trial"",""time""
""fullscreenenter"",""0"",""14788""
","
","1736.3999999761581","","","","","","","","50","1,0,0","6","blank","238","null","0.6783916631225486","0.3482216928701436","0.14497093348673776","0","","","","","","","","",""
"","html-keyboard-response","36","211522","0.0-27.0-1.0","""event"",""trial"",""time""
""fullscreenenter"",""0"",""14788""
","
","
","""event"",""trial"",""time""
""fullscreenenter"",""0"",""14788""
","
","null","<p></p>","null","","","","","","","","","","","","","","","","","","","","","","","",""
"","do_trial","37","214461","0.0-28.0-0.0","""event"",""trial"",""time""
""fullscreenenter"",""0"",""14788""
","
","
","""event"",""trial"",""time""
""fullscreenenter"",""0"",""14788""
","
","331.69999998807907","","","","","","","","49","1,0,0","6","blank","239","null","0.5707238602960708","0.3043613941453098","0.13264518397901987","1","","","","","","","","",""
"","html-keyboard-response","38","215478","0.0-28.0-1.0","""event"",""trial"",""time""
""fullscreenenter"",""0"",""14788""
","
","
","""event"",""trial"",""time""
""fullscreenenter"",""0"",""14788""
","
","null","<p></p>","null","","","","","","","","","","","","","","","","","","","","","","","",""
"","do_trial","39","218687","0.0-29.0-0.0","""event"",""trial"",""time""
""fullscreenenter"",""0"",""14788""
","
","
","""event"",""trial"",""time""
""fullscreenenter"",""0"",""14788""
","
","659.8000000119209","","","","","","","","49","1,0,1","6","blank","240","null","0.5913633138783653","0.17908436792839333","0.15081034750792546","1","","","","","","","","",""
"","html-keyboard-response","40","219704","0.0-29.0-1.0","""event"",""trial"",""time""
""fullscreenenter"",""0"",""14788""
","
","
","""event"",""trial"",""time""
""fullscreenenter"",""0"",""14788""
","
","null","<p></p>","null","","","","","","","","","","","","","","","","","","","","","","","",""
"","do_trial","41","223210","0.0-30.0-0.0","""event"",""trial"",""time""
""fullscreenenter"",""0"",""14788""
","
","
","""event"",""trial"",""time""
""fullscreenenter"",""0"",""14788""
","
","955","","","","","","","","49","0,0,0","6","blank","241","null","0.5485117439344246","0.20975431033233843","0.19946609619081276","0","","","","","","","","",""
"","html-keyboard-response","42","224235","0.0-30.0-1.0","""event"",""trial"",""time""
""fullscreenenter"",""0"",""14788""
","
","
","""event"",""trial"",""time""
""fullscreenenter"",""0"",""14788""
","
","null","<p></p>","null","","","","","","","","","","","","","","","","","","","","","","","",""
"","do_trial","43","227358","0.0-31.0-0.0","""event"",""trial"",""time""
""fullscreenenter"",""0"",""14788""
","
","
","""event"",""trial"",""time""
""fullscreenenter"",""0"",""14788""
","
","550.5999999642372","","","","","","","","50","0,0,0","6","blank","242","null","0.3772288503119572","0.12618283439887962","0.20462692821145773","0","","","","","","","","",""
"","html-keyboard-response","44","228376","0.0-31.0-1.0","""event"",""trial"",""time""
""fullscreenenter"",""0"",""14788""
","
","
","""event"",""trial"",""time""
""fullscreenenter"",""0"",""14788""
","
","null","<p></p>","null","","","","","","","","","","","","","","","","","","","","","","","",""
"","do_trial","45","231551","0.0-32.0-0.0","""event"",""trial"",""time""
""fullscreenenter"",""0"",""14788""
","
","
","""event"",""trial"",""time""
""fullscreenenter"",""0"",""14788""
","
","590.6999999880791","","","","","","","","51","1,0,1","6","blank","243","null","0.32096469995472987","0.45247819813630147","0.46469466177822144","1","","","","","","","","",""
"","html-keyboard-response","46","232569","0.0-32.0-1.0","""event"",""trial"",""time""
""fullscreenenter"",""0"",""14788""
","
","
","""event"",""trial"",""time""
""fullscreenenter"",""0"",""14788""
","
","null","<p></p>","null","","","","","","","","","","","","","","","","","","","","","","","",""
"","do_trial","47","235659","0.0-33.0-0.0","""event"",""trial"",""time""
""fullscreenenter"",""0"",""14788""
","
","
","""event"",""trial"",""time""
""fullscreenenter"",""0"",""14788""
","
","527.3999999761581","","","","","","","","50","0,0,0","6","blank","244","null","0.32161086277666606","0.3097224037156181","0.5549956406328507","0","","","","","","","","",""
"","html-keyboard-response","48","236662","0.0-33.0-1.0","""event"",""trial"",""time""
""fullscreenenter"",""0"",""14788""
","
","
","""event"",""trial"",""time""
""fullscreenenter"",""0"",""14788""
","
","null","<p></p>","null","","","","","","","","","","","","","","","","","","","","","","","",""
"","do_recog","49","242693","0.0-34.0-0.0","""event"",""trial"",""time""
""fullscreenenter"",""0"",""14788""
","
","
","""event"",""trial"",""time""
""fullscreenenter"",""0"",""14788""
","
","null","","","","","","","","null","","","","245","probe-57","","","","","1","[object Object]","118","2","0","","","",""
"","html-keyboard-response","50","243708","0.0-34.0-1.0","""event"",""trial"",""time""
""fullscreenenter"",""0"",""14788""
","
","
","""event"",""trial"",""time""
""fullscreenenter"",""0"",""14788""
","
","null","<p></p>","null","","","","","","","","","","","","","","","","","","","","","","","",""
"","do_trial","51","248000","0.0-35.0-0.0","""event"",""trial"",""time""
""fullscreenenter"",""0"",""14788""
","
","
","""event"",""trial"",""time""
""fullscreenenter"",""0"",""14788""
","
","1737.8999999761581","","","","","","","","50","0,0,1","6","blank","246","null","0.277542806378693","0.14287560007102182","0.6260170560901902","0","","","","","","","","",""
"","html-keyboard-response","52","249003","0.0-35.0-1.0","""event"",""trial"",""time""
""fullscreenenter"",""0"",""14788""
","
","
","""event"",""trial"",""time""
""fullscreenenter"",""0"",""14788""
","
","null","<p></p>","null","","","","","","","","","","","","","","","","","","","","","","","",""
"","do_recog","53","252012","0.0-36.0-0.0","""event"",""trial"",""time""
""fullscreenenter"",""0"",""14788""
","
","
","""event"",""trial"",""time""
""fullscreenenter"",""0"",""14788""
","
","1497.699999988079","","","","","","","","54","","","","247","probe-67","","","","","1","[object Object]","157","3","1","","","",""
"","html-keyboard-response","54","253030","0.0-36.0-1.0","""event"",""trial"",""time""
""fullscreenenter"",""0"",""14788""
","
","
","""event"",""trial"",""time""
""fullscreenenter"",""0"",""14788""
","
","null","<p></p>","null","","","","","","","","","","","","","","","","","","","","","","","",""
"","do_trial","55","256989","0.0-37.0-0.0","""event"",""trial"",""time""
""fullscreenenter"",""0"",""14788""
","
","
","""event"",""trial"",""time""
""fullscreenenter"",""0"",""14788""
","
","1405.300000011921","","","","","","","","49","0,1,1","6","blank","248","null","0.24643583913418074","0.30214867155761027","0.6896624822777107","0","","","","","","","","",""
"","html-keyboard-response","56","258009","0.0-37.0-1.0","""event"",""trial"",""time""
""fullscreenenter"",""0"",""14788""
","
","
","""event"",""trial"",""time""
""fullscreenenter"",""0"",""14788""
","
","null","<p></p>","null","","","","","","","","","","","","","","","","","","","","","","","",""
"","do_recog","57","260676","0.0-38.0-0.0","""event"",""trial"",""time""
""fullscreenenter"",""0"",""14788""
","
","
","""event"",""trial"",""time""
""fullscreenenter"",""0"",""14788""
","
","1150.5999999642372","","","","","","","","55","","","","249","probe-139","","","","","1","[object Object]","111","2","0","","","",""
"","html-keyboard-response","58","261679","0.0-38.0-1.0","""event"",""trial"",""time""
""fullscreenenter"",""0"",""14788""
","
","
","""event"",""trial"",""time""
""fullscreenenter"",""0"",""14788""
","
","null","<p></p>","null","","","","","","","","","","","","","","","","","","","","","","","",""
"","do_trial","59","265071","0.0-39.0-0.0","""event"",""trial"",""time""
""fullscreenenter"",""0"",""14788""
","
","
","""event"",""trial"",""time""
""fullscreenenter"",""0"",""14788""
","
","836.1999999880791","","","","","","","","51","0,1,1","6","blank","250","null","0.30355681810044927","0.39990042610052384","0.7104583231962452","1","","","","","","","","",""
"","html-keyboard-response","60","266088","0.0-39.0-1.0","""event"",""trial"",""time""
""fullscreenenter"",""0"",""14788""
","
","
","""event"",""trial"",""time""
""fullscreenenter"",""0"",""14788""
","
","null","<p></p>","null","","","","","","","","","","","","","","","","","","","","","","","",""
"","do_trial","61","269049","0.0-40.0-0.0","""event"",""trial"",""time""
""fullscreenenter"",""0"",""14788""
","
","
","""event"",""trial"",""time""
""fullscreenenter"",""0"",""14788""
","
","400.10000002384186","","","","","","","","51","1,1,1","6","blank","251","null","0.21198958940613166","0.5517685760875941","0.7217091068715747","1","","","","","","","","",""
"","html-keyboard-response","62","270051","0.0-40.0-1.0","""event"",""trial"",""time""
""fullscreenenter"",""0"",""14788""
","
","
","""event"",""trial"",""time""
""fullscreenenter"",""0"",""14788""
","
","null","<p></p>","null","","","","","","","","","","","","","","","","","","","","","","","",""
"","do_recog","63","272759","0.0-41.0-0.0","""event"",""trial"",""time""
""fullscreenenter"",""0"",""14788""
","
","
","""event"",""trial"",""time""
""fullscreenenter"",""0"",""14788""
","
","1198.5","","","","","","","","53","","","","252","probe-06","","","","","1","[object Object]","73","1","1","","","",""
"","html-keyboard-response","64","273762","0.0-41.0-1.0","""event"",""trial"",""time""
""fullscreenenter"",""0"",""14788""
","
","
","""event"",""trial"",""time""
""fullscreenenter"",""0"",""14788""
","
","null","<p></p>","null","","","","","","","","","","","","","","","","","","","","","","","",""
"","do_trial","65","277355","0.0-42.0-0.0","""event"",""trial"",""time""
""fullscreenenter"",""0"",""14788""
","
","
","""event"",""trial"",""time""
""fullscreenenter"",""0"",""14788""
","
","1038.800000011921","","","","","","","","49","0,1,1","6","blank","253","null","0.05120147823700011","0.44159748052113734","0.6660867322695846","0","","","","","","","","",""
"","html-keyboard-response","66","278372","0.0-42.0-1.0","""event"",""trial"",""time""
""fullscreenenter"",""0"",""14788""
","
","
","""event"",""trial"",""time""
""fullscreenenter"",""0"",""14788""
","
","null","<p></p>","null","","","","","","","","","","","","","","","","","","","","","","","",""
"","do_trial","67","281394","0.0-43.0-0.0","""event"",""trial"",""time""
""fullscreenenter"",""0"",""14788""
","
","
","""event"",""trial"",""time""
""fullscreenenter"",""0"",""14788""
","
","456.5","","","","","","","","50","0,0,0","6","blank","254","null","0.07145451734376713","0.31111598450339406","0.6941766567809792","0","","","","","","","","",""
"","html-keyboard-response","68","282396","0.0-43.0-1.0","""event"",""trial"",""time""
""fullscreenenter"",""0"",""14788""
","
","
","""event"",""trial"",""time""
""fullscreenenter"",""0"",""14788""
","
","null","<p></p>","null","","","","","","","","","","","","","","","","","","","","","","","",""
"","do_trial","69","285403","0.0-44.0-0.0","""event"",""trial"",""time""
""fullscreenenter"",""0"",""14788""
","
","
","""event"",""trial"",""time""
""fullscreenenter"",""0"",""14788""
","
","444.0999999642372","","","","","","","","51","0,0,1","6","blank","255","null","0.22230583425045403","0.2755081020476452","0.6679833602605163","1","","","","","","","","",""
"","html-keyboard-response","70","286406","0.0-44.0-1.0","""event"",""trial"",""time""
""fullscreenenter"",""0"",""14788""
","
","
","""event"",""trial"",""time""
""fullscreenenter"",""0"",""14788""
","
","null","<p></p>","null","","","","","","","","","","","","","","","","","","","","","","","",""
"","do_recog","71","289498","0.0-45.0-0.0","""event"",""trial"",""time""
""fullscreenenter"",""0"",""14788""
","
","
","""event"",""trial"",""time""
""fullscreenenter"",""0"",""14788""
","
","1583.9000000357628","","","","","","","","56","","","","256","probe-143","","","","","1","[object Object]","158","3","0","","","",""
"","html-keyboard-response","72","290516","0.0-45.0-1.0","""event"",""trial"",""time""
""fullscreenenter"",""0"",""14788""
","
","
","""event"",""trial"",""time""
""fullscreenenter"",""0"",""14788""
","
","null","<p></p>","null","","","","","","","","","","","","","","","","","","","","","","","",""
"","do_trial","73","294493","0.0-46.0-0.0","""event"",""trial"",""time""
""fullscreenenter"",""0"",""14788""
","
","
","""event"",""trial"",""time""
""fullscreenenter"",""0"",""14788""
","
","1429.6000000238419","","","","","","","","50","0,1,0","6","blank","257","null","0.28562044657434166","0.3039982685853946","0.5593471979531272","1","","","","","","","","",""
"","html-keyboard-response","74","295496","0.0-46.0-1.0","""event"",""trial"",""time""
""fullscreenenter"",""0"",""14788""
","
","
","""event"",""trial"",""time""
""fullscreenenter"",""0"",""14788""
","
","null","<p></p>","null","","","","","","","","","","","","","","","","","","","","","","","",""
"","do_recog","75","298548","0.0-47.0-0.0","""event"",""trial"",""time""
""fullscreenenter"",""0"",""14788""
","
","
","""event"",""trial"",""time""
""fullscreenenter"",""0"",""14788""
","
","1532.7000000476837","","","","","","","","54","","","","258","probe-148","","","","","1","[object Object]","36","0","1","","","",""
"","html-keyboard-response","76","299551","0.0-47.0-1.0","""event"",""trial"",""time""
""fullscreenenter"",""0"",""14788""
","
","
","""event"",""trial"",""time""
""fullscreenenter"",""0"",""14788""
","
","null","<p></p>","null","","","","","","","","","","","","","","","","","","","","","","","",""
"","do_trial","77","303111","0.0-48.0-0.0","""event"",""trial"",""time""
""fullscreenenter"",""0"",""14788""
","
","
","""event"",""trial"",""time""
""fullscreenenter"",""0"",""14788""
","
","1011.3999999761581","","","","","","","","49","0,0,0","6","blank","259","null","0.29944971698342543","0.19688522091373095","0.5971888601477682","0","","","","","","","","",""
"","html-keyboard-response","78","304129","0.0-48.0-1.0","""event"",""trial"",""time""
""fullscreenenter"",""0"",""14788""
","
","
","""event"",""trial"",""time""
""fullscreenenter"",""0"",""14788""
","
","null","<p></p>","null","","","","","","","","","","","","","","","","","","","","","","","",""
"","do_trial","79","307320","0.0-49.0-0.0","""event"",""trial"",""time""
""fullscreenenter"",""0"",""14788""
","
","
","""event"",""trial"",""time""
""fullscreenenter"",""0"",""14788""
","
","632","","","","","","","","51","0,0,0","6","blank","260","null","0.2522032260530648","0.18744083860082103","0.49054520608496777","0","","","","","","","","",""
"","html-keyboard-response","80","308338","0.0-49.0-1.0","""event"",""trial"",""time""
""fullscreenenter"",""0"",""14788""
","
","
","""event"",""trial"",""time""
""fullscreenenter"",""0"",""14788""
","
","null","<p></p>","null","","","","","","","","","","","","","","","","","","","","","","","",""
"","do_trial","81","311374","0.0-50.0-0.0","""event"",""trial"",""time""
""fullscreenenter"",""0"",""14788""
","
","
","""event"",""trial"",""time""
""fullscreenenter"",""0"",""14788""
","
","482.9000000357628","","","","","","","","49","0,0,1","6","blank","261","null","0.23514158127562604","0.19649055614712854","0.6779218240667256","0","","","","","","","","",""
"","html-keyboard-response","82","312392","0.0-50.0-1.0","""event"",""trial"",""time""
""fullscreenenter"",""0"",""14788""
","
","
","""event"",""trial"",""time""
""fullscreenenter"",""0"",""14788""
","
","null","<p></p>","null","","","","","","","","","","","","","","","","","","","","","","","",""
"","do_trial","83","315754","0.0-51.0-0.0","""event"",""trial"",""time""
""fullscreenenter"",""0"",""14788""
","
","
","""event"",""trial"",""time""
""fullscreenenter"",""0"",""14788""
","
","791.2999999523163","","","","","","","","50","0,1,1","6","blank","262","null","0.06186767231820353","0.1429039393753496","0.7390516985301129","1","","","","","","","","",""
"","html-keyboard-response","84","316771","0.0-51.0-1.0","""event"",""trial"",""time""
""fullscreenenter"",""0"",""14788""
","
","
","""event"",""trial"",""time""
""fullscreenenter"",""0"",""14788""
","
","null","<p></p>","null","","","","","","","","","","","","","","","","","","","","","","","",""
"","do_trial","85","320481","0.0-52.0-0.0","""event"",""trial"",""time""
""fullscreenenter"",""0"",""14788""
","
","
","""event"",""trial"",""time""
""fullscreenenter"",""0"",""14788""
","
","1160.5","","","","","","","","51","0,0,1","6","blank","263","null","0.13321968395521633","0.13416799152696943","0.7753834663669735","1","","","","","","","","",""
"","html-keyboard-response","86","321499","0.0-52.0-1.0","""event"",""trial"",""time""
""fullscreenenter"",""0"",""14788""
","
","
","""event"",""trial"",""time""
""fullscreenenter"",""0"",""14788""
","
","null","<p></p>","null","","","","","","","","","","","","","","","","","","","","","","","",""
"","do_trial","87","324621","0.0-53.0-0.0","""event"",""trial"",""time""
""fullscreenenter"",""0"",""14788""
","
","
","""event"",""trial"",""time""
""fullscreenenter"",""0"",""14788""
","
","569.3999999761581","","","","","","","","49","0,0,1","6","blank","264","null","0.13455076760527984","0.22781280544848095","0.6351497887949449","0","","","","","","","","",""
"","html-keyboard-response","88","325639","0.0-53.0-1.0","""event"",""trial"",""time""
""fullscreenenter"",""0"",""14788""
","
","
","""event"",""trial"",""time""
""fullscreenenter"",""0"",""14788""
","
","null","<p></p>","null","","","","","","","","","","","","","","","","","","","","","","","",""
"","do_trial","89","328914","0.0-54.0-0.0","""event"",""trial"",""time""
""fullscreenenter"",""0"",""14788""
","
","
","""event"",""trial"",""time""
""fullscreenenter"",""0"",""14788""
","
","728.1999999880791","","","","","","","","51","0,1,1","6","blank","265","null","0.06592725965277511","0.24030310499218416","0.5711639600368057","1","","","","","","","","",""
"","html-keyboard-response","90","329932","0.0-54.0-1.0","""event"",""trial"",""time""
""fullscreenenter"",""0"",""14788""
","
","
","""event"",""trial"",""time""
""fullscreenenter"",""0"",""14788""
","
","null","<p></p>","null","","","","","","","","","","","","","","","","","","","","","","","",""
"","do_recog","91","333007","0.0-55.0-0.0","""event"",""trial"",""time""
""fullscreenenter"",""0"",""14788""
","
","
","""event"",""trial"",""time""
""fullscreenenter"",""0"",""14788""
","
","1565.199999988079","","","","","","","","56","","","","266","probe-73","","","","","1","[object Object]","154","3","0","","","",""
"","html-keyboard-response","92","334025","0.0-55.0-1.0","""event"",""trial"",""time""
""fullscreenenter"",""0"",""14788""
","
","
","""event"",""trial"",""time""
""fullscreenenter"",""0"",""14788""
","
","null","<p></p>","null","","","","","","","","","","","","","","","","","","","","","","","",""
"","do_trial","93","337532","0.0-56.0-0.0","""event"",""trial"",""time""
""fullscreenenter"",""0"",""14788""
","
","
","""event"",""trial"",""time""
""fullscreenenter"",""0"",""14788""
","
","961.3999999761581","","","","","","","","51","1,0,1","6","blank","267","null","0.12166032055367186","0.274253334853381","0.6097621369528","1","","","","","","","","",""
"","html-keyboard-response","94","338535","0.0-56.0-1.0","""event"",""trial"",""time""
""fullscreenenter"",""0"",""14788""
","
","
","""event"",""trial"",""time""
""fullscreenenter"",""0"",""14788""
","
","null","<p></p>","null","","","","","","","","","","","","","","","","","","","","","","","",""
"","do_trial","95","342211","0.0-57.0-0.0","""event"",""trial"",""time""
""fullscreenenter"",""0"",""14788""
","
","
","""event"",""trial"",""time""
""fullscreenenter"",""0"",""14788""
","
","1124.8999999761581","","","","","","","","50","0,0,1","6","blank","268","null","0.07008870088136304","0.17861399700977815","0.6171913836513482","0","","","","","","","","",""
"","html-keyboard-response","96","343215","0.0-57.0-1.0","""event"",""trial"",""time""
""fullscreenenter"",""0"",""14788""
","
","
","""event"",""trial"",""time""
""fullscreenenter"",""0"",""14788""
","
","null","<p></p>","null","","","","","","","","","","","","","","","","","","","","","","","",""
"","break","97","361082","0.0-58.0-0.0","""event"",""trial"",""time""
""fullscreenenter"",""0"",""14788""
","
","
","""event"",""trial"",""time""
""fullscreenenter"",""0"",""14788""
","
","17865.399999976158","<div class='center'><p>Time to take a quick break! You have 2 minutes to rest, but you can move on sooner if you'd like.</p><p> Press the <b>space bar</b> to continue.</p></div>","32","","","","","","","","","","","","","","","","","","","","","","","",""
"","do_trial","98","364959","0.0-58.0-1.0","""event"",""trial"",""time""
""fullscreenenter"",""0"",""14788""
","
","
","""event"",""trial"",""time""
""fullscreenenter"",""0"",""14788""
","
","1304.5","","","","","","","","50","0,0,1","6","blank","269","null","0.21174752296378593","0.217734646286669","0.6707943910034745","0","","","","","","","","",""
"","html-keyboard-response","99","365977","0.0-58.0-2.0","""event"",""trial"",""time""
""fullscreenenter"",""0"",""14788""
","
","
","""event"",""trial"",""time""
""fullscreenenter"",""0"",""14788""
","
","null","<p></p>","null","","","","","","","","","","","","","","","","","","","","","","","",""
"","do_trial","100","369900","0.0-59.0-0.0","""event"",""trial"",""time""
""fullscreenenter"",""0"",""14788""
","
","
","""event"",""trial"",""time""
""fullscreenenter"",""0"",""14788""
","
","1378.199999988079","","","","","","","","49","0,0,1","6","blank","270","null","0.19530656286971693","0.2904492518017928","0.7753362285572507","0","","","","","","","","",""
"","html-keyboard-response","101","370916","0.0-59.0-1.0","""event"",""trial"",""time""
""fullscreenenter"",""0"",""14788""
","
","
","""event"",""trial"",""time""
""fullscreenenter"",""0"",""14788""
","
","null","<p></p>","null","","","","","","","","","","","","","","","","","","","","","","","",""
"","do_trial","102","373876","0.0-60.0-0.0","""event"",""trial"",""time""
""fullscreenenter"",""0"",""14788""
","
","
","""event"",""trial"",""time""
""fullscreenenter"",""0"",""14788""
","
","408.89999997615814","","","","","","","","51","0,0,1","6","blank","271","null","0.15222857571954518","0.3457273647703331","0.6951678255314484","1","","","","","","","","",""
"","html-keyboard-response","103","374893","0.0-60.0-1.0","""event"",""trial"",""time""
""fullscreenenter"",""0"",""14788""
","
","
","""event"",""trial"",""time""
""fullscreenenter"",""0"",""14788""
","
","null","<p></p>","null","","","","","","","","","","","","","","","","","","","","","","","",""
"","do_recog","104","377768","0.0-61.0-0.0","""event"",""trial"",""time""
""fullscreenenter"",""0"",""14788""
","
","
","""event"",""trial"",""time""
""fullscreenenter"",""0"",""14788""
","
","1357.699999988079","","","","","","","","53","","","","272","probe-236","","","","","0","[object Object]","null","null","0","","","",""
"","html-keyboard-response","105","378785","0.0-61.0-1.0","""event"",""trial"",""time""
""fullscreenenter"",""0"",""14788""
","
","
","""event"",""trial"",""time""
""fullscreenenter"",""0"",""14788""
","
","null","<p></p>","null","","","","","","","","","","","","","","","","","","","","","","","",""
"","do_trial","106","382255","0.0-62.0-0.0","""event"",""trial"",""time""
""fullscreenenter"",""0"",""14788""
","
","
","""event"",""trial"",""time""
""fullscreenenter"",""0"",""14788""
","
","901.2999999523163","","","","","","","","50","0,0,1","6","blank","273","null","0.17672198641309547","0.3997736821535486","0.5765233801854757","0","","","","","","","","",""
"","html-keyboard-response","107","383257","0.0-62.0-1.0","""event"",""trial"",""time""
""fullscreenenter"",""0"",""14788""
","
","
","""event"",""trial"",""time""
""fullscreenenter"",""0"",""14788""
","
","null","<p></p>","null","","","","","","","","","","","","","","","","","","","","","","","",""
"","do_recog","108","386074","0.0-63.0-0.0","""event"",""trial"",""time""
""fullscreenenter"",""0"",""14788""
","
","
","""event"",""trial"",""time""
""fullscreenenter"",""0"",""14788""
","
","1291.5","","","","","","","","54","","","","274","probe-27","","","","","1","[object Object]","196","4","1","","","",""
"","html-keyboard-response","109","387077","0.0-63.0-1.0","""event"",""trial"",""time""
""fullscreenenter"",""0"",""14788""
","
","
","""event"",""trial"",""time""
""fullscreenenter"",""0"",""14788""
","
","null","<p></p>","null","","","","","","","","","","","","","","","","","","","","","","","",""
"","do_trial","110","391271","0.0-64.0-0.0","""event"",""trial"",""time""
""fullscreenenter"",""0"",""14788""
","
","
","""event"",""trial"",""time""
""fullscreenenter"",""0"",""14788""
","
","1638.5","","","","","","","","51","0,0,1","6","blank","275","null","0.07826022939969614","0.4519182785776474","0.6141846198899105","1","","","","","","","","",""
"","html-keyboard-response","111","392288","0.0-64.0-1.0","""event"",""trial"",""time""
""fullscreenenter"",""0"",""14788""
","
","
","""event"",""trial"",""time""
""fullscreenenter"",""0"",""14788""
","
","null","<p></p>","null","","","","","","","","","","","","","","","","","","","","","","","",""
"","do_recog","112","395400","0.0-65.0-0.0","""event"",""trial"",""time""
""fullscreenenter"",""0"",""14788""
","
","
","""event"",""trial"",""time""
""fullscreenenter"",""0"",""14788""
","
","1591.4000000357628","","","","","","","","55","","","","276","probe-246","","","","","0","[object Object]","null","null","1","","","",""
"","html-keyboard-response","113","396418","0.0-65.0-1.0","""event"",""trial"",""time""
""fullscreenenter"",""0"",""14788""
","
","
","""event"",""trial"",""time""
""fullscreenenter"",""0"",""14788""
","
","null","<p></p>","null","","","","","","","","","","","","","","","","","","","","","","","",""
"","do_trial","114","400273","0.0-66.0-0.0","""event"",""trial"",""time""
""fullscreenenter"",""0"",""14788""
","
","
","""event"",""trial"",""time""
""fullscreenenter"",""0"",""14788""
","
","1295.5","","","","","","","","49","1,1,1","6","blank","277","null","0.09055134352866932","0.4622910988997761","0.5134608907374546","1","","","","","","","","",""
"","html-keyboard-response","115","401276","0.0-66.0-1.0","""event"",""trial"",""time""
""fullscreenenter"",""0"",""14788""
","
","
","""event"",""trial"",""time""
""fullscreenenter"",""0"",""14788""
","
","null","<p></p>","null","","","","","","","","","","","","","","","","","","","","","","","",""
"","do_trial","116","404551","0.0-67.0-0.0","""event"",""trial"",""time""
""fullscreenenter"",""0"",""14788""
","
","
","""event"",""trial"",""time""
""fullscreenenter"",""0"",""14788""
","
","729.6000000238419","","","","","","","","50","0,0,0","6","blank","278","null","0.08518130659669644","0.3335775440995512","0.5379878974827484","0","","","","","","","","",""
"","html-keyboard-response","117","405554","0.0-67.0-1.0","""event"",""trial"",""time""
""fullscreenenter"",""0"",""14788""
","
","
","""event"",""trial"",""time""
""fullscreenenter"",""0"",""14788""
","
","null","<p></p>","null","","","","","","","","","","","","","","","","","","","","","","","",""
"","do_trial","118","408575","0.0-68.0-0.0","""event"",""trial"",""time""
""fullscreenenter"",""0"",""14788""
","
","
","""event"",""trial"",""time""
""fullscreenenter"",""0"",""14788""
","
","474.60000002384186","","","","","","","","51","0,1,1","6","blank","279","null","0.11589813788512374","0.41713015622120814","0.5062548938196972","1","","","","","","","","",""
"","html-keyboard-response","119","409578","0.0-68.0-1.0","""event"",""trial"",""time""
""fullscreenenter"",""0"",""14788""
","
","
","""event"",""trial"",""time""
""fullscreenenter"",""0"",""14788""
","
","null","<p></p>","null","","","","","","","","","","","","","","","","","","","","","","","",""
"","do_recog","120","412315","0.0-69.0-0.0","""event"",""trial"",""time""
""fullscreenenter"",""0"",""14788""
","
","
","""event"",""trial"",""time""
""fullscreenenter"",""0"",""14788""
","
","1229.5","","","","","","","","54","","","","280","probe-142","","","","","1","[object Object]","35","0","1","","","",""
"","html-keyboard-response","121","413331","0.0-69.0-1.0","""event"",""trial"",""time""
""fullscreenenter"",""0"",""14788""
","
","
","""event"",""trial"",""time""
""fullscreenenter"",""0"",""14788""
","
","null","<p></p>","null","","","","","","","","","","","","","","","","","","","","","","","",""
"","do_trial","122","416825","0.0-70.0-0.0","""event"",""trial"",""time""
""fullscreenenter"",""0"",""14788""
","
","
","""event"",""trial"",""time""
""fullscreenenter"",""0"",""14788""
","
","933.5999999642372","","","","","","","","50","0,1,1","6","blank","281","null","0.11906156317610578","0.3377764580628466","0.5224633476375807","1","","","","","","","","",""
"","html-keyboard-response","123","417842","0.0-70.0-1.0","""event"",""trial"",""time""
""fullscreenenter"",""0"",""14788""
","
","
","""event"",""trial"",""time""
""fullscreenenter"",""0"",""14788""
","
","null","<p></p>","null","","","","","","","","","","","","","","","","","","","","","","","",""
"","do_trial","124","421733","0.0-71.0-0.0","""event"",""trial"",""time""
""fullscreenenter"",""0"",""14788""
","
","
","""event"",""trial"",""time""
""fullscreenenter"",""0"",""14788""
","
","1335.9000000357628","","","","","","","","49","0,0,1","6","blank","282","null","0.16412864724458529","0.39049117058066257","0.5763452400888825","0","","","","","","","","",""
"","html-keyboard-response","125","422736","0.0-71.0-1.0","""event"",""trial"",""time""
""fullscreenenter"",""0"",""14788""
","
","
","""event"",""trial"",""time""
""fullscreenenter"",""0"",""14788""
","
","null","<p></p>","null","","","","","","","","","","","","","","","","","","","","","","","",""
"","do_trial","126","425674","0.0-72.0-0.0","""event"",""trial"",""time""
""fullscreenenter"",""0"",""14788""
","
","
","""event"",""trial"",""time""
""fullscreenenter"",""0"",""14788""
","
","351","","","","","","","","51","1,0,0","6","blank","283","null","0.128186739568102","0.4351324517935672","0.616595170216678","0","","","","","","","","",""
"","html-keyboard-response","127","426677","0.0-72.0-1.0","""event"",""trial"",""time""
""fullscreenenter"",""0"",""14788""
","
","
","""event"",""trial"",""time""
""fullscreenenter"",""0"",""14788""
","
","null","<p></p>","null","","","","","","","","","","","","","","","","","","","","","","","",""
"","do_trial","128","430554","0.0-73.0-0.0","""event"",""trial"",""time""
""fullscreenenter"",""0"",""14788""
","
","
","""event"",""trial"",""time""
""fullscreenenter"",""0"",""14788""
","
","1322","","","","","","","","50","0,0,1","6","blank","284","null","0.19276539853512503","0.23846086425643834","0.788906159589464","0","","","","","","","","",""
"","html-keyboard-response","129","431559","0.0-73.0-1.0","""event"",""trial"",""time""
""fullscreenenter"",""0"",""14788""
","
","
","""event"",""trial"",""time""
""fullscreenenter"",""0"",""14788""
","
","null","<p></p>","null","","","","","","","","","","","","","","","","","","","","","","","",""
"","do_trial","130","434562","0.0-74.0-0.0","""event"",""trial"",""time""
""fullscreenenter"",""0"",""14788""
","
","
","""event"",""trial"",""time""
""fullscreenenter"",""0"",""14788""
","
","449.4000000357628","","","","","","","","51","1,0,0","6","blank","285","null","0.16590681429236678","0.2663081381627542","0.5084043228549799","0","","","","","","","","",""
"","html-keyboard-response","131","435564","0.0-74.0-1.0","""event"",""trial"",""time""
""fullscreenenter"",""0"",""14788""
","
","
","""event"",""trial"",""time""
""fullscreenenter"",""0"",""14788""
","
","null","<p></p>","null","","","","","","","","","","","","","","","","","","","","","","","",""
"","do_trial","132","438555","0.0-75.0-0.0","""event"",""trial"",""time""
""fullscreenenter"",""0"",""14788""
","
","
","""event"",""trial"",""time""
""fullscreenenter"",""0"",""14788""
","
","433.10000002384186","","","","","","","","49","0,0,1","6","blank","286","null","0.2537433362457376","0.37791648337972183","0.5137414933147746","0","","","","","","","","",""
"","html-keyboard-response","133","439556","0.0-75.0-1.0","""event"",""trial"",""time""
""fullscreenenter"",""0"",""14788""
","
","
","""event"",""trial"",""time""
""fullscreenenter"",""0"",""14788""
","
","null","<p></p>","null","","","","","","","","","","","","","","","","","","","","","","","",""
"","do_recog","134","442431","0.0-76.0-0.0","""event"",""trial"",""time""
""fullscreenenter"",""0"",""14788""
","
","
","""event"",""trial"",""time""
""fullscreenenter"",""0"",""14788""
","
","1351.4000000357628","","","","","","","","55","","","","287","probe-161","","","","","1","[object Object]","119","2","0","","","",""
"","html-keyboard-response","135","443434","0.0-76.0-1.0","""event"",""trial"",""time""
""fullscreenenter"",""0"",""14788""
","
","
","""event"",""trial"",""time""
""fullscreenenter"",""0"",""14788""
","
","null","<p></p>","null","","","","","","","","","","","","","","","","","","","","","","","",""
"","do_trial","136","447104","0.0-77.0-0.0","""event"",""trial"",""time""
""fullscreenenter"",""0"",""14788""
","
","
","""event"",""trial"",""time""
""fullscreenenter"",""0"",""14788""
","
","1107.2999999523163","","","","","","","","50","0,0,0","6","blank","288","null","0.229867698082026","0.3584128548732775","0.43607216131134585","0","","","","","","","","",""
"","html-keyboard-response","137","448106","0.0-77.0-1.0","""event"",""trial"",""time""
""fullscreenenter"",""0"",""14788""
","
","
","""event"",""trial"",""time""
""fullscreenenter"",""0"",""14788""
","
","null","<p></p>","null","","","","","","","","","","","","","","","","","","","","","","","",""
"","do_trial","138","451166","0.0-78.0-0.0","""event"",""trial"",""time""
""fullscreenenter"",""0"",""14788""
","
","
","""event"",""trial"",""time""
""fullscreenenter"",""0"",""14788""
","
","492","","","","","","","","50","0,0,0","6","blank","289","null","0.15095713864334984","0.3398932028241561","0.6256716812682512","0","","","","","","","","",""
"","html-keyboard-response","139","452168","0.0-78.0-1.0","""event"",""trial"",""time""
""fullscreenenter"",""0"",""14788""
","
","
","""event"",""trial"",""time""
""fullscreenenter"",""0"",""14788""
","
","null","<p></p>","null","","","","","","","","","","","","","","","","","","","","","","","",""
"","do_trial","140","455106","0.0-79.0-0.0","""event"",""trial"",""time""
""fullscreenenter"",""0"",""14788""
","
","
","""event"",""trial"",""time""
""fullscreenenter"",""0"",""14788""
","
","374.39999997615814","","","","","","","","51","0,0,1","6","blank","290","null","0.12502489432677963","0.283700504785279","0.7406436783926935","1","","","","","","","","",""
"","html-keyboard-response","141","456108","0.0-79.0-1.0","""event"",""trial"",""time""
""fullscreenenter"",""0"",""14788""
","
","
","""event"",""trial"",""time""
""fullscreenenter"",""0"",""14788""
","
","null","<p></p>","null","","","","","","","","","","","","","","","","","","","","","","","",""
"","do_trial","142","459701","0.0-80.0-0.0","""event"",""trial"",""time""
""fullscreenenter"",""0"",""14788""
","
","
","""event"",""trial"",""time""
""fullscreenenter"",""0"",""14788""
","
","1032.699999988079","","","","","","","","49","0,0,1","6","blank","291","null","0.08500766527531821","0.4040146591277924","0.5015987155120175","0","","","","","","","","",""
"","html-keyboard-response","143","460702","0.0-80.0-1.0","""event"",""trial"",""time""
""fullscreenenter"",""0"",""14788""
","
","
","""event"",""trial"",""time""
""fullscreenenter"",""0"",""14788""
","
","null","<p></p>","null","","","","","","","","","","","","","","","","","","","","","","","",""
"","do_trial","144","463857","0.0-81.0-0.0","""event"",""trial"",""time""
""fullscreenenter"",""0"",""14788""
","
","
","""event"",""trial"",""time""
""fullscreenenter"",""0"",""14788""
","
","608.8000000119209","","","","","","","","51","0,0,1","6","blank","292","null","0.21584453972887127","0.2783158085408461","0.5070438753244073","1","","","","","","","","",""
"","html-keyboard-response","145","464882","0.0-81.0-1.0","""event"",""trial"",""time""
""fullscreenenter"",""0"",""14788""
","
","
","""event"",""trial"",""time""
""fullscreenenter"",""0"",""14788""
","
","null","<p></p>","null","","","","","","","","","","","","","","","","","","","","","","","",""
"","do_recog","146","467787","0.0-82.0-0.0","""event"",""trial"",""time""
""fullscreenenter"",""0"",""14788""
","
","
","""event"",""trial"",""time""
""fullscreenenter"",""0"",""14788""
","
","1393.300000011921","","","","","","","","54","","","","293","probe-212","","","","","1","[object Object]","114","2","1","","","",""
"","html-keyboard-response","147","468804","0.0-82.0-1.0","""event"",""trial"",""time""
""fullscreenenter"",""0"",""14788""
","
","
","""event"",""trial"",""time""
""fullscreenenter"",""0"",""14788""
","
","null","<p></p>","null","","","","","","","","","","","","","","","","","","","","","","","",""
"","do_trial","148","473097","0.0-83.0-0.0","""event"",""trial"",""time""
""fullscreenenter"",""0"",""14788""
","
","
","""event"",""trial"",""time""
""fullscreenenter"",""0"",""14788""
","
","1723.9000000357628","","","","","","","","50","0,0,0","6","blank","294","null","0.2440185730722611","0.19371854383984796","0.5293789530945786","0","","","","","","","","",""
"","html-keyboard-response","149","474115","0.0-83.0-1.0","""event"",""trial"",""time""
""fullscreenenter"",""0"",""14788""
","
","
","""event"",""trial"",""time""
""fullscreenenter"",""0"",""14788""
","
","null","<p></p>","null","","","","","","","","","","","","","","","","","","","","","","","",""
"","do_trial","150","477067","0.0-84.0-0.0","""event"",""trial"",""time""
""fullscreenenter"",""0"",""14788""
","
","
","""event"",""trial"",""time""
""fullscreenenter"",""0"",""14788""
","
","383.19999998807907","","","","","","","","51","1,0,1","6","blank","295","null","0.4384808609720913","0.16749575952383486","0.3643658205199061","1","","","","","","","","",""
"","html-keyboard-response","151","478068","0.0-84.0-1.0","""event"",""trial"",""time""
""fullscreenenter"",""0"",""14788""
","
","
","""event"",""trial"",""time""
""fullscreenenter"",""0"",""14788""
","
","null","<p></p>","null","","","","","","","","","","","","","","","","","","","","","","","",""
"","do_trial","152","481714","0.0-85.0-0.0","""event"",""trial"",""time""
""fullscreenenter"",""0"",""14788""
","
","
","""event"",""trial"",""time""
""fullscreenenter"",""0"",""14788""
","
","1081.5","","","","","","","","50","1,0,1","6","blank","296","null","0.5118306757467285","0.15675976754130255","0.3239629209899817","0","","","","","","","","",""
"","html-keyboard-response","153","482731","0.0-85.0-1.0","""event"",""trial"",""time""
""fullscreenenter"",""0"",""14788""
","
","
","""event"",""trial"",""time""
""fullscreenenter"",""0"",""14788""
","
","null","<p></p>","null","","","","","","","","","","","","","","","","","","","","","","","",""
"","do_recog","154","486070","0.0-86.0-0.0","""event"",""trial"",""time""
""fullscreenenter"",""0"",""14788""
","
","
","""event"",""trial"",""time""
""fullscreenenter"",""0"",""14788""
","
","1819.7999999523163","","","","","","","","55","","","","297","probe-233","","","","","0","[object Object]","null","null","1","","","",""
"","html-keyboard-response","155","487087","0.0-86.0-1.0","""event"",""trial"",""time""
""fullscreenenter"",""0"",""14788""
","
","
","""event"",""trial"",""time""
""fullscreenenter"",""0"",""14788""
","
","null","<p></p>","null","","","","","","","","","","","","","","","","","","","","","","","",""
"","do_trial","156","491166","0.0-87.0-0.0","""event"",""trial"",""time""
""fullscreenenter"",""0"",""14788""
","
","
","""event"",""trial"",""time""
""fullscreenenter"",""0"",""14788""
","
","1531.800000011921","","","","","","","","51","1,0,0","6","blank","298","null","0.48092984051018983","0.14774984254506857","0.298702788046779","0","","","","","","","","",""
"","html-keyboard-response","157","492184","0.0-87.0-1.0","""event"",""trial"",""time""
""fullscreenenter"",""0"",""14788""
","
","
","""event"",""trial"",""time""
""fullscreenenter"",""0"",""14788""
","
","null","<p></p>","null","","","","","","","","","","","","","","","","","","","","","","","",""
"","do_recog","158","495560","0.0-88.0-0.0","""event"",""trial"",""time""
""fullscreenenter"",""0"",""14788""
","
","
","""event"",""trial"",""time""
""fullscreenenter"",""0"",""14788""
","
","1865.1000000238419","","","","","","","","54","","","","299","probe-71","","","","","1","[object Object]","191","4","1","","","",""
"","html-keyboard-response","159","496577","0.0-88.0-1.0","""event"",""trial"",""time""
""fullscreenenter"",""0"",""14788""
","
","
","""event"",""trial"",""time""
""fullscreenenter"",""0"",""14788""
","
","null","<p></p>","null","","","","","","","","","","","","","","","","","","","","","","","",""
"","do_trial","160","500216","0.0-89.0-0.0","""event"",""trial"",""time""
""fullscreenenter"",""0"",""14788""
","
","
","""event"",""trial"",""time""
""fullscreenenter"",""0"",""14788""
","
","1089.2999999523163","","","","","","","","49","1,1,1","6","blank","300","null","0.653646618904254","0.1445320060113542","0.34707383126496716","1","","","","","","","","",""
"","html-keyboard-response","161","501234","0.0-89.0-1.0","""event"",""trial"",""time""
""fullscreenenter"",""0"",""14788""
","
","
","""event"",""trial"",""time""
""fullscreenenter"",""0"",""14788""
","
","null","<p></p>","null","","","","","","","","","","","","","","","","","","","","","","","",""
"","do_trial","162","504524","0.0-90.0-0.0","""event"",""trial"",""time""
""fullscreenenter"",""0"",""14788""
","
","
","""event"",""trial"",""time""
""fullscreenenter"",""0"",""14788""
","
","739.0999999642372","","","","","","","","50","0,0,0","6","blank","301","null","0.7241611203644519","0.23970920253835445","0.20948208316433778","0","","","","","","","","",""
"","html-keyboard-response","163","505525","0.0-90.0-1.0","""event"",""trial"",""time""
""fullscreenenter"",""0"",""14788""
","
","
","""event"",""trial"",""time""
""fullscreenenter"",""0"",""14788""
","
","null","<p></p>","null","","","","","","","","","","","","","","","","","","","","","","","",""
"","do_recog","164","508115","0.0-91.0-0.0","""event"",""trial"",""time""
""fullscreenenter"",""0"",""14788""
","
","
","""event"",""trial"",""time""
""fullscreenenter"",""0"",""14788""
","
","1068.1000000238419","","","","","","","","54","","","","302","probe-167","","","","","1","[object Object]","151","3","1","","","",""
"","html-keyboard-response","165","509118","0.0-91.0-1.0","""event"",""trial"",""time""
""fullscreenenter"",""0"",""14788""
","
","
","""event"",""trial"",""time""
""fullscreenenter"",""0"",""14788""
","
","null","<p></p>","null","","","","","","","","","","","","","","","","","","","","","","","",""
"","do_trial","166","513180","0.0-92.0-0.0","""event"",""trial"",""time""
""fullscreenenter"",""0"",""14788""
","
","
","""event"",""trial"",""time""
""fullscreenenter"",""0"",""14788""
","
","1510","","","","","","","","49","1,0,0","6","blank","303","null","0.6222425915933896","0.27020114340782764","0.27869230224447045","1","","","","","","","","",""
"","html-keyboard-response","167","514182","0.0-92.0-1.0","""event"",""trial"",""time""
""fullscreenenter"",""0"",""14788""
","
","
","""event"",""trial"",""time""
""fullscreenenter"",""0"",""14788""
","
","null","<p></p>","null","","","","","","","","","","","","","","","","","","","","","","","",""
"","do_trial","168","517536","0.0-93.0-0.0","""event"",""trial"",""time""
""fullscreenenter"",""0"",""14788""
","
","
","""event"",""trial"",""time""
""fullscreenenter"",""0"",""14788""
","
","805.3000000119209","","","","","","","","51","0,0,0","6","blank","304","null","0.5417611759233316","0.14698553225565808","0.46788649685357336","0","","","","","","","","",""
"","html-keyboard-response","169","518539","0.0-93.0-1.0","""event"",""trial"",""time""
""fullscreenenter"",""0"",""14788""
","
","
","""event"",""trial"",""time""
""fullscreenenter"",""0"",""14788""
","
","null","<p></p>","null","","","","","","","","","","","","","","","","","","","","","","","",""
"","do_trial","170","522348","0.0-94.0-0.0","""event"",""trial"",""time""
""fullscreenenter"",""0"",""14788""
","
","
","""event"",""trial"",""time""
""fullscreenenter"",""0"",""14788""
","
","1246.699999988079","","","","","","","","49","1,0,0","6","blank","305","null","0.6990261722607768","0.11376158036612058","0.4454059042637866","1","","","","","","","","",""
"","html-keyboard-response","171","523366","0.0-94.0-1.0","""event"",""trial"",""time""
""fullscreenenter"",""0"",""14788""
","
","
","""event"",""trial"",""time""
""fullscreenenter"",""0"",""14788""
","
","null","<p></p>","null","","","","","","","","","","","","","","","","","","","","","","","",""
"","do_trial","172","527090","0.0-95.0-0.0","""event"",""trial"",""time""
""fullscreenenter"",""0"",""14788""
","
","
","""event"",""trial"",""time""
""fullscreenenter"",""0"",""14788""
","
","1149.9000000357628","","","","","","","","51","1,0,0","6","blank","306","null","0.6503483038115584","0.0902766352043076","0.3897678793960488","0","","","","","","","","",""
"","html-keyboard-response","173","528093","0.0-95.0-1.0","""event"",""trial"",""time""
""fullscreenenter"",""0"",""14788""
","
","
","""event"",""trial"",""time""
""fullscreenenter"",""0"",""14788""
","
","null","<p></p>","null","","","","","","","","","","","","","","","","","","","","","","","",""
"","do_trial","174","531583","0.0-96.0-0.0","""event"",""trial"",""time""
""fullscreenenter"",""0"",""14788""
","
","
","""event"",""trial"",""time""
""fullscreenenter"",""0"",""14788""
","
","934","","","","","","","","49","1,0,0","6","blank","307","null","0.6624918758861521","0.12034866176143913","0.3414235973074753","1","","","","","","","","",""
"","html-keyboard-response","175","532587","0.0-96.0-1.0","""event"",""trial"",""time""
""fullscreenenter"",""0"",""14788""
","
","
","""event"",""trial"",""time""
""fullscreenenter"",""0"",""14788""
","
","null","<p></p>","null","","","","","","","","","","","","","","","","","","","","","","","",""
"","do_recog","176","535575","0.0-97.0-0.0","""event"",""trial"",""time""
""fullscreenenter"",""0"",""14788""
","
","
","""event"",""trial"",""time""
""fullscreenenter"",""0"",""14788""
","
","1468.800000011921","","","","","","","","55","","","","308","probe-52","","","","","1","[object Object]","116","2","0","","","",""
"","html-keyboard-response","177","536578","0.0-97.0-1.0","""event"",""trial"",""time""
""fullscreenenter"",""0"",""14788""
","
","
","""event"",""trial"",""time""
""fullscreenenter"",""0"",""14788""
","
","null","<p></p>","null","","","","","","","","","","","","","","","","","","","","","","","",""
"","break","178","544577","0.0-98.0-0.0","""event"",""trial"",""time""
""fullscreenenter"",""0"",""14788""
","
","
","""event"",""trial"",""time""
""fullscreenenter"",""0"",""14788""
","
","7996.300000011921","<div class='center'><p>Time to take a quick break! You have 2 minutes to rest, but you can move on sooner if you'd like.</p><p> Press the <b>space bar</b> to continue.</p></div>","32","","","","","","","","","","","","","","","","","","","","","","","",""
"","do_trial","179","549087","0.0-98.0-1.0","""event"",""trial"",""time""
""fullscreenenter"",""0"",""14788""
","
","
","""event"",""trial"",""time""
""fullscreenenter"",""0"",""14788""
","
","1947.800000011921","","","","","","","","51","0,0,0","6","blank","309","null","0.4660738915741605","0.12101419255774311","0.2018654120980862","0","","","","","","","","",""
"","html-keyboard-response","180","550089","0.0-98.0-2.0","""event"",""trial"",""time""
""fullscreenenter"",""0"",""14788""
","
","
","""event"",""trial"",""time""
""fullscreenenter"",""0"",""14788""
","
","null","<p></p>","null","","","","","","","","","","","","","","","","","","","","","","","",""
"","do_trial","181","554146","0.0-99.0-0.0","""event"",""trial"",""time""
""fullscreenenter"",""0"",""14788""
","
","
","""event"",""trial"",""time""
""fullscreenenter"",""0"",""14788""
","
","1492.6000000238419","","","","","","","","49","1,0,0","6","blank","310","null","0.4911217598050919","0.18499282237632061","0.2882801788326472","1","","","","","","","","",""
"","html-keyboard-response","182","555149","0.0-99.0-1.0","""event"",""trial"",""time""
""fullscreenenter"",""0"",""14788""
","
","
","""event"",""trial"",""time""
""fullscreenenter"",""0"",""14788""
","
","null","<p></p>","null","","","","","","","","","","","","","","","","","","","","","","","",""
"","do_trial","183","558623","0.0-100.0-0.0","""event"",""trial"",""time""
""fullscreenenter"",""0"",""14788""
","
","
","""event"",""trial"",""time""
""fullscreenenter"",""0"",""14788""
","
","913","","","","","","","","50","1,0,0","6","blank","311","null","0.5949187346217241","0.06871068835516062","0.25533338089808766","0","","","","","","","","",""
"","html-keyboard-response","184","559625","0.0-100.0-1.0","""event"",""trial"",""time""
""fullscreenenter"",""0"",""14788""
","
","
","""event"",""trial"",""time""
""fullscreenenter"",""0"",""14788""
","
","null","<p></p>","null","","","","","","","","","","","","","","","","","","","","","","","",""
"","do_trial","185","562302","0.0-101.0-0.0","""event"",""trial"",""time""
""fullscreenenter"",""0"",""14788""
","
","
","""event"",""trial"",""time""
""fullscreenenter"",""0"",""14788""
","
","126.30000001192093","","","","","","","","49","1,0,0","6","blank","312","null","0.5200147963476984","0.212336952261738","0.2547688222764871","1","","","","","","","","",""
"","html-keyboard-response","186","563321","0.0-101.0-1.0","""event"",""trial"",""time""
""fullscreenenter"",""0"",""14788""
","
","
","""event"",""trial"",""time""
""fullscreenenter"",""0"",""14788""
","
","null","<p></p>","null","","","","","","","","","","","","","","","","","","","","","","","",""
"","do_recog","187","565809","0.0-102.0-0.0","""event"",""trial"",""time""
""fullscreenenter"",""0"",""14788""
","
","
","""event"",""trial"",""time""
""fullscreenenter"",""0"",""14788""
","
","966.8999999761581","","","","","","","","55","","","","313","probe-69","","","","","1","[object Object]","198","4","0","","","",""
"","html-keyboard-response","188","566825","0.0-102.0-1.0","""event"",""trial"",""time""
""fullscreenenter"",""0"",""14788""
","
","
","""event"",""trial"",""time""
""fullscreenenter"",""0"",""14788""
","
","null","<p></p>","null","","","","","","","","","","","","","","","","","","","","","","","",""
"","do_trial","189","571020","0.0-103.0-0.0","""event"",""trial"",""time""
""fullscreenenter"",""0"",""14788""
","
","
","""event"",""trial"",""time""
""fullscreenenter"",""0"",""14788""
","
","1649.300000011921","","","","","","","","50","1,1,0","6","blank","314","null","0.6741391644804486","0.13643898116337583","0.28122650176357195","1","","","","","","","","",""
"","html-keyboard-response","190","572024","0.0-103.0-1.0","""event"",""trial"",""time""
""fullscreenenter"",""0"",""14788""
","
","
","""event"",""trial"",""time""
""fullscreenenter"",""0"",""14788""
","
","null","<p></p>","null","","","","","","","","","","","","","","","","","","","","","","","",""
"","do_recog","191","574861","0.0-104.0-0.0","""event"",""trial"",""time""
""fullscreenenter"",""0"",""14788""
","
","
","""event"",""trial"",""time""
""fullscreenenter"",""0"",""14788""
","
","1314.5999999642372","","","","","","","","55","","","","315","probe-209","","","","","1","[object Object]","79","1","0","","","",""
"","html-keyboard-response","192","575869","0.0-104.0-1.0","""event"",""trial"",""time""
""fullscreenenter"",""0"",""14788""
","
","
","""event"",""trial"",""time""
""fullscreenenter"",""0"",""14788""
","
","null","<p></p>","null","","","","","","","","","","","","","","","","","","","","","","","",""
"","do_trial","193","579891","0.0-105.0-0.0","""event"",""trial"",""time""
""fullscreenenter"",""0"",""14788""
","
","
","""event"",""trial"",""time""
""fullscreenenter"",""0"",""14788""
","
","1453.8999999761581","","","","","","","","49","1,0,0","6","blank","316","null","0.6494128678253199","0.161510716463027","0.3442646042364153","1","","","","","","","","",""
"","html-keyboard-response","194","580905","0.0-105.0-1.0","""event"",""trial"",""time""
""fullscreenenter"",""0"",""14788""
","
","
","""event"",""trial"",""time""
""fullscreenenter"",""0"",""14788""
","
","null","<p></p>","null","","","","","","","","","","","","","","","","","","","","","","","",""
"","do_trial","195","584598","0.0-106.0-0.0","""event"",""trial"",""time""
""fullscreenenter"",""0"",""14788""
","
","
","""event"",""trial"",""time""
""fullscreenenter"",""0"",""14788""
","
","1134.6000000238419","","","","","","","","51","0,0,0","6","blank","317","null","0.622963563009343","0.08778847222997542","0.34505830336041415","0","","","","","","","","",""
"","html-keyboard-response","196","585602","0.0-106.0-1.0","""event"",""trial"",""time""
""fullscreenenter"",""0"",""14788""
","
","
","""event"",""trial"",""time""
""fullscreenenter"",""0"",""14788""
","
","null","<p></p>","null","","","","","","","","","","","","","","","","","","","","","","","",""
"","do_recog","197","588693","0.0-107.0-0.0","""event"",""trial"",""time""
""fullscreenenter"",""0"",""14788""
","
","
","""event"",""trial"",""time""
""fullscreenenter"",""0"",""14788""
","
","1568.699999988079","","","","","","","","55","","","","318","probe-115","","","","","1","[object Object]","117","2","0","","","",""
"","html-keyboard-response","198","589711","0.0-107.0-1.0","""event"",""trial"",""time""
""fullscreenenter"",""0"",""14788""
","
","
","""event"",""trial"",""time""
""fullscreenenter"",""0"",""14788""
","
","null","<p></p>","null","","","","","","","","","","","","","","","","","","","","","","","",""
"","do_trial","199","593841","0.0-108.0-0.0","""event"",""trial"",""time""
""fullscreenenter"",""0"",""14788""
","
","
","""event"",""trial"",""time""
""fullscreenenter"",""0"",""14788""
","
","1580.4000000357628","","","","","","","","50","0,0,0","6","blank","319","null","0.4930031403610318","0.09962651822712432","0.33298321183568713","0","","","","","","","","",""
"","html-keyboard-response","200","594859","0.0-108.0-1.0","""event"",""trial"",""time""
""fullscreenenter"",""0"",""14788""
","
","
","""event"",""trial"",""time""
""fullscreenenter"",""0"",""14788""
","
","null","<p></p>","null","","","","","","","","","","","","","","","","","","","","","","","",""
"","do_recog","201","600873","0.0-109.0-0.0","""event"",""trial"",""time""
""fullscreenenter"",""0"",""14788""
","
","
","""event"",""trial"",""time""
""fullscreenenter"",""0"",""14788""
","
","null","","","","","","","","null","","","","320","probe-120","","","","","1","[object Object]","195","4","0","","","",""
"","html-keyboard-response","202","601890","0.0-109.0-1.0","""event"",""trial"",""time""
""fullscreenenter"",""0"",""14788""
","
","
","""event"",""trial"",""time""
""fullscreenenter"",""0"",""14788""
","
","null","<p></p>","null","","","","","","","","","","","","","","","","","","","","","","","",""
"","do_trial","203","605412","0.0-110.0-0.0","""event"",""trial"",""time""
""fullscreenenter"",""0"",""14788""
","
","
","""event"",""trial"",""time""
""fullscreenenter"",""0"",""14788""
","
","950.7999999523163","","","","","","","","50","1,0,0","6","blank","321","null","0.5680559507187962","0.051558484669344304","0.2982553458636933","0","","","","","","","","",""
"","html-keyboard-response","204","606429","0.0-110.0-1.0","""event"",""trial"",""time""
""fullscreenenter"",""0"",""14788""
","
","
","""event"",""trial"",""time""
""fullscreenenter"",""0"",""14788""
","
","null","<p></p>","null","","","","","","","","","","","","","","","","","","","","","","","",""
"","do_trial","205","609367","0.0-111.0-0.0","""event"",""trial"",""time""
""fullscreenenter"",""0"",""14788""
","
","
","""event"",""trial"",""time""
""fullscreenenter"",""0"",""14788""
","
","363.69999998807907","","","","","","","","51","0,0,0","6","blank","322","null","0.6447529144883051","0.07799634439979436","0.2035865850538872","0","","","","","","","","",""
"","html-keyboard-response","206","610369","0.0-111.0-1.0","""event"",""trial"",""time""
""fullscreenenter"",""0"",""14788""
","
","
","""event"",""trial"",""time""
""fullscreenenter"",""0"",""14788""
","
","null","<p></p>","null","","","","","","","","","","","","","","","","","","","","","","","",""
"","do_trial","207","613628","0.0-112.0-0.0","""event"",""trial"",""time""
""fullscreenenter"",""0"",""14788""
","
","
","""event"",""trial"",""time""
""fullscreenenter"",""0"",""14788""
","
","689.8999999761581","","","","","","","","51","0,0,0","6","blank","323","null","0.6516443271234471","0.19356811220545245","0.18849925836890966","0","","","","","","","","",""
"","html-keyboard-response","208","614644","0.0-112.0-1.0","""event"",""trial"",""time""
""fullscreenenter"",""0"",""14788""
","
","
","""event"",""trial"",""time""
""fullscreenenter"",""0"",""14788""
","
","null","<p></p>","null","","","","","","","","","","","","","","","","","","","","","","","",""
"","do_trial","209","617720","0.0-113.0-0.0","""event"",""trial"",""time""
""fullscreenenter"",""0"",""14788""
","
","
","""event"",""trial"",""time""
""fullscreenenter"",""0"",""14788""
","
","507.69999998807907","","","","","","","","49","1,0,0","6","blank","324","null","0.6269836102451941","0.1977123875601044","0.21250529547069946","1","","","","","","","","",""
"","html-keyboard-response","210","618737","0.0-113.0-1.0","""event"",""trial"",""time""
""fullscreenenter"",""0"",""14788""
","
","
","""event"",""trial"",""time""
""fullscreenenter"",""0"",""14788""
","
","null","<p></p>","null","","","","","","","","","","","","","","","","","","","","","","","",""
"","do_trial","211","621992","0.0-114.0-0.0","""event"",""trial"",""time""
""fullscreenenter"",""0"",""14788""
","
","
","""event"",""trial"",""time""
""fullscreenenter"",""0"",""14788""
","
","700.9000000357628","","","","","","","","50","1,0,0","6","blank","325","null","0.6212646722409012","0.168858046018682","0.22249527076474312","0","","","","","","","","",""
"","html-keyboard-response","212","623016","0.0-114.0-1.0","""event"",""trial"",""time""
""fullscreenenter"",""0"",""14788""
","
","
","""event"",""trial"",""time""
""fullscreenenter"",""0"",""14788""
","
","null","<p></p>","null","","","","","","","","","","","","","","","","","","","","","","","",""
"","do_recog","213","626325","0.0-115.0-0.0","""event"",""trial"",""time""
""fullscreenenter"",""0"",""14788""
","
","
","""event"",""trial"",""time""
""fullscreenenter"",""0"",""14788""
","
","1788.2000000476837","","","","","","","","54","","","","326","probe-199","","","","","1","[object Object]","31","0","1","","","",""
"","html-keyboard-response","214","627342","0.0-115.0-1.0","""event"",""trial"",""time""
""fullscreenenter"",""0"",""14788""
","
","
","""event"",""trial"",""time""
""fullscreenenter"",""0"",""14788""
","
","null","<p></p>","null","","","","","","","","","","","","","","","","","","","","","","","",""
"","do_trial","215","630851","0.0-116.0-0.0","""event"",""trial"",""time""
""fullscreenenter"",""0"",""14788""
","
","
","""event"",""trial"",""time""
""fullscreenenter"",""0"",""14788""
","
","949.1999999880791","","","","","","","","50","0,0,0","6","blank","327","null","0.6174464081307444","0.17464570264717086","0.3685168837197461","0","","","","","","","","",""
"","html-keyboard-response","216","631854","0.0-116.0-1.0","""event"",""trial"",""time""
""fullscreenenter"",""0"",""14788""
","
","
","""event"",""trial"",""time""
""fullscreenenter"",""0"",""14788""
","
","null","<p></p>","null","","","","","","","","","","","","","","","","","","","","","","","",""
"","do_trial","217","635045","0.0-117.0-0.0","""event"",""trial"",""time""
""fullscreenenter"",""0"",""14788""
","
","
","""event"",""trial"",""time""
""fullscreenenter"",""0"",""14788""
","
","644.6000000238419","","","","","","","","51","1,0,0","6","blank","328","null","0.5796755907459972","0.13365081619857097","0.3421170430936619","0","","","","","","","","",""
"","html-keyboard-response","218","636049","0.0-117.0-1.0","""event"",""trial"",""time""
""fullscreenenter"",""0"",""14788""
","
","
","""event"",""trial"",""time""
""fullscreenenter"",""0"",""14788""
","
","null","<p></p>","null","","","","","","","","","","","","","","","","","","","","","","","",""
"","do_trial","219","639816","0.0-118.0-0.0","""event"",""trial"",""time""
""fullscreenenter"",""0"",""14788""
","
","
","""event"",""trial"",""time""
""fullscreenenter"",""0"",""14788""
","
","1197.7000000476837","","","","","","","","49","1,0,1","6","blank","329","null","0.6555119688440353","0.05836912799979665","0.29828570826423256","1","","","","","","","","",""
"","html-keyboard-response","220","640818","0.0-118.0-1.0","""event"",""trial"",""time""
""fullscreenenter"",""0"",""14788""
","
","
","""event"",""trial"",""time""
""fullscreenenter"",""0"",""14788""
","
","null","<p></p>","null","","","","","","","","","","","","","","","","","","","","","","","",""
"","do_trial","221","644427","0.0-119.0-0.0","""event"",""trial"",""time""
""fullscreenenter"",""0"",""14788""
","
","
","""event"",""trial"",""time""
""fullscreenenter"",""0"",""14788""
","
","1057.5","","","","","","","","50","1,0,0","6","blank","330","null","0.7238339026182052","0.1096828051793773","0.36975953742780215","0","","","","","","","","",""
"","html-keyboard-response","222","645429","0.0-119.0-1.0","""event"",""trial"",""time""
""fullscreenenter"",""0"",""14788""
","
","
","""event"",""trial"",""time""
""fullscreenenter"",""0"",""14788""
","
","null","<p></p>","null","","","","","","","","","","","","","","","","","","","","","","","",""
"","do_trial","223","648806","0.0-120.0-0.0","""event"",""trial"",""time""
""fullscreenenter"",""0"",""14788""
","
","
","""event"",""trial"",""time""
""fullscreenenter"",""0"",""14788""
","
","826.7999999523163","","","","","","","","49","1,0,0","6","blank","331","null","0.6221499601830567","0.09573703889023114","0.3266426156770467","1","","","","","","","","",""
"","html-keyboard-response","224","649809","0.0-120.0-1.0","""event"",""trial"",""time""
""fullscreenenter"",""0"",""14788""
","
","
","""event"",""trial"",""time""
""fullscreenenter"",""0"",""14788""
","
","null","<p></p>","null","","","","","","","","","","","","","","","","","","","","","","","",""
"","do_recog","225","652831","0.0-121.0-0.0","""event"",""trial"",""time""
""fullscreenenter"",""0"",""14788""
","
","
","""event"",""trial"",""time""
""fullscreenenter"",""0"",""14788""
","
","1500.199999988079","","","","","","","","54","","","","332","probe-17","","","","","1","[object Object]","115","2","1","","","",""
"","html-keyboard-response","226","653848","0.0-121.0-1.0","""event"",""trial"",""time""
""fullscreenenter"",""0"",""14788""
","
","
","""event"",""trial"",""time""
""fullscreenenter"",""0"",""14788""
","
","null","<p></p>","null","","","","","","","","","","","","","","","","","","","","","","","",""
"","do_trial","227","657172","0.0-122.0-0.0","""event"",""trial"",""time""
""fullscreenenter"",""0"",""14788""
","
","
","""event"",""trial"",""time""
""fullscreenenter"",""0"",""14788""
","
","773.1999999880791","","","","","","","","50","0,0,0","6","blank","333","null","0.49654848656903716","0.1828024896643442","0.3007000558416075","0","","","","","","","","",""
"","html-keyboard-response","228","658179","0.0-122.0-1.0","""event"",""trial"",""time""
""fullscreenenter"",""0"",""14788""
","
","
","""event"",""trial"",""time""
""fullscreenenter"",""0"",""14788""
","
","null","<p></p>","null","","","","","","","","","","","","","","","","","","","","","","","",""
"","do_trial","229","662670","0.0-123.0-0.0","""event"",""trial"",""time""
""fullscreenenter"",""0"",""14788""
","
","
","""event"",""trial"",""time""
""fullscreenenter"",""0"",""14788""
","
","1917.300000011921","","","","","","","","51","1,0,1","6","blank","334","null","0.6589373238003071","0.1782181195667908","0.22808122758632596","1","","","","","","","","",""
"","html-keyboard-response","230","663687","0.0-123.0-1.0","""event"",""trial"",""time""
""fullscreenenter"",""0"",""14788""
","
","
","""event"",""trial"",""time""
""fullscreenenter"",""0"",""14788""
","
","null","<p></p>","null","","","","","","","","","","","","","","","","","","","","","","","",""
"","do_recog","231","667765","0.0-124.0-0.0","""event"",""trial"",""time""
""fullscreenenter"",""0"",""14788""
","
","
","""event"",""trial"",""time""
""fullscreenenter"",""0"",""14788""
","
","2560.7999999523163","","","","","","","","54","","","","335","probe-138","","","","","1","[object Object]","197","4","1","","","",""
"","html-keyboard-response","232","668767","0.0-124.0-1.0","""event"",""trial"",""time""
""fullscreenenter"",""0"",""14788""
","
","
","""event"",""trial"",""time""
""fullscreenenter"",""0"",""14788""
","
","null","<p></p>","null","","","","","","","","","","","","","","","","","","","","","","","",""
"","do_trial","233","672966","0.0-125.0-0.0","""event"",""trial"",""time""
""fullscreenenter"",""0"",""14788""
","
","
","""event"",""trial"",""time""
""fullscreenenter"",""0"",""14788""
","
","1639.4000000357628","","","","","","","","51","1,0,0","6","blank","336","null","0.7300738954428938","0.25213720931823874","0.3662935563710821","0","","","","","","","","",""
"","html-keyboard-response","234","673983","0.0-125.0-1.0","""event"",""trial"",""time""
""fullscreenenter"",""0"",""14788""
","
","
","""event"",""trial"",""time""
""fullscreenenter"",""0"",""14788""
","
","null","<p></p>","null","","","","","","","","","","","","","","","","","","","","","","","",""
"","do_recog","235","677715","0.0-126.0-0.0","""event"",""trial"",""time""
""fullscreenenter"",""0"",""14788""
","
","
","""event"",""trial"",""time""
""fullscreenenter"",""0"",""14788""
","
","2224.5","","","","","","","","53","","","","337","probe-154","","","","","1","[object Object]","71","1","1","","","",""
"","html-keyboard-response","236","678733","0.0-126.0-1.0","""event"",""trial"",""time""
""fullscreenenter"",""0"",""14788""
","
","
","""event"",""trial"",""time""
""fullscreenenter"",""0"",""14788""
","
","null","<p></p>","null","","","","","","","","","","","","","","","","","","","","","","","",""
"","do_trial","237","682087","0.0-127.0-0.0","""event"",""trial"",""time""
""fullscreenenter"",""0"",""14788""
","
","
","""event"",""trial"",""time""
""fullscreenenter"",""0"",""14788""
","
","806.7000000476837","","","","","","","","51","1,0,0","6","blank","338","null","0.7102634231891054","0.19257562757191168","0.3156750207927494","0","","","","","","","","",""
"","html-keyboard-response","238","683105","0.0-127.0-1.0","""event"",""trial"",""time""
""fullscreenenter"",""0"",""14788""
","
","
","""event"",""trial"",""time""
""fullscreenenter"",""0"",""14788""
","
","null","<p></p>","null","","","","","","","","","","","","","","","","","","","","","","","",""
"","do_trial","239","686395","0.0-128.0-0.0","""event"",""trial"",""time""
""fullscreenenter"",""0"",""14788""
","
","
","""event"",""trial"",""time""
""fullscreenenter"",""0"",""14788""
","
","733.0999999642372","","","","","","","","51","0,0,0","6","blank","339","null","0.5159023349621087","0.08257504738388104","0.26922088000313155","0","","","","","","","","",""
"","html-keyboard-response","240","687399","0.0-128.0-1.0","""event"",""trial"",""time""
""fullscreenenter"",""0"",""14788""
","
","
","""event"",""trial"",""time""
""fullscreenenter"",""0"",""14788""
","
","null","<p></p>","null","","","","","","","","","","","","","","","","","","","","","","","",""
"","do_trial","241","690789","0.0-129.0-0.0","""event"",""trial"",""time""
""fullscreenenter"",""0"",""14788""
","
","
","""event"",""trial"",""time""
""fullscreenenter"",""0"",""14788""
","
","815.0999999642372","","","","","","","","50","0,0,0","6","blank","340","null","0.5135468795426259","0.0973983961771682","0.11830046913947637","0","","","","","","","","",""
"","html-keyboard-response","242","691807","0.0-129.0-1.0","""event"",""trial"",""time""
""fullscreenenter"",""0"",""14788""
","
","
","""event"",""trial"",""time""
""fullscreenenter"",""0"",""14788""
","
","null","<p></p>","null","","","","","","","","","","","","","","","","","","","","","","","",""
"","do_trial","243","695015","0.0-130.0-0.0","""event"",""trial"",""time""
""fullscreenenter"",""0"",""14788""
","
","
","""event"",""trial"",""time""
""fullscreenenter"",""0"",""14788""
","
","658.8999999761581","","","","","","","","49","0,0,0","6","blank","341","null","0.6585642012973604","0.08927249818652905","0.10500120321546084","0","","","","","","","","",""
"","html-keyboard-response","244","696032","0.0-130.0-1.0","""event"",""trial"",""time""
""fullscreenenter"",""0"",""14788""
","
","
","""event"",""trial"",""time""
""fullscreenenter"",""0"",""14788""
","
","null","<p></p>","null","","","","","","","","","","","","","","","","","","","","","","","",""
"","do_trial","245","699062","0.0-131.0-0.0","""event"",""trial"",""time""
""fullscreenenter"",""0"",""14788""
","
","
","""event"",""trial"",""time""
""fullscreenenter"",""0"",""14788""
","
","464.5","","","","","","","","51","0,0,0","6","blank","342","null","0.7341104751821104","0.07025790787899198","0.2058213752208074","0","","","","","","","","",""
"","html-keyboard-response","246","700079","0.0-131.0-1.0","""event"",""trial"",""time""
""fullscreenenter"",""0"",""14788""
","
","
","""event"",""trial"",""time""
""fullscreenenter"",""0"",""14788""
","
","null","<p></p>","null","","","","","","","","","","","","","","","","","","","","","","","",""
"","do_trial","247","702668","0.0-132.0-0.0","""event"",""trial"",""time""
""fullscreenenter"",""0"",""14788""
","
","
","""event"",""trial"",""time""
""fullscreenenter"",""0"",""14788""
","
","39.10000002384186","","","","","","","","51","0,0,0","6","blank","343","null","0.7243341108486091","0.05917117892543237","0.13243623172153024","0","","","","","","","","",""
"","html-keyboard-response","248","703670","0.0-132.0-1.0","""event"",""trial"",""time""
""fullscreenenter"",""0"",""14788""
","
","
","""event"",""trial"",""time""
""fullscreenenter"",""0"",""14788""
","
","null","<p></p>","null","","","","","","","","","","","","","","","","","","","","","","","",""
"","do_trial","249","706222","0.0-133.0-0.0","""event"",""trial"",""time""
""fullscreenenter"",""0"",""14788""
","
","
","""event"",""trial"",""time""
""fullscreenenter"",""0"",""14788""
","
","0.10000002384185791","","","","","","","","51","1,0,0","6","blank","344","null","0.7925653752621127","0.05026150450992644","0.08076798813804327","0","","","","","","","","",""
"","html-keyboard-response","250","707240","0.0-133.0-1.0","""event"",""trial"",""time""
""fullscreenenter"",""0"",""14788""
","
","
","""event"",""trial"",""time""
""fullscreenenter"",""0"",""14788""
","
","null","<p></p>","null","","","","","","","","","","","","","","","","","","","","","","","",""
"","do_recog","251","709729","0.0-134.0-0.0","""event"",""trial"",""time""
""fullscreenenter"",""0"",""14788""
","
","
","""event"",""trial"",""time""
""fullscreenenter"",""0"",""14788""
","
","968.8000000119209","","","","","","","","54","","","","345","probe-23","","","","","1","[object Object]","112","2","1","","","",""
"","html-keyboard-response","252","710731","0.0-134.0-1.0","""event"",""trial"",""time""
""fullscreenenter"",""0"",""14788""
","
","
","""event"",""trial"",""time""
""fullscreenenter"",""0"",""14788""
","
","null","<p></p>","null","","","","","","","","","","","","","","","","","","","","","","","",""
"","do_trial","253","713993","0.0-135.0-0.0","""event"",""trial"",""time""
""fullscreenenter"",""0"",""14788""
","
","
","""event"",""trial"",""time""
""fullscreenenter"",""0"",""14788""
","
","698.6999999880791","","","","","","","","50","1,0,0","6","blank","346","null","0.8758319377876701","0.05378560440971781","0.17349314951080685","0","","","","","","","","",""
"","html-keyboard-response","254","714996","0.0-135.0-1.0","""event"",""trial"",""time""
""fullscreenenter"",""0"",""14788""
","
","
","""event"",""trial"",""time""
""fullscreenenter"",""0"",""14788""
","
","null","<p></p>","null","","","","","","","","","","","","","","","","","","","","","","","",""
"","do_trial","255","717702","0.0-136.0-0.0","""event"",""trial"",""time""
""fullscreenenter"",""0"",""14788""
","
","
","""event"",""trial"",""time""
""fullscreenenter"",""0"",""14788""
","
","136.80000001192093","","","","","","","","50","1,0,0","6","blank","347","null","0.863390590632682","0.11589605324104685","0.09620671280028827","0","","","","","","","","",""
"","html-keyboard-response","256","718719","0.0-136.0-1.0","""event"",""trial"",""time""
""fullscreenenter"",""0"",""14788""
","
","
","""event"",""trial"",""time""
""fullscreenenter"",""0"",""14788""
","
","null","<p></p>","null","","","","","","","","","","","","","","","","","","","","","","","",""
"","do_trial","257","721655","0.0-137.0-0.0","""event"",""trial"",""time""
""fullscreenenter"",""0"",""14788""
","
","
","""event"",""trial"",""time""
""fullscreenenter"",""0"",""14788""
","
","367.39999997615814","","","","","","","","50","1,0,1","6","blank","348","null","0.6992828452002721","0.13984325324047212","0.4940077713354236","0","","","","","","","","",""
"","html-keyboard-response","258","722657","0.0-137.0-1.0","""event"",""trial"",""time""
""fullscreenenter"",""0"",""14788""
","
","
","""event"",""trial"",""time""
""fullscreenenter"",""0"",""14788""
","
","null","<p></p>","null","","","","","","","","","","","","","","","","","","","","","","","",""
"","break","259","724141","0.0-138.0-0.0","""event"",""trial"",""time""
""fullscreenenter"",""0"",""14788""
","
","
","""event"",""trial"",""time""
""fullscreenenter"",""0"",""14788""
","
","1482.0999999642372","<div class='center'><p>Time to take a quick break! You have 2 minutes to rest, but you can move on sooner if you'd like.</p><p> Press the <b>space bar</b> to continue.</p></div>","32","","","","","","","","","","","","","","","","","","","","","","","",""
"","do_trial","260","728587","0.0-138.0-1.0","""event"",""trial"",""time""
""fullscreenenter"",""0"",""14788""
","
","
","""event"",""trial"",""time""
""fullscreenenter"",""0"",""14788""
","
","1896.5","","","","","","","","50","1,0,1","6","blank","349","null","0.6041043546186978","0.15765372755028703","0.4871567783244459","0","","","","","","","","",""
"","html-keyboard-response","261","729604","0.0-138.0-2.0","""event"",""trial"",""time""
""fullscreenenter"",""0"",""14788""
","
","
","""event"",""trial"",""time""
""fullscreenenter"",""0"",""14788""
","
","null","<p></p>","null","","","","","","","","","","","","","","","","","","","","","","","",""
"","do_trial","262","732480","0.0-139.0-0.0","""event"",""trial"",""time""
""fullscreenenter"",""0"",""14788""
","
","
","""event"",""trial"",""time""
""fullscreenenter"",""0"",""14788""
","
","320","","","","","","","","49","1,0,1","6","blank","350","null","0.4740136781186024","0.06453908308367601","0.5599342038850529","1","","","","","","","","",""
"","html-keyboard-response","263","733497","0.0-139.0-1.0","""event"",""trial"",""time""
""fullscreenenter"",""0"",""14788""
","
","
","""event"",""trial"",""time""
""fullscreenenter"",""0"",""14788""
","
","null","<p></p>","null","","","","","","","","","","","","","","","","","","","","","","","",""
"","do_trial","264","736588","0.0-140.0-0.0","""event"",""trial"",""time""
""fullscreenenter"",""0"",""14788""
","
","
","""event"",""trial"",""time""
""fullscreenenter"",""0"",""14788""
","
","526.3999999761581","","","","","","","","49","0,0,0","6","blank","351","null","0.3345662001506956","0.07096378894131154","0.595413019056333","0","","","","","","","","",""
"","html-keyboard-response","265","737590","0.0-140.0-1.0","""event"",""trial"",""time""
""fullscreenenter"",""0"",""14788""
","
","
","""event"",""trial"",""time""
""fullscreenenter"",""0"",""14788""
","
","null","<p></p>","null","","","","","","","","","","","","","","","","","","","","","","","",""
"","do_recog","266","739864","0.0-141.0-0.0","""event"",""trial"",""time""
""fullscreenenter"",""0"",""14788""
","
","
","""event"",""trial"",""time""
""fullscreenenter"",""0"",""14788""
","
","757.8000000119209","","","","","","","","54","","","","352","probe-34","","","","","1","[object Object]","32","0","1","","","",""
"","html-keyboard-response","267","740880","0.0-141.0-1.0","""event"",""trial"",""time""
""fullscreenenter"",""0"",""14788""
","
","
","""event"",""trial"",""time""
""fullscreenenter"",""0"",""14788""
","
","null","<p></p>","null","","","","","","","","","","","","","","","","","","","","","","","",""
"","do_trial","268","746942","0.0-142.0-0.0","""event"",""trial"",""time""
""fullscreenenter"",""0"",""14788""
","
","
","""event"",""trial"",""time""
""fullscreenenter"",""0"",""14788""
","
","null","","","","","","","","null","1,0,0","6","blank","353","null","0.3400354835020635","0.15459365952507764","0.5345216739718247","","","","","","","","","",""
"","html-keyboard-response","269","747960","0.0-142.0-1.0","""event"",""trial"",""time""
""fullscreenenter"",""0"",""14788""
","
","
","""event"",""trial"",""time""
""fullscreenenter"",""0"",""14788""
","
","null","<p></p>","null","","","","","","","","","","","","","","","","","","","","","","","",""
"","do_recog","270","750966","0.0-143.0-0.0","""event"",""trial"",""time""
""fullscreenenter"",""0"",""14788""
","
","
","""event"",""trial"",""time""
""fullscreenenter"",""0"",""14788""
","
","1487.4000000357628","","","","","","","","54","","","","354","probe-238","","","","","0","[object Object]","null","null","0","","","",""
"","html-keyboard-response","271","751971","0.0-143.0-1.0","""event"",""trial"",""time""
""fullscreenenter"",""0"",""14788""
","
","
","""event"",""trial"",""time""
""fullscreenenter"",""0"",""14788""
","
","null","<p></p>","null","","","","","","","","","","","","","","","","","","","","","","","",""
"","do_trial","272","755298","0.0-144.0-0.0","""event"",""trial"",""time""
""fullscreenenter"",""0"",""14788""
","
","
","""event"",""trial"",""time""
""fullscreenenter"",""0"",""14788""
","
","774.6000000238419","","","","","","","","51","0,1,0","6","blank","355","null","0.37118152685566946","0.17322465345988938","0.6193422025769728","0","","","","","","","","",""
"","html-keyboard-response","273","756301","0.0-144.0-1.0","""event"",""trial"",""time""
""fullscreenenter"",""0"",""14788""
","
","
","""event"",""trial"",""time""
""fullscreenenter"",""0"",""14788""
","
","null","<p></p>","null","","","","","","","","","","","","","","","","","","","","","","","",""
"","do_trial","274","760055","0.0-145.0-0.0","""event"",""trial"",""time""
""fullscreenenter"",""0"",""14788""
","
","
","""event"",""trial"",""time""
""fullscreenenter"",""0"",""14788""
","
","1195.8999999761581","","","","","","","","49","1,0,1","6","blank","356","null","0.24648747074689997","0.12198360719129771","0.5493632130301582","1","","","","","","","","",""
"","html-keyboard-response","275","761072","0.0-145.0-1.0","""event"",""trial"",""time""
""fullscreenenter"",""0"",""14788""
","
","
","""event"",""trial"",""time""
""fullscreenenter"",""0"",""14788""
","
