"success","trial_type","trial_index","time_elapsed","internal_node_id","interactions","blur_events","focus_events","fullscreenenter_events","fullscreenexit_events","rt","stimulus","key_press","subject_id","participant_id","age","gender","prompt","response","choice_outcomes","context_n","context_img_id","trial_n","probe_img_id","pR_red","pR_white","pR_black","outcome","is_valid","image_to_show","probed_trial","probed_context","correct","probe","probed_trial_n","probed_context_n","context_im"
"true","fullscreen","0","4539","0.0-0.0","""event"",""trial"",""time""
""fullscreenenter"",""0"",""3596""
","
","
","""event"",""trial"",""time""
""fullscreenenter"",""0"",""3596""
","
","","","","","","","","","","","","","","","","","","","","","","","","","","",""
"","pavlovia","1","4546","0.0-1.0","""event"",""trial"",""time""
""fullscreenenter"",""0"",""3596""
","
","
","""event"",""trial"",""time""
""fullscreenenter"",""0"",""3596""
","
","","","","","","","","","","","","","","","","","","","","","","","","","","",""
"","welc_back","2","14348","0.0-2.0","""event"",""trial"",""time""
""fullscreenenter"",""0"",""3596""
","
","
","""event"",""trial"",""time""
""fullscreenenter"",""0"",""3596""
","
","null","run_exp/static/audio/clip_29_welcome_back.m4a","null","460","191","9","Male","<div class='center'><p>Welcome to day 2!</p><p> Yesterday, you were the head captain of a pirate ship. You asked your fellow pirates to rob other ships of their gold across six different islands.</p></div>","","","","","","","","","","","","","","","","","","",""
"","html-keyboard-response","3","19432","0.0-3.0","""event"",""trial"",""time""
""fullscreenenter"",""0"",""3596""
","
","
","""event"",""trial"",""time""
""fullscreenenter"",""0"",""3596""
","
","5082.100000023842","<div class='center'><p>Welcome to day 2!</p><p> Yesterday, you were the head captain of a pirate ship. You asked your fellow pirates to rob other ships of their gold across six different islands.</p><p><b>[Press the space bar to continue]</b></p></div>","32","","","","","","","","","","","","","","","","","","","","","","","",""
"","day_1_summary_goal","4","37584","0.0-4.0","""event"",""trial"",""time""
""fullscreenenter"",""0"",""3596""
","
","
","""event"",""trial"",""time""
""fullscreenenter"",""0"",""3596""
","
","null","run_exp/static/audio/clip_30_goal_of_game.m4a","null","","","","","<div class='center'><p>Today, like yesterday, you get to pick which pirate you want to rob the next ship.</p><p>If the pirate is successful in robbing a ship, you get gold coins that look like this: </p><p><img src='run_exp/static/images/tutorial/reward.png' height='150'></p><p> If they were not successful in robbing the ship, then you will get no gold coins and you'll see a big red x like this: </p><p><img src='run_exp/static/images/tutorial/reward_no.png' height='150'></p></div>","","","","","","","","","","","","","","","","","","",""
"","html-keyboard-response","5","38942","0.0-5.0","""event"",""trial"",""time""
""fullscreenenter"",""0"",""3596""
","
","
","""event"",""trial"",""time""
""fullscreenenter"",""0"",""3596""
","
","1355.8999999761581","<div class='center'><p>Today, like yesterday, you get to pick which pirate you want to rob the next ship.</p><p>If the pirate is successful in robbing a ship, you get gold coins that look like this: </p><p><img src='run_exp/static/images/tutorial/reward.png' height='150'></p><p> If they were not successful in robbing the ship, then you will get no gold coins and you'll see a big red x like this: </p><p><img src='run_exp/static/images/tutorial/reward_no.png' height='150'></p><p><b>[Press the space bar to continue]</b></p></div>","32","","","","","","","","","","","","","","","","","","","","","","","",""
"","day_1_summary_pick","6","53935","0.0-6.0","""event"",""trial"",""time""
""fullscreenenter"",""0"",""3596""
","
","
","""event"",""trial"",""time""
""fullscreenenter"",""0"",""3596""
","
","null","run_exp/static/audio/clip_31_how_to_pick_a_pirate.m4a","null","","","","","<div class='center'><p>Also, just like yesterday, you will use the 1,2,3 keys on your keyboard to pick a pirate. Press '1' to choose red beard, '2' to choose white beard, and '3' to choose black beard . You only have 3 seconds to pick a pirate, so please make a choice quickly!</p></div>","","","","","","","","","","","","","","","","","","",""
"","html-keyboard-response","7","54535","0.0-7.0","""event"",""trial"",""time""
""fullscreenenter"",""0"",""3596""
","
","
","""event"",""trial"",""time""
""fullscreenenter"",""0"",""3596""
","
","598.3000000119209","<div class='center'><p>Also, just like yesterday, you will use the 1,2,3 keys on your keyboard to pick a pirate. Press '1' to choose red beard, '2' to choose white beard, and '3' to choose black beard . You only have 3 seconds to pick a pirate, so please make a choice quickly!</p><p><b>[Press the space bar to continue]</b></p></div>","32","","","","","","","","","","","","","","","","","","","","","","","",""
"","test_phase_begin","8","84928","0.0-8.0","""event"",""trial"",""time""
""fullscreenenter"",""0"",""3596""
","
","
","""event"",""trial"",""time""
""fullscreenenter"",""0"",""3596""
","
","null","run_exp/static/audio/clip_32_final_place.m4a","null","","","","","<div class='center'><p>You’ve arrived at the final island of your journey! Unfortunately, it’s very foggy out, so you won’t be able to see it in the distance like the other islands you've visited.</p><p>You’ll still be deciding which pirate you want to rob a ship like before. However, because of the fog, you also won’t be able to see the ship.</p><p>This means you do not have to remember the ships you rob on this island.</p><p>Unlike yesterday, you won't be visiting multiple islands today. You will stay on this island for the entire game. This game will last ~30 minutes.</p></div>","","","","","","","","","","","","","","","","","","",""
"","html-keyboard-response","9","94418","0.0-9.0","""event"",""trial"",""time""
""fullscreenenter"",""0"",""3596""
","
","
","""event"",""trial"",""time""
""fullscreenenter"",""0"",""3596""
","
","9486.899999976158","<div class='center'><p>You’ve arrived at the final island of your journey! Unfortunately, it’s very foggy out, so you won’t be able to see it in the distance like the other islands you've visited.</p><p>You’ll still be deciding which pirate you want to rob a ship like before. However, because of the fog, you also won’t be able to see the ship.</p><p>This means you do not have to remember the ships you rob on this island.</p><p>Unlike yesterday, you won't be visiting multiple islands today. You will stay on this island for the entire game. This game will last ~30 minutes.</p><p><b>[Press the space bar to continue]</b></p></div>","32","","","","","","","","","","","","","","","","","","","","","","","",""
"","explain_probe_1","10","102127","0.0-10.0","""event"",""trial"",""time""
""fullscreenenter"",""0"",""3596""
","
","
","""event"",""trial"",""time""
""fullscreenenter"",""0"",""3596""
","
","null","run_exp/static/audio/clip_33_recognition_1.m4a","null","","","","","<div class='center'><p> Sometimes you’ll be shown a ship, and you will be asked if you saw this ship on a past island.</p><p> Here is an example of what you will see.</p><p><img src='run_exp/static/images/tutorial/example_recog_trial.png' height='500'></p></div>","","","","","","","","","","","","","","","","","","",""
"","html-keyboard-response","11","107390","0.0-11.0","""event"",""trial"",""time""
""fullscreenenter"",""0"",""3596""
","
","
","""event"",""trial"",""time""
""fullscreenenter"",""0"",""3596""
","
","5261.099999964237","<div class='center'><p> Sometimes you’ll be shown a ship, and you will be asked if you saw this ship on a past island.</p><p> Here is an example of what you will see.</p><p><img src='run_exp/static/images/tutorial/example_recog_trial.png' height='500'></p><p><b>[Press the space bar to continue]</b></p></div>","32","","","","","","","","","","","","","","","","","","","","","","","",""
"","explain_probe_2","12","129112","0.0-12.0","""event"",""trial"",""time""
""fullscreenenter"",""0"",""3596""
","
","
","""event"",""trial"",""time""
""fullscreenenter"",""0"",""3596""
","
","null","run_exp/static/audio/clip_34_recognition_2.m4a","null","","","","","<div class='center'><p> You will press the 5, 6, 7, 8 keys on your keyboard to respond.</p><p>If you are sure you saw the ship, press <b>5</b> on your keyboard.</p><p> If you think you saw it before but aren't sure, then press <b>6</b>.</p><p> If you think you have <b>not</b> seen it before but aren't sure, then press <b>7</b>.</p><p> If you are sure you did <b>not</b> see the ship before, then press <b>8</b>.</p><p><img src='run_exp/static/images/tutorial/example_recog_trial.png' height='500'></p></div>","","","","","","","","","","","","","","","","","","",""
"","html-keyboard-response","13","130601","0.0-13.0","""event"",""trial"",""time""
""fullscreenenter"",""0"",""3596""
","
","
","""event"",""trial"",""time""
""fullscreenenter"",""0"",""3596""
","
","1486.300000011921","<div class='center'><p> You will press the 5, 6, 7, 8 keys on your keyboard to respond.</p><p>If you are sure you saw the ship, press <b>5</b> on your keyboard.</p><p> If you think you saw it before but aren't sure, then press <b>6</b>.</p><p> If you think you have <b>not</b> seen it before but aren't sure, then press <b>7</b>.</p><p> If you are sure you did <b>not</b> see the ship before, then press <b>8</b>.</p><p><img src='run_exp/static/images/tutorial/example_recog_trial.png' height='500'></p><p><b>[Press the space bar to continue]</b></p></div>","32","","","","","","","","","","","","","","","","","","","","","","","",""
"","explain_outcome","14","147791","0.0-14.0","""event"",""trial"",""time""
""fullscreenenter"",""0"",""3596""
","
","
","""event"",""trial"",""time""
""fullscreenenter"",""0"",""3596""
","
","null","run_exp/static/audio/clip_35_recognition_3.m4a","null","","","","","<div class='center'><p> If you remember correctly, then you’ll get a gold coin like this: </p><p><img src='run_exp/static/images/tutorial/reward_small.png' height='200'></p><p>If you do not remember correctly, then you'll see a red x like this: </p><p><img src='run_exp/static/images/tutorial/reward_no.png' height='200'></p><p>Importantly, when you are shown a ship, take the time to remind yourself which island you saw it on. This will help you in the next part of the study.</p></div>","","","","","","","","","","","","","","","","","","",""
"","html-keyboard-response","15","149003","0.0-15.0","""event"",""trial"",""time""
""fullscreenenter"",""0"",""3596""
","
","
","""event"",""trial"",""time""
""fullscreenenter"",""0"",""3596""
","
","1209.8999999761581","<div class='center'><p> If you remember correctly, then you’ll get a gold coin like this: </p><p><img src='run_exp/static/images/tutorial/reward_small.png' height='200'></p><p>If you do not remember correctly, then you'll see a red x like this: </p><p><img src='run_exp/static/images/tutorial/reward_no.png' height='200'></p><p>Importantly, when you are shown a ship, take the time to remind yourself which island you saw it on. This will help you in the next part of the study.</p><p><b>[Press the space bar to continue]</b></p></div>","32","","","","","","","","","","","","","","","","","","","","","","","",""
"","begin_test_phase","16","164831","0.0-16.0","""event"",""trial"",""time""
""fullscreenenter"",""0"",""3596""
","
","
","""event"",""trial"",""time""
""fullscreenenter"",""0"",""3596""
","
","null","run_exp/static/audio/clip_36_begin_final.m4a","null","","","","","<div class='center'><p>Let's go over the important points again. Your job is to: </p><p>1. Pick the pirate who is best at robbing ships and will bring you back gold coins. </p><p>2. Correctly remember whether or not you saw a ship before. If you did see the ship before, remind yourself on which island you saw it. </p></div>","","","","","","","","","","","","","","","","","","",""
"","html-keyboard-response","17","164956","0.0-17.0","""event"",""trial"",""time""
""fullscreenenter"",""0"",""3596""
","
","
","""event"",""trial"",""time""
""fullscreenenter"",""0"",""3596""
","
","54.5","<div class='center'><p>Let's go over the important points again. Your job is to: </p><p>1. Pick the pirate who is best at robbing ships and will bring you back gold coins. </p><p>2. Correctly remember whether or not you saw a ship before. If you did see the ship before, remind yourself on which island you saw it. </p><p><b>[Press the space bar to continue]</b></p></div>","32","","","","","","","","","","","","","","","","","","","","","","","",""
"","do_welcome","18","168979","0.0-18.0","""event"",""trial"",""time""
""fullscreenenter"",""0"",""3596""
","
","
","""event"",""trial"",""time""
""fullscreenenter"",""0"",""3596""
","
","null","","","","","","","","null","","","","","","","","","","","","","","","","","",""
"","do_trial","19","175069","0.0-19.0-0.0","""event"",""trial"",""time""
""fullscreenenter"",""0"",""3596""
","
","
","""event"",""trial"",""time""
""fullscreenenter"",""0"",""3596""
","
","null","","","","","","","","null","1,1,0","6","blank","230","null","0.08902820200232928","0.7743563468855618","0.22343645605040252","","","","","","","","","",""
"","html-keyboard-response","20","176080","0.0-19.0-1.0","""event"",""trial"",""time""
""fullscreenenter"",""0"",""3596""
","
","
","""event"",""trial"",""time""
""fullscreenenter"",""0"",""3596""
","
","null","<p></p>","null","","","","","","","","","","","","","","","","","","","","","","","",""
"","do_trial","21","179139","0.0-20.0-0.0","""event"",""trial"",""time""
""fullscreenenter"",""0"",""3596""
","
","
","""event"",""trial"",""time""
""fullscreenenter"",""0"",""3596""
","
","489","","","","","","","","49","0,1,0","6","blank","231","null","0.10504109861992923","0.6947986371354078","0.3386687813012512","0","","","","","","","","",""
"","html-keyboard-response","22","180146","0.0-20.0-1.0","""event"",""trial"",""time""
""fullscreenenter"",""0"",""3596""
","
","
","""event"",""trial"",""time""
""fullscreenenter"",""0"",""3596""
","
","null","<p></p>","null","","","","","","","","","","","","","","","","","","","","","","","",""
"","do_trial","23","182803","0.0-21.0-0.0","""event"",""trial"",""time""
""fullscreenenter"",""0"",""3596""
","
","
","""event"",""trial"",""time""
""fullscreenenter"",""0"",""3596""
","
","70.40000003576279","","","","","","","","49","0,1,0","6","blank","232","null","0.06430412363395631","0.6627846691729203","0.38191550778393335","0","","","","","","","","",""
"","html-keyboard-response","24","183811","0.0-21.0-1.0","""event"",""trial"",""time""
""fullscreenenter"",""0"",""3596""
","
","
","""event"",""trial"",""time""
""fullscreenenter"",""0"",""3596""
","
","null","<p></p>","null","","","","","","","","","","","","","","","","","","","","","","","",""
"","do_trial","25","186396","0.0-22.0-0.0","""event"",""trial"",""time""
""fullscreenenter"",""0"",""3596""
","
","
","""event"",""trial"",""time""
""fullscreenenter"",""0"",""3596""
","
","0.10000002384185791","","","","","","","","49","1,0,1","6","blank","233","null","0.10242073040009775","0.7674640126290959","0.44025380771630673","1","","","","","","","","",""
"","html-keyboard-response","26","187404","0.0-22.0-1.0","""event"",""trial"",""time""
""fullscreenenter"",""0"",""3596""
","
","
","""event"",""trial"",""time""
""fullscreenenter"",""0"",""3596""
","
","null","<p></p>","null","","","","","","","","","","","","","","","","","","","","","","","",""
"","do_trial","27","190469","0.0-23.0-0.0","""event"",""trial"",""time""
""fullscreenenter"",""0"",""3596""
","
","
","""event"",""trial"",""time""
""fullscreenenter"",""0"",""3596""
","
","477.89999997615814","","","","","","","","49","0,0,1","6","blank","234","null","0.0634804281289706","0.7280266507090513","0.44115910164553124","0","","","","","","","","",""
"","html-keyboard-response","28","191480","0.0-23.0-1.0","""event"",""trial"",""time""
""fullscreenenter"",""0"",""3596""
","
","
","""event"",""trial"",""time""
""fullscreenenter"",""0"",""3596""
","
","null","<p></p>","null","","","","","","","","","","","","","","","","","","","","","","","",""
"","do_trial","29","194141","0.0-24.0-0.0","""event"",""trial"",""time""
""fullscreenenter"",""0"",""3596""
","
","
","""event"",""trial"",""time""
""fullscreenenter"",""0"",""3596""
","
","97.79999995231628","","","","","","","","51","0,1,0","6","blank","235","null","0.14791859351215655","0.68032199405333","0.35522566958263474","0","","","","","","","","",""
"","html-keyboard-response","30","195149","0.0-24.0-1.0","""event"",""trial"",""time""
""fullscreenenter"",""0"",""3596""
","
","
","""event"",""trial"",""time""
""fullscreenenter"",""0"",""3596""
","
","null","<p></p>","null","","","","","","","","","","","","","","","","","","","","","","","",""
"","do_trial","31","197821","0.0-25.0-0.0","""event"",""trial"",""time""
""fullscreenenter"",""0"",""3596""
","
","
","""event"",""trial"",""time""
""fullscreenenter"",""0"",""3596""
","
","98.80000001192093","","","","","","","","50","0,1,0","6","blank","236","null","0.0701796289318739","0.6922184606104433","0.3300017457156263","1","","","","","","","","",""
"","html-keyboard-response","32","198827","0.0-25.0-1.0","""event"",""trial"",""time""
""fullscreenenter"",""0"",""3596""
","
","
","""event"",""trial"",""time""
""fullscreenenter"",""0"",""3596""
","
","null","<p></p>","null","","","","","","","","","","","","","","","","","","","","","","","",""
"","do_trial","33","201402","0.0-26.0-0.0","""event"",""trial"",""time""
""fullscreenenter"",""0"",""3596""
","
","
","""event"",""trial"",""time""
""fullscreenenter"",""0"",""3596""
","
","0.09999996423721313","","","","","","","","50","0,1,0","6","blank","237","null","0.06450724163148766","0.6214413638323386","0.2542636973847497","1","","","","","","","","",""
"","html-keyboard-response","34","202418","0.0-26.0-1.0","""event"",""trial"",""time""
""fullscreenenter"",""0"",""3596""
","
","
","""event"",""trial"",""time""
""fullscreenenter"",""0"",""3596""
","
","null","<p></p>","null","","","","","","","","","","","","","","","","","","","","","","","",""
"","do_trial","35","205166","0.0-27.0-0.0","""event"",""trial"",""time""
""fullscreenenter"",""0"",""3596""
","
","
","""event"",""trial"",""time""
""fullscreenenter"",""0"",""3596""
","
","157","","","","","","","","50","0,1,0","6","blank","238","null","0.10019530009730698","0.6803812467282436","0.1549775633734378","1","","","","","","","","",""
"","html-keyboard-response","36","206173","0.0-27.0-1.0","""event"",""trial"",""time""
""fullscreenenter"",""0"",""3596""
","
","
","""event"",""trial"",""time""
""fullscreenenter"",""0"",""3596""
","
","null","<p></p>","null","","","","","","","","","","","","","","","","","","","","","","","",""
"","do_trial","37","208746","0.0-28.0-0.0","""event"",""trial"",""time""
""fullscreenenter"",""0"",""3596""
","
","
","""event"",""trial"",""time""
""fullscreenenter"",""0"",""3596""
","
","0.10000002384185791","","","","","","","","50","0,1,0","6","blank","239","null","0.07567717386808788","0.7487761970801188","0.1542061120259852","1","","","","","","","","",""
"","html-keyboard-response","38","209751","0.0-28.0-1.0","""event"",""trial"",""time""
""fullscreenenter"",""0"",""3596""
","
","
","""event"",""trial"",""time""
""fullscreenenter"",""0"",""3596""
","
","null","<p></p>","null","","","","","","","","","","","","","","","","","","","","","","","",""
"","do_trial","39","212742","0.0-29.0-0.0","""event"",""trial"",""time""
""fullscreenenter"",""0"",""3596""
","
","
","""event"",""trial"",""time""
""fullscreenenter"",""0"",""3596""
","
","421.39999997615814","","","","","","","","50","0,0,0","6","blank","240","null","0.1437027947003158","0.6672858836539716","0.20446159920956217","0","","","","","","","","",""
"","html-keyboard-response","40","213759","0.0-29.0-1.0","""event"",""trial"",""time""
""fullscreenenter"",""0"",""3596""
","
","
","""event"",""trial"",""time""
""fullscreenenter"",""0"",""3596""
","
","null","<p></p>","null","","","","","","","","","","","","","","","","","","","","","","","",""
"","do_recog","41","219788","0.0-30.0-0.0","""event"",""trial"",""time""
""fullscreenenter"",""0"",""3596""
","
","
","""event"",""trial"",""time""
""fullscreenenter"",""0"",""3596""
","
","null","","","","","","","","null","","","","241","probe-238","","","","","0","[object Object]","null","null","0","","","",""
"","html-keyboard-response","42","220803","0.0-30.0-1.0","""event"",""trial"",""time""
""fullscreenenter"",""0"",""3596""
","
","
","""event"",""trial"",""time""
""fullscreenenter"",""0"",""3596""
","
","null","<p></p>","null","","","","","","","","","","","","","","","","","","","","","","","",""
"","do_trial","43","224816","0.0-31.0-0.0","""event"",""trial"",""time""
""fullscreenenter"",""0"",""3596""
","
","
","""event"",""trial"",""time""
""fullscreenenter"",""0"",""3596""
","
","1437.5999999642372","","","","","","","","50","0,1,0","6","blank","242","null","0.08055060931088556","0.8322063928330045","0.30804501473754825","1","","","","","","","","",""
"","html-keyboard-response","44","225824","0.0-31.0-1.0","""event"",""trial"",""time""
""fullscreenenter"",""0"",""3596""
","
","
","""event"",""trial"",""time""
""fullscreenenter"",""0"",""3596""
","
","null","<p></p>","null","","","","","","","","","","","","","","","","","","","","","","","",""
"","do_trial","45","229621","0.0-32.0-0.0","""event"",""trial"",""time""
""fullscreenenter"",""0"",""3596""
","
","
","""event"",""trial"",""time""
""fullscreenenter"",""0"",""3596""
","
","1218","","","","","","","","51","0,0,1","6","blank","243","null","0.15403441725648692","0.4985063831297948","0.3305558306259475","1","","","","","","","","",""
"","html-keyboard-response","46","230625","0.0-32.0-1.0","""event"",""trial"",""time""
""fullscreenenter"",""0"",""3596""
","
","
","""event"",""trial"",""time""
""fullscreenenter"",""0"",""3596""
","
","null","<p></p>","null","","","","","","","","","","","","","","","","","","","","","","","",""
"","do_recog","47","234297","0.0-33.0-0.0","""event"",""trial"",""time""
""fullscreenenter"",""0"",""3596""
","
","
","""event"",""trial"",""time""
""fullscreenenter"",""0"",""3596""
","
","2160.199999988079","","","","","","","","53","","","","244","probe-143","","","","","1","[object Object]","72","1","1","","","",""
"","html-keyboard-response","48","235307","0.0-33.0-1.0","""event"",""trial"",""time""
""fullscreenenter"",""0"",""3596""
","
","
","""event"",""trial"",""time""
""fullscreenenter"",""0"",""3596""
","
","null","<p></p>","null","","","","","","","","","","","","","","","","","","","","","","","",""
"","do_trial","49","239128","0.0-34.0-0.0","""event"",""trial"",""time""
""fullscreenenter"",""0"",""3596""
","
","
","""event"",""trial"",""time""
""fullscreenenter"",""0"",""3596""
","
","1247.5999999642372","","","","","","","","50","1,0,0","6","blank","245","null","0.35924471888117326","0.4129565841673288","0.3712895596423113","0","","","","","","","","",""
"","html-keyboard-response","50","240137","0.0-34.0-1.0","""event"",""trial"",""time""
""fullscreenenter"",""0"",""3596""
","
","
","""event"",""trial"",""time""
""fullscreenenter"",""0"",""3596""
","
","null","<p></p>","null","","","","","","","","","","","","","","","","","","","","","","","",""
"","do_recog","51","242874","0.0-35.0-0.0","""event"",""trial"",""time""
""fullscreenenter"",""0"",""3596""
","
","
","""event"",""trial"",""time""
""fullscreenenter"",""0"",""3596""
","
","1227","","","","","","","","54","","","","246","probe-241","","","","","0","[object Object]","null","null","0","","","",""
"","html-keyboard-response","52","243892","0.0-35.0-1.0","""event"",""trial"",""time""
""fullscreenenter"",""0"",""3596""
","
","
","""event"",""trial"",""time""
""fullscreenenter"",""0"",""3596""
","
","null","<p></p>","null","","","","","","","","","","","","","","","","","","","","","","","",""
"","do_trial","53","246852","0.0-36.0-0.0","""event"",""trial"",""time""
""fullscreenenter"",""0"",""3596""
","
","
","""event"",""trial"",""time""
""fullscreenenter"",""0"",""3596""
","
","380.69999998807907","","","","","","","","49","0,1,0","6","blank","247","null","0.38941437269193735","0.31308044038062544","0.2090816803499833","0","","","","","","","","",""
"","html-keyboard-response","54","247855","0.0-36.0-1.0","""event"",""trial"",""time""
""fullscreenenter"",""0"",""3596""
","
","
","""event"",""trial"",""time""
""fullscreenenter"",""0"",""3596""
","
","null","<p></p>","null","","","","","","","","","","","","","","","","","","","","","","","",""
"","do_recog","55","250753","0.0-37.0-0.0","""event"",""trial"",""time""
""fullscreenenter"",""0"",""3596""
","
","
","""event"",""trial"",""time""
""fullscreenenter"",""0"",""3596""
","
","1381.3999999761581","","","","","","","","54","","","","248","probe-36","","","","","1","[object Object]","157","3","1","","","",""
"","html-keyboard-response","56","251764","0.0-37.0-1.0","""event"",""trial"",""time""
""fullscreenenter"",""0"",""3596""
","
","
","""event"",""trial"",""time""
""fullscreenenter"",""0"",""3596""
","
","null","<p></p>","null","","","","","","","","","","","","","","","","","","","","","","","",""
"","do_trial","57","255640","0.0-38.0-0.0","""event"",""trial"",""time""
""fullscreenenter"",""0"",""3596""
","
","
","""event"",""trial"",""time""
""fullscreenenter"",""0"",""3596""
","
","1293.300000011921","","","","","","","","51","1,0,0","6","blank","249","null","0.6294332281980977","0.09554182395542499","0.10897843368434618","0","","","","","","","","",""
"","html-keyboard-response","58","256652","0.0-38.0-1.0","""event"",""trial"",""time""
""fullscreenenter"",""0"",""3596""
","
","
","""event"",""trial"",""time""
""fullscreenenter"",""0"",""3596""
","
","null","<p></p>","null","","","","","","","","","","","","","","","","","","","","","","","",""
"","do_trial","59","259673","0.0-39.0-0.0","""event"",""trial"",""time""
""fullscreenenter"",""0"",""3596""
","
","
","""event"",""trial"",""time""
""fullscreenenter"",""0"",""3596""
","
","449.19999998807907","","","","","","","","50","1,0,0","6","blank","250","null","0.6510145921462719","0.14609736258962888","0.1452880740950501","0","","","","","","","","",""
"","html-keyboard-response","60","260676","0.0-39.0-1.0","""event"",""trial"",""time""
""fullscreenenter"",""0"",""3596""
","
","
","""event"",""trial"",""time""
""fullscreenenter"",""0"",""3596""
","
","null","<p></p>","null","","","","","","","","","","","","","","","","","","","","","","","",""
"","do_trial","61","264333","0.0-40.0-0.0","""event"",""trial"",""time""
""fullscreenenter"",""0"",""3596""
","
","
","""event"",""trial"",""time""
""fullscreenenter"",""0"",""3596""
","
","1082.1000000238419","","","","","","","","51","1,0,1","6","blank","251","null","0.6008383814395785","0.10311885204328217","0.1975217317800065","1","","","","","","","","",""
"","html-keyboard-response","62","265339","0.0-40.0-1.0","""event"",""trial"",""time""
""fullscreenenter"",""0"",""3596""
","
","
","""event"",""trial"",""time""
""fullscreenenter"",""0"",""3596""
","
","null","<p></p>","null","","","","","","","","","","","","","","","","","","","","","","","",""
"","do_trial","63","269124","0.0-41.0-0.0","""event"",""trial"",""time""
""fullscreenenter"",""0"",""3596""
","
","
","""event"",""trial"",""time""
""fullscreenenter"",""0"",""3596""
","
","1206.6000000238419","","","","","","","","50","1,1,0","6","blank","252","null","0.659858731451422","0.14024554369616168","0.20170420445263523","1","","","","","","","","",""
"","html-keyboard-response","64","270127","0.0-41.0-1.0","""event"",""trial"",""time""
""fullscreenenter"",""0"",""3596""
","
","
","""event"",""trial"",""time""
""fullscreenenter"",""0"",""3596""
","
","null","<p></p>","null","","","","","","","","","","","","","","","","","","","","","","","",""
"","do_trial","65","272993","0.0-42.0-0.0","""event"",""trial"",""time""
""fullscreenenter"",""0"",""3596""
","
","
","""event"",""trial"",""time""
""fullscreenenter"",""0"",""3596""
","
","278.5","","","","","","","","50","0,0,1","6","blank","253","null","0.7663567733999801","0.07550015089616441","0.21485721833767968","0","","","","","","","","",""
"","html-keyboard-response","66","274007","0.0-42.0-1.0","""event"",""trial"",""time""
""fullscreenenter"",""0"",""3596""
","
","
","""event"",""trial"",""time""
""fullscreenenter"",""0"",""3596""
","
","null","<p></p>","null","","","","","","","","","","","","","","","","","","","","","","","",""
"","do_trial","67","277372","0.0-43.0-0.0","""event"",""trial"",""time""
""fullscreenenter"",""0"",""3596""
","
","
","""event"",""trial"",""time""
""fullscreenenter"",""0"",""3596""
","
","786.8000000119209","","","","","","","","51","1,0,0","6","blank","254","null","0.5356860106744407","0.07199932403319047","0.23958668023594804","0","","","","","","","","",""
"","html-keyboard-response","68","278388","0.0-43.0-1.0","""event"",""trial"",""time""
""fullscreenenter"",""0"",""3596""
","
","
","""event"",""trial"",""time""
""fullscreenenter"",""0"",""3596""
","
","null","<p></p>","null","","","","","","","","","","","","","","","","","","","","","","","",""
"","do_trial","69","281022","0.0-44.0-0.0","""event"",""trial"",""time""
""fullscreenenter"",""0"",""3596""
","
","
","""event"",""trial"",""time""
""fullscreenenter"",""0"",""3596""
","
","57","","","","","","","","49","0,0,0","6","blank","255","null","0.5419356952509369","0.1673667927405674","0.3339209389950345","0","","","","","","","","",""
"","html-keyboard-response","70","282027","0.0-44.0-1.0","""event"",""trial"",""time""
""fullscreenenter"",""0"",""3596""
","
","
","""event"",""trial"",""time""
""fullscreenenter"",""0"",""3596""
","
","null","<p></p>","null","","","","","","","","","","","","","","","","","","","","","","","",""
"","do_recog","71","284825","0.0-45.0-0.0","""event"",""trial"",""time""
""fullscreenenter"",""0"",""3596""
","
","
","""event"",""trial"",""time""
""fullscreenenter"",""0"",""3596""
","
","1282.5","","","","","","","","54","","","","256","probe-152","","","","","1","[object Object]","152","3","1","","","",""
"","html-keyboard-response","72","285827","0.0-45.0-1.0","""event"",""trial"",""time""
""fullscreenenter"",""0"",""3596""
","
","
","""event"",""trial"",""time""
""fullscreenenter"",""0"",""3596""
","
","null","<p></p>","null","","","","","","","","","","","","","","","","","","","","","","","",""
"","do_trial","73","289385","0.0-46.0-0.0","""event"",""trial"",""time""
""fullscreenenter"",""0"",""3596""
","
","
","""event"",""trial"",""time""
""fullscreenenter"",""0"",""3596""
","
","982.2999999523163","","","","","","","","50","0,1,0","6","blank","257","null","0.3185610380594095","0.1770231006763069","0.3485387797994746","1","","","","","","","","",""
"","html-keyboard-response","74","290400","0.0-46.0-1.0","""event"",""trial"",""time""
""fullscreenenter"",""0"",""3596""
","
","
","""event"",""trial"",""time""
""fullscreenenter"",""0"",""3596""
","
","null","<p></p>","null","","","","","","","","","","","","","","","","","","","","","","","",""
"","do_trial","75","293251","0.0-47.0-0.0","""event"",""trial"",""time""
""fullscreenenter"",""0"",""3596""
","
","
","""event"",""trial"",""time""
""fullscreenenter"",""0"",""3596""
","
","266.19999998807907","","","","","","","","50","1,0,1","6","blank","258","null","0.40789196743478123","0.09340063662381112","0.23531673452570698","0","","","","","","","","",""
"","html-keyboard-response","76","294258","0.0-47.0-1.0","""event"",""trial"",""time""
""fullscreenenter"",""0"",""3596""
","
","
","""event"",""trial"",""time""
""fullscreenenter"",""0"",""3596""
","
","null","<p></p>","null","","","","","","","","","","","","","","","","","","","","","","","",""
"","do_trial","77","296985","0.0-48.0-0.0","""event"",""trial"",""time""
""fullscreenenter"",""0"",""3596""
","
","
","""event"",""trial"",""time""
""fullscreenenter"",""0"",""3596""
","
","145.4000000357628","","","","","","","","50","0,0,0","6","blank","259","null","0.22534840265205855","0.21132481773719117","0.3759101150311742","0","","","","","","","","",""
"","html-keyboard-response","78","297988","0.0-48.0-1.0","""event"",""trial"",""time""
""fullscreenenter"",""0"",""3596""
","
","
","""event"",""trial"",""time""
""fullscreenenter"",""0"",""3596""
","
","null","<p></p>","null","","","","","","","","","","","","","","","","","","","","","","","",""
"","do_trial","79","300819","0.0-49.0-0.0","""event"",""trial"",""time""
""fullscreenenter"",""0"",""3596""
","
","
","""event"",""trial"",""time""
""fullscreenenter"",""0"",""3596""
","
","238","","","","","","","","50","0,0,1","6","blank","260","null","0.39209313925694084","0.14939950975618882","0.5020210571771657","0","","","","","","","","",""
"","html-keyboard-response","80","301826","0.0-49.0-1.0","""event"",""trial"",""time""
""fullscreenenter"",""0"",""3596""
","
","
","""event"",""trial"",""time""
""fullscreenenter"",""0"",""3596""
","
","null","<p></p>","null","","","","","","","","","","","","","","","","","","","","","","","",""
"","do_recog","81","304596","0.0-50.0-0.0","""event"",""trial"",""time""
""fullscreenenter"",""0"",""3596""
","
","
","""event"",""trial"",""time""
""fullscreenenter"",""0"",""3596""
","
","1250.5","","","","","","","","55","","","","261","probe-180","","","","","1","[object Object]","196","4","0","","","",""
"","html-keyboard-response","82","305600","0.0-50.0-1.0","""event"",""trial"",""time""
""fullscreenenter"",""0"",""3596""
","
","
","""event"",""trial"",""time""
""fullscreenenter"",""0"",""3596""
","
","null","<p></p>","null","","","","","","","","","","","","","","","","","","","","","","","",""
"","do_trial","83","308566","0.0-51.0-0.0","""event"",""trial"",""time""
""fullscreenenter"",""0"",""3596""
","
","
","""event"",""trial"",""time""
""fullscreenenter"",""0"",""3596""
","
","378.4000000357628","","","","","","","","50","1,0,0","6","blank","262","null","0.46347238503314786","0.11346892473690144","0.5549443041871553","0","","","","","","","","",""
"","html-keyboard-response","84","309571","0.0-51.0-1.0","""event"",""trial"",""time""
""fullscreenenter"",""0"",""3596""
","
","
","""event"",""trial"",""time""
""fullscreenenter"",""0"",""3596""
","
","null","<p></p>","null","","","","","","","","","","","","","","","","","","","","","","","",""
"","do_trial","85","312161","0.0-52.0-0.0","""event"",""trial"",""time""
""fullscreenenter"",""0"",""3596""
","
","
","""event"",""trial"",""time""
""fullscreenenter"",""0"",""3596""
","
","0.10000002384185791","","","","","","","","50","1,0,1","6","blank","263","null","0.6033034525605205","0.07339414814248739","0.4588524827258945","0","","","","","","","","",""
"","html-keyboard-response","86","313177","0.0-52.0-1.0","""event"",""trial"",""time""
""fullscreenenter"",""0"",""3596""
","
","
","""event"",""trial"",""time""
""fullscreenenter"",""0"",""3596""
","
","null","<p></p>","null","","","","","","","","","","","","","","","","","","","","","","","",""
"","do_trial","87","315765","0.0-53.0-0.0","""event"",""trial"",""time""
""fullscreenenter"",""0"",""3596""
","
","
","""event"",""trial"",""time""
""fullscreenenter"",""0"",""3596""
","
","0.19999998807907104","","","","","","","","50","1,0,0","6","blank","264","null","0.6948066912315717","0.16252271441812963","0.5794073255978759","0","","","","","","","","",""
"","html-keyboard-response","88","316773","0.0-53.0-1.0","""event"",""trial"",""time""
""fullscreenenter"",""0"",""3596""
","
","
","""event"",""trial"",""time""
""fullscreenenter"",""0"",""3596""
","
","null","<p></p>","null","","","","","","","","","","","","","","","","","","","","","","","",""
"","do_trial","89","319422","0.0-54.0-0.0","""event"",""trial"",""time""
""fullscreenenter"",""0"",""3596""
","
","
","""event"",""trial"",""time""
""fullscreenenter"",""0"",""3596""
","
","65.60000002384186","","","","","","","","51","0,0,0","6","blank","265","null","0.5459668471639314","0.1629160332032587","0.4562021295435662","0","","","","","","","","",""
"","html-keyboard-response","90","320432","0.0-54.0-1.0","""event"",""trial"",""time""
""fullscreenenter"",""0"",""3596""
","
","
","""event"",""trial"",""time""
""fullscreenenter"",""0"",""3596""
","
","null","<p></p>","null","","","","","","","","","","","","","","","","","","","","","","","",""
"","do_recog","91","323365","0.0-55.0-0.0","""event"",""trial"",""time""
""fullscreenenter"",""0"",""3596""
","
","
","""event"",""trial"",""time""
""fullscreenenter"",""0"",""3596""
","
","1409.699999988079","","","","","","","","54","","","","266","probe-154","","","","","1","[object Object]","118","2","1","","","",""
"","html-keyboard-response","92","324368","0.0-55.0-1.0","""event"",""trial"",""time""
""fullscreenenter"",""0"",""3596""
","
","
","""event"",""trial"",""time""
""fullscreenenter"",""0"",""3596""
","
","null","<p></p>","null","","","","","","","","","","","","","","","","","","","","","","","",""
"","do_trial","93","327682","0.0-56.0-0.0","""event"",""trial"",""time""
""fullscreenenter"",""0"",""3596""
","
","
","""event"",""trial"",""time""
""fullscreenenter"",""0"",""3596""
","
","741.8000000119209","","","","","","","","51","1,0,0","6","blank","267","null","0.6592302054477855","0.09987418353345527","0.3337896730002934","0","","","","","","","","",""
"","html-keyboard-response","94","328690","0.0-56.0-1.0","""event"",""trial"",""time""
""fullscreenenter"",""0"",""3596""
","
","
","""event"",""trial"",""time""
""fullscreenenter"",""0"",""3596""
","
","null","<p></p>","null","","","","","","","","","","","","","","","","","","","","","","","",""
"","do_trial","95","332152","0.0-57.0-0.0","""event"",""trial"",""time""
""fullscreenenter"",""0"",""3596""
","
","
","""event"",""trial"",""time""
""fullscreenenter"",""0"",""3596""
","
","883.6999999880791","","","","","","","","51","0,0,1","6","blank","268","null","0.600496155627238","0.16367561447975498","0.2881791545341267","1","","","","","","","","",""
"","html-keyboard-response","96","333169","0.0-57.0-1.0","""event"",""trial"",""time""
""fullscreenenter"",""0"",""3596""
","
","
","""event"",""trial"",""time""
""fullscreenenter"",""0"",""3596""
","
","null","<p></p>","null","","","","","","","","","","","","","","","","","","","","","","","",""
"","break","97","336202","0.0-58.0-0.0","""event"",""trial"",""time""
""fullscreenenter"",""0"",""3596""
","
","
","""event"",""trial"",""time""
""fullscreenenter"",""0"",""3596""
","
","3031.900000035763","<div class='center'><p>Time to take a quick break! You have 2 minutes to rest, but you can move on sooner if you'd like.</p><p> Press the <b>space bar</b> to continue.</p></div>","32","","","","","","","","","","","","","","","","","","","","","","","",""
"","do_trial","98","340029","0.0-58.0-1.0","""event"",""trial"",""time""
""fullscreenenter"",""0"",""3596""
","
","
","""event"",""trial"",""time""
""fullscreenenter"",""0"",""3596""
","
","1244.0999999642372","","","","","","","","51","1,0,0","6","blank","269","null","0.5261449748327452","0.16234466309743567","0.4154709796804012","0","","","","","","","","",""
"","html-keyboard-response","99","341037","0.0-58.0-2.0","""event"",""trial"",""time""
""fullscreenenter"",""0"",""3596""
","
","
","""event"",""trial"",""time""
""fullscreenenter"",""0"",""3596""
","
","null","<p></p>","null","","","","","","","","","","","","","","","","","","","","","","","",""
"","do_recog","100","343349","0.0-59.0-0.0","""event"",""trial"",""time""
""fullscreenenter"",""0"",""3596""
","
","
","""event"",""trial"",""time""
""fullscreenenter"",""0"",""3596""
","
","791.3999999761581","","","","","","","","54","","","","270","probe-94","","","","","1","[object Object]","199","4","1","","","",""
"","html-keyboard-response","101","344355","0.0-59.0-1.0","""event"",""trial"",""time""
""fullscreenenter"",""0"",""3596""
","
","
","""event"",""trial"",""time""
""fullscreenenter"",""0"",""3596""
","
","null","<p></p>","null","","","","","","","","","","","","","","","","","","","","","","","",""
"","do_trial","102","347139","0.0-60.0-0.0","""event"",""trial"",""time""
""fullscreenenter"",""0"",""3596""
","
","
","""event"",""trial"",""time""
""fullscreenenter"",""0"",""3596""
","
","199.69999998807907","","","","","","","","50","1,0,1","6","blank","271","null","0.5389911962832795","0.3046642439861393","0.3333927863395914","0","","","","","","","","",""
"","html-keyboard-response","103","348143","0.0-60.0-1.0","""event"",""trial"",""time""
""fullscreenenter"",""0"",""3596""
","
","
","""event"",""trial"",""time""
""fullscreenenter"",""0"",""3596""
","
","null","<p></p>","null","","","","","","","","","","","","","","","","","","","","","","","",""
"","do_recog","104","350654","0.0-61.0-0.0","""event"",""trial"",""time""
""fullscreenenter"",""0"",""3596""
","
","
","""event"",""trial"",""time""
""fullscreenenter"",""0"",""3596""
","
","991.8000000119209","","","","","","","","54","","","","272","probe-196","","","","","1","[object Object]","79","1","1","","","",""
"","html-keyboard-response","105","351662","0.0-61.0-1.0","""event"",""trial"",""time""
""fullscreenenter"",""0"",""3596""
","
","
","""event"",""trial"",""time""
""fullscreenenter"",""0"",""3596""
","
","null","<p></p>","null","","","","","","","","","","","","","","","","","","","","","","","",""
"","do_trial","106","354386","0.0-62.0-0.0","""event"",""trial"",""time""
""fullscreenenter"",""0"",""3596""
","
","
","""event"",""trial"",""time""
""fullscreenenter"",""0"",""3596""
","
","144.69999998807907","","","","","","","","50","0,0,0","6","blank","273","null","0.5234798517712045","0.11925931925451008","0.39240528330189284","0","","","","","","","","",""
"","html-keyboard-response","107","355393","0.0-62.0-1.0","""event"",""trial"",""time""
""fullscreenenter"",""0"",""3596""
","
","
","""event"",""trial"",""time""
""fullscreenenter"",""0"",""3596""
","
","null","<p></p>","null","","","","","","","","","","","","","","","","","","","","","","","",""
"","do_recog","108","357790","0.0-63.0-0.0","""event"",""trial"",""time""
""fullscreenenter"",""0"",""3596""
","
","
","""event"",""trial"",""time""
""fullscreenenter"",""0"",""3596""
","
","888.5","","","","","","","","54","","","","274","probe-197","","","","","1","[object Object]","156","3","1","","","",""
"","html-keyboard-response","109","358806","0.0-63.0-1.0","""event"",""trial"",""time""
""fullscreenenter"",""0"",""3596""
","
","
","""event"",""trial"",""time""
""fullscreenenter"",""0"",""3596""
","
","null","<p></p>","null","","","","","","","","","","","","","","","","","","","","","","","",""
"","do_trial","110","361754","0.0-64.0-0.0","""event"",""trial"",""time""
""fullscreenenter"",""0"",""3596""
","
","
","""event"",""trial"",""time""
""fullscreenenter"",""0"",""3596""
","
","364.39999997615814","","","","","","","","50","1,0,1","6","blank","275","null","0.5215593083711514","0.16670613406080137","0.2582151019118011","0","","","","","","","","",""
"","html-keyboard-response","111","362763","0.0-64.0-1.0","""event"",""trial"",""time""
""fullscreenenter"",""0"",""3596""
","
","
","""event"",""trial"",""time""
""fullscreenenter"",""0"",""3596""
","
","null","<p></p>","null","","","","","","","","","","","","","","","","","","","","","","","",""
"","do_trial","112","366475","0.0-65.0-0.0","""event"",""trial"",""time""
""fullscreenenter"",""0"",""3596""
","
","
","""event"",""trial"",""time""
""fullscreenenter"",""0"",""3596""
","
","1141.199999988079","","","","","","","","51","1,0,1","6","blank","276","null","0.48424790545696994","0.16480128720798498","0.29844792719594404","1","","","","","","","","",""
"","html-keyboard-response","113","367482","0.0-65.0-1.0","""event"",""trial"",""time""
""fullscreenenter"",""0"",""3596""
","
","
","""event"",""trial"",""time""
""fullscreenenter"",""0"",""3596""
","
","null","<p></p>","null","","","","","","","","","","","","","","","","","","","","","","","",""
"","do_trial","114","370255","0.0-66.0-0.0","""event"",""trial"",""time""
""fullscreenenter"",""0"",""3596""
","
","
","""event"",""trial"",""time""
""fullscreenenter"",""0"",""3596""
","
","202.70000004768372","","","","","","","","51","0,0,1","6","blank","277","null","0.5933220342148339","0.17663743309076693","0.30064742024515534","1","","","","","","","","",""
"","html-keyboard-response","115","371272","0.0-66.0-1.0","""event"",""trial"",""time""
""fullscreenenter"",""0"",""3596""
","
","
","""event"",""trial"",""time""
""fullscreenenter"",""0"",""3596""
","
","null","<p></p>","null","","","","","","","","","","","","","","","","","","","","","","","",""
"","do_recog","116","373495","0.0-67.0-0.0","""event"",""trial"",""time""
""fullscreenenter"",""0"",""3596""
","
","
","""event"",""trial"",""time""
""fullscreenenter"",""0"",""3596""
","
","701.7999999523163","","","","","","","","54","","","","278","probe-209","","","","","1","[object Object]","154","3","1","","","",""
"","html-keyboard-response","117","374501","0.0-67.0-1.0","""event"",""trial"",""time""
""fullscreenenter"",""0"",""3596""
","
","
","""event"",""trial"",""time""
""fullscreenenter"",""0"",""3596""
","
","null","<p></p>","null","","","","","","","","","","","","","","","","","","","","","","","",""
"","do_trial","118","377498","0.0-68.0-0.0","""event"",""trial"",""time""
""fullscreenenter"",""0"",""3596""
","
","
","""event"",""trial"",""time""
""fullscreenenter"",""0"",""3596""
","
","413.89999997615814","","","","","","","","51","1,0,1","6","blank","279","null","0.42347051903521477","0.1822174754127028","0.34896207064474716","1","","","","","","","","",""
"","html-keyboard-response","119","378502","0.0-68.0-1.0","""event"",""trial"",""time""
""fullscreenenter"",""0"",""3596""
","
","
","""event"",""trial"",""time""
""fullscreenenter"",""0"",""3596""
","
","null","<p></p>","null","","","","","","","","","","","","","","","","","","","","","","","",""
"","do_trial","120","381342","0.0-69.0-0.0","""event"",""trial"",""time""
""fullscreenenter"",""0"",""3596""
","
","
","""event"",""trial"",""time""
""fullscreenenter"",""0"",""3596""
","
","255.39999997615814","","","","","","","","51","1,0,0","6","blank","280","null","0.5613514642589743","0.13930345427457355","0.3647439968779691","0","","","","","","","","",""
"","html-keyboard-response","121","382348","0.0-69.0-1.0","""event"",""trial"",""time""
""fullscreenenter"",""0"",""3596""
","
","
","""event"",""trial"",""time""
""fullscreenenter"",""0"",""3596""
","
","null","<p></p>","null","","","","","","","","","","","","","","","","","","","","","","","",""
"","do_trial","122","385301","0.0-70.0-0.0","""event"",""trial"",""time""
""fullscreenenter"",""0"",""3596""
","
","
","""event"",""trial"",""time""
""fullscreenenter"",""0"",""3596""
","
","369.9000000357628","","","","","","","","51","0,0,0","6","blank","281","null","0.5465013709288732","0.09312909984603696","0.28795266898115657","0","","","","","","","","",""
"","html-keyboard-response","123","386308","0.0-70.0-1.0","""event"",""trial"",""time""
""fullscreenenter"",""0"",""3596""
","
","
","""event"",""trial"",""time""
""fullscreenenter"",""0"",""3596""
","
","null","<p></p>","null","","","","","","","","","","","","","","","","","","","","","","","",""
"","do_trial","124","389082","0.0-71.0-0.0","""event"",""trial"",""time""
""fullscreenenter"",""0"",""3596""
","
","
","""event"",""trial"",""time""
""fullscreenenter"",""0"",""3596""
","
","188.10000002384186","","","","","","","","50","1,0,0","6","blank","282","null","0.5748467685524296","0.14420219345526875","0.3574577705258586","0","","","","","","","","",""
"","html-keyboard-response","125","390097","0.0-71.0-1.0","""event"",""trial"",""time""
""fullscreenenter"",""0"",""3596""
","
","
","""event"",""trial"",""time""
""fullscreenenter"",""0"",""3596""
","
","null","<p></p>","null","","","","","","","","","","","","","","","","","","","","","","","",""
"","do_trial","126","392812","0.0-72.0-0.0","""event"",""trial"",""time""
""fullscreenenter"",""0"",""3596""
","
","
","""event"",""trial"",""time""
""fullscreenenter"",""0"",""3596""
","
","141","","","","","","","","50","0,0,0","6","blank","283","null","0.6000879030290022","0.11356919931643654","0.3409084624359663","0","","","","","","","","",""
"","html-keyboard-response","127","393817","0.0-72.0-1.0","""event"",""trial"",""time""
""fullscreenenter"",""0"",""3596""
","
","
","""event"",""trial"",""time""
""fullscreenenter"",""0"",""3596""
","
","null","<p></p>","null","","","","","","","","","","","","","","","","","","","","","","","",""
"","do_trial","128","396744","0.0-73.0-0.0","""event"",""trial"",""time""
""fullscreenenter"",""0"",""3596""
","
","
","""event"",""trial"",""time""
""fullscreenenter"",""0"",""3596""
","
","351.69999998807907","","","","","","","","49","0,0,0","6","blank","284","null","0.5544768810876026","0.1068258891958641","0.16162914027302036","0","","","","","","","","",""
"","html-keyboard-response","129","397757","0.0-73.0-1.0","""event"",""trial"",""time""
""fullscreenenter"",""0"",""3596""
","
","
","""event"",""trial"",""time""
""fullscreenenter"",""0"",""3596""
","
","null","<p></p>","null","","","","","","","","","","","","","","","","","","","","","","","",""
"","do_recog","130","401312","0.0-74.0-0.0","""event"",""trial"",""time""
""fullscreenenter"",""0"",""3596""
","
","
","""event"",""trial"",""time""
""fullscreenenter"",""0"",""3596""
","
","2042.5","","","","","","","","54","","","","285","probe-222","","","","","1","[object Object]","70","1","1","","","",""
"","html-keyboard-response","131","402324","0.0-74.0-1.0","""event"",""trial"",""time""
""fullscreenenter"",""0"",""3596""
","
","
","""event"",""trial"",""time""
""fullscreenenter"",""0"",""3596""
","
","null","<p></p>","null","","","","","","","","","","","","","","","","","","","","","","","",""
"","do_trial","132","405559","0.0-75.0-0.0","""event"",""trial"",""time""
""fullscreenenter"",""0"",""3596""
","
","
","""event"",""trial"",""time""
""fullscreenenter"",""0"",""3596""
","
","653.4000000357628","","","","","","","","50","1,0,0","6","blank","286","null","0.5079003822757541","0.1347902534287573","0.2920822630888333","0","","","","","","","","",""
"","html-keyboard-response","133","406566","0.0-75.0-1.0","""event"",""trial"",""time""
""fullscreenenter"",""0"",""3596""
","
","
","""event"",""trial"",""time""
""fullscreenenter"",""0"",""3596""
","
","null","<p></p>","null","","","","","","","","","","","","","","","","","","","","","","","",""
"","do_recog","134","409743","0.0-76.0-0.0","""event"",""trial"",""time""
""fullscreenenter"",""0"",""3596""
","
","
","""event"",""trial"",""time""
""fullscreenenter"",""0"",""3596""
","
","1667.1000000238419","","","","","","","","53","","","","287","probe-157","","","","","1","[object Object]","158","3","1","","","",""
"","html-keyboard-response","135","410752","0.0-76.0-1.0","""event"",""trial"",""time""
""fullscreenenter"",""0"",""3596""
","
","
","""event"",""trial"",""time""
""fullscreenenter"",""0"",""3596""
","
","null","<p></p>","null","","","","","","","","","","","","","","","","","","","","","","","",""
"","do_trial","136","413919","0.0-77.0-0.0","""event"",""trial"",""time""
""fullscreenenter"",""0"",""3596""
","
","
","""event"",""trial"",""time""
""fullscreenenter"",""0"",""3596""
","
","589.6000000238419","","","","","","","","50","1,0,1","6","blank","288","null","0.5221274256751814","0.07786099018480379","0.3974988323276549","0","","","","","","","","",""
"","html-keyboard-response","137","414927","0.0-77.0-1.0","""event"",""trial"",""time""
""fullscreenenter"",""0"",""3596""
","
","
","""event"",""trial"",""time""
""fullscreenenter"",""0"",""3596""
","
","null","<p></p>","null","","","","","","","","","","","","","","","","","","","","","","","",""
"","do_trial","138","417774","0.0-78.0-0.0","""event"",""trial"",""time""
""fullscreenenter"",""0"",""3596""
","
","
","""event"",""trial"",""time""
""fullscreenenter"",""0"",""3596""
","
","267.7999999523163","","","","","","","","51","1,0,0","6","blank","289","null","0.5414047330263284","0.21519546213790017","0.460431336953145","0","","","","","","","","",""
"","html-keyboard-response","139","418784","0.0-78.0-1.0","""event"",""trial"",""time""
""fullscreenenter"",""0"",""3596""
","
","
","""event"",""trial"",""time""
""fullscreenenter"",""0"",""3596""
","
","null","<p></p>","null","","","","","","","","","","","","","","","","","","","","","","","",""
"","do_trial","140","421362","0.0-79.0-0.0","""event"",""trial"",""time""
""fullscreenenter"",""0"",""3596""
","
","
","""event"",""trial"",""time""
""fullscreenenter"",""0"",""3596""
","
","0.20000004768371582","","","","","","","","49","1,0,0","6","blank","290","null","0.41524009566289966","0.22534915421550225","0.2830029910303186","1","","","","","","","","",""
"","html-keyboard-response","141","422370","0.0-79.0-1.0","""event"",""trial"",""time""
""fullscreenenter"",""0"",""3596""
","
","
","""event"",""trial"",""time""
""fullscreenenter"",""0"",""3596""
","
","null","<p></p>","null","","","","","","","","","","","","","","","","","","","","","","","",""
"","do_recog","142","425335","0.0-80.0-0.0","""event"",""trial"",""time""
""fullscreenenter"",""0"",""3596""
","
","
","""event"",""trial"",""time""
""fullscreenenter"",""0"",""3596""
","
","1454.0999999642372","","","","","","","","53","","","","291","probe-112","","","","","1","[object Object]","113","2","1","","","",""
"","html-keyboard-response","143","426351","0.0-80.0-1.0","""event"",""trial"",""time""
""fullscreenenter"",""0"",""3596""
","
","
","""event"",""trial"",""time""
""fullscreenenter"",""0"",""3596""
","
","null","<p></p>","null","","","","","","","","","","","","","","","","","","","","","","","",""
"","do_trial","144","429184","0.0-81.0-0.0","""event"",""trial"",""time""
""fullscreenenter"",""0"",""3596""
","
","
","""event"",""trial"",""time""
""fullscreenenter"",""0"",""3596""
","
","255.5","","","","","","","","49","1,0,1","6","blank","292","null","0.39768950064796105","0.08124773405491408","0.2647322708638574","1","","","","","","","","",""
"","html-keyboard-response","145","430193","0.0-81.0-1.0","""event"",""trial"",""time""
""fullscreenenter"",""0"",""3596""
","
","
","""event"",""trial"",""time""
""fullscreenenter"",""0"",""3596""
","
","null","<p></p>","null","","","","","","","","","","","","","","","","","","","","","","","",""
"","do_trial","146","432930","0.0-82.0-0.0","""event"",""trial"",""time""
""fullscreenenter"",""0"",""3596""
","
","
","""event"",""trial"",""time""
""fullscreenenter"",""0"",""3596""
","
","156","","","","","","","","49","1,1,0","6","blank","293","null","0.392770487986757","0.13122318910744948","0.37775707997412883","1","","","","","","","","",""
"","html-keyboard-response","147","433937","0.0-82.0-1.0","""event"",""trial"",""time""
""fullscreenenter"",""0"",""3596""
","
","
","""event"",""trial"",""time""
""fullscreenenter"",""0"",""3596""
","
","null","<p></p>","null","","","","","","","","","","","","","","","","","","","","","","","",""
"","do_trial","148","436684","0.0-83.0-0.0","""event"",""trial"",""time""
""fullscreenenter"",""0"",""3596""
","
","
","""event"",""trial"",""time""
""fullscreenenter"",""0"",""3596""
","
","165.69999998807907","","","","","","","","49","0,0,1","6","blank","294","null","0.32961254997491657","0.13807309197641163","0.45344921639200847","0","","","","","","","","",""
"","html-keyboard-response","149","437701","0.0-83.0-1.0","""event"",""trial"",""time""
""fullscreenenter"",""0"",""3596""
","
","
","""event"",""trial"",""time""
""fullscreenenter"",""0"",""3596""
","
","null","<p></p>","null","","","","","","","","","","","","","","","","","","","","","","","",""
"","do_recog","150","440499","0.0-84.0-0.0","""event"",""trial"",""time""
""fullscreenenter"",""0"",""3596""
","
","
","""event"",""trial"",""time""
""fullscreenenter"",""0"",""3596""
","
","1282.7000000476837","","","","","","","","54","","","","295","probe-231","","","","","0","[object Object]","null","null","0","","","",""
"","html-keyboard-response","151","441515","0.0-84.0-1.0","""event"",""trial"",""time""
""fullscreenenter"",""0"",""3596""
","
","
","""event"",""trial"",""time""
""fullscreenenter"",""0"",""3596""
","
","null","<p></p>","null","","","","","","","","","","","","","","","","","","","","","","","",""
"","do_trial","152","444146","0.0-85.0-0.0","""event"",""trial"",""time""
""fullscreenenter"",""0"",""3596""
","
","
","""event"",""trial"",""time""
""fullscreenenter"",""0"",""3596""
","
","37.40000003576279","","","","","","","","49","0,0,1","6","blank","296","null","0.36910644142885607","0.20494650138903947","0.375546053716206","0","","","","","","","","",""
"","html-keyboard-response","153","445161","0.0-85.0-1.0","""event"",""trial"",""time""
""fullscreenenter"",""0"",""3596""
","
","
","""event"",""trial"",""time""
""fullscreenenter"",""0"",""3596""
","
","null","<p></p>","null","","","","","","","","","","","","","","","","","","","","","","","",""
"","do_trial","154","447744","0.0-86.0-0.0","""event"",""trial"",""time""
""fullscreenenter"",""0"",""3596""
","
","
","""event"",""trial"",""time""
""fullscreenenter"",""0"",""3596""
","
","0","","","","","","","","49","0,0,0","6","blank","297","null","0.48601401793746873","0.17381691462138107","0.5002959339968943","0","","","","","","","","",""
"","html-keyboard-response","155","448746","0.0-86.0-1.0","""event"",""trial"",""time""
""fullscreenenter"",""0"",""3596""
","
","
","""event"",""trial"",""time""
""fullscreenenter"",""0"",""3596""
","
","null","<p></p>","null","","","","","","","","","","","","","","","","","","","","","","","",""
"","do_trial","156","451700","0.0-87.0-0.0","""event"",""trial"",""time""
""fullscreenenter"",""0"",""3596""
","
","
","""event"",""trial"",""time""
""fullscreenenter"",""0"",""3596""
","
","364","","","","","","","","51","0,0,1","6","blank","298","null","0.44855698948454054","0.24094768213348566","0.5708483913163684","1","","","","","","","","",""
"","html-keyboard-response","157","452706","0.0-87.0-1.0","""event"",""trial"",""time""
""fullscreenenter"",""0"",""3596""
","
","
","""event"",""trial"",""time""
""fullscreenenter"",""0"",""3596""
","
","null","<p></p>","null","","","","","","","","","","","","","","","","","","","","","","","",""
"","do_trial","158","455454","0.0-88.0-0.0","""event"",""trial"",""time""
""fullscreenenter"",""0"",""3596""
","
","
","""event"",""trial"",""time""
""fullscreenenter"",""0"",""3596""
","
","166.0999999642372","","","","","","","","51","1,0,0","6","blank","299","null","0.5085685698130918","0.10179161629865899","0.5973648789628621","0","","","","","","","","",""
"","html-keyboard-response","159","456457","0.0-88.0-1.0","""event"",""trial"",""time""
""fullscreenenter"",""0"",""3596""
","
","
","""event"",""trial"",""time""
""fullscreenenter"",""0"",""3596""
","
","null","<p></p>","null","","","","","","","","","","","","","","","","","","","","","","","",""
"","do_recog","160","459683","0.0-89.0-0.0","""event"",""trial"",""time""
""fullscreenenter"",""0"",""3596""
","
","
","""event"",""trial"",""time""
""fullscreenenter"",""0"",""3596""
","
","1707.800000011921","","","","","","","","53","","","","300","probe-21","","","","","1","[object Object]","33","0","1","","","",""
"","html-keyboard-response","161","460695","0.0-89.0-1.0","""event"",""trial"",""time""
""fullscreenenter"",""0"",""3596""
","
","
","""event"",""trial"",""time""
""fullscreenenter"",""0"",""3596""
","
","null","<p></p>","null","","","","","","","","","","","","","","","","","","","","","","","",""
"","do_trial","162","463580","0.0-90.0-0.0","""event"",""trial"",""time""
""fullscreenenter"",""0"",""3596""
","
","
","""event"",""trial"",""time""
""fullscreenenter"",""0"",""3596""
","
","298.80000001192093","","","","","","","","51","1,0,0","6","blank","301","null","0.461609236729552","0.1622435946632845","0.570932794760003","0","","","","","","","","",""
"","html-keyboard-response","163","464595","0.0-90.0-1.0","""event"",""trial"",""time""
""fullscreenenter"",""0"",""3596""
","
","
","""event"",""trial"",""time""
""fullscreenenter"",""0"",""3596""
","
","null","<p></p>","null","","","","","","","","","","","","","","","","","","","","","","","",""
"","do_recog","164","467604","0.0-91.0-0.0","""event"",""trial"",""time""
""fullscreenenter"",""0"",""3596""
","
","
","""event"",""trial"",""time""
""fullscreenenter"",""0"",""3596""
","
","1494","","","","","","","","53","","","","302","probe-108","","","","","1","[object Object]","78","1","1","","","",""
"","html-keyboard-response","165","468614","0.0-91.0-1.0","""event"",""trial"",""time""
""fullscreenenter"",""0"",""3596""
","
","
","""event"",""trial"",""time""
""fullscreenenter"",""0"",""3596""
","
","null","<p></p>","null","","","","","","","","","","","","","","","","","","","","","","","",""
"","do_trial","166","471830","0.0-92.0-0.0","""event"",""trial"",""time""
""fullscreenenter"",""0"",""3596""
","
","
","""event"",""trial"",""time""
""fullscreenenter"",""0"",""3596""
","
","628.7000000476837","","","","","","","","51","0,0,0","6","blank","303","null","0.5096222298706458","0.05391798351352538","0.6567834454034599","0","","","","","","","","",""
"","html-keyboard-response","167","472845","0.0-92.0-1.0","""event"",""trial"",""time""
""fullscreenenter"",""0"",""3596""
","
","
","""event"",""trial"",""time""
""fullscreenenter"",""0"",""3596""
","
","null","<p></p>","null","","","","","","","","","","","","","","","","","","","","","","","",""
"","do_recog","168","475344","0.0-93.0-0.0","""event"",""trial"",""time""
""fullscreenenter"",""0"",""3596""
","
","
","""event"",""trial"",""time""
""fullscreenenter"",""0"",""3596""
","
","981.3000000119209","","","","","","","","54","","","","304","probe-243","","","","","0","[object Object]","null","null","0","","","",""
"","html-keyboard-response","169","476355","0.0-93.0-1.0","""event"",""trial"",""time""
""fullscreenenter"",""0"",""3596""
","
","
","""event"",""trial"",""time""
""fullscreenenter"",""0"",""3596""
","
","null","<p></p>","null","","","","","","","","","","","","","","","","","","","","","","","",""
"","do_trial","170","478935","0.0-94.0-0.0","""event"",""trial"",""time""
""fullscreenenter"",""0"",""3596""
","
","
","""event"",""trial"",""time""
""fullscreenenter"",""0"",""3596""
","
","4.100000023841858","","","","","","","","51","1,1,1","6","blank","305","null","0.42905913187371036","0.09104751011686578","0.7541372267041393","1","","","","","","","","",""
"","html-keyboard-response","171","479950","0.0-94.0-1.0","""event"",""trial"",""time""
""fullscreenenter"",""0"",""3596""
","
","
","""event"",""trial"",""time""
""fullscreenenter"",""0"",""3596""
","
","null","<p></p>","null","","","","","","","","","","","","","","","","","","","","","","","",""
"","do_trial","172","482847","0.0-95.0-0.0","""event"",""trial"",""time""
""fullscreenenter"",""0"",""3596""
","
","
","""event"",""trial"",""time""
""fullscreenenter"",""0"",""3596""
","
","327.19999998807907","","","","","","","","51","0,0,1","6","blank","306","null","0.35924508591405","0.2741792630411434","0.8682470843566634","1","","","","","","","","",""
"","html-keyboard-response","173","483857","0.0-95.0-1.0","""event"",""trial"",""time""
""fullscreenenter"",""0"",""3596""
","
","
","""event"",""trial"",""time""
""fullscreenenter"",""0"",""3596""
","
","null","<p></p>","null","","","","","","","","","","","","","","","","","","","","","","","",""
"","do_recog","174","486572","0.0-96.0-0.0","""event"",""trial"",""time""
""fullscreenenter"",""0"",""3596""
","
","
","""event"",""trial"",""time""
""fullscreenenter"",""0"",""3596""
","
","1204.300000011921","","","","","","","","53","","","","307","probe-192","","","","","1","[object Object]","75","1","1","","","",""
"","html-keyboard-response","175","487577","0.0-96.0-1.0","""event"",""trial"",""time""
""fullscreenenter"",""0"",""3596""
","
","
","""event"",""trial"",""time""
""fullscreenenter"",""0"",""3596""
","
","null","<p></p>","null","","","","","","","","","","","","","","","","","","","","","","","",""
"","do_trial","176","490464","0.0-97.0-0.0","""event"",""trial"",""time""
""fullscreenenter"",""0"",""3596""
","
","
","""event"",""trial"",""time""
""fullscreenenter"",""0"",""3596""
","
","303.69999998807907","","","","","","","","51","1,0,0","6","blank","308","null","0.34023308100133426","0.13076928808617713","0.69367687802756","0","","","","","","","","",""
"","html-keyboard-response","177","491471","0.0-97.0-1.0","""event"",""trial"",""time""
""fullscreenenter"",""0"",""3596""
","
","
","""event"",""trial"",""time""
""fullscreenenter"",""0"",""3596""
","
","null","<p></p>","null","","","","","","","","","","","","","","","","","","","","","","","",""
"","break","178","492940","0.0-98.0-0.0","""event"",""trial"",""time""
""fullscreenenter"",""0"",""3596""
","
","
","""event"",""trial"",""time""
""fullscreenenter"",""0"",""3596""
","
","1467","<div class='center'><p>Time to take a quick break! You have 2 minutes to rest, but you can move on sooner if you'd like.</p><p> Press the <b>space bar</b> to continue.</p></div>","32","","","","","","","","","","","","","","","","","","","","","","","",""
"","do_trial","179","496162","0.0-98.0-1.0","""event"",""trial"",""time""
""fullscreenenter"",""0"",""3596""
","
","
","""event"",""trial"",""time""
""fullscreenenter"",""0"",""3596""
","
","644.9000000357628","","","","","","","","51","0,0,1","6","blank","309","null","0.3036829202696967","0.1321628817019137","0.7760196522939253","1","","","","","","","","",""
"","html-keyboard-response","180","497168","0.0-98.0-2.0","""event"",""trial"",""time""
""fullscreenenter"",""0"",""3596""
","
","
","""event"",""trial"",""time""
""fullscreenenter"",""0"",""3596""
","
","null","<p></p>","null","","","","","","","","","","","","","","","","","","","","","","","",""
"","do_trial","181","499748","0.0-99.0-0.0","""event"",""trial"",""time""
""fullscreenenter"",""0"",""3596""
","
","
","""event"",""trial"",""time""
""fullscreenenter"",""0"",""3596""
","
","0.19999998807907104","","","","","","","","51","0,0,1","6","blank","310","null","0.3500560382899468","0.09385496445773102","0.8030771685870859","1","","","","","","","","",""
"","html-keyboard-response","182","500755","0.0-99.0-1.0","""event"",""trial"",""time""
""fullscreenenter"",""0"",""3596""
","
","
","""event"",""trial"",""time""
""fullscreenenter"",""0"",""3596""
","
","null","<p></p>","null","","","","","","","","","","","","","","","","","","","","","","","",""
"","do_recog","183","503412","0.0-100.0-0.0","""event"",""trial"",""time""
""fullscreenenter"",""0"",""3596""
","
","
","""event"",""trial"",""time""
""fullscreenenter"",""0"",""3596""
","
","1145","","","","","","","","53","","","","311","probe-131","","","","","1","[object Object]","73","1","1","","","",""
"","html-keyboard-response","184","504418","0.0-100.0-1.0","""event"",""trial"",""time""
""fullscreenenter"",""0"",""3596""
","
","
","""event"",""trial"",""time""
""fullscreenenter"",""0"",""3596""
","
","null","<p></p>","null","","","","","","","","","","","","","","","","","","","","","","","",""
"","do_trial","185","507006","0.0-101.0-0.0","""event"",""trial"",""time""
""fullscreenenter"",""0"",""3596""
","
","
","""event"",""trial"",""time""
""fullscreenenter"",""0"",""3596""
","
","0.09999996423721313","","","","","","","","51","0,0,0","6","blank","312","null","0.07409074902019143","0.07790411805124872","0.7200707493164821","0","","","","","","","","",""
"","html-keyboard-response","186","508017","0.0-101.0-1.0","""event"",""trial"",""time""
""fullscreenenter"",""0"",""3596""
","
","
","""event"",""trial"",""time""
""fullscreenenter"",""0"",""3596""
","
","null","<p></p>","null","","","","","","","","","","","","","","","","","","","","","","","",""
"","do_recog","187","510737","0.0-102.0-0.0","""event"",""trial"",""time""
""fullscreenenter"",""0"",""3596""
","
","
","""event"",""trial"",""time""
""fullscreenenter"",""0"",""3596""
","
","1211","","","","","","","","53","","","","313","probe-142","","","","","1","[object Object]","119","2","1","","","",""
"","html-keyboard-response","188","511747","0.0-102.0-1.0","""event"",""trial"",""time""
""fullscreenenter"",""0"",""3596""
","
","
","""event"",""trial"",""time""
""fullscreenenter"",""0"",""3596""
","
","null","<p></p>","null","","","","","","","","","","","","","","","","","","","","","","","",""
"","do_trial","189","514856","0.0-103.0-0.0","""event"",""trial"",""time""
""fullscreenenter"",""0"",""3596""
","
","
","""event"",""trial"",""time""
""fullscreenenter"",""0"",""3596""
","
","521.3000000119209","","","","","","","","51","0,1,1","6","blank","314","null","0.16945611684133496","0.18140688658907705","0.7064362293193652","1","","","","","","","","",""
"","html-keyboard-response","190","515860","0.0-103.0-1.0","""event"",""trial"",""time""
""fullscreenenter"",""0"",""3596""
","
","
","""event"",""trial"",""time""
""fullscreenenter"",""0"",""3596""
","
","null","<p></p>","null","","","","","","","","","","","","","","","","","","","","","","","",""
"","do_recog","191","519124","0.0-104.0-0.0","""event"",""trial"",""time""
""fullscreenenter"",""0"",""3596""
","
","
","""event"",""trial"",""time""
""fullscreenenter"",""0"",""3596""
","
","1745.0999999642372","","","","","","","","53","","","","315","probe-205","","","","","1","[object Object]","77","1","1","","","",""
"","html-keyboard-response","192","520136","0.0-104.0-1.0","""event"",""trial"",""time""
""fullscreenenter"",""0"",""3596""
","
","
","""event"",""trial"",""time""
""fullscreenenter"",""0"",""3596""
","
","null","<p></p>","null","","","","","","","","","","","","","","","","","","","","","","","",""
"","do_trial","193","524511","0.0-105.0-0.0","""event"",""trial"",""time""
""fullscreenenter"",""0"",""3596""
","
","
","""event"",""trial"",""time""
""fullscreenenter"",""0"",""3596""
","
","1785.800000011921","","","","","","","","51","1,1,1","6","blank","316","null","0.21285623385548205","0.1803375914870098","0.5864827138631169","1","","","","","","","","",""
"","html-keyboard-response","194","525520","0.0-105.0-1.0","""event"",""trial"",""time""
""fullscreenenter"",""0"",""3596""
","
","
","""event"",""trial"",""time""
""fullscreenenter"",""0"",""3596""
","
","null","<p></p>","null","","","","","","","","","","","","","","","","","","","","","","","",""
"","do_recog","195","527824","0.0-106.0-0.0","""event"",""trial"",""time""
""fullscreenenter"",""0"",""3596""
","
","
","""event"",""trial"",""time""
""fullscreenenter"",""0"",""3596""
","
","792.5999999642372","","","","","","","","55","","","","317","probe-92","","","","","1","[object Object]","112","2","0","","","",""
"","html-keyboard-response","196","528833","0.0-106.0-1.0","""event"",""trial"",""time""
""fullscreenenter"",""0"",""3596""
","
","
","""event"",""trial"",""time""
""fullscreenenter"",""0"",""3596""
","
","null","<p></p>","null","","","","","","","","","","","","","","","","","","","","","","","",""
"","do_trial","197","533037","0.0-107.0-0.0","""event"",""trial"",""time""
""fullscreenenter"",""0"",""3596""
","
","
","""event"",""trial"",""time""
""fullscreenenter"",""0"",""3596""
","
","1620.5","","","","","","","","50","0,0,0","6","blank","318","null","0.14713511468104432","0.19358963718375763","0.5388018503095496","0","","","","","","","","",""
"","html-keyboard-response","198","534043","0.0-107.0-1.0","""event"",""trial"",""time""
""fullscreenenter"",""0"",""3596""
","
","
","""event"",""trial"",""time""
""fullscreenenter"",""0"",""3596""
","
","null","<p></p>","null","","","","","","","","","","","","","","","","","","","","","","","",""
"","do_trial","199","536715","0.0-108.0-0.0","""event"",""trial"",""time""
""fullscreenenter"",""0"",""3596""
","
","
","""event"",""trial"",""time""
""fullscreenenter"",""0"",""3596""
","
","89.59999996423721","","","","","","","","51","0,0,0","6","blank","319","null","0.18202741807525663","0.2144019819744027","0.5142505805382669","0","","","","","","","","",""
"","html-keyboard-response","200","537717","0.0-108.0-1.0","""event"",""trial"",""time""
""fullscreenenter"",""0"",""3596""
","
","
","""event"",""trial"",""time""
""fullscreenenter"",""0"",""3596""
","
","null","<p></p>","null","","","","","","","","","","","","","","","","","","","","","","","",""
"","do_trial","201","540290","0.0-109.0-0.0","""event"",""trial"",""time""
""fullscreenenter"",""0"",""3596""
","
","
","""event"",""trial"",""time""
""fullscreenenter"",""0"",""3596""
","
","0.10000002384185791","","","","","","","","51","0,0,1","6","blank","320","null","0.22784947389307605","0.10054363232548048","0.6239788226930024","1","","","","","","","","",""
"","html-keyboard-response","202","541297","0.0-109.0-1.0","""event"",""trial"",""time""
""fullscreenenter"",""0"",""3596""
","
","
","""event"",""trial"",""time""
""fullscreenenter"",""0"",""3596""
","
","null","<p></p>","null","","","","","","","","","","","","","","","","","","","","","","","",""
"","do_trial","203","544104","0.0-110.0-0.0","""event"",""trial"",""time""
""fullscreenenter"",""0"",""3596""
","
","
","""event"",""trial"",""time""
""fullscreenenter"",""0"",""3596""
","
","238.30000001192093","","","","","","","","51","0,0,1","6","blank","321","null","0.20414773119437032","0.1440853533030726","0.6427673890469414","1","","","","","","","","",""
"","html-keyboard-response","204","545119","0.0-110.0-1.0","""event"",""trial"",""time""
""fullscreenenter"",""0"",""3596""
","
","
","""event"",""trial"",""time""
""fullscreenenter"",""0"",""3596""
","
","null","<p></p>","null","","","","","","","","","","","","","","","","","","","","","","","",""
"","do_trial","205","547830","0.0-111.0-0.0","""event"",""trial"",""time""
""fullscreenenter"",""0"",""3596""
","
","
","""event"",""trial"",""time""
""fullscreenenter"",""0"",""3596""
","
","124.19999998807907","","","","","","","","51","0,0,1","6","blank","322","null","0.23937857601530124","0.12492173704389217","0.5483940487454718","1","","","","","","","","",""
"","html-keyboard-response","206","548833","0.0-111.0-1.0","""event"",""trial"",""time""
""fullscreenenter"",""0"",""3596""
","
","
","""event"",""trial"",""time""
""fullscreenenter"",""0"",""3596""
","
","null","<p></p>","null","","","","","","","","","","","","","","","","","","","","","","","",""
"","do_recog","207","551565","0.0-112.0-0.0","""event"",""trial"",""time""
""fullscreenenter"",""0"",""3596""
","
","
","""event"",""trial"",""time""
""fullscreenenter"",""0"",""3596""
","
","1220.199999988079","","","","","","","","54","","","","323","probe-103","","","","","1","[object Object]","151","3","1","","","",""
"","html-keyboard-response","208","552580","0.0-112.0-1.0","""event"",""trial"",""time""
""fullscreenenter"",""0"",""3596""
","
","
","""event"",""trial"",""time""
""fullscreenenter"",""0"",""3596""
","
","null","<p></p>","null","","","","","","","","","","","","","","","","","","","","","","","",""
"","do_trial","209","555353","0.0-113.0-0.0","""event"",""trial"",""time""
""fullscreenenter"",""0"",""3596""
","
","
","""event"",""trial"",""time""
""fullscreenenter"",""0"",""3596""
","
","202.69999998807907","","","","","","","","51","0,0,0","6","blank","324","null","0.27736812656368315","0.18141267409134065","0.5560940552217472","0","","","","","","","","",""
"","html-keyboard-response","210","556364","0.0-113.0-1.0","""event"",""trial"",""time""
""fullscreenenter"",""0"",""3596""
","
","
","""event"",""trial"",""time""
""fullscreenenter"",""0"",""3596""
","
","null","<p></p>","null","","","","","","","","","","","","","","","","","","","","","","","",""
"","do_trial","211","559299","0.0-114.0-0.0","""event"",""trial"",""time""
""fullscreenenter"",""0"",""3596""
","
","
","""event"",""trial"",""time""
""fullscreenenter"",""0"",""3596""
","
","349.7999999523163","","","","","","","","51","0,0,1","6","blank","325","null","0.27965551531849087","0.26112787802143794","0.5248068774456853","1","","","","","","","","",""
"","html-keyboard-response","212","560307","0.0-114.0-1.0","""event"",""trial"",""time""
""fullscreenenter"",""0"",""3596""
","
","
","""event"",""trial"",""time""
""fullscreenenter"",""0"",""3596""
","
","null","<p></p>","null","","","","","","","","","","","","","","","","","","","","","","","",""
"","do_trial","213","563129","0.0-115.0-0.0","""event"",""trial"",""time""
""fullscreenenter"",""0"",""3596""
","
","
","""event"",""trial"",""time""
""fullscreenenter"",""0"",""3596""
","
","246.70000004768372","","","","","","","","51","0,1,0","6","blank","326","null","0.2761813556666389","0.24595405181172075","0.564729151227678","0","","","","","","","","",""
"","html-keyboard-response","214","564138","0.0-115.0-1.0","""event"",""trial"",""time""
""fullscreenenter"",""0"",""3596""
","
","
","""event"",""trial"",""time""
""fullscreenenter"",""0"",""3596""
","
","null","<p></p>","null","","","","","","","","","","","","","","","","","","","","","","","",""
"","do_trial","215","566786","0.0-116.0-0.0","""event"",""trial"",""time""
""fullscreenenter"",""0"",""3596""
","
","
","""event"",""trial"",""time""
""fullscreenenter"",""0"",""3596""
","
","65.69999998807907","","","","","","","","51","0,0,1","6","blank","327","null","0.38973393463486733","0.20189330829622051","0.5191442435261261","1","","","","","","","","",""
"","html-keyboard-response","216","567793","0.0-116.0-1.0","""event"",""trial"",""time""
""fullscreenenter"",""0"",""3596""
","
","
","""event"",""trial"",""time""
""fullscreenenter"",""0"",""3596""
","
","null","<p></p>","null","","","","","","","","","","","","","","","","","","","","","","","",""
"","do_trial","217","570390","0.0-117.0-0.0","""event"",""trial"",""time""
""fullscreenenter"",""0"",""3596""
","
","
","""event"",""trial"",""time""
""fullscreenenter"",""0"",""3596""
","
","11","","","","","","","","51","0,1,1","6","blank","328","null","0.4120400097441845","0.24027453183312283","0.6037540296863272","1","","","","","","","","",""
"","html-keyboard-response","218","571398","0.0-117.0-1.0","""event"",""trial"",""time""
""fullscreenenter"",""0"",""3596""
","
","
","""event"",""trial"",""time""
""fullscreenenter"",""0"",""3596""
","
","null","<p></p>","null","","","","","","","","","","","","","","","","","","","","","","","",""
"","do_trial","219","574013","0.0-118.0-0.0","""event"",""trial"",""time""
""fullscreenenter"",""0"",""3596""
","
","
","""event"",""trial"",""time""
""fullscreenenter"",""0"",""3596""
","
","43.30000001192093","","","","","","","","51","0,1,1","6","blank","329","null","0.24852454412591232","0.4014610939064555","0.6570132249633241","1","","","","","","","","",""
"","html-keyboard-response","220","575020","0.0-118.0-1.0","""event"",""trial"",""time""
""fullscreenenter"",""0"",""3596""
","
","
","""event"",""trial"",""time""
""fullscreenenter"",""0"",""3596""
","
","null","<p></p>","null","","","","","","","","","","","","","","","","","","","","","","","",""
"","do_recog","221","577528","0.0-119.0-0.0","""event"",""trial"",""time""
""fullscreenenter"",""0"",""3596""
","
","
","""event"",""trial"",""time""
""fullscreenenter"",""0"",""3596""
","
","1000","","","","","","","","54","","","","330","probe-54","","","","","1","[object Object]","32","0","1","","","",""
"","html-keyboard-response","222","578543","0.0-119.0-1.0","""event"",""trial"",""time""
""fullscreenenter"",""0"",""3596""
","
","
","""event"",""trial"",""time""
""fullscreenenter"",""0"",""3596""
","
","null","<p></p>","null","","","","","","","","","","","","","","","","","","","","","","","",""
"","do_trial","223","581126","0.0-120.0-0.0","""event"",""trial"",""time""
""fullscreenenter"",""0"",""3596""
","
","
","""event"",""trial"",""time""
""fullscreenenter"",""0"",""3596""
","
","7.599999964237213","","","","","","","","51","1,0,1","6","blank","331","null","0.35479707182027154","0.4551833633619873","0.6430835215528427","1","","","","","","","","",""
"","html-keyboard-response","224","582139","0.0-120.0-1.0","""event"",""trial"",""time""
""fullscreenenter"",""0"",""3596""
","
","
","""event"",""trial"",""time""
""fullscreenenter"",""0"",""3596""
","
","null","<p></p>","null","","","","","","","","","","","","","","","","","","","","","","","",""
"","do_trial","225","584877","0.0-121.0-0.0","""event"",""trial"",""time""
""fullscreenenter"",""0"",""3596""
","
","
","""event"",""trial"",""time""
""fullscreenenter"",""0"",""3596""
","
","153.29999995231628","","","","","","","","51","1,0,1","6","blank","332","null","0.501958079172393","0.1976217343017354","0.7046320218666638","1","","","","","","","","",""
"","html-keyboard-response","226","585887","0.0-121.0-1.0","""event"",""trial"",""time""
""fullscreenenter"",""0"",""3596""
","
","
","""event"",""trial"",""time""
""fullscreenenter"",""0"",""3596""
","
","null","<p></p>","null","","","","","","","","","","","","","","","","","","","","","","","",""
"","do_trial","227","588548","0.0-122.0-0.0","""event"",""trial"",""time""
""fullscreenenter"",""0"",""3596""
","
","
","""event"",""trial"",""time""
""fullscreenenter"",""0"",""3596""
","
","76.5","","","","","","","","51","1,0,1","6","blank","333","null","0.5287847462286662","0.15798227313510999","0.7845451087783286","1","","","","","","","","",""
"","html-keyboard-response","228","589557","0.0-122.0-1.0","""event"",""trial"",""time""
""fullscreenenter"",""0"",""3596""
","
","
","""event"",""trial"",""time""
""fullscreenenter"",""0"",""3596""
","
","null","<p></p>","null","","","","","","","","","","","","","","","","","","","","","","","",""
"","do_recog","229","592664","0.0-123.0-0.0","""event"",""trial"",""time""
""fullscreenenter"",""0"",""3596""
","
","
","""event"",""trial"",""time""
""fullscreenenter"",""0"",""3596""
","
","1597.300000011921","","","","","","","","54","","","","334","probe-219","","","","","1","[object Object]","155","3","1","","","",""
"","html-keyboard-response","230","593672","0.0-123.0-1.0","""event"",""trial"",""time""
""fullscreenenter"",""0"",""3596""
","
","
","""event"",""trial"",""time""
""fullscreenenter"",""0"",""3596""
","
","null","<p></p>","null","","","","","","","","","","","","","","","","","","","","","","","",""
"","do_trial","231","596444","0.0-124.0-0.0","""event"",""trial"",""time""
""fullscreenenter"",""0"",""3596""
","
","
","""event"",""trial"",""time""
""fullscreenenter"",""0"",""3596""
","
","194.10000002384186","","","","","","","","51","0,0,1","6","blank","335","null","0.36362615945355137","0.12357753524496698","0.783789662866973","1","","","","","","","","",""
"","html-keyboard-response","232","597452","0.0-124.0-1.0","""event"",""trial"",""time""
""fullscreenenter"",""0"",""3596""
","
","
","""event"",""trial"",""time""
""fullscreenenter"",""0"",""3596""
","
","null","<p></p>","null","","","","","","","","","","","","","","","","","","","","","","","",""
"","do_recog","233","600358","0.0-125.0-0.0","""event"",""trial"",""time""
""fullscreenenter"",""0"",""3596""
","
","
","""event"",""trial"",""time""
""fullscreenenter"",""0"",""3596""
","
","1382","","","","","","","","54","","","","336","probe-52","","","","","1","[object Object]","195","4","1","","","",""
"","html-keyboard-response","234","601374","0.0-125.0-1.0","""event"",""trial"",""time""
""fullscreenenter"",""0"",""3596""
","
","
","""event"",""trial"",""time""
""fullscreenenter"",""0"",""3596""
","
","null","<p></p>","null","","","","","","","","","","","","","","","","","","","","","","","",""
"","do_trial","235","604711","0.0-126.0-0.0","""event"",""trial"",""time""
""fullscreenenter"",""0"",""3596""
","
","
","""event"",""trial"",""time""
""fullscreenenter"",""0"",""3596""
","
","755.8999999761581","","","","","","","","51","0,0,1","6","blank","337","null","0.246336869271885","0.11788688632961504","0.6008315487983409","1","","","","","","","","",""
"","html-keyboard-response","236","605728","0.0-126.0-1.0","""event"",""trial"",""time""
""fullscreenenter"",""0"",""3596""
","
","
","""event"",""trial"",""time""
""fullscreenenter"",""0"",""3596""
","
","null","<p></p>","null","","","","","","","","","","","","","","","","","","","","","","","",""
"","do_trial","237","609218","0.0-127.0-0.0","""event"",""trial"",""time""
""fullscreenenter"",""0"",""3596""
","
","
","""event"",""trial"",""time""
""fullscreenenter"",""0"",""3596""
","
","907.1000000238419","","","","","","","","51","0,0,1","6","blank","338","null","0.3333082001652356","0.20974801001870036","0.6233097322513479","1","","","","","","","","",""
"","html-keyboard-response","238","610225","0.0-127.0-1.0","""event"",""trial"",""time""
""fullscreenenter"",""0"",""3596""
","
","
","""event"",""trial"",""time""
""fullscreenenter"",""0"",""3596""
","
","null","<p></p>","null","","","","","","","","","","","","","","","","","","","","","","","",""
"","do_recog","239","613209","0.0-128.0-0.0","""event"",""trial"",""time""
""fullscreenenter"",""0"",""3596""
","
","
","""event"",""trial"",""time""
""fullscreenenter"",""0"",""3596""
","
","1469.6000000238419","","","","","","","","53","","","","339","probe-72","","","","","1","[object Object]","35","0","1","","","",""
"","html-keyboard-response","240","614223","0.0-128.0-1.0","""event"",""trial"",""time""
""fullscreenenter"",""0"",""3596""
","
","
","""event"",""trial"",""time""
""fullscreenenter"",""0"",""3596""
","
","null","<p></p>","null","","","","","","","","","","","","","","","","","","","","","","","",""
"","do_trial","241","616994","0.0-129.0-0.0","""event"",""trial"",""time""
""fullscreenenter"",""0"",""3596""
","
","
","""event"",""trial"",""time""
""fullscreenenter"",""0"",""3596""
","
","199.60000002384186","","","","","","","","51","0,0,0","6","blank","340","null","0.3152313957605219","0.13403545047349966","0.6457279402853502","0","","","","","","","","",""
"","html-keyboard-response","242","618000","0.0-129.0-1.0","""event"",""trial"",""time""
""fullscreenenter"",""0"",""3596""
","
","
","""event"",""trial"",""time""
""fullscreenenter"",""0"",""3596""
","
","null","<p></p>","null","","","","","","","","","","","","","","","","","","","","","","","",""
"","do_recog","243","620769","0.0-130.0-0.0","""event"",""trial"",""time""
""fullscreenenter"",""0"",""3596""
","
","
","""event"",""trial"",""time""
""fullscreenenter"",""0"",""3596""
","
","1258.1000000238419","","","","","","","","54","","","","341","probe-224","","","","","1","[object Object]","197","4","1","","","",""
"","html-keyboard-response","244","621782","0.0-130.0-1.0","""event"",""trial"",""time""
""fullscreenenter"",""0"",""3596""
","
","
","""event"",""trial"",""time""
""fullscreenenter"",""0"",""3596""
","
","null","<p></p>","null","","","","","","","","","","","","","","","","","","","","","","","",""
"","do_trial","245","624970","0.0-131.0-0.0","""event"",""trial"",""time""
""fullscreenenter"",""0"",""3596""
","
","
","""event"",""trial"",""time""
""fullscreenenter"",""0"",""3596""
","
","601.1999999880791","","","","","","","","51","0,1,1","6","blank","342","null","0.22848808981052188","0.19445374196198525","0.6234418386822898","1","","","","","","","","",""
"","html-keyboard-response","246","625985","0.0-131.0-1.0","""event"",""trial"",""time""
""fullscreenenter"",""0"",""3596""
","
","
","""event"",""trial"",""time""
""fullscreenenter"",""0"",""3596""
","
","null","<p></p>","null","","","","","","","","","","","","","","","","","","","","","","","",""
"","do_recog","247","628584","0.0-132.0-0.0","""event"",""trial"",""time""
""fullscreenenter"",""0"",""3596""
","
","
","""event"",""trial"",""time""
""fullscreenenter"",""0"",""3596""
","
","1080.199999988079","","","","","","","","53","","","","343","probe-129","","","","","1","[object Object]","30","0","1","","","",""
"","html-keyboard-response","248","629600","0.0-132.0-1.0","""event"",""trial"",""time""
""fullscreenenter"",""0"",""3596""
","
","
","""event"",""trial"",""time""
""fullscreenenter"",""0"",""3596""
","
","null","<p></p>","null","","","","","","","","","","","","","","","","","","","","","","","",""
"","do_trial","249","634069","0.0-133.0-0.0","""event"",""trial"",""time""
""fullscreenenter"",""0"",""3596""
","
","
","""event"",""trial"",""time""
""fullscreenenter"",""0"",""3596""
","
","1884.699999988079","","","","","","","","51","1,0,0","6","blank","344","null","0.3085407880378169","0.0677678593388407","0.519968007310319","0","","","","","","","","",""
"","html-keyboard-response","250","635078","0.0-133.0-1.0","""event"",""trial"",""time""
""fullscreenenter"",""0"",""3596""
","
","
","""event"",""trial"",""time""
""fullscreenenter"",""0"",""3596""
","
","null","<p></p>","null","","","","","","","","","","","","","","","","","","","","","","","",""
"","do_trial","251","637643","0.0-134.0-0.0","""event"",""trial"",""time""
""fullscreenenter"",""0"",""3596""
","
","
","""event"",""trial"",""time""
""fullscreenenter"",""0"",""3596""
","
","0.19999998807907104","","","","","","","","51","0,0,0","6","blank","345","null","0.25396288856171967","0.12363951693406822","0.5597525958439794","0","","","","","","","","",""
"","html-keyboard-response","252","638649","0.0-134.0-1.0","""event"",""trial"",""time""
""fullscreenenter"",""0"",""3596""
","
","
","""event"",""trial"",""time""
""fullscreenenter"",""0"",""3596""
","
","null","<p></p>","null","","","","","","","","","","","","","","","","","","","","","","","",""
"","do_trial","253","641939","0.0-135.0-0.0","""event"",""trial"",""time""
""fullscreenenter"",""0"",""3596""
","
","
","""event"",""trial"",""time""
""fullscreenenter"",""0"",""3596""
","
","700.6000000238419","","","","","","","","51","0,0,0","6","blank","346","null","0.18343388401465618","0.07952937905277335","0.6491221524523979","0","","","","","","","","",""
"","html-keyboard-response","254","642945","0.0-135.0-1.0","""event"",""trial"",""time""
""fullscreenenter"",""0"",""3596""
","
","
","""event"",""trial"",""time""
""fullscreenenter"",""0"",""3596""
","
","null","<p></p>","null","","","","","","","","","","","","","","","","","","","","","","","",""
"","do_recog","255","646486","0.0-136.0-0.0","""event"",""trial"",""time""
""fullscreenenter"",""0"",""3596""
","
","
","""event"",""trial"",""time""
""fullscreenenter"",""0"",""3596""
","
","2030.3999999761581","","","","","","","","53","","","","347","probe-78","","","","","1","[object Object]","159","3","1","","","",""
"","html-keyboard-response","256","647501","0.0-136.0-1.0","""event"",""trial"",""time""
""fullscreenenter"",""0"",""3596""
","
","
","""event"",""trial"",""time""
""fullscreenenter"",""0"",""3596""
","
","null","<p></p>","null","","","","","","","","","","","","","","","","","","","","","","","",""
"","do_trial","257","650731","0.0-137.0-0.0","""event"",""trial"",""time""
""fullscreenenter"",""0"",""3596""
","
","
","""event"",""trial"",""time""
""fullscreenenter"",""0"",""3596""
","
","650.9000000357628","","","","","","","","51","0,1,1","6","blank","348","null","0.2019654570013645","0.09306055140219771","0.7253327195212637","1","","","","","","","","",""
"","html-keyboard-response","258","651739","0.0-137.0-1.0","""event"",""trial"",""time""
""fullscreenenter"",""0"",""3596""
","
","
","""event"",""trial"",""time""
""fullscreenenter"",""0"",""3596""
","
","null","<p></p>","null","","","","","","","","","","","","","","","","","","","","","","","",""
"","break","259","655464","0.0-138.0-0.0","""event"",""trial"",""time""
""fullscreenenter"",""0"",""3596""
","
","
","""event"",""trial"",""time""
""fullscreenenter"",""0"",""3596""
","
","3723","<div class='center'><p>Time to take a quick break! You have 2 minutes to rest, but you can move on sooner if you'd like.</p><p> Press the <b>space bar</b> to continue.</p></div>","32","","","","","","","","","","","","","","","","","","","","","","","",""
"","do_trial","260","658759","0.0-138.0-1.0","""event"",""trial"",""time""
""fullscreenenter"",""0"",""3596""
","
","
","""event"",""trial"",""time""
""fullscreenenter"",""0"",""3596""
","
","714.5999999642372","","","","","","","","51","0,0,1","6","blank","349","null","0.22728822226577308","0.12505486417105363","0.7165780793868086","1","","","","","","","","",""
"","html-keyboard-response","261","659776","0.0-138.0-2.0","""event"",""trial"",""time""
""fullscreenenter"",""0"",""3596""
","
","
","""event"",""trial"",""time""
""fullscreenenter"",""0"",""3596""
","
","null","<p></p>","null","","","","","","","","","","","","","","","","","","","","","","","",""
"","do_trial","262","662375","0.0-139.0-0.0","""event"",""trial"",""time""
""fullscreenenter"",""0"",""3596""
","
","
","""event"",""trial"",""time""
""fullscreenenter"",""0"",""3596""
","
","0.19999998807907104","","","","","","","","51","0,0,0","6","blank","350","null","0.05578460732078575","0.10256045998005711","0.5545718268132723","0","","","","","","","","",""
"","html-keyboard-response","263","663388","0.0-139.0-1.0","""event"",""trial"",""time""
""fullscreenenter"",""0"",""3596""
","
","
","""event"",""trial"",""time""
""fullscreenenter"",""0"",""3596""
","
","null","<p></p>","null","","","","","","","","","","","","","","","","","","","","","","","",""
"","do_trial","264","666086","0.0-140.0-0.0","""event"",""trial"",""time""
""fullscreenenter"",""0"",""3596""
","
","
","""event"",""trial"",""time""
""fullscreenenter"",""0"",""3596""
","
","126.90000003576279","","","","","","","","51","0,0,0","6","blank","351","null","0.09809147372415183","0.06579869778681567","0.4574980669335463","0","","","","","","","","",""
"","html-keyboard-response","265","667102","0.0-140.0-1.0","""event"",""trial"",""time""
""fullscreenenter"",""0"",""3596""
","
","
","""event"",""trial"",""time""
""fullscreenenter"",""0"",""3596""
","
","null","<p></p>","null","","","","","","","","","","","","","","","","","","","","","","","",""
"","do_recog","266","670103","0.0-141.0-0.0","""event"",""trial"",""time""
""fullscreenenter"",""0"",""3596""
","
","
","""event"",""trial"",""time""
""fullscreenenter"",""0"",""3596""
","
","1489.8999999761581","","","","","","","","53","","","","352","probe-171","","","","","1","[object Object]","192","4","1","","","",""
"","html-keyboard-response","267","671106","0.0-141.0-1.0","""event"",""trial"",""time""
""fullscreenenter"",""0"",""3596""
","
","
","""event"",""trial"",""time""
""fullscreenenter"",""0"",""3596""
","
","null","<p></p>","null","","","","","","","","","","","","","","","","","","","","","","","",""
"","do_trial","268","673687","0.0-142.0-0.0","""event"",""trial"",""time""
""fullscreenenter"",""0"",""3596""
","
","
","""event"",""trial"",""time""
""fullscreenenter"",""0"",""3596""
","
","0.19999998807907104","","","","","","","","51","0,0,1","6","blank","353","null","0.09939909330911291","0.10594869658508564","0.2940382236960085","1","","","","","","","","",""
"","html-keyboard-response","269","674691","0.0-142.0-1.0","""event"",""trial"",""time""
""fullscreenenter"",""0"",""3596""
","
","
","""event"",""trial"",""time""
""fullscreenenter"",""0"",""3596""
","
","null","<p></p>","null","","","","","","","","","","","","","","","","","","","","","","","",""
"","do_trial","270","677306","0.0-143.0-0.0","""event"",""trial"",""time""
""fullscreenenter"",""0"",""3596""
","
","
","""event"",""trial"",""time""
""fullscreenenter"",""0"",""3596""
","
","37.10000002384186","","","","","","","","51","1,0,0","6","blank","354","null","0.2751766043974351","0.07441691364789005","0.2838373197013678","0","","","","","","","","",""
"","html-keyboard-response","271","678310","0.0-143.0-1.0","""event"",""trial"",""time""
""fullscreenenter"",""0"",""3596""
","
","
","""event"",""trial"",""time""
""fullscreenenter"",""0"",""3596""
","
","null","<p></p>","null","","","","","","","","","","","","","","","","","","","","","","","",""
"","do_trial","272","681124","0.0-144.0-0.0","""event"",""trial"",""time""
""fullscreenenter"",""0"",""3596""
","
","
","""event"",""trial"",""time""
""fullscreenenter"",""0"",""3596""
","
","240.20000004768372","","","","","","","","51","1,0,1","6","blank","355","null","0.5135027032159348","0.19596292007439486","0.23785854790074112","1","","","","","","","","",""
"","html-keyboard-response","273","682140","0.0-144.0-1.0","""event"",""trial"",""time""
""fullscreenenter"",""0"",""3596""
","
","
","""event"",""trial"",""time""
""fullscreenenter"",""0"",""3596""
","
","null","<p></p>","null","","","","","","","","","","","","","","","","","","","","","","","",""
"","do_trial","274","684728","0.0-145.0-0.0","""event"",""trial"",""time""
""fullscreenenter"",""0"",""3596""
","
","
","""event"",""trial"",""time""
""fullscreenenter"",""0"",""3596""
","
","0.10000002384185791","","","","","","","","51","1,0,0","6","blank","356","null","0.5316572068387961","0.3077162845448637","0.29738473500574314","0","","","","","","","","",""
"","html-keyboard-response","275","685737","0.0-145.0-1.0","""event"",""trial"",""time""
""fullscreenenter"",""0"",""3596""
","
","
","""event"",""trial"",""time""
""fullscreenenter"",""0"",""3596""
","
","null","<p></p>","null","","","","","","","","","","","","","","","","","","","","","","","",""
"","do_trial","276","688317","0.0-146.0-0.0","""event"",""trial"",""time""
""fullscreenenter"",""0"",""3596""
","
","
","""event"",""trial"",""time""
""fullscreenenter"",""0"",""3596""
","
","0.19999998807907104","","","","","","","","51","0,0,0","6","blank","357","null","0.5243123765199327","0.2775727479312629","0.18157497259942354","0","","","","","","","","",""
"","html-keyboard-response","277","689327","0.0-146.0-1.0","""event"",""trial"",""time""
""fullscreenenter"",""0"",""3596""
","
","
","""event"",""trial"",""time""
""fullscreenenter"",""0"",""3596""
","
","null","<p></p>","null","","","","","","","","","","","","","","","","","","","","","","","",""
