"success","trial_type","trial_index","time_elapsed","internal_node_id","interactions","blur_events","focus_events","fullscreenenter_events","fullscreenexit_events","rt","stimulus","key_press","subject_id","participant_id","age","gender","prompt","response","choice_outcomes","context_n","context_img_id","trial_n","probe_img_id","pR_red","pR_white","pR_black","outcome","is_valid","image_to_show","probed_trial","probed_context","correct","probe","probed_trial_n","probed_context_n","context_im"
"true","fullscreen","0","3164","0.0-0.0","""event"",""trial"",""time""
""fullscreenenter"",""0"",""2183""
","
","
","""event"",""trial"",""time""
""fullscreenenter"",""0"",""2183""
","
","","","","","","","","","","","","","","","","","","","","","","","","","","",""
"","pavlovia","1","3170","0.0-1.0","""event"",""trial"",""time""
""fullscreenenter"",""0"",""2183""
","
","
","""event"",""trial"",""time""
""fullscreenenter"",""0"",""2183""
","
","","","","","","","","","","","","","","","","","","","","","","","","","","",""
"","welc_back","2","12985","0.0-2.0","""event"",""trial"",""time""
""fullscreenenter"",""0"",""2183""
","
","
","""event"",""trial"",""time""
""fullscreenenter"",""0"",""2183""
","
","null","run_exp/static/audio/clip_29_welcome_back.m4a","null","399","727","11","Female","<div class='center'><p>Welcome to day 2!</p><p> Yesterday, you were the head captain of a pirate ship. You asked your fellow pirates to rob other ships of their gold across six different islands.</p></div>","","","","","","","","","","","","","","","","","","",""
"","html-keyboard-response","3","14523","0.0-3.0","""event"",""trial"",""time""
""fullscreenenter"",""0"",""2183""
","
","
","""event"",""trial"",""time""
""fullscreenenter"",""0"",""2183""
","
","1535.1000000089407","<div class='center'><p>Welcome to day 2!</p><p> Yesterday, you were the head captain of a pirate ship. You asked your fellow pirates to rob other ships of their gold across six different islands.</p><p><b>[Press the space bar to continue]</b></p></div>","32","","","","","","","","","","","","","","","","","","","","","","","",""
"","day_1_summary_goal","4","31714","0.0-4.0","""event"",""trial"",""time""
""fullscreenenter"",""0"",""2183""
","
","
","""event"",""trial"",""time""
""fullscreenenter"",""0"",""2183""
","
","null","run_exp/static/audio/clip_30_goal_of_game.m4a","null","","","","","<div class='center'><p>Today, like yesterday, you get to pick which pirate you want to rob the next ship.</p><p>If the pirate is successful in robbing a ship, you get gold coins that look like this: </p><p><img src='run_exp/static/images/tutorial/reward.png' height='150'></p><p> If they were not successful in robbing the ship, then you will get no gold coins and you'll see a big red x like this: </p><p><img src='run_exp/static/images/tutorial/reward_no.png' height='150'></p></div>","","","","","","","","","","","","","","","","","","",""
"","html-keyboard-response","5","34126","0.0-5.0","""event"",""trial"",""time""
""fullscreenenter"",""0"",""2183""
","
","
","""event"",""trial"",""time""
""fullscreenenter"",""0"",""2183""
","
","2409.2000000029802","<div class='center'><p>Today, like yesterday, you get to pick which pirate you want to rob the next ship.</p><p>If the pirate is successful in robbing a ship, you get gold coins that look like this: </p><p><img src='run_exp/static/images/tutorial/reward.png' height='150'></p><p> If they were not successful in robbing the ship, then you will get no gold coins and you'll see a big red x like this: </p><p><img src='run_exp/static/images/tutorial/reward_no.png' height='150'></p><p><b>[Press the space bar to continue]</b></p></div>","32","","","","","","","","","","","","","","","","","","","","","","","",""
"","day_1_summary_pick","6","48823","0.0-6.0","""event"",""trial"",""time""
""fullscreenenter"",""0"",""2183""
","
","
","""event"",""trial"",""time""
""fullscreenenter"",""0"",""2183""
","
","null","run_exp/static/audio/clip_31_how_to_pick_a_pirate.m4a","null","","","","","<div class='center'><p>Also, just like yesterday, you will use the 1,2,3 keys on your keyboard to pick a pirate. Press '1' to choose red beard, '2' to choose white beard, and '3' to choose black beard . You only have 3 seconds to pick a pirate, so please make a choice quickly!</p></div>","","","","","","","","","","","","","","","","","","",""
"","html-keyboard-response","7","67092","0.0-7.0","""event"",""trial"",""time""
""fullscreenenter"",""0"",""2183""
","
","
","""event"",""trial"",""time""
""fullscreenenter"",""0"",""2183""
","
","18267.59999999404","<div class='center'><p>Also, just like yesterday, you will use the 1,2,3 keys on your keyboard to pick a pirate. Press '1' to choose red beard, '2' to choose white beard, and '3' to choose black beard . You only have 3 seconds to pick a pirate, so please make a choice quickly!</p><p><b>[Press the space bar to continue]</b></p></div>","32","","","","","","","","","","","","","","","","","","","","","","","",""
"","test_phase_begin","8","97536","0.0-8.0","""event"",""trial"",""time""
""fullscreenenter"",""0"",""2183""
","
","
","""event"",""trial"",""time""
""fullscreenenter"",""0"",""2183""
","
","null","run_exp/static/audio/clip_32_final_place.m4a","null","","","","","<div class='center'><p>You’ve arrived at the final island of your journey! Unfortunately, it’s very foggy out, so you won’t be able to see it in the distance like the other islands you've visited.</p><p>You’ll still be deciding which pirate you want to rob a ship like before. However, because of the fog, you also won’t be able to see the ship.</p><p>This means you do not have to remember the ships you rob on this island.</p><p>Unlike yesterday, you won't be visiting multiple islands today. You will stay on this island for the entire game. This game will last ~30 minutes.</p></div>","","","","","","","","","","","","","","","","","","",""
"","html-keyboard-response","9","99366","0.0-9.0","""event"",""trial"",""time""
""fullscreenenter"",""0"",""2183""
","
","
","""event"",""trial"",""time""
""fullscreenenter"",""0"",""2183""
","
","1828.7999999970198","<div class='center'><p>You’ve arrived at the final island of your journey! Unfortunately, it’s very foggy out, so you won’t be able to see it in the distance like the other islands you've visited.</p><p>You’ll still be deciding which pirate you want to rob a ship like before. However, because of the fog, you also won’t be able to see the ship.</p><p>This means you do not have to remember the ships you rob on this island.</p><p>Unlike yesterday, you won't be visiting multiple islands today. You will stay on this island for the entire game. This game will last ~30 minutes.</p><p><b>[Press the space bar to continue]</b></p></div>","32","","","","","","","","","","","","","","","","","","","","","","","",""
"","explain_probe_1","10","107072","0.0-10.0","""event"",""trial"",""time""
""fullscreenenter"",""0"",""2183""
","
","
","""event"",""trial"",""time""
""fullscreenenter"",""0"",""2183""
","
","null","run_exp/static/audio/clip_33_recognition_1.m4a","null","","","","","<div class='center'><p> Sometimes you’ll be shown a ship, and you will be asked if you saw this ship on a past island.</p><p> Here is an example of what you will see.</p><p><img src='run_exp/static/images/tutorial/example_recog_trial.png' height='500'></p></div>","","","","","","","","","","","","","","","","","","",""
"","html-keyboard-response","11","108577","0.0-11.0","""event"",""trial"",""time""
""fullscreenenter"",""0"",""2183""
","
","
","""event"",""trial"",""time""
""fullscreenenter"",""0"",""2183""
","
","1502.1000000089407","<div class='center'><p> Sometimes you’ll be shown a ship, and you will be asked if you saw this ship on a past island.</p><p> Here is an example of what you will see.</p><p><img src='run_exp/static/images/tutorial/example_recog_trial.png' height='500'></p><p><b>[Press the space bar to continue]</b></p></div>","32","","","","","","","","","","","","","","","","","","","","","","","",""
"","explain_probe_2","12","130304","0.0-12.0","""event"",""trial"",""time""
""fullscreenenter"",""0"",""2183""
","
","
","""event"",""trial"",""time""
""fullscreenenter"",""0"",""2183""
","
","null","run_exp/static/audio/clip_34_recognition_2.m4a","null","","","","","<div class='center'><p> You will press the 5, 6, 7, 8 keys on your keyboard to respond.</p><p>If you are sure you saw the ship, press <b>5</b> on your keyboard.</p><p> If you think you saw it before but aren't sure, then press <b>6</b>.</p><p> If you think you have <b>not</b> seen it before but aren't sure, then press <b>7</b>.</p><p> If you are sure you did <b>not</b> see the ship before, then press <b>8</b>.</p><p><img src='run_exp/static/images/tutorial/example_recog_trial.png' height='500'></p></div>","","","","","","","","","","","","","","","","","","",""
"","html-keyboard-response","13","131916","0.0-13.0","""event"",""trial"",""time""
""fullscreenenter"",""0"",""2183""
","
","
","""event"",""trial"",""time""
""fullscreenenter"",""0"",""2183""
","
","1609.2000000029802","<div class='center'><p> You will press the 5, 6, 7, 8 keys on your keyboard to respond.</p><p>If you are sure you saw the ship, press <b>5</b> on your keyboard.</p><p> If you think you saw it before but aren't sure, then press <b>6</b>.</p><p> If you think you have <b>not</b> seen it before but aren't sure, then press <b>7</b>.</p><p> If you are sure you did <b>not</b> see the ship before, then press <b>8</b>.</p><p><img src='run_exp/static/images/tutorial/example_recog_trial.png' height='500'></p><p><b>[Press the space bar to continue]</b></p></div>","32","","","","","","","","","","","","","","","","","","","","","","","",""
"","explain_outcome","14","149119","0.0-14.0","""event"",""trial"",""time""
""fullscreenenter"",""0"",""2183""
","
","
","""event"",""trial"",""time""
""fullscreenenter"",""0"",""2183""
","
","null","run_exp/static/audio/clip_35_recognition_3.m4a","null","","","","","<div class='center'><p> If you remember correctly, then you’ll get a gold coin like this: </p><p><img src='run_exp/static/images/tutorial/reward_small.png' height='200'></p><p>If you do not remember correctly, then you'll see a red x like this: </p><p><img src='run_exp/static/images/tutorial/reward_no.png' height='200'></p><p>Importantly, when you are shown a ship, take the time to remind yourself which island you saw it on. This will help you in the next part of the study.</p></div>","","","","","","","","","","","","","","","","","","",""
"","html-keyboard-response","15","149474","0.0-15.0","""event"",""trial"",""time""
""fullscreenenter"",""0"",""2183""
","
","
","""event"",""trial"",""time""
""fullscreenenter"",""0"",""2183""
","
","352","<div class='center'><p> If you remember correctly, then you’ll get a gold coin like this: </p><p><img src='run_exp/static/images/tutorial/reward_small.png' height='200'></p><p>If you do not remember correctly, then you'll see a red x like this: </p><p><img src='run_exp/static/images/tutorial/reward_no.png' height='200'></p><p>Importantly, when you are shown a ship, take the time to remind yourself which island you saw it on. This will help you in the next part of the study.</p><p><b>[Press the space bar to continue]</b></p></div>","32","","","","","","","","","","","","","","","","","","","","","","","",""
"","begin_test_phase","16","165290","0.0-16.0","""event"",""trial"",""time""
""fullscreenenter"",""0"",""2183""
","
","
","""event"",""trial"",""time""
""fullscreenenter"",""0"",""2183""
","
","null","run_exp/static/audio/clip_36_begin_final.m4a","null","","","","","<div class='center'><p>Let's go over the important points again. Your job is to: </p><p>1. Pick the pirate who is best at robbing ships and will bring you back gold coins. </p><p>2. Correctly remember whether or not you saw a ship before. If you did see the ship before, remind yourself on which island you saw it. </p></div>","","","","","","","","","","","","","","","","","","",""
"","html-keyboard-response","17","169535","0.0-17.0","""event"",""trial"",""time""
""fullscreenenter"",""0"",""2183""
","
","
","""event"",""trial"",""time""
""fullscreenenter"",""0"",""2183""
","
","4208.399999991059","<div class='center'><p>Let's go over the important points again. Your job is to: </p><p>1. Pick the pirate who is best at robbing ships and will bring you back gold coins. </p><p>2. Correctly remember whether or not you saw a ship before. If you did see the ship before, remind yourself on which island you saw it. </p><p><b>[Press the space bar to continue]</b></p></div>","32","","","","","","","","","","","","","","","","","","","","","","","",""
"","do_welcome","18","173546","0.0-18.0","""event"",""trial"",""time""
""fullscreenenter"",""0"",""2183""
","
","
","""event"",""trial"",""time""
""fullscreenenter"",""0"",""2183""
","
","null","","","","","","","","null","","","","","","","","","","","","","","","","","",""
"","do_trial","19","179606","0.0-19.0-0.0","""event"",""trial"",""time""
""fullscreenenter"",""0"",""2183""
","
","
","""event"",""trial"",""time""
""fullscreenenter"",""0"",""2183""
","
","null","","","","","","","","null","1,0,0","6","blank","230","null","0.831825797200757","0.12953299085528047","0.4147370147208999","","","","","","","","","",""
"","html-keyboard-response","20","180614","0.0-19.0-1.0","""event"",""trial"",""time""
""fullscreenenter"",""0"",""2183""
","
","
","""event"",""trial"",""time""
""fullscreenenter"",""0"",""2183""
","
","null","<p></p>","null","","","","","","","","","","","","","","","","","","","","","","","",""
"","do_trial","21","183253","0.0-20.0-0.0","""event"",""trial"",""time""
""fullscreenenter"",""0"",""2183""
","
","
","""event"",""trial"",""time""
""fullscreenenter"",""0"",""2183""
","
","87.90000000596046","","","","","","","","49","1,0,1","6","blank","231","null","0.7882055496458291","0.15989334061948057","0.45840219269413296","1","","","","","","","","",""
"","html-keyboard-response","22","184258","0.0-20.0-1.0","""event"",""trial"",""time""
""fullscreenenter"",""0"",""2183""
","
","
","""event"",""trial"",""time""
""fullscreenenter"",""0"",""2183""
","
","null","<p></p>","null","","","","","","","","","","","","","","","","","","","","","","","",""
"","do_trial","23","187111","0.0-21.0-0.0","""event"",""trial"",""time""
""fullscreenenter"",""0"",""2183""
","
","
","""event"",""trial"",""time""
""fullscreenenter"",""0"",""2183""
","
","301.40000000596046","","","","","","","","50","0,0,0","6","blank","232","null","0.6013241268852179","0.09220344036005339","0.30060282853181586","0","","","","","","","","",""
"","html-keyboard-response","24","188116","0.0-21.0-1.0","""event"",""trial"",""time""
""fullscreenenter"",""0"",""2183""
","
","
","""event"",""trial"",""time""
""fullscreenenter"",""0"",""2183""
","
","null","<p></p>","null","","","","","","","","","","","","","","","","","","","","","","","",""
"","do_trial","25","191089","0.0-22.0-0.0","""event"",""trial"",""time""
""fullscreenenter"",""0"",""2183""
","
","
","""event"",""trial"",""time""
""fullscreenenter"",""0"",""2183""
","
","419.20000000298023","","","","","","","","51","1,0,0","6","blank","233","null","0.7510818601799905","0.13917838455080514","0.33768244299371064","0","","","","","","","","",""
"","html-keyboard-response","26","192092","0.0-22.0-1.0","""event"",""trial"",""time""
""fullscreenenter"",""0"",""2183""
","
","
","""event"",""trial"",""time""
""fullscreenenter"",""0"",""2183""
","
","null","<p></p>","null","","","","","","","","","","","","","","","","","","","","","","","",""
"","do_trial","27","194999","0.0-23.0-0.0","""event"",""trial"",""time""
""fullscreenenter"",""0"",""2183""
","
","
","""event"",""trial"",""time""
""fullscreenenter"",""0"",""2183""
","
","355.40000000596046","","","","","","","","49","1,0,0","6","blank","234","null","0.7363165592579932","0.16745986729987622","0.21919081963432713","1","","","","","","","","",""
"","html-keyboard-response","28","196007","0.0-23.0-1.0","""event"",""trial"",""time""
""fullscreenenter"",""0"",""2183""
","
","
","""event"",""trial"",""time""
""fullscreenenter"",""0"",""2183""
","
","null","<p></p>","null","","","","","","","","","","","","","","","","","","","","","","","",""
"","do_trial","29","198913","0.0-24.0-0.0","""event"",""trial"",""time""
""fullscreenenter"",""0"",""2183""
","
","
","""event"",""trial"",""time""
""fullscreenenter"",""0"",""2183""
","
","354.90000000596046","","","","","","","","49","1,0,0","6","blank","235","null","0.6521801423520124","0.052643525743955345","0.24167155880307303","1","","","","","","","","",""
"","html-keyboard-response","30","199917","0.0-24.0-1.0","""event"",""trial"",""time""
""fullscreenenter"",""0"",""2183""
","
","
","""event"",""trial"",""time""
""fullscreenenter"",""0"",""2183""
","
","null","<p></p>","null","","","","","","","","","","","","","","","","","","","","","","","",""
"","do_trial","31","203127","0.0-25.0-0.0","""event"",""trial"",""time""
""fullscreenenter"",""0"",""2183""
","
","
","""event"",""trial"",""time""
""fullscreenenter"",""0"",""2183""
","
","658.0999999940395","","","","","","","","49","0,0,0","6","blank","236","null","0.5613808215337415","0.0858655162494221","0.3269998280742912","0","","","","","","","","",""
"","html-keyboard-response","32","204134","0.0-25.0-1.0","""event"",""trial"",""time""
""fullscreenenter"",""0"",""2183""
","
","
","""event"",""trial"",""time""
""fullscreenenter"",""0"",""2183""
","
","null","<p></p>","null","","","","","","","","","","","","","","","","","","","","","","","",""
"","do_trial","33","207107","0.0-26.0-0.0","""event"",""trial"",""time""
""fullscreenenter"",""0"",""2183""
","
","
","""event"",""trial"",""time""
""fullscreenenter"",""0"",""2183""
","
","419.5","","","","","","","","50","1,0,0","6","blank","237","null","0.7032696073713686","0.09862044380265131","0.33960291475832416","0","","","","","","","","",""
"","html-keyboard-response","34","208115","0.0-26.0-1.0","""event"",""trial"",""time""
""fullscreenenter"",""0"",""2183""
","
","
","""event"",""trial"",""time""
""fullscreenenter"",""0"",""2183""
","
","null","<p></p>","null","","","","","","","","","","","","","","","","","","","","","","","",""
"","do_trial","35","210955","0.0-27.0-0.0","""event"",""trial"",""time""
""fullscreenenter"",""0"",""2183""
","
","
","""event"",""trial"",""time""
""fullscreenenter"",""0"",""2183""
","
","295.5","","","","","","","","51","1,0,1","6","blank","238","null","0.6011577173045116","0.06436959897148355","0.3165803497260837","1","","","","","","","","",""
"","html-keyboard-response","36","211963","0.0-27.0-1.0","""event"",""trial"",""time""
""fullscreenenter"",""0"",""2183""
","
","
","""event"",""trial"",""time""
""fullscreenenter"",""0"",""2183""
","
","null","<p></p>","null","","","","","","","","","","","","","","","","","","","","","","","",""
"","do_trial","37","214875","0.0-28.0-0.0","""event"",""trial"",""time""
""fullscreenenter"",""0"",""2183""
","
","
","""event"",""trial"",""time""
""fullscreenenter"",""0"",""2183""
","
","361","","","","","","","","51","0,0,0","6","blank","239","null","0.5970442446611911","0.1340863199704785","0.30562716249707655","0","","","","","","","","",""
"","html-keyboard-response","38","215883","0.0-28.0-1.0","""event"",""trial"",""time""
""fullscreenenter"",""0"",""2183""
","
","
","""event"",""trial"",""time""
""fullscreenenter"",""0"",""2183""
","
","null","<p></p>","null","","","","","","","","","","","","","","","","","","","","","","","",""
"","do_trial","39","218986","0.0-29.0-0.0","""event"",""trial"",""time""
""fullscreenenter"",""0"",""2183""
","
","
","""event"",""trial"",""time""
""fullscreenenter"",""0"",""2183""
","
","557","","","","","","","","49","1,0,0","6","blank","240","null","0.6211284887690429","0.1844330745039751","0.24280551153260013","1","","","","","","","","",""
"","html-keyboard-response","40","219990","0.0-29.0-1.0","""event"",""trial"",""time""
""fullscreenenter"",""0"",""2183""
","
","
","""event"",""trial"",""time""
""fullscreenenter"",""0"",""2183""
","
","null","<p></p>","null","","","","","","","","","","","","","","","","","","","","","","","",""
"","do_recog","41","226008","0.0-30.0-0.0","""event"",""trial"",""time""
""fullscreenenter"",""0"",""2183""
","
","
","""event"",""trial"",""time""
""fullscreenenter"",""0"",""2183""
","
","null","","","","","","","","null","","","","241","probe-63","","","","","1","[object Object]","159","3","0","","","",""
"","html-keyboard-response","42","227014","0.0-30.0-1.0","""event"",""trial"",""time""
""fullscreenenter"",""0"",""2183""
","
","
","""event"",""trial"",""time""
""fullscreenenter"",""0"",""2183""
","
","null","<p></p>","null","","","","","","","","","","","","","","","","","","","","","","","",""
"","do_trial","43","230656","0.0-31.0-0.0","""event"",""trial"",""time""
""fullscreenenter"",""0"",""2183""
","
","
","""event"",""trial"",""time""
""fullscreenenter"",""0"",""2183""
","
","1090.0999999940395","","","","","","","","49","1,0,0","6","blank","242","null","0.6364636228356613","0.11983107474463842","0.21682917646567684","1","","","","","","","","",""
"","html-keyboard-response","44","231663","0.0-31.0-1.0","""event"",""trial"",""time""
""fullscreenenter"",""0"",""2183""
","
","
","""event"",""trial"",""time""
""fullscreenenter"",""0"",""2183""
","
","null","<p></p>","null","","","","","","","","","","","","","","","","","","","","","","","",""
"","do_recog","45","235555","0.0-32.0-0.0","""event"",""trial"",""time""
""fullscreenenter"",""0"",""2183""
","
","
","""event"",""trial"",""time""
""fullscreenenter"",""0"",""2183""
","
","2378.5","","","","","","","","54","","","","243","probe-235","","","","","0","[object Object]","null","null","0","","","",""
"","html-keyboard-response","46","236562","0.0-32.0-1.0","""event"",""trial"",""time""
""fullscreenenter"",""0"",""2183""
","
","
","""event"",""trial"",""time""
""fullscreenenter"",""0"",""2183""
","
","null","<p></p>","null","","","","","","","","","","","","","","","","","","","","","","","",""
"","do_trial","47","240444","0.0-33.0-0.0","""event"",""trial"",""time""
""fullscreenenter"",""0"",""2183""
","
","
","""event"",""trial"",""time""
""fullscreenenter"",""0"",""2183""
","
","1320.7999999970198","","","","","","","","49","0,0,0","6","blank","244","null","0.629338947216163","0.3021883731023952","0.13397660274550538","0","","","","","","","","",""
"","html-keyboard-response","48","241448","0.0-33.0-1.0","""event"",""trial"",""time""
""fullscreenenter"",""0"",""2183""
","
","
","""event"",""trial"",""time""
""fullscreenenter"",""0"",""2183""
","
","null","<p></p>","null","","","","","","","","","","","","","","","","","","","","","","","",""
"","do_trial","49","244524","0.0-34.0-0.0","""event"",""trial"",""time""
""fullscreenenter"",""0"",""2183""
","
","
","""event"",""trial"",""time""
""fullscreenenter"",""0"",""2183""
","
","518.3999999910593","","","","","","","","50","0,0,0","6","blank","245","null","0.4614170766730774","0.43919842441928647","0.13540354297364574","0","","","","","","","","",""
"","html-keyboard-response","50","245531","0.0-34.0-1.0","""event"",""trial"",""time""
""fullscreenenter"",""0"",""2183""
","
","
","""event"",""trial"",""time""
""fullscreenenter"",""0"",""2183""
","
","null","<p></p>","null","","","","","","","","","","","","","","","","","","","","","","","",""
"","do_trial","51","248359","0.0-35.0-0.0","""event"",""trial"",""time""
""fullscreenenter"",""0"",""2183""
","
","
","""event"",""trial"",""time""
""fullscreenenter"",""0"",""2183""
","
","283.20000000298023","","","","","","","","51","0,1,0","6","blank","246","null","0.36296803570147745","0.6032367329368151","0.1913622028035348","0","","","","","","","","",""
"","html-keyboard-response","52","249366","0.0-35.0-1.0","""event"",""trial"",""time""
""fullscreenenter"",""0"",""2183""
","
","
","""event"",""trial"",""time""
""fullscreenenter"",""0"",""2183""
","
","null","<p></p>","null","","","","","","","","","","","","","","","","","","","","","","","",""
"","do_trial","53","252274","0.0-36.0-0.0","""event"",""trial"",""time""
""fullscreenenter"",""0"",""2183""
","
","
","""event"",""trial"",""time""
""fullscreenenter"",""0"",""2183""
","
","358.59999999403954","","","","","","","","49","1,0,1","6","blank","247","null","0.4483896823342134","0.5628979348859151","0.07584995884756553","1","","","","","","","","",""
"","html-keyboard-response","54","253280","0.0-36.0-1.0","""event"",""trial"",""time""
""fullscreenenter"",""0"",""2183""
","
","
","""event"",""trial"",""time""
""fullscreenenter"",""0"",""2183""
","
","null","<p></p>","null","","","","","","","","","","","","","","","","","","","","","","","",""
"","do_trial","55","256327","0.0-37.0-0.0","""event"",""trial"",""time""
""fullscreenenter"",""0"",""2183""
","
","
","""event"",""trial"",""time""
""fullscreenenter"",""0"",""2183""
","
","506.3999999910593","","","","","","","","49","0,0,0","6","blank","248","null","0.3652057768785585","0.5244136287649366","0.07458188746027201","0","","","","","","","","",""
"","html-keyboard-response","56","257334","0.0-37.0-1.0","""event"",""trial"",""time""
""fullscreenenter"",""0"",""2183""
","
","
","""event"",""trial"",""time""
""fullscreenenter"",""0"",""2183""
","
","null","<p></p>","null","","","","","","","","","","","","","","","","","","","","","","","",""
"","do_recog","57","261003","0.0-38.0-0.0","""event"",""trial"",""time""
""fullscreenenter"",""0"",""2183""
","
","
","""event"",""trial"",""time""
""fullscreenenter"",""0"",""2183""
","
","2157.3999999910593","","","","","","","","53","","","","249","probe-33","","","","","1","[object Object]","195","4","1","","","",""
"","html-keyboard-response","58","262010","0.0-38.0-1.0","""event"",""trial"",""time""
""fullscreenenter"",""0"",""2183""
","
","
","""event"",""trial"",""time""
""fullscreenenter"",""0"",""2183""
","
","null","<p></p>","null","","","","","","","","","","","","","","","","","","","","","","","",""
"","do_trial","59","266212","0.0-39.0-0.0","""event"",""trial"",""time""
""fullscreenenter"",""0"",""2183""
","
","
","""event"",""trial"",""time""
""fullscreenenter"",""0"",""2183""
","
","1650.1000000089407","","","","","","","","49","0,1,0","6","blank","250","null","0.36613375796710285","0.4960342439008353","0.1178238543609344","0","","","","","","","","",""
"","html-keyboard-response","60","267219","0.0-39.0-1.0","""event"",""trial"",""time""
""fullscreenenter"",""0"",""2183""
","
","
","""event"",""trial"",""time""
""fullscreenenter"",""0"",""2183""
","
","null","<p></p>","null","","","","","","","","","","","","","","","","","","","","","","","",""
"","do_trial","61","270068","0.0-40.0-0.0","""event"",""trial"",""time""
""fullscreenenter"",""0"",""2183""
","
","
","""event"",""trial"",""time""
""fullscreenenter"",""0"",""2183""
","
","303","","","","","","","","50","0,1,0","6","blank","251","null","0.35505446557986303","0.5207271279267475","0.11813440531498534","1","","","","","","","","",""
"","html-keyboard-response","62","271075","0.0-40.0-1.0","""event"",""trial"",""time""
""fullscreenenter"",""0"",""2183""
","
","
","""event"",""trial"",""time""
""fullscreenenter"",""0"",""2183""
","
","null","<p></p>","null","","","","","","","","","","","","","","","","","","","","","","","",""
"","do_trial","63","273996","0.0-41.0-0.0","""event"",""trial"",""time""
""fullscreenenter"",""0"",""2183""
","
","
","""event"",""trial"",""time""
""fullscreenenter"",""0"",""2183""
","
","365.19999998807907","","","","","","","","51","0,0,0","6","blank","252","null","0.2160648584306822","0.41664195889263084","0.06583244313792962","0","","","","","","","","",""
"","html-keyboard-response","64","275003","0.0-41.0-1.0","""event"",""trial"",""time""
""fullscreenenter"",""0"",""2183""
","
","
","""event"",""trial"",""time""
""fullscreenenter"",""0"",""2183""
","
","null","<p></p>","null","","","","","","","","","","","","","","","","","","","","","","","",""
"","do_trial","65","277993","0.0-42.0-0.0","""event"",""trial"",""time""
""fullscreenenter"",""0"",""2183""
","
","
","""event"",""trial"",""time""
""fullscreenenter"",""0"",""2183""
","
","433.70000000298023","","","","","","","","51","0,0,0","6","blank","253","null","0.26496866514873935","0.37475242779779605","0.07644405514508995","0","","","","","","","","",""
"","html-keyboard-response","66","278996","0.0-42.0-1.0","""event"",""trial"",""time""
""fullscreenenter"",""0"",""2183""
","
","
","""event"",""trial"",""time""
""fullscreenenter"",""0"",""2183""
","
","null","<p></p>","null","","","","","","","","","","","","","","","","","","","","","","","",""
"","do_trial","67","281935","0.0-43.0-0.0","""event"",""trial"",""time""
""fullscreenenter"",""0"",""2183""
","
","
","""event"",""trial"",""time""
""fullscreenenter"",""0"",""2183""
","
","386.40000000596046","","","","","","","","49","0,0,0","6","blank","254","null","0.2774742687743037","0.6325277030177827","0.1525155335355827","0","","","","","","","","",""
"","html-keyboard-response","68","282942","0.0-43.0-1.0","""event"",""trial"",""time""
""fullscreenenter"",""0"",""2183""
","
","
","""event"",""trial"",""time""
""fullscreenenter"",""0"",""2183""
","
","null","<p></p>","null","","","","","","","","","","","","","","","","","","","","","","","",""
"","do_trial","69","285829","0.0-44.0-0.0","""event"",""trial"",""time""
""fullscreenenter"",""0"",""2183""
","
","
","""event"",""trial"",""time""
""fullscreenenter"",""0"",""2183""
","
","330.20000000298023","","","","","","","","50","0,0,0","6","blank","255","null","0.3534451360413031","0.5857747989379839","0.14757712879978663","0","","","","","","","","",""
"","html-keyboard-response","70","286835","0.0-44.0-1.0","""event"",""trial"",""time""
""fullscreenenter"",""0"",""2183""
","
","
","""event"",""trial"",""time""
""fullscreenenter"",""0"",""2183""
","
","null","<p></p>","null","","","","","","","","","","","","","","","","","","","","","","","",""
"","do_trial","71","289663","0.0-45.0-0.0","""event"",""trial"",""time""
""fullscreenenter"",""0"",""2183""
","
","
","""event"",""trial"",""time""
""fullscreenenter"",""0"",""2183""
","
","279.3999999910593","","","","","","","","50","0,1,0","6","blank","256","null","0.2914819335538359","0.5419426574118956","0.13798824754019173","1","","","","","","","","",""
"","html-keyboard-response","72","290670","0.0-45.0-1.0","""event"",""trial"",""time""
""fullscreenenter"",""0"",""2183""
","
","
","""event"",""trial"",""time""
""fullscreenenter"",""0"",""2183""
","
","null","<p></p>","null","","","","","","","","","","","","","","","","","","","","","","","",""
"","do_recog","73","293683","0.0-46.0-0.0","""event"",""trial"",""time""
""fullscreenenter"",""0"",""2183""
","
","
","""event"",""trial"",""time""
""fullscreenenter"",""0"",""2183""
","
","1498.5999999940395","","","","","","","","53","","","","257","probe-149","","","","","1","[object Object]","115","2","1","","","",""
"","html-keyboard-response","74","294688","0.0-46.0-1.0","""event"",""trial"",""time""
""fullscreenenter"",""0"",""2183""
","
","
","""event"",""trial"",""time""
""fullscreenenter"",""0"",""2183""
","
","null","<p></p>","null","","","","","","","","","","","","","","","","","","","","","","","",""
"","do_trial","75","297991","0.0-47.0-0.0","""event"",""trial"",""time""
""fullscreenenter"",""0"",""2183""
","
","
","""event"",""trial"",""time""
""fullscreenenter"",""0"",""2183""
","
","752.4000000059605","","","","","","","","49","0,1,0","6","blank","258","null","0.2658703658854001","0.6490884318716146","0.12261212912529405","0","","","","","","","","",""
"","html-keyboard-response","76","298995","0.0-47.0-1.0","""event"",""trial"",""time""
""fullscreenenter"",""0"",""2183""
","
","
","""event"",""trial"",""time""
""fullscreenenter"",""0"",""2183""
","
","null","<p></p>","null","","","","","","","","","","","","","","","","","","","","","","","",""
"","do_trial","77","301845","0.0-48.0-0.0","""event"",""trial"",""time""
""fullscreenenter"",""0"",""2183""
","
","
","""event"",""trial"",""time""
""fullscreenenter"",""0"",""2183""
","
","305.5","","","","","","","","51","0,0,0","6","blank","259","null","0.12411739453265665","0.6636114262706443","0.27238391142794577","0","","","","","","","","",""
"","html-keyboard-response","78","302852","0.0-48.0-1.0","""event"",""trial"",""time""
""fullscreenenter"",""0"",""2183""
","
","
","""event"",""trial"",""time""
""fullscreenenter"",""0"",""2183""
","
","null","<p></p>","null","","","","","","","","","","","","","","","","","","","","","","","",""
"","do_recog","79","305638","0.0-49.0-0.0","""event"",""trial"",""time""
""fullscreenenter"",""0"",""2183""
","
","
","""event"",""trial"",""time""
""fullscreenenter"",""0"",""2183""
","
","1272.2999999970198","","","","","","","","53","","","","260","probe-50","","","","","1","[object Object]","70","1","1","","","",""
"","html-keyboard-response","80","306645","0.0-49.0-1.0","""event"",""trial"",""time""
""fullscreenenter"",""0"",""2183""
","
","
","""event"",""trial"",""time""
""fullscreenenter"",""0"",""2183""
","
","null","<p></p>","null","","","","","","","","","","","","","","","","","","","","","","","",""
"","do_trial","81","309542","0.0-50.0-0.0","""event"",""trial"",""time""
""fullscreenenter"",""0"",""2183""
","
","
","""event"",""trial"",""time""
""fullscreenenter"",""0"",""2183""
","
","339","","","","","","","","50","1,1,0","6","blank","261","null","0.15479191575143744","0.7162214023672552","0.3019325549900004","1","","","","","","","","",""
"","html-keyboard-response","82","310544","0.0-50.0-1.0","""event"",""trial"",""time""
""fullscreenenter"",""0"",""2183""
","
","
","""event"",""trial"",""time""
""fullscreenenter"",""0"",""2183""
","
","null","<p></p>","null","","","","","","","","","","","","","","","","","","","","","","","",""
"","do_trial","83","313344","0.0-51.0-0.0","""event"",""trial"",""time""
""fullscreenenter"",""0"",""2183""
","
","
","""event"",""trial"",""time""
""fullscreenenter"",""0"",""2183""
","
","254.29999999701977","","","","","","","","49","0,1,1","6","blank","262","null","0.2393183353655833","0.606329319473698","0.23877520266958868","0","","","","","","","","",""
"","html-keyboard-response","84","314352","0.0-51.0-1.0","""event"",""trial"",""time""
""fullscreenenter"",""0"",""2183""
","
","
","""event"",""trial"",""time""
""fullscreenenter"",""0"",""2183""
","
","null","<p></p>","null","","","","","","","","","","","","","","","","","","","","","","","",""
"","do_trial","85","317193","0.0-52.0-0.0","""event"",""trial"",""time""
""fullscreenenter"",""0"",""2183""
","
","
","""event"",""trial"",""time""
""fullscreenenter"",""0"",""2183""
","
","295.29999999701977","","","","","","","","50","1,1,0","6","blank","263","null","0.3994204953944182","0.6965000836534732","0.07820090570306147","1","","","","","","","","",""
"","html-keyboard-response","86","318199","0.0-52.0-1.0","""event"",""trial"",""time""
""fullscreenenter"",""0"",""2183""
","
","
","""event"",""trial"",""time""
""fullscreenenter"",""0"",""2183""
","
","null","<p></p>","null","","","","","","","","","","","","","","","","","","","","","","","",""
"","do_trial","87","321279","0.0-53.0-0.0","""event"",""trial"",""time""
""fullscreenenter"",""0"",""2183""
","
","
","""event"",""trial"",""time""
""fullscreenenter"",""0"",""2183""
","
","524.2000000029802","","","","","","","","50","0,1,0","6","blank","264","null","0.30633542404673925","0.6485966356065851","0.10729511560641385","1","","","","","","","","",""
"","html-keyboard-response","88","322285","0.0-53.0-1.0","""event"",""trial"",""time""
""fullscreenenter"",""0"",""2183""
","
","
","""event"",""trial"",""time""
""fullscreenenter"",""0"",""2183""
","
","null","<p></p>","null","","","","","","","","","","","","","","","","","","","","","","","",""
"","do_trial","89","325236","0.0-54.0-0.0","""event"",""trial"",""time""
""fullscreenenter"",""0"",""2183""
","
","
","""event"",""trial"",""time""
""fullscreenenter"",""0"",""2183""
","
","393","","","","","","","","50","0,0,0","6","blank","265","null","0.337278939881256","0.5828040201529862","0.17350335690789917","0","","","","","","","","",""
"","html-keyboard-response","90","326243","0.0-54.0-1.0","""event"",""trial"",""time""
""fullscreenenter"",""0"",""2183""
","
","
","""event"",""trial"",""time""
""fullscreenenter"",""0"",""2183""
","
","null","<p></p>","null","","","","","","","","","","","","","","","","","","","","","","","",""
"","do_recog","91","328786","0.0-55.0-0.0","""event"",""trial"",""time""
""fullscreenenter"",""0"",""2183""
","
","
","""event"",""trial"",""time""
""fullscreenenter"",""0"",""2183""
","
","1029.7000000029802","","","","","","","","53","","","","266","probe-18","","","","","1","[object Object]","197","4","1","","","",""
"","html-keyboard-response","92","329792","0.0-55.0-1.0","""event"",""trial"",""time""
""fullscreenenter"",""0"",""2183""
","
","
","""event"",""trial"",""time""
""fullscreenenter"",""0"",""2183""
","
","null","<p></p>","null","","","","","","","","","","","","","","","","","","","","","","","",""
"","do_trial","93","332743","0.0-56.0-0.0","""event"",""trial"",""time""
""fullscreenenter"",""0"",""2183""
","
","
","""event"",""trial"",""time""
""fullscreenenter"",""0"",""2183""
","
","399.59999999403954","","","","","","","","51","1,1,0","6","blank","267","null","0.44880397958426765","0.6058929836346508","0.08336546264435159","0","","","","","","","","",""
"","html-keyboard-response","94","333750","0.0-56.0-1.0","""event"",""trial"",""time""
""fullscreenenter"",""0"",""2183""
","
","
","""event"",""trial"",""time""
""fullscreenenter"",""0"",""2183""
","
","null","<p></p>","null","","","","","","","","","","","","","","","","","","","","","","","",""
"","do_recog","95","336604","0.0-57.0-0.0","""event"",""trial"",""time""
""fullscreenenter"",""0"",""2183""
","
","
","""event"",""trial"",""time""
""fullscreenenter"",""0"",""2183""
","
","1339.4000000059605","","","","","","","","54","","","","268","probe-150","","","","","1","[object Object]","198","4","1","","","",""
"","html-keyboard-response","96","337608","0.0-57.0-1.0","""event"",""trial"",""time""
""fullscreenenter"",""0"",""2183""
","
","
","""event"",""trial"",""time""
""fullscreenenter"",""0"",""2183""
","
","null","<p></p>","null","","","","","","","","","","","","","","","","","","","","","","","",""
"","break","97","380834","0.0-58.0-0.0","""event"",""trial"",""time""
""fullscreenenter"",""0"",""2183""
","
","
","""event"",""trial"",""time""
""fullscreenenter"",""0"",""2183""
","
","43225.70000000298","<div class='center'><p>Time to take a quick break! You have 2 minutes to rest, but you can move on sooner if you'd like.</p><p> Press the <b>space bar</b> to continue.</p></div>","32","","","","","","","","","","","","","","","","","","","","","","","",""
"","do_trial","98","384891","0.0-58.0-1.0","""event"",""trial"",""time""
""fullscreenenter"",""0"",""2183""
","
","
","""event"",""trial"",""time""
""fullscreenenter"",""0"",""2183""
","
","1503","","","","","","","","49","1,1,0","6","blank","269","null","0.42480678762464286","0.6025485729964638","0.07174266512431944","1","","","","","","","","",""
"","html-keyboard-response","99","385899","0.0-58.0-2.0","""event"",""trial"",""time""
""fullscreenenter"",""0"",""2183""
","
","
","""event"",""trial"",""time""
""fullscreenenter"",""0"",""2183""
","
","null","<p></p>","null","","","","","","","","","","","","","","","","","","","","","","","",""
"","do_recog","100","389491","0.0-59.0-0.0","""event"",""trial"",""time""
""fullscreenenter"",""0"",""2183""
","
","
","""event"",""trial"",""time""
""fullscreenenter"",""0"",""2183""
","
","2082.5","","","","","","","","53","","","","270","probe-41","","","","","1","[object Object]","157","3","1","","","",""
"","html-keyboard-response","101","390495","0.0-59.0-1.0","""event"",""trial"",""time""
""fullscreenenter"",""0"",""2183""
","
","
","""event"",""trial"",""time""
""fullscreenenter"",""0"",""2183""
","
","null","<p></p>","null","","","","","","","","","","","","","","","","","","","","","","","",""
"","do_trial","102","393855","0.0-60.0-0.0","""event"",""trial"",""time""
""fullscreenenter"",""0"",""2183""
","
","
","""event"",""trial"",""time""
""fullscreenenter"",""0"",""2183""
","
","809.2999999970198","","","","","","","","50","0,1,0","6","blank","271","null","0.4010061609567324","0.5171015385089335","0.09740787685566195","1","","","","","","","","",""
"","html-keyboard-response","103","394859","0.0-60.0-1.0","""event"",""trial"",""time""
""fullscreenenter"",""0"",""2183""
","
","
","""event"",""trial"",""time""
""fullscreenenter"",""0"",""2183""
","
","null","<p></p>","null","","","","","","","","","","","","","","","","","","","","","","","",""
"","do_recog","104","397455","0.0-61.0-0.0","""event"",""trial"",""time""
""fullscreenenter"",""0"",""2183""
","
","
","""event"",""trial"",""time""
""fullscreenenter"",""0"",""2183""
","
","1082.2000000029802","","","","","","","","53","","","","272","probe-87","","","","","1","[object Object]","152","3","1","","","",""
"","html-keyboard-response","105","398462","0.0-61.0-1.0","""event"",""trial"",""time""
""fullscreenenter"",""0"",""2183""
","
","
","""event"",""trial"",""time""
""fullscreenenter"",""0"",""2183""
","
","null","<p></p>","null","","","","","","","","","","","","","","","","","","","","","","","",""
"","do_trial","106","401722","0.0-62.0-0.0","""event"",""trial"",""time""
""fullscreenenter"",""0"",""2183""
","
","
","""event"",""trial"",""time""
""fullscreenenter"",""0"",""2183""
","
","717.9000000059605","","","","","","","","51","1,1,0","6","blank","273","null","0.3892998212638754","0.6207062505786286","0.07725883143924442","0","","","","","","","","",""
"","html-keyboard-response","107","402726","0.0-62.0-1.0","""event"",""trial"",""time""
""fullscreenenter"",""0"",""2183""
","
","
","""event"",""trial"",""time""
""fullscreenenter"",""0"",""2183""
","
","null","<p></p>","null","","","","","","","","","","","","","","","","","","","","","","","",""
"","do_trial","108","405628","0.0-63.0-0.0","""event"",""trial"",""time""
""fullscreenenter"",""0"",""2183""
","
","
","""event"",""trial"",""time""
""fullscreenenter"",""0"",""2183""
","
","344.20000000298023","","","","","","","","50","1,1,0","6","blank","274","null","0.425090337177052","0.6779057448348078","0.09899026022170647","1","","","","","","","","",""
"","html-keyboard-response","109","406635","0.0-63.0-1.0","""event"",""trial"",""time""
""fullscreenenter"",""0"",""2183""
","
","
","""event"",""trial"",""time""
""fullscreenenter"",""0"",""2183""
","
","null","<p></p>","null","","","","","","","","","","","","","","","","","","","","","","","",""
"","do_recog","110","409491","0.0-64.0-0.0","""event"",""trial"",""time""
""fullscreenenter"",""0"",""2183""
","
","
","""event"",""trial"",""time""
""fullscreenenter"",""0"",""2183""
","
","1346","","","","","","","","54","","","","275","probe-43","","","","","1","[object Object]","113","2","1","","","",""
"","html-keyboard-response","111","410497","0.0-64.0-1.0","""event"",""trial"",""time""
""fullscreenenter"",""0"",""2183""
","
","
","""event"",""trial"",""time""
""fullscreenenter"",""0"",""2183""
","
","null","<p></p>","null","","","","","","","","","","","","","","","","","","","","","","","",""
"","do_trial","112","413789","0.0-65.0-0.0","""event"",""trial"",""time""
""fullscreenenter"",""0"",""2183""
","
","
","""event"",""trial"",""time""
""fullscreenenter"",""0"",""2183""
","
","742.2000000029802","","","","","","","","49","0,1,0","6","blank","276","null","0.29539842758289375","0.7487463082113974","0.07805892032853658","0","","","","","","","","",""
"","html-keyboard-response","113","414796","0.0-65.0-1.0","""event"",""trial"",""time""
""fullscreenenter"",""0"",""2183""
","
","
","""event"",""trial"",""time""
""fullscreenenter"",""0"",""2183""
","
","null","<p></p>","null","","","","","","","","","","","","","","","","","","","","","","","",""
"","do_trial","114","417667","0.0-66.0-0.0","""event"",""trial"",""time""
""fullscreenenter"",""0"",""2183""
","
","
","""event"",""trial"",""time""
""fullscreenenter"",""0"",""2183""
","
","313","","","","","","","","50","0,0,0","6","blank","277","null","0.327318905034789","0.7826277487976164","0.10035904106548428","0","","","","","","","","",""
"","html-keyboard-response","115","418674","0.0-66.0-1.0","""event"",""trial"",""time""
""fullscreenenter"",""0"",""2183""
","
","
","""event"",""trial"",""time""
""fullscreenenter"",""0"",""2183""
","
","null","<p></p>","null","","","","","","","","","","","","","","","","","","","","","","","",""
"","do_trial","116","421505","0.0-67.0-0.0","""event"",""trial"",""time""
""fullscreenenter"",""0"",""2183""
","
","
","""event"",""trial"",""time""
""fullscreenenter"",""0"",""2183""
","
","275.59999999403954","","","","","","","","51","0,0,1","6","blank","278","null","0.4306765303983289","0.6795898826132931","0.18043049405741954","1","","","","","","","","",""
"","html-keyboard-response","117","422513","0.0-67.0-1.0","""event"",""trial"",""time""
""fullscreenenter"",""0"",""2183""
","
","
","""event"",""trial"",""time""
""fullscreenenter"",""0"",""2183""
","
","null","<p></p>","null","","","","","","","","","","","","","","","","","","","","","","","",""
"","do_trial","118","425440","0.0-68.0-0.0","""event"",""trial"",""time""
""fullscreenenter"",""0"",""2183""
","
","
","""event"",""trial"",""time""
""fullscreenenter"",""0"",""2183""
","
","372.70000000298023","","","","","","","","49","1,1,1","6","blank","279","null","0.38971883070234803","0.552490347638909","0.24943507653828662","1","","","","","","","","",""
"","html-keyboard-response","119","426447","0.0-68.0-1.0","""event"",""trial"",""time""
""fullscreenenter"",""0"",""2183""
","
","
","""event"",""trial"",""time""
""fullscreenenter"",""0"",""2183""
","
","null","<p></p>","null","","","","","","","","","","","","","","","","","","","","","","","",""
"","do_recog","120","429267","0.0-69.0-0.0","""event"",""trial"",""time""
""fullscreenenter"",""0"",""2183""
","
","
","""event"",""trial"",""time""
""fullscreenenter"",""0"",""2183""
","
","1304.7000000029802","","","","","","","","54","","","","280","probe-240","","","","","0","[object Object]","null","null","0","","","",""
"","html-keyboard-response","121","430274","0.0-69.0-1.0","""event"",""trial"",""time""
""fullscreenenter"",""0"",""2183""
","
","
","""event"",""trial"",""time""
""fullscreenenter"",""0"",""2183""
","
","null","<p></p>","null","","","","","","","","","","","","","","","","","","","","","","","",""
"","do_trial","122","433532","0.0-70.0-0.0","""event"",""trial"",""time""
""fullscreenenter"",""0"",""2183""
","
","
","""event"",""trial"",""time""
""fullscreenenter"",""0"",""2183""
","
","703.6000000089407","","","","","","","","50","1,1,0","6","blank","281","null","0.5299704577568525","0.5520153917413834","0.21774583965782277","1","","","","","","","","",""
"","html-keyboard-response","123","434539","0.0-70.0-1.0","""event"",""trial"",""time""
""fullscreenenter"",""0"",""2183""
","
","
","""event"",""trial"",""time""
""fullscreenenter"",""0"",""2183""
","
","null","<p></p>","null","","","","","","","","","","","","","","","","","","","","","","","",""
"","do_trial","124","437539","0.0-71.0-0.0","""event"",""trial"",""time""
""fullscreenenter"",""0"",""2183""
","
","
","""event"",""trial"",""time""
""fullscreenenter"",""0"",""2183""
","
","444.09999999403954","","","","","","","","50","1,1,1","6","blank","282","null","0.37983524247785533","0.6579674124306999","0.23720630493560385","1","","","","","","","","",""
"","html-keyboard-response","125","438546","0.0-71.0-1.0","""event"",""trial"",""time""
""fullscreenenter"",""0"",""2183""
","
","
","""event"",""trial"",""time""
""fullscreenenter"",""0"",""2183""
","
","null","<p></p>","null","","","","","","","","","","","","","","","","","","","","","","","",""
"","do_trial","126","442063","0.0-72.0-0.0","""event"",""trial"",""time""
""fullscreenenter"",""0"",""2183""
","
","
","""event"",""trial"",""time""
""fullscreenenter"",""0"",""2183""
","
","957.5","","","","","","","","49","0,0,0","6","blank","283","null","0.4851766612325474","0.5185882210619321","0.19974457087354694","0","","","","","","","","",""
"","html-keyboard-response","127","443066","0.0-72.0-1.0","""event"",""trial"",""time""
""fullscreenenter"",""0"",""2183""
","
","
","""event"",""trial"",""time""
""fullscreenenter"",""0"",""2183""
","
","null","<p></p>","null","","","","","","","","","","","","","","","","","","","","","","","",""
"","do_trial","128","445954","0.0-73.0-0.0","""event"",""trial"",""time""
""fullscreenenter"",""0"",""2183""
","
","
","""event"",""trial"",""time""
""fullscreenenter"",""0"",""2183""
","
","337.3999999910593","","","","","","","","50","0,0,1","6","blank","284","null","0.4760762046465209","0.586998967758637","0.11322178612250547","0","","","","","","","","",""
"","html-keyboard-response","129","446956","0.0-73.0-1.0","""event"",""trial"",""time""
""fullscreenenter"",""0"",""2183""
","
","
","""event"",""trial"",""time""
""fullscreenenter"",""0"",""2183""
","
","null","<p></p>","null","","","","","","","","","","","","","","","","","","","","","","","",""
"","do_trial","130","449636","0.0-74.0-0.0","""event"",""trial"",""time""
""fullscreenenter"",""0"",""2183""
","
","
","""event"",""trial"",""time""
""fullscreenenter"",""0"",""2183""
","
","128.20000000298023","","","","","","","","51","1,0,1","6","blank","285","null","0.3990607864567105","0.5575578568414431","0.19493323939693533","1","","","","","","","","",""
"","html-keyboard-response","131","450639","0.0-74.0-1.0","""event"",""trial"",""time""
""fullscreenenter"",""0"",""2183""
","
","
","""event"",""trial"",""time""
""fullscreenenter"",""0"",""2183""
","
","null","<p></p>","null","","","","","","","","","","","","","","","","","","","","","","","",""
"","do_trial","132","453999","0.0-75.0-0.0","""event"",""trial"",""time""
""fullscreenenter"",""0"",""2183""
","
","
","""event"",""trial"",""time""
""fullscreenenter"",""0"",""2183""
","
","808.2999999970198","","","","","","","","49","1,0,0","6","blank","286","null","0.4649266627243042","0.5666043665707301","0.10266509864754989","1","","","","","","","","",""
"","html-keyboard-response","133","455006","0.0-75.0-1.0","""event"",""trial"",""time""
""fullscreenenter"",""0"",""2183""
","
","
","""event"",""trial"",""time""
""fullscreenenter"",""0"",""2183""
","
","null","<p></p>","null","","","","","","","","","","","","","","","","","","","","","","","",""
"","do_recog","134","458072","0.0-76.0-0.0","""event"",""trial"",""time""
""fullscreenenter"",""0"",""2183""
","
","
","""event"",""trial"",""time""
""fullscreenenter"",""0"",""2183""
","
","1551.7999999970198","","","","","","","","56","","","","287","probe-36","","","","","1","[object Object]","119","2","0","","","",""
"","html-keyboard-response","135","459079","0.0-76.0-1.0","""event"",""trial"",""time""
""fullscreenenter"",""0"",""2183""
","
","
","""event"",""trial"",""time""
""fullscreenenter"",""0"",""2183""
","
","null","<p></p>","null","","","","","","","","","","","","","","","","","","","","","","","",""
"","do_trial","136","462584","0.0-77.0-0.0","""event"",""trial"",""time""
""fullscreenenter"",""0"",""2183""
","
","
","""event"",""trial"",""time""
""fullscreenenter"",""0"",""2183""
","
","949.5","","","","","","","","51","0,0,0","6","blank","288","null","0.37500294578516413","0.5975824708704226","0.07239678574699383","0","","","","","","","","",""
"","html-keyboard-response","137","463588","0.0-77.0-1.0","""event"",""trial"",""time""
""fullscreenenter"",""0"",""2183""
","
","
","""event"",""trial"",""time""
""fullscreenenter"",""0"",""2183""
","
","null","<p></p>","null","","","","","","","","","","","","","","","","","","","","","","","",""
"","do_recog","138","466533","0.0-78.0-0.0","""event"",""trial"",""time""
""fullscreenenter"",""0"",""2183""
","
","
","""event"",""trial"",""time""
""fullscreenenter"",""0"",""2183""
","
","1430.8999999910593","","","","","","","","53","","","","289","probe-148","","","","","1","[object Object]","114","2","1","","","",""
"","html-keyboard-response","139","467538","0.0-78.0-1.0","""event"",""trial"",""time""
""fullscreenenter"",""0"",""2183""
","
","
","""event"",""trial"",""time""
""fullscreenenter"",""0"",""2183""
","
","null","<p></p>","null","","","","","","","","","","","","","","","","","","","","","","","",""
"","do_trial","140","470638","0.0-79.0-0.0","""event"",""trial"",""time""
""fullscreenenter"",""0"",""2183""
","
","
","""event"",""trial"",""time""
""fullscreenenter"",""0"",""2183""
","
","550.5","","","","","","","","49","1,1,0","6","blank","290","null","0.38646215742061407","0.4970532071741485","0.19407285593066703","1","","","","","","","","",""
"","html-keyboard-response","141","471642","0.0-79.0-1.0","""event"",""trial"",""time""
""fullscreenenter"",""0"",""2183""
","
","
","""event"",""trial"",""time""
""fullscreenenter"",""0"",""2183""
","
","null","<p></p>","null","","","","","","","","","","","","","","","","","","","","","","","",""
"","do_recog","142","474530","0.0-80.0-0.0","""event"",""trial"",""time""
""fullscreenenter"",""0"",""2183""
","
","
","""event"",""trial"",""time""
""fullscreenenter"",""0"",""2183""
","
","1375.8999999910593","","","","","","","","56","","","","291","probe-125","","","","","1","[object Object]","194","4","0","","","",""
"","html-keyboard-response","143","475537","0.0-80.0-1.0","""event"",""trial"",""time""
""fullscreenenter"",""0"",""2183""
","
","
","""event"",""trial"",""time""
""fullscreenenter"",""0"",""2183""
","
","null","<p></p>","null","","","","","","","","","","","","","","","","","","","","","","","",""
"","do_trial","144","478703","0.0-81.0-0.0","""event"",""trial"",""time""
""fullscreenenter"",""0"",""2183""
","
","
","""event"",""trial"",""time""
""fullscreenenter"",""0"",""2183""
","
","611.4000000059605","","","","","","","","51","0,0,0","6","blank","292","null","0.36265594914778576","0.5343032191588443","0.07261075260045932","0","","","","","","","","",""
"","html-keyboard-response","145","479709","0.0-81.0-1.0","""event"",""trial"",""time""
""fullscreenenter"",""0"",""2183""
","
","
","""event"",""trial"",""time""
""fullscreenenter"",""0"",""2183""
","
","null","<p></p>","null","","","","","","","","","","","","","","","","","","","","","","","",""
"","do_recog","146","482832","0.0-82.0-0.0","""event"",""trial"",""time""
""fullscreenenter"",""0"",""2183""
","
","
","""event"",""trial"",""time""
""fullscreenenter"",""0"",""2183""
","
","1610.5999999940395","","","","","","","","56","","","","293","probe-23","","","","","1","[object Object]","150","3","0","","","",""
"","html-keyboard-response","147","483837","0.0-82.0-1.0","""event"",""trial"",""time""
""fullscreenenter"",""0"",""2183""
","
","
","""event"",""trial"",""time""
""fullscreenenter"",""0"",""2183""
","
","null","<p></p>","null","","","","","","","","","","","","","","","","","","","","","","","",""
"","do_trial","148","487903","0.0-83.0-0.0","""event"",""trial"",""time""
""fullscreenenter"",""0"",""2183""
","
","
","""event"",""trial"",""time""
""fullscreenenter"",""0"",""2183""
","
","1515.2000000029802","","","","","","","","49","0,0,0","6","blank","294","null","0.2937261742556503","0.3777771490072876","0.12272119160845321","0","","","","","","","","",""
"","html-keyboard-response","149","488909","0.0-83.0-1.0","""event"",""trial"",""time""
""fullscreenenter"",""0"",""2183""
","
","
","""event"",""trial"",""time""
""fullscreenenter"",""0"",""2183""
","
","null","<p></p>","null","","","","","","","","","","","","","","","","","","","","","","","",""
"","do_trial","150","491952","0.0-84.0-0.0","""event"",""trial"",""time""
""fullscreenenter"",""0"",""2183""
","
","
","""event"",""trial"",""time""
""fullscreenenter"",""0"",""2183""
","
","491.29999999701977","","","","","","","","51","0,0,0","6","blank","295","null","0.26276940056728","0.40976614383277954","0.21777956980186416","0","","","","","","","","",""
"","html-keyboard-response","151","492959","0.0-84.0-1.0","""event"",""trial"",""time""
""fullscreenenter"",""0"",""2183""
","
","
","""event"",""trial"",""time""
""fullscreenenter"",""0"",""2183""
","
","null","<p></p>","null","","","","","","","","","","","","","","","","","","","","","","","",""
"","do_trial","152","495799","0.0-85.0-0.0","""event"",""trial"",""time""
""fullscreenenter"",""0"",""2183""
","
","
","""event"",""trial"",""time""
""fullscreenenter"",""0"",""2183""
","
","295","","","","","","","","50","0,0,0","6","blank","296","null","0.28120172807022886","0.38313520676410356","0.2175627241353896","0","","","","","","","","",""
"","html-keyboard-response","153","496806","0.0-85.0-1.0","""event"",""trial"",""time""
""fullscreenenter"",""0"",""2183""
","
","
","""event"",""trial"",""time""
""fullscreenenter"",""0"",""2183""
","
","null","<p></p>","null","","","","","","","","","","","","","","","","","","","","","","","",""
"","do_trial","154","499746","0.0-86.0-0.0","""event"",""trial"",""time""
""fullscreenenter"",""0"",""2183""
","
","
","""event"",""trial"",""time""
""fullscreenenter"",""0"",""2183""
","
","384.29999999701977","","","","","","","","49","1,1,0","6","blank","297","null","0.4430799913386393","0.2621811651386323","0.15136404059876923","1","","","","","","","","",""
"","html-keyboard-response","155","500753","0.0-86.0-1.0","""event"",""trial"",""time""
""fullscreenenter"",""0"",""2183""
","
","
","""event"",""trial"",""time""
""fullscreenenter"",""0"",""2183""
","
","null","<p></p>","null","","","","","","","","","","","","","","","","","","","","","","","",""
"","do_trial","156","503737","0.0-87.0-0.0","""event"",""trial"",""time""
""fullscreenenter"",""0"",""2183""
","
","
","""event"",""trial"",""time""
""fullscreenenter"",""0"",""2183""
","
","437.09999999403954","","","","","","","","49","1,0,0","6","blank","298","null","0.5968661957834335","0.3477650403386972","0.1980325308668999","1","","","","","","","","",""
"","html-keyboard-response","157","504741","0.0-87.0-1.0","""event"",""trial"",""time""
""fullscreenenter"",""0"",""2183""
","
","
","""event"",""trial"",""time""
""fullscreenenter"",""0"",""2183""
","
","null","<p></p>","null","","","","","","","","","","","","","","","","","","","","","","","",""
"","do_trial","158","507910","0.0-88.0-0.0","""event"",""trial"",""time""
""fullscreenenter"",""0"",""2183""
","
","
","""event"",""trial"",""time""
""fullscreenenter"",""0"",""2183""
","
","615.1000000089407","","","","","","","","49","1,1,0","6","blank","299","null","0.663623531222242","0.38858597734425787","0.1108318227196461","1","","","","","","","","",""
"","html-keyboard-response","159","508917","0.0-88.0-1.0","""event"",""trial"",""time""
""fullscreenenter"",""0"",""2183""
","
","
","""event"",""trial"",""time""
""fullscreenenter"",""0"",""2183""
","
","null","<p></p>","null","","","","","","","","","","","","","","","","","","","","","","","",""
"","do_trial","160","512242","0.0-89.0-0.0","""event"",""trial"",""time""
""fullscreenenter"",""0"",""2183""
","
","
","""event"",""trial"",""time""
""fullscreenenter"",""0"",""2183""
","
","774","","","","","","","","49","1,1,0","6","blank","300","null","0.6047513495354752","0.2857587713869656","0.10736715529962851","1","","","","","","","","",""
"","html-keyboard-response","161","513250","0.0-89.0-1.0","""event"",""trial"",""time""
""fullscreenenter"",""0"",""2183""
","
","
","""event"",""trial"",""time""
""fullscreenenter"",""0"",""2183""
","
","null","<p></p>","null","","","","","","","","","","","","","","","","","","","","","","","",""
"","do_recog","162","516072","0.0-90.0-0.0","""event"",""trial"",""time""
""fullscreenenter"",""0"",""2183""
","
","
","""event"",""trial"",""time""
""fullscreenenter"",""0"",""2183""
","
","1308.0999999940395","","","","","","","","53","","","","301","probe-31","","","","","1","[object Object]","191","4","1","","","",""
"","html-keyboard-response","163","517076","0.0-90.0-1.0","""event"",""trial"",""time""
""fullscreenenter"",""0"",""2183""
","
","
","""event"",""trial"",""time""
""fullscreenenter"",""0"",""2183""
","
","null","<p></p>","null","","","","","","","","","","","","","","","","","","","","","","","",""
"","do_trial","164","520485","0.0-91.0-0.0","""event"",""trial"",""time""
""fullscreenenter"",""0"",""2183""
","
","
","""event"",""trial"",""time""
""fullscreenenter"",""0"",""2183""
","
","860.5","","","","","","","","50","0,1,1","6","blank","302","null","0.5258035898225079","0.3928873939322692","0.1491454677030927","1","","","","","","","","",""
"","html-keyboard-response","165","521493","0.0-91.0-1.0","""event"",""trial"",""time""
""fullscreenenter"",""0"",""2183""
","
","
","""event"",""trial"",""time""
""fullscreenenter"",""0"",""2183""
","
","null","<p></p>","null","","","","","","","","","","","","","","","","","","","","","","","",""
"","do_recog","166","524369","0.0-92.0-0.0","""event"",""trial"",""time""
""fullscreenenter"",""0"",""2183""
","
","
","""event"",""trial"",""time""
""fullscreenenter"",""0"",""2183""
","
","1362.0999999940395","","","","","","","","53","","","","303","probe-233","","","","","0","[object Object]","null","null","0","","","",""
"","html-keyboard-response","167","525377","0.0-92.0-1.0","""event"",""trial"",""time""
""fullscreenenter"",""0"",""2183""
","
","
","""event"",""trial"",""time""
""fullscreenenter"",""0"",""2183""
","
","null","<p></p>","null","","","","","","","","","","","","","","","","","","","","","","","",""
"","do_trial","168","528711","0.0-93.0-0.0","""event"",""trial"",""time""
""fullscreenenter"",""0"",""2183""
","
","
","""event"",""trial"",""time""
""fullscreenenter"",""0"",""2183""
","
","779.7999999970198","","","","","","","","50","0,0,0","6","blank","304","null","0.4310840432856445","0.29732294595813985","0.1032550548835188","0","","","","","","","","",""
"","html-keyboard-response","169","529718","0.0-93.0-1.0","""event"",""trial"",""time""
""fullscreenenter"",""0"",""2183""
","
","
","""event"",""trial"",""time""
""fullscreenenter"",""0"",""2183""
","
","null","<p></p>","null","","","","","","","","","","","","","","","","","","","","","","","",""
"","do_recog","170","532862","0.0-94.0-0.0","""event"",""trial"",""time""
""fullscreenenter"",""0"",""2183""
","
","
","""event"",""trial"",""time""
""fullscreenenter"",""0"",""2183""
","
","1631.4000000059605","","","","","","","","56","","","","305","probe-237","","","","","0","[object Object]","null","null","1","","","",""
"","html-keyboard-response","171","533870","0.0-94.0-1.0","""event"",""trial"",""time""
""fullscreenenter"",""0"",""2183""
","
","
","""event"",""trial"",""time""
""fullscreenenter"",""0"",""2183""
","
","null","<p></p>","null","","","","","","","","","","","","","","","","","","","","","","","",""
"","do_trial","172","537199","0.0-95.0-0.0","""event"",""trial"",""time""
""fullscreenenter"",""0"",""2183""
","
","
","""event"",""trial"",""time""
""fullscreenenter"",""0"",""2183""
","
","771.2999999970198","","","","","","","","51","0,0,0","6","blank","306","null","0.5098466775936885","0.3429203241540016","0.15732628737322815","0","","","","","","","","",""
"","html-keyboard-response","173","538207","0.0-95.0-1.0","""event"",""trial"",""time""
""fullscreenenter"",""0"",""2183""
","
","
","""event"",""trial"",""time""
""fullscreenenter"",""0"",""2183""
","
","null","<p></p>","null","","","","","","","","","","","","","","","","","","","","","","","",""
"","do_trial","174","541270","0.0-96.0-0.0","""event"",""trial"",""time""
""fullscreenenter"",""0"",""2183""
","
","
","""event"",""trial"",""time""
""fullscreenenter"",""0"",""2183""
","
","513.0999999940395","","","","","","","","49","1,0,0","6","blank","307","null","0.5407810022608264","0.30265252935332626","0.08591384053649591","1","","","","","","","","",""
"","html-keyboard-response","175","542277","0.0-96.0-1.0","""event"",""trial"",""time""
""fullscreenenter"",""0"",""2183""
","
","
","""event"",""trial"",""time""
""fullscreenenter"",""0"",""2183""
","
","null","<p></p>","null","","","","","","","","","","","","","","","","","","","","","","","",""
"","do_trial","176","545435","0.0-97.0-0.0","""event"",""trial"",""time""
""fullscreenenter"",""0"",""2183""
","
","
","""event"",""trial"",""time""
""fullscreenenter"",""0"",""2183""
","
","607.4000000059605","","","","","","","","49","1,0,0","6","blank","308","null","0.5654551886910071","0.4020171485551602","0.07374488749739347","1","","","","","","","","",""
"","html-keyboard-response","177","546442","0.0-97.0-1.0","""event"",""trial"",""time""
""fullscreenenter"",""0"",""2183""
","
","
","""event"",""trial"",""time""
""fullscreenenter"",""0"",""2183""
","
","null","<p></p>","null","","","","","","","","","","","","","","","","","","","","","","","",""
"","break","178","633597","0.0-98.0-0.0","""event"",""trial"",""time""
""fullscreenenter"",""0"",""2183""
","
","
","""event"",""trial"",""time""
""fullscreenenter"",""0"",""2183""
","
","87155.89999999106","<div class='center'><p>Time to take a quick break! You have 2 minutes to rest, but you can move on sooner if you'd like.</p><p> Press the <b>space bar</b> to continue.</p></div>","32","","","","","","","","","","","","","","","","","","","","","","","",""
"","do_trial","179","638578","0.0-98.0-1.0","""event"",""trial"",""time""
""fullscreenenter"",""0"",""2183""
","
","
","""event"",""trial"",""time""
""fullscreenenter"",""0"",""2183""
","
","2424.8999999910593","","","","","","","","49","1,0,0","6","blank","309","null","0.5444163245618967","0.39593663995237827","0.07800619115432748","1","","","","","","","","",""
"","html-keyboard-response","180","639581","0.0-98.0-2.0","""event"",""trial"",""time""
""fullscreenenter"",""0"",""2183""
","
","
","""event"",""trial"",""time""
""fullscreenenter"",""0"",""2183""
","
","null","<p></p>","null","","","","","","","","","","","","","","","","","","","","","","","",""
"","do_recog","181","642841","0.0-99.0-0.0","""event"",""trial"",""time""
""fullscreenenter"",""0"",""2183""
","
","
","""event"",""trial"",""time""
""fullscreenenter"",""0"",""2183""
","
","1747.7000000029802","","","","","","","","53","","","","310","probe-111","","","","","1","[object Object]","38","0","1","","","",""
"","html-keyboard-response","182","643845","0.0-99.0-1.0","""event"",""trial"",""time""
""fullscreenenter"",""0"",""2183""
","
","
","""event"",""trial"",""time""
""fullscreenenter"",""0"",""2183""
","
","null","<p></p>","null","","","","","","","","","","","","","","","","","","","","","","","",""
"","do_trial","183","649906","0.0-100.0-0.0","""event"",""trial"",""time""
""fullscreenenter"",""0"",""2183""
","
","
","""event"",""trial"",""time""
""fullscreenenter"",""0"",""2183""
","
","null","","","","","","","","null","1,0,0","6","blank","311","null","0.7295144225596308","0.418263540057478","0.05915837320179472","","","","","","","","","",""
"","html-keyboard-response","184","650910","0.0-100.0-1.0","""event"",""trial"",""time""
""fullscreenenter"",""0"",""2183""
","
","
","""event"",""trial"",""time""
""fullscreenenter"",""0"",""2183""
","
","null","<p></p>","null","","","","","","","","","","","","","","","","","","","","","","","",""
"","do_trial","185","653791","0.0-101.0-0.0","""event"",""trial"",""time""
""fullscreenenter"",""0"",""2183""
","
","
","""event"",""trial"",""time""
""fullscreenenter"",""0"",""2183""
","
","322.29999999701977","","","","","","","","51","0,0,0","6","blank","312","null","0.6724045838328702","0.28697705022476205","0.11358144333909294","0","","","","","","","","",""
"","html-keyboard-response","186","654800","0.0-101.0-1.0","""event"",""trial"",""time""
""fullscreenenter"",""0"",""2183""
","
","
","""event"",""trial"",""time""
""fullscreenenter"",""0"",""2183""
","
","null","<p></p>","null","","","","","","","","","","","","","","","","","","","","","","","",""
"","do_trial","187","657494","0.0-102.0-0.0","""event"",""trial"",""time""
""fullscreenenter"",""0"",""2183""
","
","
","""event"",""trial"",""time""
""fullscreenenter"",""0"",""2183""
","
","147.40000000596046","","","","","","","","50","0,0,0","6","blank","313","null","0.6535866322788695","0.24769284511326084","0.17860458570811535","0","","","","","","","","",""
"","html-keyboard-response","188","658501","0.0-102.0-1.0","""event"",""trial"",""time""
""fullscreenenter"",""0"",""2183""
","
","
","""event"",""trial"",""time""
""fullscreenenter"",""0"",""2183""
","
","null","<p></p>","null","","","","","","","","","","","","","","","","","","","","","","","",""
"","do_trial","189","661484","0.0-103.0-0.0","""event"",""trial"",""time""
""fullscreenenter"",""0"",""2183""
","
","
","""event"",""trial"",""time""
""fullscreenenter"",""0"",""2183""
","
","430.5","","","","","","","","49","0,0,0","6","blank","314","null","0.6050526231694637","0.14197775829580778","0.11052974595809843","0","","","","","","","","",""
"","html-keyboard-response","190","662491","0.0-103.0-1.0","""event"",""trial"",""time""
""fullscreenenter"",""0"",""2183""
","
","
","""event"",""trial"",""time""
""fullscreenenter"",""0"",""2183""
","
","null","<p></p>","null","","","","","","","","","","","","","","","","","","","","","","","",""
"","do_trial","191","665471","0.0-104.0-0.0","""event"",""trial"",""time""
""fullscreenenter"",""0"",""2183""
","
","
","""event"",""trial"",""time""
""fullscreenenter"",""0"",""2183""
","
","422","","","","","","","","51","1,0,0","6","blank","315","null","0.6885315919213043","0.13812564967376315","0.1596660222203531","0","","","","","","","","",""
"","html-keyboard-response","192","666477","0.0-104.0-1.0","""event"",""trial"",""time""
""fullscreenenter"",""0"",""2183""
","
","
","""event"",""trial"",""time""
""fullscreenenter"",""0"",""2183""
","
","null","<p></p>","null","","","","","","","","","","","","","","","","","","","","","","","",""
"","do_recog","193","668771","0.0-105.0-0.0","""event"",""trial"",""time""
""fullscreenenter"",""0"",""2183""
","
","
","""event"",""trial"",""time""
""fullscreenenter"",""0"",""2183""
","
","780.2000000029802","","","","","","","","53","","","","316","probe-191","","","","","1","[object Object]","196","4","1","","","",""
"","html-keyboard-response","194","669777","0.0-105.0-1.0","""event"",""trial"",""time""
""fullscreenenter"",""0"",""2183""
","
","
","""event"",""trial"",""time""
""fullscreenenter"",""0"",""2183""
","
","null","<p></p>","null","","","","","","","","","","","","","","","","","","","","","","","",""
"","do_trial","195","673125","0.0-106.0-0.0","""event"",""trial"",""time""
""fullscreenenter"",""0"",""2183""
","
","
","""event"",""trial"",""time""
""fullscreenenter"",""0"",""2183""
","
","793.8999999910593","","","","","","","","49","0,1,0","6","blank","317","null","0.6764994014096207","0.22326464803502866","0.10684692563948549","0","","","","","","","","",""
"","html-keyboard-response","196","674129","0.0-106.0-1.0","""event"",""trial"",""time""
""fullscreenenter"",""0"",""2183""
","
","
","""event"",""trial"",""time""
""fullscreenenter"",""0"",""2183""
","
","null","<p></p>","null","","","","","","","","","","","","","","","","","","","","","","","",""
"","do_trial","197","676682","0.0-107.0-0.0","""event"",""trial"",""time""
""fullscreenenter"",""0"",""2183""
","
","
","""event"",""trial"",""time""
""fullscreenenter"",""0"",""2183""
","
","0.09999999403953552","","","","","","","","50","1,0,0","6","blank","318","null","0.6071185056171574","0.20058015999128184","0.06053451212126332","0","","","","","","","","",""
"","html-keyboard-response","198","677689","0.0-107.0-1.0","""event"",""trial"",""time""
""fullscreenenter"",""0"",""2183""
","
","
","""event"",""trial"",""time""
""fullscreenenter"",""0"",""2183""
","
","null","<p></p>","null","","","","","","","","","","","","","","","","","","","","","","","",""
"","do_trial","199","680672","0.0-108.0-0.0","""event"",""trial"",""time""
""fullscreenenter"",""0"",""2183""
","
","
","""event"",""trial"",""time""
""fullscreenenter"",""0"",""2183""
","
","432","","","","","","","","51","1,0,0","6","blank","319","null","0.6799261781140818","0.2094356142792838","0.14523271027720516","0","","","","","","","","",""
"","html-keyboard-response","200","681679","0.0-108.0-1.0","""event"",""trial"",""time""
""fullscreenenter"",""0"",""2183""
","
","
","""event"",""trial"",""time""
""fullscreenenter"",""0"",""2183""
","
","null","<p></p>","null","","","","","","","","","","","","","","","","","","","","","","","",""
"","do_trial","201","684543","0.0-109.0-0.0","""event"",""trial"",""time""
""fullscreenenter"",""0"",""2183""
","
","
","""event"",""trial"",""time""
""fullscreenenter"",""0"",""2183""
","
","319.1000000089407","","","","","","","","50","1,0,0","6","blank","320","null","0.6121990596912973","0.26707724043023806","0.1971580137593632","0","","","","","","","","",""
"","html-keyboard-response","202","685546","0.0-109.0-1.0","""event"",""trial"",""time""
""fullscreenenter"",""0"",""2183""
","
","
","""event"",""trial"",""time""
""fullscreenenter"",""0"",""2183""
","
","null","<p></p>","null","","","","","","","","","","","","","","","","","","","","","","","",""
"","do_recog","203","688215","0.0-110.0-0.0","""event"",""trial"",""time""
""fullscreenenter"",""0"",""2183""
","
","
","""event"",""trial"",""time""
""fullscreenenter"",""0"",""2183""
","
","1155.7999999970198","","","","","","","","54","","","","321","probe-129","","","","","1","[object Object]","34","0","1","","","",""
"","html-keyboard-response","204","689223","0.0-110.0-1.0","""event"",""trial"",""time""
""fullscreenenter"",""0"",""2183""
","
","
","""event"",""trial"",""time""
""fullscreenenter"",""0"",""2183""
","
","null","<p></p>","null","","","","","","","","","","","","","","","","","","","","","","","",""
"","do_trial","205","692370","0.0-111.0-0.0","""event"",""trial"",""time""
""fullscreenenter"",""0"",""2183""
","
","
","""event"",""trial"",""time""
""fullscreenenter"",""0"",""2183""
","
","592.5","","","","","","","","49","1,1,0","6","blank","322","null","0.6565615041575099","0.23300200192057474","0.29045996562961607","1","","","","","","","","",""
"","html-keyboard-response","206","693377","0.0-111.0-1.0","""event"",""trial"",""time""
""fullscreenenter"",""0"",""2183""
","
","
","""event"",""trial"",""time""
""fullscreenenter"",""0"",""2183""
","
","null","<p></p>","null","","","","","","","","","","","","","","","","","","","","","","","",""
"","do_recog","207","696157","0.0-112.0-0.0","""event"",""trial"",""time""
""fullscreenenter"",""0"",""2183""
","
","
","""event"",""trial"",""time""
""fullscreenenter"",""0"",""2183""
","
","1266.8999999910593","","","","","","","","54","","","","323","probe-15","","","","","1","[object Object]","35","0","1","","","",""
"","html-keyboard-response","208","697164","0.0-112.0-1.0","""event"",""trial"",""time""
""fullscreenenter"",""0"",""2183""
","
","
","""event"",""trial"",""time""
""fullscreenenter"",""0"",""2183""
","
","null","<p></p>","null","","","","","","","","","","","","","","","","","","","","","","","",""
"","do_trial","209","700408","0.0-113.0-0.0","""event"",""trial"",""time""
""fullscreenenter"",""0"",""2183""
","
","
","""event"",""trial"",""time""
""fullscreenenter"",""0"",""2183""
","
","688.2999999970198","","","","","","","","50","1,1,0","6","blank","324","null","0.673773368859946","0.11123438540834055","0.17165401038992542","1","","","","","","","","",""
"","html-keyboard-response","210","701411","0.0-113.0-1.0","""event"",""trial"",""time""
""fullscreenenter"",""0"",""2183""
","
","
","""event"",""trial"",""time""
""fullscreenenter"",""0"",""2183""
","
","null","<p></p>","null","","","","","","","","","","","","","","","","","","","","","","","",""
"","do_recog","211","705363","0.0-114.0-0.0","""event"",""trial"",""time""
""fullscreenenter"",""0"",""2183""
","
","
","""event"",""trial"",""time""
""fullscreenenter"",""0"",""2183""
","
","2436.5999999940395","","","","","","","","56","","","","325","probe-210","","","","","1","[object Object]","153","3","0","","","",""
"","html-keyboard-response","212","706367","0.0-114.0-1.0","""event"",""trial"",""time""
""fullscreenenter"",""0"",""2183""
","
","
","""event"",""trial"",""time""
""fullscreenenter"",""0"",""2183""
","
","null","<p></p>","null","","","","","","","","","","","","","","","","","","","","","","","",""
"","do_trial","213","710923","0.0-115.0-0.0","""event"",""trial"",""time""
""fullscreenenter"",""0"",""2183""
","
","
","""event"",""trial"",""time""
""fullscreenenter"",""0"",""2183""
","
","1999.2000000029802","","","","","","","","50","1,0,1","6","blank","326","null","0.8282554781438765","0.22558978315706213","0.20329879709107984","0","","","","","","","","",""
"","html-keyboard-response","214","711928","0.0-115.0-1.0","""event"",""trial"",""time""
""fullscreenenter"",""0"",""2183""
","
","
","""event"",""trial"",""time""
""fullscreenenter"",""0"",""2183""
","
","null","<p></p>","null","","","","","","","","","","","","","","","","","","","","","","","",""
"","do_trial","215","714857","0.0-116.0-0.0","""event"",""trial"",""time""
""fullscreenenter"",""0"",""2183""
","
","
","""event"",""trial"",""time""
""fullscreenenter"",""0"",""2183""
","
","378.90000000596046","","","","","","","","49","1,0,0","6","blank","327","null","0.6956774783838828","0.30112875018128227","0.08683192570249033","1","","","","","","","","",""
"","html-keyboard-response","216","715863","0.0-116.0-1.0","""event"",""trial"",""time""
""fullscreenenter"",""0"",""2183""
","
","
","""event"",""trial"",""time""
""fullscreenenter"",""0"",""2183""
","
","null","<p></p>","null","","","","","","","","","","","","","","","","","","","","","","","",""
"","do_trial","217","718952","0.0-117.0-0.0","""event"",""trial"",""time""
""fullscreenenter"",""0"",""2183""
","
","
","""event"",""trial"",""time""
""fullscreenenter"",""0"",""2183""
","
","539.7999999970198","","","","","","","","49","1,0,0","6","blank","328","null","0.7131783001028318","0.22796777963295878","0.16263986877578848","1","","","","","","","","",""
"","html-keyboard-response","218","719957","0.0-117.0-1.0","""event"",""trial"",""time""
""fullscreenenter"",""0"",""2183""
","
","
","""event"",""trial"",""time""
""fullscreenenter"",""0"",""2183""
","
","null","<p></p>","null","","","","","","","","","","","","","","","","","","","","","","","",""
"","do_recog","219","723128","0.0-118.0-0.0","""event"",""trial"",""time""
""fullscreenenter"",""0"",""2183""
","
","
","""event"",""trial"",""time""
""fullscreenenter"",""0"",""2183""
","
","1659","","","","","","","","55","","","","329","probe-213","","","","","1","[object Object]","32","0","0","","","",""
"","html-keyboard-response","220","724133","0.0-118.0-1.0","""event"",""trial"",""time""
""fullscreenenter"",""0"",""2183""
","
","
","""event"",""trial"",""time""
""fullscreenenter"",""0"",""2183""
","
","null","<p></p>","null","","","","","","","","","","","","","","","","","","","","","","","",""
"","do_trial","221","730192","0.0-119.0-0.0","""event"",""trial"",""time""
""fullscreenenter"",""0"",""2183""
","
","
","""event"",""trial"",""time""
""fullscreenenter"",""0"",""2183""
","
","null","","","","","","","","null","0,0,0","6","blank","330","null","0.5523591337724938","0.2028086098643324","0.06537663346205434","","","","","","","","","",""
"","html-keyboard-response","222","731200","0.0-119.0-1.0","""event"",""trial"",""time""
""fullscreenenter"",""0"",""2183""
","
","
","""event"",""trial"",""time""
""fullscreenenter"",""0"",""2183""
","
","null","<p></p>","null","","","","","","","","","","","","","","","","","","","","","","","",""
"","do_trial","223","734377","0.0-120.0-0.0","""event"",""trial"",""time""
""fullscreenenter"",""0"",""2183""
","
","
","""event"",""trial"",""time""
""fullscreenenter"",""0"",""2183""
","
","627.5","","","","","","","","51","1,0,0","6","blank","331","null","0.5326614381749625","0.21102655384357238","0.11373378367626043","0","","","","","","","","",""
"","html-keyboard-response","224","735384","0.0-120.0-1.0","""event"",""trial"",""time""
""fullscreenenter"",""0"",""2183""
","
","
","""event"",""trial"",""time""
""fullscreenenter"",""0"",""2183""
","
","null","<p></p>","null","","","","","","","","","","","","","","","","","","","","","","","",""
"","do_trial","225","738560","0.0-121.0-0.0","""event"",""trial"",""time""
""fullscreenenter"",""0"",""2183""
","
","
","""event"",""trial"",""time""
""fullscreenenter"",""0"",""2183""
","
","614.0999999940395","","","","","","","","50","0,0,0","6","blank","332","null","0.5566429169220927","0.25367794076885036","0.0657254146713351","0","","","","","","","","",""
"","html-keyboard-response","226","739567","0.0-121.0-1.0","""event"",""trial"",""time""
""fullscreenenter"",""0"",""2183""
","
","
","""event"",""trial"",""time""
""fullscreenenter"",""0"",""2183""
","
","null","<p></p>","null","","","","","","","","","","","","","","","","","","","","","","","",""
"","do_recog","227","745577","0.0-122.0-0.0","""event"",""trial"",""time""
""fullscreenenter"",""0"",""2183""
","
","
","""event"",""trial"",""time""
""fullscreenenter"",""0"",""2183""
","
","null","","","","","","","","null","","","","333","probe-203","","","","","1","[object Object]","199","4","0","","","",""
"","html-keyboard-response","228","746584","0.0-122.0-1.0","""event"",""trial"",""time""
""fullscreenenter"",""0"",""2183""
","
","
","""event"",""trial"",""time""
""fullscreenenter"",""0"",""2183""
","
","null","<p></p>","null","","","","","","","","","","","","","","","","","","","","","","","",""
"","do_trial","229","749139","0.0-123.0-0.0","""event"",""trial"",""time""
""fullscreenenter"",""0"",""2183""
","
","
","""event"",""trial"",""time""
""fullscreenenter"",""0"",""2183""
","
","0.09999999403953552","","","","","","","","50","1,0,0","6","blank","334","null","0.6454983605445849","0.12851218727969937","0.15208055870469042","0","","","","","","","","",""
"","html-keyboard-response","230","750144","0.0-123.0-1.0","""event"",""trial"",""time""
""fullscreenenter"",""0"",""2183""
","
","
","""event"",""trial"",""time""
""fullscreenenter"",""0"",""2183""
","
","null","<p></p>","null","","","","","","","","","","","","","","","","","","","","","","","",""
"","do_recog","231","752671","0.0-124.0-0.0","""event"",""trial"",""time""
""fullscreenenter"",""0"",""2183""
","
","
","""event"",""trial"",""time""
""fullscreenenter"",""0"",""2183""
","
","1020.2999999970198","","","","","","","","53","","","","335","probe-171","","","","","1","[object Object]","79","1","1","","","",""
"","html-keyboard-response","232","753676","0.0-124.0-1.0","""event"",""trial"",""time""
""fullscreenenter"",""0"",""2183""
","
","
","""event"",""trial"",""time""
""fullscreenenter"",""0"",""2183""
","
","null","<p></p>","null","","","","","","","","","","","","","","","","","","","","","","","",""
"","do_trial","233","756373","0.0-125.0-0.0","""event"",""trial"",""time""
""fullscreenenter"",""0"",""2183""
","
","
","""event"",""trial"",""time""
""fullscreenenter"",""0"",""2183""
","
","145.70000000298023","","","","","","","","50","1,0,0","6","blank","336","null","0.5777814724474106","0.1897784217522843","0.18338771158803","0","","","","","","","","",""
"","html-keyboard-response","234","757376","0.0-125.0-1.0","""event"",""trial"",""time""
""fullscreenenter"",""0"",""2183""
","
","
","""event"",""trial"",""time""
""fullscreenenter"",""0"",""2183""
","
","null","<p></p>","null","","","","","","","","","","","","","","","","","","","","","","","",""
"","do_trial","235","760078","0.0-126.0-0.0","""event"",""trial"",""time""
""fullscreenenter"",""0"",""2183""
","
","
","""event"",""trial"",""time""
""fullscreenenter"",""0"",""2183""
","
","152.8999999910593","","","","","","","","50","1,0,0","6","blank","337","null","0.6354300679783211","0.3068371705377216","0.15623520788883574","0","","","","","","","","",""
"","html-keyboard-response","236","761085","0.0-126.0-1.0","""event"",""trial"",""time""
""fullscreenenter"",""0"",""2183""
","
","
","""event"",""trial"",""time""
""fullscreenenter"",""0"",""2183""
","
","null","<p></p>","null","","","","","","","","","","","","","","","","","","","","","","","",""
"","do_trial","237","763788","0.0-127.0-0.0","""event"",""trial"",""time""
""fullscreenenter"",""0"",""2183""
","
","
","""event"",""trial"",""time""
""fullscreenenter"",""0"",""2183""
","
","150.79999999701977","","","","","","","","51","1,1,0","6","blank","338","null","0.5651442756673564","0.2651733797142603","0.07090776349265335","0","","","","","","","","",""
"","html-keyboard-response","238","764793","0.0-127.0-1.0","""event"",""trial"",""time""
""fullscreenenter"",""0"",""2183""
","
","
","""event"",""trial"",""time""
""fullscreenenter"",""0"",""2183""
","
","null","<p></p>","null","","","","","","","","","","","","","","","","","","","","","","","",""
"","do_trial","239","767613","0.0-128.0-0.0","""event"",""trial"",""time""
""fullscreenenter"",""0"",""2183""
","
","
","""event"",""trial"",""time""
""fullscreenenter"",""0"",""2183""
","
","272.40000000596046","","","","","","","","49","1,1,0","6","blank","339","null","0.528316469270466","0.32535581128290275","0.144198239675092","1","","","","","","","","",""
"","html-keyboard-response","240","768622","0.0-128.0-1.0","""event"",""trial"",""time""
""fullscreenenter"",""0"",""2183""
","
","
","""event"",""trial"",""time""
""fullscreenenter"",""0"",""2183""
","
","null","<p></p>","null","","","","","","","","","","","","","","","","","","","","","","","",""
"","do_trial","241","773961","0.0-129.0-0.0","""event"",""trial"",""time""
""fullscreenenter"",""0"",""2183""
","
","
","""event"",""trial"",""time""
""fullscreenenter"",""0"",""2183""
","
","2787.0999999940395","","","","","","","","50","1,0,0","6","blank","340","null","0.6837511823817093","0.29756886774629737","0.12780802466843358","0","","","","","","","","",""
"","html-keyboard-response","242","774968","0.0-129.0-1.0","""event"",""trial"",""time""
""fullscreenenter"",""0"",""2183""
","
","
","""event"",""trial"",""time""
""fullscreenenter"",""0"",""2183""
","
","null","<p></p>","null","","","","","","","","","","","","","","","","","","","","","","","",""
"","do_trial","243","777991","0.0-130.0-0.0","""event"",""trial"",""time""
""fullscreenenter"",""0"",""2183""
","
","
","""event"",""trial"",""time""
""fullscreenenter"",""0"",""2183""
","
","471.1000000089407","","","","","","","","49","1,1,0","6","blank","341","null","0.6498104831526992","0.34422199896388056","0.1606845407656283","1","","","","","","","","",""
"","html-keyboard-response","244","778993","0.0-130.0-1.0","""event"",""trial"",""time""
""fullscreenenter"",""0"",""2183""
","
","
","""event"",""trial"",""time""
""fullscreenenter"",""0"",""2183""
","
","null","<p></p>","null","","","","","","","","","","","","","","","","","","","","","","","",""
"","do_trial","245","782199","0.0-131.0-0.0","""event"",""trial"",""time""
""fullscreenenter"",""0"",""2183""
","
","
","""event"",""trial"",""time""
""fullscreenenter"",""0"",""2183""
","
","653.1000000089407","","","","","","","","49","0,0,0","6","blank","342","null","0.6022918339182927","0.37301499657527487","0.07152523293422534","0","","","","","","","","",""
"","html-keyboard-response","246","783205","0.0-131.0-1.0","""event"",""trial"",""time""
""fullscreenenter"",""0"",""2183""
","
","
","""event"",""trial"",""time""
""fullscreenenter"",""0"",""2183""
","
","null","<p></p>","null","","","","","","","","","","","","","","","","","","","","","","","",""
"","do_recog","247","785841","0.0-132.0-0.0","""event"",""trial"",""time""
""fullscreenenter"",""0"",""2183""
","
","
","""event"",""trial"",""time""
""fullscreenenter"",""0"",""2183""
","
","1123.4000000059605","","","","","","","","53","","","","343","probe-112","","","","","1","[object Object]","118","2","1","","","",""
"","html-keyboard-response","248","786843","0.0-132.0-1.0","""event"",""trial"",""time""
""fullscreenenter"",""0"",""2183""
","
","
","""event"",""trial"",""time""
""fullscreenenter"",""0"",""2183""
","
","null","<p></p>","null","","","","","","","","","","","","","","","","","","","","","","","",""
"","do_trial","249","790274","0.0-133.0-0.0","""event"",""trial"",""time""
""fullscreenenter"",""0"",""2183""
","
","
","""event"",""trial"",""time""
""fullscreenenter"",""0"",""2183""
","
","873.6999999880791","","","","","","","","51","0,1,0","6","blank","344","null","0.6969262039548904","0.33786023485898237","0.09466001319703234","0","","","","","","","","",""
"","html-keyboard-response","250","791277","0.0-133.0-1.0","""event"",""trial"",""time""
""fullscreenenter"",""0"",""2183""
","
","
","""event"",""trial"",""time""
""fullscreenenter"",""0"",""2183""
","
","null","<p></p>","null","","","","","","","","","","","","","","","","","","","","","","","",""
"","do_trial","251","794157","0.0-134.0-0.0","""event"",""trial"",""time""
""fullscreenenter"",""0"",""2183""
","
","
","""event"",""trial"",""time""
""fullscreenenter"",""0"",""2183""
","
","319.70000000298023","","","","","","","","50","1,0,0","6","blank","345","null","0.7399808745148223","0.37850859256003594","0.15429645036424489","0","","","","","","","","",""
"","html-keyboard-response","252","795160","0.0-134.0-1.0","""event"",""trial"",""time""
""fullscreenenter"",""0"",""2183""
","
","
","""event"",""trial"",""time""
""fullscreenenter"",""0"",""2183""
","
","null","<p></p>","null","","","","","","","","","","","","","","","","","","","","","","","",""
"","do_trial","253","797781","0.0-135.0-0.0","""event"",""trial"",""time""
""fullscreenenter"",""0"",""2183""
","
","
","""event"",""trial"",""time""
""fullscreenenter"",""0"",""2183""
","
","68.40000000596046","","","","","","","","49","1,1,0","6","blank","346","null","0.6787836356906479","0.29443171153889525","0.1019621039085753","1","","","","","","","","",""
"","html-keyboard-response","254","798788","0.0-135.0-1.0","""event"",""trial"",""time""
""fullscreenenter"",""0"",""2183""
","
","
","""event"",""trial"",""time""
""fullscreenenter"",""0"",""2183""
","
","null","<p></p>","null","","","","","","","","","","","","","","","","","","","","","","","",""
"","do_trial","255","801763","0.0-136.0-0.0","""event"",""trial"",""time""
""fullscreenenter"",""0"",""2183""
","
","
","""event"",""trial"",""time""
""fullscreenenter"",""0"",""2183""
","
","428.59999999403954","","","","","","","","50","1,0,0","6","blank","347","null","0.5255701044846712","0.20921996474258214","0.188453905772589","0","","","","","","","","",""
"","html-keyboard-response","256","802765","0.0-136.0-1.0","""event"",""trial"",""time""
""fullscreenenter"",""0"",""2183""
","
","
","""event"",""trial"",""time""
""fullscreenenter"",""0"",""2183""
","
","null","<p></p>","null","","","","","","","","","","","","","","","","","","","","","","","",""
"","do_trial","257","805853","0.0-137.0-0.0","""event"",""trial"",""time""
""fullscreenenter"",""0"",""2183""
","
","
","""event"",""trial"",""time""
""fullscreenenter"",""0"",""2183""
","
","537.7000000029802","","","","","","","","49","0,0,0","6","blank","348","null","0.45665623872908123","0.2855595126689465","0.20983048863961615","0","","","","","","","","",""
"","html-keyboard-response","258","806858","0.0-137.0-1.0","""event"",""trial"",""time""
""fullscreenenter"",""0"",""2183""
","
","
","""event"",""trial"",""time""
""fullscreenenter"",""0"",""2183""
","
","null","<p></p>","null","","","","","","","","","","","","","","","","","","","","","","","",""
"","break","259","879225","0.0-138.0-0.0","""event"",""trial"",""time""
""fullscreenenter"",""0"",""2183""
","
","
","""event"",""trial"",""time""
""fullscreenenter"",""0"",""2183""
","
","72368.29999999702","<div class='center'><p>Time to take a quick break! You have 2 minutes to rest, but you can move on sooner if you'd like.</p><p> Press the <b>space bar</b> to continue.</p></div>","32","","","","","","","","","","","","","","","","","","","","","","","",""
"","do_trial","260","883326","0.0-138.0-1.0","""event"",""trial"",""time""
""fullscreenenter"",""0"",""2183""
","
","
","""event"",""trial"",""time""
""fullscreenenter"",""0"",""2183""
","
","1552.0999999940395","","","","","","","","49","0,0,0","6","blank","349","null","0.324935570423208","0.22124730715610086","0.41836328381078536","0","","","","","","","","",""
"","html-keyboard-response","261","884333","0.0-138.0-2.0","""event"",""trial"",""time""
""fullscreenenter"",""0"",""2183""
","
","
","""event"",""trial"",""time""
""fullscreenenter"",""0"",""2183""
","
","null","<p></p>","null","","","","","","","","","","","","","","","","","","","","","","","",""
"","do_trial","262","887195","0.0-139.0-0.0","""event"",""trial"",""time""
""fullscreenenter"",""0"",""2183""
","
","
","""event"",""trial"",""time""
""fullscreenenter"",""0"",""2183""
","
","306.70000000298023","","","","","","","","50","1,0,0","6","blank","350","null","0.41890092910801086","0.22706022697620667","0.4991820934732008","0","","","","","","","","",""
"","html-keyboard-response","263","888198","0.0-139.0-1.0","""event"",""trial"",""time""
""fullscreenenter"",""0"",""2183""
","
","
","""event"",""trial"",""time""
""fullscreenenter"",""0"",""2183""
","
","null","<p></p>","null","","","","","","","","","","","","","","","","","","","","","","","",""
"","do_recog","264","891332","0.0-140.0-0.0","""event"",""trial"",""time""
""fullscreenenter"",""0"",""2183""
","
","
","""event"",""trial"",""time""
""fullscreenenter"",""0"",""2183""
","
","1621.5","","","","","","","","53","","","","351","probe-71","","","","","1","[object Object]","155","3","1","","","",""
"","html-keyboard-response","265","892334","0.0-140.0-1.0","""event"",""trial"",""time""
""fullscreenenter"",""0"",""2183""
","
","
","""event"",""trial"",""time""
""fullscreenenter"",""0"",""2183""
","
","null","<p></p>","null","","","","","","","","","","","","","","","","","","","","","","","",""
"","do_trial","266","895698","0.0-141.0-0.0","""event"",""trial"",""time""
""fullscreenenter"",""0"",""2183""
","
","
","""event"",""trial"",""time""
""fullscreenenter"",""0"",""2183""
","
","809.6999999880791","","","","","","","","51","0,0,0","6","blank","352","null","0.2140563297808609","0.158582699314006","0.6683420258766083","0","","","","","","","","",""
"","html-keyboard-response","267","896702","0.0-141.0-1.0","""event"",""trial"",""time""
""fullscreenenter"",""0"",""2183""
","
","
","""event"",""trial"",""time""
""fullscreenenter"",""0"",""2183""
","
","null","<p></p>","null","","","","","","","","","","","","","","","","","","","","","","","",""
"","do_trial","268","899642","0.0-142.0-0.0","""event"",""trial"",""time""
""fullscreenenter"",""0"",""2183""
","
","
","""event"",""trial"",""time""
""fullscreenenter"",""0"",""2183""
","
","379.70000000298023","","","","","","","","49","0,0,0","6","blank","353","null","0.14549947663323598","0.22399161012390917","0.5450442796215961","0","","","","","","","","",""
"","html-keyboard-response","269","900649","0.0-142.0-1.0","""event"",""trial"",""time""
""fullscreenenter"",""0"",""2183""
","
","
","""event"",""trial"",""time""
""fullscreenenter"",""0"",""2183""
","
","null","<p></p>","null","","","","","","","","","","","","","","","","","","","","","","","",""
"","do_recog","270","904141","0.0-143.0-0.0","""event"",""trial"",""time""
""fullscreenenter"",""0"",""2183""
","
","
","""event"",""trial"",""time""
""fullscreenenter"",""0"",""2183""
","
","1980","","","","","","","","56","","","","354","probe-95","","","","","1","[object Object]","71","1","0","","","",""
"","html-keyboard-response","271","905146","0.0-143.0-1.0","""event"",""trial"",""time""
""fullscreenenter"",""0"",""2183""
","
","
","""event"",""trial"",""time""
""fullscreenenter"",""0"",""2183""
","
","null","<p></p>","null","","","","","","","","","","","","","","","","","","","","","","","",""
"","do_trial","272","908225","0.0-144.0-0.0","""event"",""trial"",""time""
""fullscreenenter"",""0"",""2183""
","
","
","""event"",""trial"",""time""
""fullscreenenter"",""0"",""2183""
","
","522.3999999910593","","","","","","","","50","0,0,1","6","blank","355","null","0.07688559596778838","0.307160153390459","0.4600788677248177","0","","","","","","","","",""
"","html-keyboard-response","273","909232","0.0-144.0-1.0","""event"",""trial"",""time""
""fullscreenenter"",""0"",""2183""
","
","
","""event"",""trial"",""time""
""fullscreenenter"",""0"",""2183""
","
","null","<p></p>","null","","","","","","","","","","","","","","","","","","","","","","","",""
"","do_trial","274","912232","0.0-145.0-0.0","""event"",""trial"",""time""
""fullscreenenter"",""0"",""2183""
","
","
","""event"",""trial"",""time""
""fullscreenenter"",""0"",""2183""
","
","447.29999999701977","","","","","","","","49","0,0,1","6","blank","356","null","0.06872192097912778","0.33657189529433895","0.4591388765063347","0","","","","","","","","",""
"","html-keyboard-response","275","913235","0.0-145.0-1.0","""event"",""trial"",""time""
""fullscreenenter"",""0"",""2183""
","
","
","""event"",""trial"",""time""
""fullscreenenter"",""0"",""2183""
","
","null","<p></p>","null","","","","","","","","","","","","","","","","","","","","","","","",""
"","do_trial","276","916282","0.0-146.0-0.0","""event"",""trial"",""time""
""fullscreenenter"",""0"",""2183""
","
","
","""event"",""trial"",""time""
""fullscreenenter"",""0"",""2183""
","
","489.90000000596046","","","","","","","","50","0,0,1","6","blank","357","null","0.06468987478004361","0.32739191252592875","0.56689837500104","0","","","","","","","","",""
"","html-keyboard-response","277","917289","0.0-146.0-1.0","""event"",""trial"",""time""
""fullscreenenter"",""0"",""2183""
","
","
","""event"",""trial"",""time""
""fullscreenenter"",""0"",""2183""
","
