"success","trial_type","trial_index","time_elapsed","internal_node_id","interactions","blur_events","focus_events","fullscreenenter_events","fullscreenexit_events","rt","stimulus","key_press","subject_id","participant_id","age","gender","prompt","response","choice_outcomes","context_n","context_img_id","trial_n","probe_img_id","pR_red","pR_white","pR_black","outcome"
"true","fullscreen","0","17603","0.0-0.0","""event"",""trial"",""time""
""fullscreenenter"",""0"",""16669""
","
","
","""event"",""trial"",""time""
""fullscreenenter"",""0"",""16669""
","
","","","","","","","","","","","","","","","","","",""
"","pavlovia","1","17606","0.0-1.0","""event"",""trial"",""time""
""fullscreenenter"",""0"",""16669""
","
","
","""event"",""trial"",""time""
""fullscreenenter"",""0"",""16669""
","
","","","","","","","","","","","","","","","","","",""
"","welc_back","2","27962","0.0-2.0","""event"",""trial"",""time""
""fullscreenenter"",""0"",""16669""
","
","
","""event"",""trial"",""time""
""fullscreenenter"",""0"",""16669""
","
","null","run_exp/static/audio/clip_29_welcome_back.m4a","null","425","233","17","Female","<div class='center'><p>Welcome to day 2!</p><p> Yesterday, you were the head captain of a pirate ship. You asked your fellow pirates to rob other ships of their gold across six different islands.</p></div>","","","","","","","","","",""
"","html-keyboard-response","3","29904","0.0-3.0","""event"",""trial"",""time""
""fullscreenenter"",""0"",""16669""
","
","
","""event"",""trial"",""time""
""fullscreenenter"",""0"",""16669""
","
","1940.9000000059605","<div class='center'><p>Welcome to day 2!</p><p> Yesterday, you were the head captain of a pirate ship. You asked your fellow pirates to rob other ships of their gold across six different islands.</p><p><b>[Press the space bar to continue]</b></p></div>","32","","","","","","","","","","","","","","",""
"","day_1_summary_goal","4","47268","0.0-4.0","""event"",""trial"",""time""
""fullscreenenter"",""0"",""16669""
","
","
","""event"",""trial"",""time""
""fullscreenenter"",""0"",""16669""
","
","null","run_exp/static/audio/clip_30_goal_of_game.m4a","null","","","","","<div class='center'><p>Today, like yesterday, you get to pick which pirate you want to rob the next ship.</p><p>If the pirate is successful in robbing a ship, you get gold coins that look like this: </p><p><img src='run_exp/static/images/tutorial/reward.png' height='150'></p><p> If they were not successful in robbing the ship, then you will get no gold coins and you'll see a big red x like this: </p><p><img src='run_exp/static/images/tutorial/reward_no.png' height='150'></p></div>","","","","","","","","","",""
"","html-keyboard-response","5","52156","0.0-5.0","""event"",""trial"",""time""
""fullscreenenter"",""0"",""16669""
","
","
","""event"",""trial"",""time""
""fullscreenenter"",""0"",""16669""
","
","4885.700000017881","<div class='center'><p>Today, like yesterday, you get to pick which pirate you want to rob the next ship.</p><p>If the pirate is successful in robbing a ship, you get gold coins that look like this: </p><p><img src='run_exp/static/images/tutorial/reward.png' height='150'></p><p> If they were not successful in robbing the ship, then you will get no gold coins and you'll see a big red x like this: </p><p><img src='run_exp/static/images/tutorial/reward_no.png' height='150'></p><p><b>[Press the space bar to continue]</b></p></div>","32","","","","","","","","","","","","","","",""
"","day_1_summary_pick","6","66979","0.0-6.0","""event"",""trial"",""time""
""fullscreenenter"",""0"",""16669""
","
","
","""event"",""trial"",""time""
""fullscreenenter"",""0"",""16669""
","
","null","run_exp/static/audio/clip_31_how_to_pick_a_pirate.m4a","null","","","","","<div class='center'><p>Also, just like yesterday, you will use the 1,2,3 keys on your keyboard to pick a pirate. Press '1' to choose red beard, '2' to choose white beard, and '3' to choose black beard . You only have 3 seconds to pick a pirate, so please make a choice quickly!</p></div>","","","","","","","","","",""
"","html-keyboard-response","7","67712","0.0-7.0","""event"",""trial"",""time""
""fullscreenenter"",""0"",""16669""
","
","
","""event"",""trial"",""time""
""fullscreenenter"",""0"",""16669""
","
","732.5","<div class='center'><p>Also, just like yesterday, you will use the 1,2,3 keys on your keyboard to pick a pirate. Press '1' to choose red beard, '2' to choose white beard, and '3' to choose black beard . You only have 3 seconds to pick a pirate, so please make a choice quickly!</p><p><b>[Press the space bar to continue]</b></p></div>","32","","","","","","","","","","","","","","",""
"","test_phase_begin","8","98253","0.0-8.0","""event"",""trial"",""time""
""fullscreenenter"",""0"",""16669""
""blur"",""9"",""199275""
""focus"",""9"",""250250""
","""event"",""trial"",""time""
""blur"",""9"",""199275""
","""event"",""trial"",""time""
""focus"",""9"",""250250""
","""event"",""trial"",""time""
""fullscreenenter"",""0"",""16669""
","
","null","run_exp/static/audio/clip_32_final_place.m4a","null","","","","","<div class='center'><p>You’ve arrived at the final island of your journey! Unfortunately, it’s very foggy out, so you won’t be able to see it in the distance like the other islands you've visited.</p><p>You’ll still be deciding which pirate you want to rob a ship like before. However, because of the fog, you also won’t be able to see the ship.</p><p>This means you do not have to remember the ships you rob on this island.</p><p>Unlike yesterday, you won't be visiting multiple islands today. You will stay on this island for the entire game. This game will last ~30 minutes.</p></div>","","","","","","","","","",""
"","html-keyboard-response","9","251139","0.0-9.0","""event"",""trial"",""time""
""fullscreenenter"",""0"",""16669""
""blur"",""9"",""199275""
""focus"",""9"",""250250""
","""event"",""trial"",""time""
""blur"",""9"",""199275""
","""event"",""trial"",""time""
""focus"",""9"",""250250""
","""event"",""trial"",""time""
""fullscreenenter"",""0"",""16669""
","
","135357.20000001788","<div class='center'><p>You’ve arrived at the final island of your journey! Unfortunately, it’s very foggy out, so you won’t be able to see it in the distance like the other islands you've visited.</p><p>You’ll still be deciding which pirate you want to rob a ship like before. However, because of the fog, you also won’t be able to see the ship.</p><p>This means you do not have to remember the ships you rob on this island.</p><p>Unlike yesterday, you won't be visiting multiple islands today. You will stay on this island for the entire game. This game will last ~30 minutes.</p><p><b>[Press the space bar to continue]</b></p></div>","32","","","","","","","","","","","","","","",""
"","explain_probe_1","10","259138","0.0-10.0","""event"",""trial"",""time""
""fullscreenenter"",""0"",""16669""
""blur"",""9"",""199275""
""focus"",""9"",""250250""
","""event"",""trial"",""time""
""blur"",""9"",""199275""
","""event"",""trial"",""time""
""focus"",""9"",""250250""
","""event"",""trial"",""time""
""fullscreenenter"",""0"",""16669""
","
","null","run_exp/static/audio/clip_33_recognition_1.m4a","null","","","","","<div class='center'><p> Sometimes you’ll be shown a ship, and you will be asked if you saw this ship on a past island.</p><p> Here is an example of what you will see.</p><p><img src='run_exp/static/images/tutorial/example_recog_trial.png' height='500'></p></div>","","","","","","","","","",""
"","html-keyboard-response","11","281749","0.0-11.0","""event"",""trial"",""time""
""fullscreenenter"",""0"",""16669""
""blur"",""9"",""199275""
""focus"",""9"",""250250""
","""event"",""trial"",""time""
""blur"",""9"",""199275""
","""event"",""trial"",""time""
""focus"",""9"",""250250""
","""event"",""trial"",""time""
""fullscreenenter"",""0"",""16669""
","
","22608.59999999404","<div class='center'><p> Sometimes you’ll be shown a ship, and you will be asked if you saw this ship on a past island.</p><p> Here is an example of what you will see.</p><p><img src='run_exp/static/images/tutorial/example_recog_trial.png' height='500'></p><p><b>[Press the space bar to continue]</b></p></div>","32","","","","","","","","","","","","","","",""
"","explain_probe_2","12","304176","0.0-12.0","""event"",""trial"",""time""
""fullscreenenter"",""0"",""16669""
""blur"",""9"",""199275""
""focus"",""9"",""250250""
","""event"",""trial"",""time""
""blur"",""9"",""199275""
","""event"",""trial"",""time""
""focus"",""9"",""250250""
","""event"",""trial"",""time""
""fullscreenenter"",""0"",""16669""
","
","null","run_exp/static/audio/clip_34_recognition_2.m4a","null","","","","","<div class='center'><p> You will press the 5, 6, 7, 8 keys on your keyboard to respond.</p><p>If you are sure you saw the ship, press <b>5</b> on your keyboard.</p><p> If you think you saw it before but aren't sure, then press <b>6</b>.</p><p> If you think you have <b>not</b> seen it before but aren't sure, then press <b>7</b>.</p><p> If you are sure you did <b>not</b> see the ship before, then press <b>8</b>.</p><p><img src='run_exp/static/images/tutorial/example_recog_trial.png' height='500'></p></div>","","","","","","","","","",""
"","html-keyboard-response","13","304801","0.0-13.0","""event"",""trial"",""time""
""fullscreenenter"",""0"",""16669""
""blur"",""9"",""199275""
""focus"",""9"",""250250""
","""event"",""trial"",""time""
""blur"",""9"",""199275""
","""event"",""trial"",""time""
""focus"",""9"",""250250""
","""event"",""trial"",""time""
""fullscreenenter"",""0"",""16669""
","
","619.2999999821186","<div class='center'><p> You will press the 5, 6, 7, 8 keys on your keyboard to respond.</p><p>If you are sure you saw the ship, press <b>5</b> on your keyboard.</p><p> If you think you saw it before but aren't sure, then press <b>6</b>.</p><p> If you think you have <b>not</b> seen it before but aren't sure, then press <b>7</b>.</p><p> If you are sure you did <b>not</b> see the ship before, then press <b>8</b>.</p><p><img src='run_exp/static/images/tutorial/example_recog_trial.png' height='500'></p><p><b>[Press the space bar to continue]</b></p></div>","32","","","","","","","","","","","","","","",""
"","explain_outcome","14","322159","0.0-14.0","""event"",""trial"",""time""
""fullscreenenter"",""0"",""16669""
""blur"",""9"",""199275""
""focus"",""9"",""250250""
","""event"",""trial"",""time""
""blur"",""9"",""199275""
","""event"",""trial"",""time""
""focus"",""9"",""250250""
","""event"",""trial"",""time""
""fullscreenenter"",""0"",""16669""
","
","null","run_exp/static/audio/clip_35_recognition_3.m4a","null","","","","","<div class='center'><p> If you remember correctly, then you’ll get a gold coin like this: </p><p><img src='run_exp/static/images/tutorial/reward_small.png' height='200'></p><p>If you do not remember correctly, then you'll see a red x like this: </p><p><img src='run_exp/static/images/tutorial/reward_no.png' height='200'></p><p>Importantly, when you are shown a ship, take the time to remind yourself which island you saw it on. This will help you in the next part of the study.</p></div>","","","","","","","","","",""
"","html-keyboard-response","15","327376","0.0-15.0","""event"",""trial"",""time""
""fullscreenenter"",""0"",""16669""
""blur"",""9"",""199275""
""focus"",""9"",""250250""
","""event"",""trial"",""time""
""blur"",""9"",""199275""
","""event"",""trial"",""time""
""focus"",""9"",""250250""
","""event"",""trial"",""time""
""fullscreenenter"",""0"",""16669""
","
","5214.300000011921","<div class='center'><p> If you remember correctly, then you’ll get a gold coin like this: </p><p><img src='run_exp/static/images/tutorial/reward_small.png' height='200'></p><p>If you do not remember correctly, then you'll see a red x like this: </p><p><img src='run_exp/static/images/tutorial/reward_no.png' height='200'></p><p>Importantly, when you are shown a ship, take the time to remind yourself which island you saw it on. This will help you in the next part of the study.</p><p><b>[Press the space bar to continue]</b></p></div>","32","","","","","","","","","","","","","","",""
"","begin_test_phase","16","343364","0.0-16.0","""event"",""trial"",""time""
""fullscreenenter"",""0"",""16669""
""blur"",""9"",""199275""
""focus"",""9"",""250250""
","""event"",""trial"",""time""
""blur"",""9"",""199275""
","""event"",""trial"",""time""
""focus"",""9"",""250250""
","""event"",""trial"",""time""
""fullscreenenter"",""0"",""16669""
","
","null","run_exp/static/audio/clip_36_begin_final.m4a","null","","","","","<div class='center'><p>Let's go over the important points again. Your job is to: </p><p>1. Pick the pirate who is best at robbing ships and will bring you back gold coins. </p><p>2. Correctly remember whether or not you saw a ship before. If you did see the ship before, remind yourself on which island you saw it. </p></div>","","","","","","","","","",""
"","html-keyboard-response","17","344045","0.0-17.0","""event"",""trial"",""time""
""fullscreenenter"",""0"",""16669""
""blur"",""9"",""199275""
""focus"",""9"",""250250""
","""event"",""trial"",""time""
""blur"",""9"",""199275""
","""event"",""trial"",""time""
""focus"",""9"",""250250""
","""event"",""trial"",""time""
""fullscreenenter"",""0"",""16669""
","
","625","<div class='center'><p>Let's go over the important points again. Your job is to: </p><p>1. Pick the pirate who is best at robbing ships and will bring you back gold coins. </p><p>2. Correctly remember whether or not you saw a ship before. If you did see the ship before, remind yourself on which island you saw it. </p><p><b>[Press the space bar to continue]</b></p></div>","32","","","","","","","","","","","","","","",""
"","do_welcome","18","348063","0.0-18.0","""event"",""trial"",""time""
""fullscreenenter"",""0"",""16669""
""blur"",""9"",""199275""
""focus"",""9"",""250250""
","""event"",""trial"",""time""
""blur"",""9"",""199275""
","""event"",""trial"",""time""
""focus"",""9"",""250250""
","""event"",""trial"",""time""
""fullscreenenter"",""0"",""16669""
","
","null","","","","","","","","null","","","","","","","","",""
"","do_trial","19","354120","0.0-19.0-0.0","""event"",""trial"",""time""
""fullscreenenter"",""0"",""16669""
""blur"",""9"",""199275""
""focus"",""9"",""250250""
","""event"",""trial"",""time""
""blur"",""9"",""199275""
","""event"",""trial"",""time""
""focus"",""9"",""250250""
","""event"",""trial"",""time""
""fullscreenenter"",""0"",""16669""
","
","null","","","","","","","","null","1,1,0","6","blank","230","null","0.44912340333590195","0.4210449311590573","0.15419135307151835",""
"","html-keyboard-response","20","355127","0.0-19.0-1.0","""event"",""trial"",""time""
""fullscreenenter"",""0"",""16669""
""blur"",""9"",""199275""
""focus"",""9"",""250250""
","""event"",""trial"",""time""
""blur"",""9"",""199275""
","""event"",""trial"",""time""
""focus"",""9"",""250250""
","""event"",""trial"",""time""
""fullscreenenter"",""0"",""16669""
","
","null","<p></p>","null","","","","","","","","","","","","","","",""
"","do_trial","21","360569","0.0-20.0-0.0","""event"",""trial"",""time""
""fullscreenenter"",""0"",""16669""
""blur"",""9"",""199275""
""focus"",""9"",""250250""
","""event"",""trial"",""time""
""blur"",""9"",""199275""
","""event"",""trial"",""time""
""focus"",""9"",""250250""
","""event"",""trial"",""time""
""fullscreenenter"",""0"",""16669""
","
","2886.7000000178814","","","","","","","","49","1,1,0","6","blank","231","null","0.43107561690590984","0.589089835893864","0.1302419507986424","1"
"","html-keyboard-response","22","361574","0.0-20.0-1.0","""event"",""trial"",""time""
""fullscreenenter"",""0"",""16669""
""blur"",""9"",""199275""
""focus"",""9"",""250250""
","""event"",""trial"",""time""
""blur"",""9"",""199275""
","""event"",""trial"",""time""
""focus"",""9"",""250250""
","""event"",""trial"",""time""
""fullscreenenter"",""0"",""16669""
","
","null","<p></p>","null","","","","","","","","","","","","","","",""
"","do_trial","23","367634","0.0-21.0-0.0","""event"",""trial"",""time""
""fullscreenenter"",""0"",""16669""
""blur"",""9"",""199275""
""focus"",""9"",""250250""
","""event"",""trial"",""time""
""blur"",""9"",""199275""
","""event"",""trial"",""time""
""focus"",""9"",""250250""
","""event"",""trial"",""time""
""fullscreenenter"",""0"",""16669""
","
","null","","","","","","","","null","0,1,0","6","blank","232","null","0.3070923600630337","0.5016980457929487","0.05563400078792404",""
"","html-keyboard-response","24","368643","0.0-21.0-1.0","""event"",""trial"",""time""
""fullscreenenter"",""0"",""16669""
""blur"",""9"",""199275""
""focus"",""9"",""250250""
","""event"",""trial"",""time""
""blur"",""9"",""199275""
","""event"",""trial"",""time""
""focus"",""9"",""250250""
","""event"",""trial"",""time""
""fullscreenenter"",""0"",""16669""
","
","null","<p></p>","null","","","","","","","","","","","","","","",""
"","do_trial","25","371738","0.0-22.0-0.0","""event"",""trial"",""time""
""fullscreenenter"",""0"",""16669""
""blur"",""9"",""199275""
""focus"",""9"",""250250""
","""event"",""trial"",""time""
""blur"",""9"",""199275""
","""event"",""trial"",""time""
""focus"",""9"",""250250""
","""event"",""trial"",""time""
""fullscreenenter"",""0"",""16669""
","
","539.8000000119209","","","","","","","","49","1,1,0","6","blank","233","null","0.33714024430539974","0.4746558941425048","0.17161191587352126","1"
"","html-keyboard-response","26","372741","0.0-22.0-1.0","""event"",""trial"",""time""
""fullscreenenter"",""0"",""16669""
""blur"",""9"",""199275""
""focus"",""9"",""250250""
","""event"",""trial"",""time""
""blur"",""9"",""199275""
","""event"",""trial"",""time""
""focus"",""9"",""250250""
","""event"",""trial"",""time""
""fullscreenenter"",""0"",""16669""
","
","null","<p></p>","null","","","","","","","","","","","","","","",""
"","do_trial","27","378800","0.0-23.0-0.0","""event"",""trial"",""time""
""fullscreenenter"",""0"",""16669""
""blur"",""9"",""199275""
""focus"",""9"",""250250""
","""event"",""trial"",""time""
""blur"",""9"",""199275""
","""event"",""trial"",""time""
""focus"",""9"",""250250""
","""event"",""trial"",""time""
""fullscreenenter"",""0"",""16669""
","
","null","","","","","","","","null","0,1,0","6","blank","234","null","0.31024822176006206","0.42659458051695526","0.20222779253928633",""
"","html-keyboard-response","28","379806","0.0-23.0-1.0","""event"",""trial"",""time""
""fullscreenenter"",""0"",""16669""
""blur"",""9"",""199275""
""focus"",""9"",""250250""
","""event"",""trial"",""time""
""blur"",""9"",""199275""
","""event"",""trial"",""time""
""focus"",""9"",""250250""
","""event"",""trial"",""time""
""fullscreenenter"",""0"",""16669""
","
","null","<p></p>","null","","","","","","","","","","","","","","",""
"","do_trial","29","385861","0.0-24.0-0.0","""event"",""trial"",""time""
""fullscreenenter"",""0"",""16669""
""blur"",""9"",""199275""
""focus"",""9"",""250250""
""fullscreenexit"",""30"",""386108""
","""event"",""trial"",""time""
""blur"",""9"",""199275""
","""event"",""trial"",""time""
""focus"",""9"",""250250""
","""event"",""trial"",""time""
""fullscreenenter"",""0"",""16669""
","""event"",""trial"",""time""
""fullscreenexit"",""30"",""386108""
","null","","","","","","","","null","0,1,0","6","blank","235","null","0.4281198931714799","0.46903541535983806","0.0694499827496131",""
"","html-keyboard-response","30","386866","0.0-24.0-1.0","""event"",""trial"",""time""
""fullscreenenter"",""0"",""16669""
""blur"",""9"",""199275""
""focus"",""9"",""250250""
""fullscreenexit"",""30"",""386108""
""blur"",""31"",""390353""
""focus"",""31"",""390354""
","""event"",""trial"",""time""
""blur"",""9"",""199275""
""blur"",""31"",""390353""
","""event"",""trial"",""time""
""focus"",""9"",""250250""
""focus"",""31"",""390354""
","""event"",""trial"",""time""
""fullscreenenter"",""0"",""16669""
","""event"",""trial"",""time""
""fullscreenexit"",""30"",""386108""
","null","<p></p>","null","","","","","","","","","","","","","","",""
