"success","trial_type","trial_index","time_elapsed","internal_node_id","interactions","blur_events","focus_events","fullscreenenter_events","fullscreenexit_events","rt","stimulus","key_press","subject_id","participant_id","age","gender","prompt","response","choice_outcomes","context_n","context_img_id","trial_n","probe_img_id","pR_red","pR_white","pR_black","outcome","is_valid","image_to_show","probed_trial","probed_context","correct","probe","probed_trial_n","probed_context_n","context_im"
"true","fullscreen","0","12401","0.0-0.0","""event"",""trial"",""time""
""fullscreenenter"",""0"",""11451""
","
","
","""event"",""trial"",""time""
""fullscreenenter"",""0"",""11451""
","
","","","","","","","","","","","","","","","","","","","","","","","","","","",""
"","pavlovia","1","12404","0.0-1.0","""event"",""trial"",""time""
""fullscreenenter"",""0"",""11451""
","
","
","""event"",""trial"",""time""
""fullscreenenter"",""0"",""11451""
","
","","","","","","","","","","","","","","","","","","","","","","","","","","",""
"","welc_back","2","22348","0.0-2.0","""event"",""trial"",""time""
""fullscreenenter"",""0"",""11451""
","
","
","""event"",""trial"",""time""
""fullscreenenter"",""0"",""11451""
","
","null","run_exp/static/audio/clip_29_welcome_back.m4a","null","416","891","23","Female","<div class='center'><p>Welcome to day 2!</p><p> Yesterday, you were the head captain of a pirate ship. You asked your fellow pirates to rob other ships of their gold across six different islands.</p></div>","","","","","","","","","","","","","","","","","","",""
"","html-keyboard-response","3","23540","0.0-3.0","""event"",""trial"",""time""
""fullscreenenter"",""0"",""11451""
","
","
","""event"",""trial"",""time""
""fullscreenenter"",""0"",""11451""
","
","1188.699999988079","<div class='center'><p>Welcome to day 2!</p><p> Yesterday, you were the head captain of a pirate ship. You asked your fellow pirates to rob other ships of their gold across six different islands.</p><p><b>[Press the space bar to continue]</b></p></div>","32","","","","","","","","","","","","","","","","","","","","","","","",""
"","day_1_summary_goal","4","40768","0.0-4.0","""event"",""trial"",""time""
""fullscreenenter"",""0"",""11451""
","
","
","""event"",""trial"",""time""
""fullscreenenter"",""0"",""11451""
","
","null","run_exp/static/audio/clip_30_goal_of_game.m4a","null","","","","","<div class='center'><p>Today, like yesterday, you get to pick which pirate you want to rob the next ship.</p><p>If the pirate is successful in robbing a ship, you get gold coins that look like this: </p><p><img src='run_exp/static/images/tutorial/reward.png' height='150'></p><p> If they were not successful in robbing the ship, then you will get no gold coins and you'll see a big red x like this: </p><p><img src='run_exp/static/images/tutorial/reward_no.png' height='150'></p></div>","","","","","","","","","","","","","","","","","","",""
"","html-keyboard-response","5","41347","0.0-5.0","""event"",""trial"",""time""
""fullscreenenter"",""0"",""11451""
","
","
","""event"",""trial"",""time""
""fullscreenenter"",""0"",""11451""
","
","577.5","<div class='center'><p>Today, like yesterday, you get to pick which pirate you want to rob the next ship.</p><p>If the pirate is successful in robbing a ship, you get gold coins that look like this: </p><p><img src='run_exp/static/images/tutorial/reward.png' height='150'></p><p> If they were not successful in robbing the ship, then you will get no gold coins and you'll see a big red x like this: </p><p><img src='run_exp/static/images/tutorial/reward_no.png' height='150'></p><p><b>[Press the space bar to continue]</b></p></div>","32","","","","","","","","","","","","","","","","","","","","","","","",""
"","day_1_summary_pick","6","56067","0.0-6.0","""event"",""trial"",""time""
""fullscreenenter"",""0"",""11451""
","
","
","""event"",""trial"",""time""
""fullscreenenter"",""0"",""11451""
","
","null","run_exp/static/audio/clip_31_how_to_pick_a_pirate.m4a","null","","","","","<div class='center'><p>Also, just like yesterday, you will use the 1,2,3 keys on your keyboard to pick a pirate. Press '1' to choose red beard, '2' to choose white beard, and '3' to choose black beard . You only have 3 seconds to pick a pirate, so please make a choice quickly!</p></div>","","","","","","","","","","","","","","","","","","",""
"","html-keyboard-response","7","56724","0.0-7.0","""event"",""trial"",""time""
""fullscreenenter"",""0"",""11451""
","
","
","""event"",""trial"",""time""
""fullscreenenter"",""0"",""11451""
","
","655.6999999880791","<div class='center'><p>Also, just like yesterday, you will use the 1,2,3 keys on your keyboard to pick a pirate. Press '1' to choose red beard, '2' to choose white beard, and '3' to choose black beard . You only have 3 seconds to pick a pirate, so please make a choice quickly!</p><p><b>[Press the space bar to continue]</b></p></div>","32","","","","","","","","","","","","","","","","","","","","","","","",""
"","test_phase_begin","8","87128","0.0-8.0","""event"",""trial"",""time""
""fullscreenenter"",""0"",""11451""
","
","
","""event"",""trial"",""time""
""fullscreenenter"",""0"",""11451""
","
","null","run_exp/static/audio/clip_32_final_place.m4a","null","","","","","<div class='center'><p>You’ve arrived at the final island of your journey! Unfortunately, it’s very foggy out, so you won’t be able to see it in the distance like the other islands you've visited.</p><p>You’ll still be deciding which pirate you want to rob a ship like before. However, because of the fog, you also won’t be able to see the ship.</p><p>This means you do not have to remember the ships you rob on this island.</p><p>Unlike yesterday, you won't be visiting multiple islands today. You will stay on this island for the entire game. This game will last ~30 minutes.</p></div>","","","","","","","","","","","","","","","","","","",""
"","html-keyboard-response","9","87756","0.0-9.0","""event"",""trial"",""time""
""fullscreenenter"",""0"",""11451""
","
","
","""event"",""trial"",""time""
""fullscreenenter"",""0"",""11451""
","
","627.1999999880791","<div class='center'><p>You’ve arrived at the final island of your journey! Unfortunately, it’s very foggy out, so you won’t be able to see it in the distance like the other islands you've visited.</p><p>You’ll still be deciding which pirate you want to rob a ship like before. However, because of the fog, you also won’t be able to see the ship.</p><p>This means you do not have to remember the ships you rob on this island.</p><p>Unlike yesterday, you won't be visiting multiple islands today. You will stay on this island for the entire game. This game will last ~30 minutes.</p><p><b>[Press the space bar to continue]</b></p></div>","32","","","","","","","","","","","","","","","","","","","","","","","",""
"","explain_probe_1","10","95467","0.0-10.0","""event"",""trial"",""time""
""fullscreenenter"",""0"",""11451""
","
","
","""event"",""trial"",""time""
""fullscreenenter"",""0"",""11451""
","
","null","run_exp/static/audio/clip_33_recognition_1.m4a","null","","","","","<div class='center'><p> Sometimes you’ll be shown a ship, and you will be asked if you saw this ship on a past island.</p><p> Here is an example of what you will see.</p><p><img src='run_exp/static/images/tutorial/example_recog_trial.png' height='500'></p></div>","","","","","","","","","","","","","","","","","","",""
"","html-keyboard-response","11","97069","0.0-11.0","""event"",""trial"",""time""
""fullscreenenter"",""0"",""11451""
","
","
","""event"",""trial"",""time""
""fullscreenenter"",""0"",""11451""
","
","1599.7000000476837","<div class='center'><p> Sometimes you’ll be shown a ship, and you will be asked if you saw this ship on a past island.</p><p> Here is an example of what you will see.</p><p><img src='run_exp/static/images/tutorial/example_recog_trial.png' height='500'></p><p><b>[Press the space bar to continue]</b></p></div>","32","","","","","","","","","","","","","","","","","","","","","","","",""
"","explain_probe_2","12","118788","0.0-12.0","""event"",""trial"",""time""
""fullscreenenter"",""0"",""11451""
","
","
","""event"",""trial"",""time""
""fullscreenenter"",""0"",""11451""
","
","null","run_exp/static/audio/clip_34_recognition_2.m4a","null","","","","","<div class='center'><p> You will press the 5, 6, 7, 8 keys on your keyboard to respond.</p><p>If you are sure you saw the ship, press <b>5</b> on your keyboard.</p><p> If you think you saw it before but aren't sure, then press <b>6</b>.</p><p> If you think you have <b>not</b> seen it before but aren't sure, then press <b>7</b>.</p><p> If you are sure you did <b>not</b> see the ship before, then press <b>8</b>.</p><p><img src='run_exp/static/images/tutorial/example_recog_trial.png' height='500'></p></div>","","","","","","","","","","","","","","","","","","",""
"","html-keyboard-response","13","122685","0.0-13.0","""event"",""trial"",""time""
""fullscreenenter"",""0"",""11451""
","
","
","""event"",""trial"",""time""
""fullscreenenter"",""0"",""11451""
","
","3896.199999988079","<div class='center'><p> You will press the 5, 6, 7, 8 keys on your keyboard to respond.</p><p>If you are sure you saw the ship, press <b>5</b> on your keyboard.</p><p> If you think you saw it before but aren't sure, then press <b>6</b>.</p><p> If you think you have <b>not</b> seen it before but aren't sure, then press <b>7</b>.</p><p> If you are sure you did <b>not</b> see the ship before, then press <b>8</b>.</p><p><img src='run_exp/static/images/tutorial/example_recog_trial.png' height='500'></p><p><b>[Press the space bar to continue]</b></p></div>","32","","","","","","","","","","","","","","","","","","","","","","","",""
"","explain_outcome","14","139927","0.0-14.0","""event"",""trial"",""time""
""fullscreenenter"",""0"",""11451""
","
","
","""event"",""trial"",""time""
""fullscreenenter"",""0"",""11451""
","
","null","run_exp/static/audio/clip_35_recognition_3.m4a","null","","","","","<div class='center'><p> If you remember correctly, then you’ll get a gold coin like this: </p><p><img src='run_exp/static/images/tutorial/reward_small.png' height='200'></p><p>If you do not remember correctly, then you'll see a red x like this: </p><p><img src='run_exp/static/images/tutorial/reward_no.png' height='200'></p><p>Importantly, when you are shown a ship, take the time to remind yourself which island you saw it on. This will help you in the next part of the study.</p></div>","","","","","","","","","","","","","","","","","","",""
"","html-keyboard-response","15","140244","0.0-15.0","""event"",""trial"",""time""
""fullscreenenter"",""0"",""11451""
","
","
","""event"",""trial"",""time""
""fullscreenenter"",""0"",""11451""
","
","315.5999999642372","<div class='center'><p> If you remember correctly, then you’ll get a gold coin like this: </p><p><img src='run_exp/static/images/tutorial/reward_small.png' height='200'></p><p>If you do not remember correctly, then you'll see a red x like this: </p><p><img src='run_exp/static/images/tutorial/reward_no.png' height='200'></p><p>Importantly, when you are shown a ship, take the time to remind yourself which island you saw it on. This will help you in the next part of the study.</p><p><b>[Press the space bar to continue]</b></p></div>","32","","","","","","","","","","","","","","","","","","","","","","","",""
"","begin_test_phase","16","156067","0.0-16.0","""event"",""trial"",""time""
""fullscreenenter"",""0"",""11451""
","
","
","""event"",""trial"",""time""
""fullscreenenter"",""0"",""11451""
","
","null","run_exp/static/audio/clip_36_begin_final.m4a","null","","","","","<div class='center'><p>Let's go over the important points again. Your job is to: </p><p>1. Pick the pirate who is best at robbing ships and will bring you back gold coins. </p><p>2. Correctly remember whether or not you saw a ship before. If you did see the ship before, remind yourself on which island you saw it. </p></div>","","","","","","","","","","","","","","","","","","",""
"","html-keyboard-response","17","157160","0.0-17.0","""event"",""trial"",""time""
""fullscreenenter"",""0"",""11451""
","
","
","""event"",""trial"",""time""
""fullscreenenter"",""0"",""11451""
","
","1041.2000000476837","<div class='center'><p>Let's go over the important points again. Your job is to: </p><p>1. Pick the pirate who is best at robbing ships and will bring you back gold coins. </p><p>2. Correctly remember whether or not you saw a ship before. If you did see the ship before, remind yourself on which island you saw it. </p><p><b>[Press the space bar to continue]</b></p></div>","32","","","","","","","","","","","","","","","","","","","","","","","",""
"","do_welcome","18","161175","0.0-18.0","""event"",""trial"",""time""
""fullscreenenter"",""0"",""11451""
","
","
","""event"",""trial"",""time""
""fullscreenenter"",""0"",""11451""
","
","null","","","","","","","","null","","","","","","","","","","","","","","","","","",""
"","do_trial","19","165181","0.0-19.0-0.0","""event"",""trial"",""time""
""fullscreenenter"",""0"",""11451""
","
","
","""event"",""trial"",""time""
""fullscreenenter"",""0"",""11451""
","
","1451.3999999761581","","","","","","","","49","0,0,1","6","blank","230","null","0.17473358325586508","0.10425613872645713","0.7625213532872974","0","","","","","","","","",""
"","html-keyboard-response","20","166188","0.0-19.0-1.0","""event"",""trial"",""time""
""fullscreenenter"",""0"",""11451""
","
","
","""event"",""trial"",""time""
""fullscreenenter"",""0"",""11451""
","
","null","<p></p>","null","","","","","","","","","","","","","","","","","","","","","","","",""
"","do_trial","21","169810","0.0-20.0-0.0","""event"",""trial"",""time""
""fullscreenenter"",""0"",""11451""
","
","
","""event"",""trial"",""time""
""fullscreenenter"",""0"",""11451""
","
","1068.7000000476837","","","","","","","","51","1,0,1","6","blank","231","null","0.2922593620699797","0.11741512195390094","0.729298210429249","1","","","","","","","","",""
"","html-keyboard-response","22","170817","0.0-20.0-1.0","""event"",""trial"",""time""
""fullscreenenter"",""0"",""11451""
","
","
","""event"",""trial"",""time""
""fullscreenenter"",""0"",""11451""
","
","null","<p></p>","null","","","","","","","","","","","","","","","","","","","","","","","",""
"","do_trial","23","173732","0.0-21.0-0.0","""event"",""trial"",""time""
""fullscreenenter"",""0"",""11451""
","
","
","""event"",""trial"",""time""
""fullscreenenter"",""0"",""11451""
","
","363.89999997615814","","","","","","","","51","1,0,1","6","blank","232","null","0.25102726812192755","0.12057725359975799","0.6676950337116351","1","","","","","","","","",""
"","html-keyboard-response","24","174740","0.0-21.0-1.0","""event"",""trial"",""time""
""fullscreenenter"",""0"",""11451""
","
","
","""event"",""trial"",""time""
""fullscreenenter"",""0"",""11451""
","
","null","<p></p>","null","","","","","","","","","","","","","","","","","","","","","","","",""
"","do_trial","25","177513","0.0-22.0-0.0","""event"",""trial"",""time""
""fullscreenenter"",""0"",""11451""
","
","
","""event"",""trial"",""time""
""fullscreenenter"",""0"",""11451""
","
","219.79999995231628","","","","","","","","51","1,0,1","6","blank","233","null","0.2588353362015819","0.13348706765752227","0.7172671079399053","1","","","","","","","","",""
"","html-keyboard-response","26","178522","0.0-22.0-1.0","""event"",""trial"",""time""
""fullscreenenter"",""0"",""11451""
","
","
","""event"",""trial"",""time""
""fullscreenenter"",""0"",""11451""
","
","null","<p></p>","null","","","","","","","","","","","","","","","","","","","","","","","",""
"","do_trial","27","181374","0.0-23.0-0.0","""event"",""trial"",""time""
""fullscreenenter"",""0"",""11451""
","
","
","""event"",""trial"",""time""
""fullscreenenter"",""0"",""11451""
","
","298.69999998807907","","","","","","","","51","0,0,1","6","blank","234","null","0.24110310719005246","0.20272170517225113","0.7005892045942684","1","","","","","","","","",""
"","html-keyboard-response","28","182382","0.0-23.0-1.0","""event"",""trial"",""time""
""fullscreenenter"",""0"",""11451""
","
","
","""event"",""trial"",""time""
""fullscreenenter"",""0"",""11451""
","
","null","<p></p>","null","","","","","","","","","","","","","","","","","","","","","","","",""
"","do_trial","29","185060","0.0-24.0-0.0","""event"",""trial"",""time""
""fullscreenenter"",""0"",""11451""
","
","
","""event"",""trial"",""time""
""fullscreenenter"",""0"",""11451""
","
","119.69999998807907","","","","","","","","51","0,0,1","6","blank","235","null","0.32528157943019","0.16257509526603084","0.6598480226602977","1","","","","","","","","",""
"","html-keyboard-response","30","186069","0.0-24.0-1.0","""event"",""trial"",""time""
""fullscreenenter"",""0"",""11451""
","
","
","""event"",""trial"",""time""
""fullscreenenter"",""0"",""11451""
","
","null","<p></p>","null","","","","","","","","","","","","","","","","","","","","","","","",""
"","do_trial","31","188981","0.0-25.0-0.0","""event"",""trial"",""time""
""fullscreenenter"",""0"",""11451""
","
","
","""event"",""trial"",""time""
""fullscreenenter"",""0"",""11451""
","
","357","","","","","","","","51","0,0,1","6","blank","236","null","0.372156179095828","0.19854928782139777","0.7024663328612704","1","","","","","","","","",""
"","html-keyboard-response","32","189988","0.0-25.0-1.0","""event"",""trial"",""time""
""fullscreenenter"",""0"",""11451""
","
","
","""event"",""trial"",""time""
""fullscreenenter"",""0"",""11451""
","
","null","<p></p>","null","","","","","","","","","","","","","","","","","","","","","","","",""
"","do_trial","33","192934","0.0-26.0-0.0","""event"",""trial"",""time""
""fullscreenenter"",""0"",""11451""
","
","
","""event"",""trial"",""time""
""fullscreenenter"",""0"",""11451""
","
","391.80000001192093","","","","","","","","51","0,0,0","6","blank","237","null","0.2990195355934383","0.0506527164639293","0.6689078808288009","0","","","","","","","","",""
"","html-keyboard-response","34","193941","0.0-26.0-1.0","""event"",""trial"",""time""
""fullscreenenter"",""0"",""11451""
","
","
","""event"",""trial"",""time""
""fullscreenenter"",""0"",""11451""
","
","null","<p></p>","null","","","","","","","","","","","","","","","","","","","","","","","",""
"","do_trial","35","196639","0.0-27.0-0.0","""event"",""trial"",""time""
""fullscreenenter"",""0"",""11451""
","
","
","""event"",""trial"",""time""
""fullscreenenter"",""0"",""11451""
","
","156.5","","","","","","","","50","1,0,1","6","blank","238","null","0.3492762798792865","0.1178095260586165","0.7946404877160016","0","","","","","","","","",""
"","html-keyboard-response","36","197647","0.0-27.0-1.0","""event"",""trial"",""time""
""fullscreenenter"",""0"",""11451""
","
","
","""event"",""trial"",""time""
""fullscreenenter"",""0"",""11451""
","
","null","<p></p>","null","","","","","","","","","","","","","","","","","","","","","","","",""
"","do_trial","37","200276","0.0-28.0-0.0","""event"",""trial"",""time""
""fullscreenenter"",""0"",""11451""
","
","
","""event"",""trial"",""time""
""fullscreenenter"",""0"",""11451""
","
","80.10000002384186","","","","","","","","49","0,0,1","6","blank","239","null","0.23688740472737368","0.15137984377074243","0.8279216640623936","0","","","","","","","","",""
"","html-keyboard-response","38","201284","0.0-28.0-1.0","""event"",""trial"",""time""
""fullscreenenter"",""0"",""11451""
","
","
","""event"",""trial"",""time""
""fullscreenenter"",""0"",""11451""
","
","null","<p></p>","null","","","","","","","","","","","","","","","","","","","","","","","",""
"","do_trial","39","204134","0.0-29.0-0.0","""event"",""trial"",""time""
""fullscreenenter"",""0"",""11451""
","
","
","""event"",""trial"",""time""
""fullscreenenter"",""0"",""11451""
","
","305.7000000476837","","","","","","","","51","1,1,1","6","blank","240","null","0.19067005607453602","0.19203479338739848","0.7834277785792003","1","","","","","","","","",""
"","html-keyboard-response","40","205141","0.0-29.0-1.0","""event"",""trial"",""time""
""fullscreenenter"",""0"",""11451""
","
","
","""event"",""trial"",""time""
""fullscreenenter"",""0"",""11451""
","
","null","<p></p>","null","","","","","","","","","","","","","","","","","","","","","","","",""
"","do_trial","41","207977","0.0-30.0-0.0","""event"",""trial"",""time""
""fullscreenenter"",""0"",""11451""
","
","
","""event"",""trial"",""time""
""fullscreenenter"",""0"",""11451""
","
","273.80000001192093","","","","","","","","51","0,1,1","6","blank","241","null","0.23007130385464225","0.3352166033912042","0.77372985398714","1","","","","","","","","",""
"","html-keyboard-response","42","208983","0.0-30.0-1.0","""event"",""trial"",""time""
""fullscreenenter"",""0"",""11451""
","
","
","""event"",""trial"",""time""
""fullscreenenter"",""0"",""11451""
","
","null","<p></p>","null","","","","","","","","","","","","","","","","","","","","","","","",""
"","do_trial","43","211722","0.0-31.0-0.0","""event"",""trial"",""time""
""fullscreenenter"",""0"",""11451""
","
","
","""event"",""trial"",""time""
""fullscreenenter"",""0"",""11451""
","
","189.5","","","","","","","","51","0,0,0","6","blank","242","null","0.3374545644050307","0.5949265361614637","0.5416453756032088","0","","","","","","","","",""
"","html-keyboard-response","44","212734","0.0-31.0-1.0","""event"",""trial"",""time""
""fullscreenenter"",""0"",""11451""
","
","
","""event"",""trial"",""time""
""fullscreenenter"",""0"",""11451""
","
","null","<p></p>","null","","","","","","","","","","","","","","","","","","","","","","","",""
"","do_recog","45","218754","0.0-32.0-0.0","""event"",""trial"",""time""
""fullscreenenter"",""0"",""11451""
","
","
","""event"",""trial"",""time""
""fullscreenenter"",""0"",""11451""
","
","null","","","","","","","","null","","","","243","probe-235","","","","","0","[object Object]","null","null","0","","","",""
"","html-keyboard-response","46","219760","0.0-32.0-1.0","""event"",""trial"",""time""
""fullscreenenter"",""0"",""11451""
","
","
","""event"",""trial"",""time""
""fullscreenenter"",""0"",""11451""
","
","null","<p></p>","null","","","","","","","","","","","","","","","","","","","","","","","",""
"","do_trial","47","223291","0.0-33.0-0.0","""event"",""trial"",""time""
""fullscreenenter"",""0"",""11451""
","
","
","""event"",""trial"",""time""
""fullscreenenter"",""0"",""11451""
","
","981.8000000119209","","","","","","","","51","0,1,0","6","blank","244","null","0.26804341709132","0.5832082577649592","0.26745823892060117","0","","","","","","","","",""
"","html-keyboard-response","48","224301","0.0-33.0-1.0","""event"",""trial"",""time""
""fullscreenenter"",""0"",""11451""
","
","
","""event"",""trial"",""time""
""fullscreenenter"",""0"",""11451""
","
","null","<p></p>","null","","","","","","","","","","","","","","","","","","","","","","","",""
"","do_recog","49","227638","0.0-34.0-0.0","""event"",""trial"",""time""
""fullscreenenter"",""0"",""11451""
","
","
","""event"",""trial"",""time""
""fullscreenenter"",""0"",""11451""
","
","1821.5","","","","","","","","53","","","","245","probe-219","","","","","1","[object Object]","112","2","1","","","",""
"","html-keyboard-response","50","228645","0.0-34.0-1.0","""event"",""trial"",""time""
""fullscreenenter"",""0"",""11451""
","
","
","""event"",""trial"",""time""
""fullscreenenter"",""0"",""11451""
","
","null","<p></p>","null","","","","","","","","","","","","","","","","","","","","","","","",""
"","do_trial","51","232036","0.0-35.0-0.0","""event"",""trial"",""time""
""fullscreenenter"",""0"",""11451""
","
","
","""event"",""trial"",""time""
""fullscreenenter"",""0"",""11451""
","
","833.1000000238419","","","","","","","","51","0,0,0","6","blank","246","null","0.3511369620016435","0.5870308009742901","0.2218958445501291","0","","","","","","","","",""
"","html-keyboard-response","52","233046","0.0-35.0-1.0","""event"",""trial"",""time""
""fullscreenenter"",""0"",""11451""
","
","
","""event"",""trial"",""time""
""fullscreenenter"",""0"",""11451""
","
","null","<p></p>","null","","","","","","","","","","","","","","","","","","","","","","","",""
"","do_trial","53","235596","0.0-36.0-0.0","""event"",""trial"",""time""
""fullscreenenter"",""0"",""11451""
","
","
","""event"",""trial"",""time""
""fullscreenenter"",""0"",""11451""
","
","0.30000001192092896","","","","","","","","50","0,1,0","6","blank","247","null","0.2976350790013768","0.6201262363328859","0.4032533861522476","1","","","","","","","","",""
"","html-keyboard-response","54","236604","0.0-36.0-1.0","""event"",""trial"",""time""
""fullscreenenter"",""0"",""11451""
","
","
","""event"",""trial"",""time""
""fullscreenenter"",""0"",""11451""
","
","null","<p></p>","null","","","","","","","","","","","","","","","","","","","","","","","",""
"","do_trial","55","239380","0.0-37.0-0.0","""event"",""trial"",""time""
""fullscreenenter"",""0"",""11451""
","
","
","""event"",""trial"",""time""
""fullscreenenter"",""0"",""11451""
","
","224.30000001192093","","","","","","","","50","0,1,0","6","blank","248","null","0.29827678022732135","0.6332051615524479","0.24903658132557913","1","","","","","","","","",""
"","html-keyboard-response","56","240389","0.0-37.0-1.0","""event"",""trial"",""time""
""fullscreenenter"",""0"",""11451""
","
","
","""event"",""trial"",""time""
""fullscreenenter"",""0"",""11451""
","
","null","<p></p>","null","","","","","","","","","","","","","","","","","","","","","","","",""
"","do_trial","57","243226","0.0-38.0-0.0","""event"",""trial"",""time""
""fullscreenenter"",""0"",""11451""
","
","
","""event"",""trial"",""time""
""fullscreenenter"",""0"",""11451""
","
","278.69999998807907","","","","","","","","50","1,1,0","6","blank","249","null","0.35515861976062296","0.6912422499584416","0.09159654262695026","1","","","","","","","","",""
"","html-keyboard-response","58","244236","0.0-38.0-1.0","""event"",""trial"",""time""
""fullscreenenter"",""0"",""11451""
","
","
","""event"",""trial"",""time""
""fullscreenenter"",""0"",""11451""
","
","null","<p></p>","null","","","","","","","","","","","","","","","","","","","","","","","",""
"","do_recog","59","248474","0.0-39.0-0.0","""event"",""trial"",""time""
""fullscreenenter"",""0"",""11451""
","
","
","""event"",""trial"",""time""
""fullscreenenter"",""0"",""11451""
","
","2728.699999988079","","","","","","","","55","","","","250","probe-244","","","","","0","[object Object]","null","null","1","","","",""
"","html-keyboard-response","60","249477","0.0-39.0-1.0","""event"",""trial"",""time""
""fullscreenenter"",""0"",""11451""
","
","
","""event"",""trial"",""time""
""fullscreenenter"",""0"",""11451""
","
","null","<p></p>","null","","","","","","","","","","","","","","","","","","","","","","","",""
"","do_trial","61","252901","0.0-40.0-0.0","""event"",""trial"",""time""
""fullscreenenter"",""0"",""11451""
","
","
","""event"",""trial"",""time""
""fullscreenenter"",""0"",""11451""
","
","869.5999999642372","","","","","","","","49","1,0,0","6","blank","251","null","0.28992248857923275","0.5739702190820043","0.13034322146553085","1","","","","","","","","",""
"","html-keyboard-response","62","253910","0.0-40.0-1.0","""event"",""trial"",""time""
""fullscreenenter"",""0"",""11451""
","
","
","""event"",""trial"",""time""
""fullscreenenter"",""0"",""11451""
","
","null","<p></p>","null","","","","","","","","","","","","","","","","","","","","","","","",""
"","do_trial","63","256759","0.0-41.0-0.0","""event"",""trial"",""time""
""fullscreenenter"",""0"",""11451""
","
","
","""event"",""trial"",""time""
""fullscreenenter"",""0"",""11451""
","
","287.60000002384186","","","","","","","","49","0,1,0","6","blank","252","null","0.33079067769327647","0.5907918042928887","0.21414603791923068","0","","","","","","","","",""
"","html-keyboard-response","64","257767","0.0-41.0-1.0","""event"",""trial"",""time""
""fullscreenenter"",""0"",""11451""
","
","
","""event"",""trial"",""time""
""fullscreenenter"",""0"",""11451""
","
","null","<p></p>","null","","","","","","","","","","","","","","","","","","","","","","","",""
"","do_trial","65","260665","0.0-42.0-0.0","""event"",""trial"",""time""
""fullscreenenter"",""0"",""11451""
","
","
","""event"",""trial"",""time""
""fullscreenenter"",""0"",""11451""
","
","343.89999997615814","","","","","","","","51","0,1,0","6","blank","253","null","0.4499597754926157","0.5554611818647949","0.2416783574448973","0","","","","","","","","",""
"","html-keyboard-response","66","261674","0.0-42.0-1.0","""event"",""trial"",""time""
""fullscreenenter"",""0"",""11451""
","
","
","""event"",""trial"",""time""
""fullscreenenter"",""0"",""11451""
","
","null","<p></p>","null","","","","","","","","","","","","","","","","","","","","","","","",""
"","do_trial","67","264514","0.0-43.0-0.0","""event"",""trial"",""time""
""fullscreenenter"",""0"",""11451""
","
","
","""event"",""trial"",""time""
""fullscreenenter"",""0"",""11451""
","
","282.89999997615814","","","","","","","","50","0,1,1","6","blank","254","null","0.4924752722756739","0.6283890701983961","0.09888393075668706","1","","","","","","","","",""
"","html-keyboard-response","68","265521","0.0-43.0-1.0","""event"",""trial"",""time""
""fullscreenenter"",""0"",""11451""
","
","
","""event"",""trial"",""time""
""fullscreenenter"",""0"",""11451""
","
","null","<p></p>","null","","","","","","","","","","","","","","","","","","","","","","","",""
"","do_trial","69","268439","0.0-44.0-0.0","""event"",""trial"",""time""
""fullscreenenter"",""0"",""11451""
","
","
","""event"",""trial"",""time""
""fullscreenenter"",""0"",""11451""
","
","360","","","","","","","","50","1,1,1","6","blank","255","null","0.3958758872899932","0.6897470994629604","0.2178967972458134","1","","","","","","","","",""
"","html-keyboard-response","70","269448","0.0-44.0-1.0","""event"",""trial"",""time""
""fullscreenenter"",""0"",""11451""
","
","
","""event"",""trial"",""time""
""fullscreenenter"",""0"",""11451""
","
","null","<p></p>","null","","","","","","","","","","","","","","","","","","","","","","","",""
"","do_recog","71","273086","0.0-45.0-0.0","""event"",""trial"",""time""
""fullscreenenter"",""0"",""11451""
","
","
","""event"",""trial"",""time""
""fullscreenenter"",""0"",""11451""
","
","2133","","","","","","","","53","","","","256","probe-08","","","","","1","[object Object]","152","3","1","","","",""
"","html-keyboard-response","72","274095","0.0-45.0-1.0","""event"",""trial"",""time""
""fullscreenenter"",""0"",""11451""
","
","
","""event"",""trial"",""time""
""fullscreenenter"",""0"",""11451""
","
","null","<p></p>","null","","","","","","","","","","","","","","","","","","","","","","","",""
"","do_trial","73","277322","0.0-46.0-0.0","""event"",""trial"",""time""
""fullscreenenter"",""0"",""11451""
","
","
","""event"",""trial"",""time""
""fullscreenenter"",""0"",""11451""
","
","684.2000000476837","","","","","","","","51","0,1,0","6","blank","257","null","0.388042496220109","0.5755324906951941","0.056339481320023276","0","","","","","","","","",""
"","html-keyboard-response","74","278330","0.0-46.0-1.0","""event"",""trial"",""time""
""fullscreenenter"",""0"",""11451""
","
","
","""event"",""trial"",""time""
""fullscreenenter"",""0"",""11451""
","
","null","<p></p>","null","","","","","","","","","","","","","","","","","","","","","","","",""
"","do_recog","75","281768","0.0-47.0-0.0","""event"",""trial"",""time""
""fullscreenenter"",""0"",""11451""
","
","
","""event"",""trial"",""time""
""fullscreenenter"",""0"",""11451""
","
","1918.6000000238419","","","","","","","","53","","","","258","probe-113","","","","","1","[object Object]","115","2","1","","","",""
"","html-keyboard-response","76","282774","0.0-47.0-1.0","""event"",""trial"",""time""
""fullscreenenter"",""0"",""11451""
","
","
","""event"",""trial"",""time""
""fullscreenenter"",""0"",""11451""
","
","null","<p></p>","null","","","","","","","","","","","","","","","","","","","","","","","",""
"","do_trial","77","285834","0.0-48.0-0.0","""event"",""trial"",""time""
""fullscreenenter"",""0"",""11451""
","
","
","""event"",""trial"",""time""
""fullscreenenter"",""0"",""11451""
","
","495.7000000476837","","","","","","","","50","0,1,0","6","blank","259","null","0.3922460729476003","0.6928863042670409","0.06201796096119395","1","","","","","","","","",""
"","html-keyboard-response","78","286836","0.0-48.0-1.0","""event"",""trial"",""time""
""fullscreenenter"",""0"",""11451""
","
","
","""event"",""trial"",""time""
""fullscreenenter"",""0"",""11451""
","
","null","<p></p>","null","","","","","","","","","","","","","","","","","","","","","","","",""
"","do_recog","79","290826","0.0-49.0-0.0","""event"",""trial"",""time""
""fullscreenenter"",""0"",""11451""
","
","
","""event"",""trial"",""time""
""fullscreenenter"",""0"",""11451""
","
","2469.100000023842","","","","","","","","55","","","","260","probe-189","","","","","1","[object Object]","74","1","0","","","",""
"","html-keyboard-response","80","291836","0.0-49.0-1.0","""event"",""trial"",""time""
""fullscreenenter"",""0"",""11451""
","
","
","""event"",""trial"",""time""
""fullscreenenter"",""0"",""11451""
","
","null","<p></p>","null","","","","","","","","","","","","","","","","","","","","","","","",""
"","do_trial","81","294732","0.0-50.0-0.0","""event"",""trial"",""time""
""fullscreenenter"",""0"",""11451""
","
","
","""event"",""trial"",""time""
""fullscreenenter"",""0"",""11451""
","
","353.5","","","","","","","","49","0,0,0","6","blank","261","null","0.22804044791037592","0.6190171416911255","0.14344568546139996","0","","","","","","","","",""
"","html-keyboard-response","82","295739","0.0-50.0-1.0","""event"",""trial"",""time""
""fullscreenenter"",""0"",""11451""
","
","
","""event"",""trial"",""time""
""fullscreenenter"",""0"",""11451""
","
","null","<p></p>","null","","","","","","","","","","","","","","","","","","","","","","","",""
"","do_recog","83","298814","0.0-51.0-0.0","""event"",""trial"",""time""
""fullscreenenter"",""0"",""11451""
","
","
","""event"",""trial"",""time""
""fullscreenenter"",""0"",""11451""
","
","1569.8999999761581","","","","","","","","53","","","","262","probe-37","","","","","1","[object Object]","193","4","1","","","",""
"","html-keyboard-response","84","299824","0.0-51.0-1.0","""event"",""trial"",""time""
""fullscreenenter"",""0"",""11451""
","
","
","""event"",""trial"",""time""
""fullscreenenter"",""0"",""11451""
","
","null","<p></p>","null","","","","","","","","","","","","","","","","","","","","","","","",""
"","do_trial","85","302961","0.0-52.0-0.0","""event"",""trial"",""time""
""fullscreenenter"",""0"",""11451""
","
","
","""event"",""trial"",""time""
""fullscreenenter"",""0"",""11451""
","
","586.2000000476837","","","","","","","","51","0,1,0","6","blank","263","null","0.19599660997728519","0.5750964356757083","0.14896351078763886","0","","","","","","","","",""
"","html-keyboard-response","86","303969","0.0-52.0-1.0","""event"",""trial"",""time""
""fullscreenenter"",""0"",""11451""
","
","
","""event"",""trial"",""time""
""fullscreenenter"",""0"",""11451""
","
","null","<p></p>","null","","","","","","","","","","","","","","","","","","","","","","","",""
"","do_trial","87","306554","0.0-53.0-0.0","""event"",""trial"",""time""
""fullscreenenter"",""0"",""11451""
","
","
","""event"",""trial"",""time""
""fullscreenenter"",""0"",""11451""
","
","20.80000001192093","","","","","","","","50","0,1,0","6","blank","264","null","0.1304617704293742","0.6685663933994003","0.13457189753566845","1","","","","","","","","",""
"","html-keyboard-response","88","307562","0.0-53.0-1.0","""event"",""trial"",""time""
""fullscreenenter"",""0"",""11451""
","
","
","""event"",""trial"",""time""
""fullscreenenter"",""0"",""11451""
","
","null","<p></p>","null","","","","","","","","","","","","","","","","","","","","","","","",""
"","do_trial","89","310459","0.0-54.0-0.0","""event"",""trial"",""time""
""fullscreenenter"",""0"",""11451""
","
","
","""event"",""trial"",""time""
""fullscreenenter"",""0"",""11451""
","
","343.2000000476837","","","","","","","","50","0,1,0","6","blank","265","null","0.29133402999984886","0.5016527299520727","0.08061628107400745","1","","","","","","","","",""
"","html-keyboard-response","90","311468","0.0-54.0-1.0","""event"",""trial"",""time""
""fullscreenenter"",""0"",""11451""
","
","
","""event"",""trial"",""time""
""fullscreenenter"",""0"",""11451""
","
","null","<p></p>","null","","","","","","","","","","","","","","","","","","","","","","","",""
"","do_trial","91","314414","0.0-55.0-0.0","""event"",""trial"",""time""
""fullscreenenter"",""0"",""11451""
","
","
","""event"",""trial"",""time""
""fullscreenenter"",""0"",""11451""
","
","387.5999999642372","","","","","","","","50","1,0,0","6","blank","266","null","0.2556589613390291","0.4545520775130217","0.1421956998642151","0","","","","","","","","",""
"","html-keyboard-response","92","315423","0.0-55.0-1.0","""event"",""trial"",""time""
""fullscreenenter"",""0"",""11451""
","
","
","""event"",""trial"",""time""
""fullscreenenter"",""0"",""11451""
","
","null","<p></p>","null","","","","","","","","","","","","","","","","","","","","","","","",""
"","do_trial","93","318305","0.0-56.0-0.0","""event"",""trial"",""time""
""fullscreenenter"",""0"",""11451""
","
","
","""event"",""trial"",""time""
""fullscreenenter"",""0"",""11451""
","
","324.10000002384186","","","","","","","","49","1,1,0","6","blank","267","null","0.18087738817845583","0.44668860687167394","0.14647495264278593","1","","","","","","","","",""
"","html-keyboard-response","94","319313","0.0-56.0-1.0","""event"",""trial"",""time""
""fullscreenenter"",""0"",""11451""
","
","
","""event"",""trial"",""time""
""fullscreenenter"",""0"",""11451""
","
","null","<p></p>","null","","","","","","","","","","","","","","","","","","","","","","","",""
"","do_recog","95","322511","0.0-57.0-0.0","""event"",""trial"",""time""
""fullscreenenter"",""0"",""11451""
","
","
","""event"",""trial"",""time""
""fullscreenenter"",""0"",""11451""
","
","1691","","","","","","","","53","","","","268","probe-153","","","","","1","[object Object]","34","0","1","","","",""
"","html-keyboard-response","96","323520","0.0-57.0-1.0","""event"",""trial"",""time""
""fullscreenenter"",""0"",""11451""
","
","
","""event"",""trial"",""time""
""fullscreenenter"",""0"",""11451""
","
","null","<p></p>","null","","","","","","","","","","","","","","","","","","","","","","","",""
"","break","97","324986","0.0-58.0-0.0","""event"",""trial"",""time""
""fullscreenenter"",""0"",""11451""
","
","
","""event"",""trial"",""time""
""fullscreenenter"",""0"",""11451""
","
","1464.7000000476837","<div class='center'><p>Time to take a quick break! You have 2 minutes to rest, but you can move on sooner if you'd like.</p><p> Press the <b>space bar</b> to continue.</p></div>","32","","","","","","","","","","","","","","","","","","","","","","","",""
"","do_trial","98","328388","0.0-58.0-1.0","""event"",""trial"",""time""
""fullscreenenter"",""0"",""11451""
","
","
","""event"",""trial"",""time""
""fullscreenenter"",""0"",""11451""
","
","837","","","","","","","","51","0,0,1","6","blank","269","null","0.2582764779876864","0.43112727113493476","0.2756472350211609","1","","","","","","","","",""
"","html-keyboard-response","99","329396","0.0-58.0-2.0","""event"",""trial"",""time""
""fullscreenenter"",""0"",""11451""
","
","
","""event"",""trial"",""time""
""fullscreenenter"",""0"",""11451""
","
","null","<p></p>","null","","","","","","","","","","","","","","","","","","","","","","","",""
"","do_recog","100","332454","0.0-59.0-0.0","""event"",""trial"",""time""
""fullscreenenter"",""0"",""11451""
","
","
","""event"",""trial"",""time""
""fullscreenenter"",""0"",""11451""
","
","1546.199999988079","","","","","","","","53","","","","270","probe-166","","","","","1","[object Object]","32","0","1","","","",""
"","html-keyboard-response","101","333463","0.0-59.0-1.0","""event"",""trial"",""time""
""fullscreenenter"",""0"",""11451""
","
","
","""event"",""trial"",""time""
""fullscreenenter"",""0"",""11451""
","
","null","<p></p>","null","","","","","","","","","","","","","","","","","","","","","","","",""
"","do_trial","102","336580","0.0-60.0-0.0","""event"",""trial"",""time""
""fullscreenenter"",""0"",""11451""
","
","
","""event"",""trial"",""time""
""fullscreenenter"",""0"",""11451""
","
","565.5","","","","","","","","51","0,0,0","6","blank","271","null","0.21412517964579628","0.5757742178760473","0.08823030031974191","0","","","","","","","","",""
"","html-keyboard-response","103","337587","0.0-60.0-1.0","""event"",""trial"",""time""
""fullscreenenter"",""0"",""11451""
","
","
","""event"",""trial"",""time""
""fullscreenenter"",""0"",""11451""
","
","null","<p></p>","null","","","","","","","","","","","","","","","","","","","","","","","",""
"","do_trial","104","340388","0.0-61.0-0.0","""event"",""trial"",""time""
""fullscreenenter"",""0"",""11451""
","
","
","""event"",""trial"",""time""
""fullscreenenter"",""0"",""11451""
","
","247.30000001192093","","","","","","","","49","0,1,0","6","blank","272","null","0.22231839590175473","0.6202461605618514","0.10107968070586497","0","","","","","","","","",""
"","html-keyboard-response","105","341396","0.0-61.0-1.0","""event"",""trial"",""time""
""fullscreenenter"",""0"",""11451""
","
","
","""event"",""trial"",""time""
""fullscreenenter"",""0"",""11451""
","
","null","<p></p>","null","","","","","","","","","","","","","","","","","","","","","","","",""
"","do_trial","106","344185","0.0-62.0-0.0","""event"",""trial"",""time""
""fullscreenenter"",""0"",""11451""
","
","
","""event"",""trial"",""time""
""fullscreenenter"",""0"",""11451""
","
","229.19999998807907","","","","","","","","50","0,1,0","6","blank","273","null","0.2614375700575258","0.6946866494592875","0.06022170129036601","1","","","","","","","","",""
"","html-keyboard-response","107","345193","0.0-62.0-1.0","""event"",""trial"",""time""
""fullscreenenter"",""0"",""11451""
","
","
","""event"",""trial"",""time""
""fullscreenenter"",""0"",""11451""
","
","null","<p></p>","null","","","","","","","","","","","","","","","","","","","","","","","",""
"","do_trial","108","347997","0.0-63.0-0.0","""event"",""trial"",""time""
""fullscreenenter"",""0"",""11451""
","
","
","""event"",""trial"",""time""
""fullscreenenter"",""0"",""11451""
","
","243.80000001192093","","","","","","","","50","0,1,0","6","blank","274","null","0.17365476466691226","0.721330650581425","0.06857647660273512","1","","","","","","","","",""
"","html-keyboard-response","109","349005","0.0-63.0-1.0","""event"",""trial"",""time""
""fullscreenenter"",""0"",""11451""
","
","
","""event"",""trial"",""time""
""fullscreenenter"",""0"",""11451""
","
","null","<p></p>","null","","","","","","","","","","","","","","","","","","","","","","","",""
"","do_recog","110","352362","0.0-64.0-0.0","""event"",""trial"",""time""
""fullscreenenter"",""0"",""11451""
","
","
","""event"",""trial"",""time""
""fullscreenenter"",""0"",""11451""
","
","1838.3999999761581","","","","","","","","53","","","","275","probe-138","","","","","1","[object Object]","197","4","1","","","",""
"","html-keyboard-response","111","353370","0.0-64.0-1.0","""event"",""trial"",""time""
""fullscreenenter"",""0"",""11451""
","
","
","""event"",""trial"",""time""
""fullscreenenter"",""0"",""11451""
","
","null","<p></p>","null","","","","","","","","","","","","","","","","","","","","","","","",""
"","do_trial","112","356552","0.0-65.0-0.0","""event"",""trial"",""time""
""fullscreenenter"",""0"",""11451""
","
","
","""event"",""trial"",""time""
""fullscreenenter"",""0"",""11451""
","
","638.1999999880791","","","","","","","","51","0,1,0","6","blank","276","null","0.2591801953327891","0.6775812082582173","0.08241992366916372","0","","","","","","","","",""
"","html-keyboard-response","113","357562","0.0-65.0-1.0","""event"",""trial"",""time""
""fullscreenenter"",""0"",""11451""
","
","
","""event"",""trial"",""time""
""fullscreenenter"",""0"",""11451""
","
","null","<p></p>","null","","","","","","","","","","","","","","","","","","","","","","","",""
"","do_recog","114","361389","0.0-66.0-0.0","""event"",""trial"",""time""
""fullscreenenter"",""0"",""11451""
","
","
","""event"",""trial"",""time""
""fullscreenenter"",""0"",""11451""
","
","2312.400000035763","","","","","","","","55","","","","277","probe-255","","","","","0","[object Object]","null","null","1","","","",""
"","html-keyboard-response","115","362398","0.0-66.0-1.0","""event"",""trial"",""time""
""fullscreenenter"",""0"",""11451""
","
","
","""event"",""trial"",""time""
""fullscreenenter"",""0"",""11451""
","
","null","<p></p>","null","","","","","","","","","","","","","","","","","","","","","","","",""
"","do_trial","116","365615","0.0-67.0-0.0","""event"",""trial"",""time""
""fullscreenenter"",""0"",""11451""
","
","
","""event"",""trial"",""time""
""fullscreenenter"",""0"",""11451""
","
","665.5","","","","","","","","51","0,0,0","6","blank","278","null","0.2656326063735931","0.5553730446820139","0.1224776257479835","0","","","","","","","","",""
"","html-keyboard-response","117","366624","0.0-67.0-1.0","""event"",""trial"",""time""
""fullscreenenter"",""0"",""11451""
","
","
","""event"",""trial"",""time""
""fullscreenenter"",""0"",""11451""
","
","null","<p></p>","null","","","","","","","","","","","","","","","","","","","","","","","",""
"","do_trial","118","369426","0.0-68.0-0.0","""event"",""trial"",""time""
""fullscreenenter"",""0"",""11451""
","
","
","""event"",""trial"",""time""
""fullscreenenter"",""0"",""11451""
","
","236.60000002384186","","","","","","","","50","0,1,0","6","blank","279","null","0.36070045823224417","0.5623143981206935","0.16718063490635085","1","","","","","","","","",""
"","html-keyboard-response","119","370435","0.0-68.0-1.0","""event"",""trial"",""time""
""fullscreenenter"",""0"",""11451""
","
","
","""event"",""trial"",""time""
""fullscreenenter"",""0"",""11451""
","
","null","<p></p>","null","","","","","","","","","","","","","","","","","","","","","","","",""
"","do_trial","120","373210","0.0-69.0-0.0","""event"",""trial"",""time""
""fullscreenenter"",""0"",""11451""
","
","
","""event"",""trial"",""time""
""fullscreenenter"",""0"",""11451""
","
","222.39999997615814","","","","","","","","50","0,1,0","6","blank","280","null","0.31232243669778115","0.5792561061597369","0.18591489805652658","1","","","","","","","","",""
"","html-keyboard-response","121","374217","0.0-69.0-1.0","""event"",""trial"",""time""
""fullscreenenter"",""0"",""11451""
","
","
","""event"",""trial"",""time""
""fullscreenenter"",""0"",""11451""
","
","null","<p></p>","null","","","","","","","","","","","","","","","","","","","","","","","",""
"","do_recog","122","377919","0.0-70.0-0.0","""event"",""trial"",""time""
""fullscreenenter"",""0"",""11451""
","
","
","""event"",""trial"",""time""
""fullscreenenter"",""0"",""11451""
","
","2190.900000035763","","","","","","","","53","","","","281","probe-225","","","","","1","[object Object]","150","3","1","","","",""
"","html-keyboard-response","123","378926","0.0-70.0-1.0","""event"",""trial"",""time""
""fullscreenenter"",""0"",""11451""
","
","
","""event"",""trial"",""time""
""fullscreenenter"",""0"",""11451""
","
","null","<p></p>","null","","","","","","","","","","","","","","","","","","","","","","","",""
"","do_trial","124","381920","0.0-71.0-0.0","""event"",""trial"",""time""
""fullscreenenter"",""0"",""11451""
","
","
","""event"",""trial"",""time""
""fullscreenenter"",""0"",""11451""
","
","434.39999997615814","","","","","","","","51","1,1,0","6","blank","282","null","0.2081547584039322","0.6534223570909998","0.22012472437817232","0","","","","","","","","",""
"","html-keyboard-response","125","382927","0.0-71.0-1.0","""event"",""trial"",""time""
""fullscreenenter"",""0"",""11451""
","
","
","""event"",""trial"",""time""
""fullscreenenter"",""0"",""11451""
","
","null","<p></p>","null","","","","","","","","","","","","","","","","","","","","","","","",""
"","do_trial","126","385733","0.0-72.0-0.0","""event"",""trial"",""time""
""fullscreenenter"",""0"",""11451""
","
","
","""event"",""trial"",""time""
""fullscreenenter"",""0"",""11451""
","
","240.29999995231628","","","","","","","","49","1,1,0","6","blank","283","null","0.315975600584803","0.6126499352615996","0.28939065249700824","1","","","","","","","","",""
"","html-keyboard-response","127","386743","0.0-72.0-1.0","""event"",""trial"",""time""
""fullscreenenter"",""0"",""11451""
","
","
","""event"",""trial"",""time""
""fullscreenenter"",""0"",""11451""
","
","null","<p></p>","null","","","","","","","","","","","","","","","","","","","","","","","",""
"","do_trial","128","389566","0.0-73.0-0.0","""event"",""trial"",""time""
""fullscreenenter"",""0"",""11451""
","
","
","""event"",""trial"",""time""
""fullscreenenter"",""0"",""11451""
","
","277.7999999523163","","","","","","","","50","0,1,0","6","blank","284","null","0.2392655823970989","0.7063625511447044","0.1757561510479214","1","","","","","","","","",""
"","html-keyboard-response","129","390574","0.0-73.0-1.0","""event"",""trial"",""time""
""fullscreenenter"",""0"",""11451""
","
","
","""event"",""trial"",""time""
""fullscreenenter"",""0"",""11451""
","
","null","<p></p>","null","","","","","","","","","","","","","","","","","","","","","","","",""
"","do_trial","130","393453","0.0-74.0-0.0","""event"",""trial"",""time""
""fullscreenenter"",""0"",""11451""
","
","
","""event"",""trial"",""time""
""fullscreenenter"",""0"",""11451""
","
","322.5999999642372","","","","","","","","49","0,1,0","6","blank","285","null","0.35956434083160566","0.6971633724240728","0.12767406442269988","0","","","","","","","","",""
"","html-keyboard-response","131","394463","0.0-74.0-1.0","""event"",""trial"",""time""
""fullscreenenter"",""0"",""11451""
","
","
","""event"",""trial"",""time""
""fullscreenenter"",""0"",""11451""
","
","null","<p></p>","null","","","","","","","","","","","","","","","","","","","","","","","",""
"","do_recog","132","398153","0.0-75.0-0.0","""event"",""trial"",""time""
""fullscreenenter"",""0"",""11451""
","
","
","""event"",""trial"",""time""
""fullscreenenter"",""0"",""11451""
","
","2173.899999976158","","","","","","","","55","","","","286","probe-01","","","","","1","[object Object]","36","0","0","","","",""
"","html-keyboard-response","133","399162","0.0-75.0-1.0","""event"",""trial"",""time""
""fullscreenenter"",""0"",""11451""
","
","
","""event"",""trial"",""time""
""fullscreenenter"",""0"",""11451""
","
","null","<p></p>","null","","","","","","","","","","","","","","","","","","","","","","","",""
"","do_trial","134","402219","0.0-76.0-0.0","""event"",""trial"",""time""
""fullscreenenter"",""0"",""11451""
","
","
","""event"",""trial"",""time""
""fullscreenenter"",""0"",""11451""
","
","495.10000002384186","","","","","","","","51","0,1,0","6","blank","287","null","0.3807667446258338","0.5206366310973122","0.08155396841966446","0","","","","","","","","",""
"","html-keyboard-response","135","403227","0.0-76.0-1.0","""event"",""trial"",""time""
""fullscreenenter"",""0"",""11451""
","
","
","""event"",""trial"",""time""
""fullscreenenter"",""0"",""11451""
","
","null","<p></p>","null","","","","","","","","","","","","","","","","","","","","","","","",""
"","do_trial","136","406016","0.0-77.0-0.0","""event"",""trial"",""time""
""fullscreenenter"",""0"",""11451""
","
","
","""event"",""trial"",""time""
""fullscreenenter"",""0"",""11451""
","
","236.80000001192093","","","","","","","","50","1,1,0","6","blank","288","null","0.30756379240215115","0.5003449292202184","0.06089694502479914","1","","","","","","","","",""
"","html-keyboard-response","137","407023","0.0-77.0-1.0","""event"",""trial"",""time""
""fullscreenenter"",""0"",""11451""
","
","
","""event"",""trial"",""time""
""fullscreenenter"",""0"",""11451""
","
","null","<p></p>","null","","","","","","","","","","","","","","","","","","","","","","","",""
"","do_trial","138","409749","0.0-78.0-0.0","""event"",""trial"",""time""
""fullscreenenter"",""0"",""11451""
","
","
","""event"",""trial"",""time""
""fullscreenenter"",""0"",""11451""
","
","161.39999997615814","","","","","","","","50","0,1,0","6","blank","289","null","0.17476695959659394","0.6950452587519323","0.17974731677009317","1","","","","","","","","",""
"","html-keyboard-response","139","410756","0.0-78.0-1.0","""event"",""trial"",""time""
""fullscreenenter"",""0"",""11451""
","
","
","""event"",""trial"",""time""
""fullscreenenter"",""0"",""11451""
","
","null","<p></p>","null","","","","","","","","","","","","","","","","","","","","","","","",""
"","do_trial","140","413544","0.0-79.0-0.0","""event"",""trial"",""time""
""fullscreenenter"",""0"",""11451""
","
","
","""event"",""trial"",""time""
""fullscreenenter"",""0"",""11451""
","
","232.60000002384186","","","","","","","","50","0,1,0","6","blank","290","null","0.06469214466032731","0.6022597450955313","0.18839404419080324","1","","","","","","","","",""
"","html-keyboard-response","141","414554","0.0-79.0-1.0","""event"",""trial"",""time""
""fullscreenenter"",""0"",""11451""
","
","
","""event"",""trial"",""time""
""fullscreenenter"",""0"",""11451""
","
","null","<p></p>","null","","","","","","","","","","","","","","","","","","","","","","","",""
"","do_trial","142","417439","0.0-80.0-0.0","""event"",""trial"",""time""
""fullscreenenter"",""0"",""11451""
","
","
","""event"",""trial"",""time""
""fullscreenenter"",""0"",""11451""
","
","322.5","","","","","","","","50","0,1,0","6","blank","291","null","0.23540552747450924","0.6857847757041505","0.16822559001224574","1","","","","","","","","",""
"","html-keyboard-response","143","418448","0.0-80.0-1.0","""event"",""trial"",""time""
""fullscreenenter"",""0"",""11451""
","
","
","""event"",""trial"",""time""
""fullscreenenter"",""0"",""11451""
","
","null","<p></p>","null","","","","","","","","","","","","","","","","","","","","","","","",""
"","do_trial","144","421327","0.0-81.0-0.0","""event"",""trial"",""time""
""fullscreenenter"",""0"",""11451""
","
","
","""event"",""trial"",""time""
""fullscreenenter"",""0"",""11451""
","
","315.89999997615814","","","","","","","","50","0,1,0","6","blank","292","null","0.23560520530049164","0.6902785515097795","0.22530981354242385","1","","","","","","","","",""
"","html-keyboard-response","145","422333","0.0-81.0-1.0","""event"",""trial"",""time""
""fullscreenenter"",""0"",""11451""
","
","
","""event"",""trial"",""time""
""fullscreenenter"",""0"",""11451""
","
","null","<p></p>","null","","","","","","","","","","","","","","","","","","","","","","","",""
"","do_trial","146","425247","0.0-82.0-0.0","""event"",""trial"",""time""
""fullscreenenter"",""0"",""11451""
","
","
","""event"",""trial"",""time""
""fullscreenenter"",""0"",""11451""
","
","362.30000001192093","","","","","","","","50","1,0,0","6","blank","293","null","0.27064581037325997","0.6864369522579119","0.20994154889545222","0","","","","","","","","",""
"","html-keyboard-response","147","426256","0.0-82.0-1.0","""event"",""trial"",""time""
""fullscreenenter"",""0"",""11451""
","
","
","""event"",""trial"",""time""
""fullscreenenter"",""0"",""11451""
","
","null","<p></p>","null","","","","","","","","","","","","","","","","","","","","","","","",""
"","do_recog","148","429520","0.0-83.0-0.0","""event"",""trial"",""time""
""fullscreenenter"",""0"",""11451""
","
","
","""event"",""trial"",""time""
""fullscreenenter"",""0"",""11451""
","
","1746.7999999523163","","","","","","","","53","","","","294","probe-07","","","","","1","[object Object]","39","0","1","","","",""
"","html-keyboard-response","149","430527","0.0-83.0-1.0","""event"",""trial"",""time""
""fullscreenenter"",""0"",""11451""
","
","
","""event"",""trial"",""time""
""fullscreenenter"",""0"",""11451""
","
","null","<p></p>","null","","","","","","","","","","","","","","","","","","","","","","","",""
"","do_trial","150","434120","0.0-84.0-0.0","""event"",""trial"",""time""
""fullscreenenter"",""0"",""11451""
","
","
","""event"",""trial"",""time""
""fullscreenenter"",""0"",""11451""
","
","1042.0999999642372","","","","","","","","51","0,1,0","6","blank","295","null","0.2411543073087921","0.7073936918391039","0.20265375232889085","0","","","","","","","","",""
"","html-keyboard-response","151","435129","0.0-84.0-1.0","""event"",""trial"",""time""
""fullscreenenter"",""0"",""11451""
","
","
","""event"",""trial"",""time""
""fullscreenenter"",""0"",""11451""
","
","null","<p></p>","null","","","","","","","","","","","","","","","","","","","","","","","",""
"","do_trial","152","437982","0.0-85.0-0.0","""event"",""trial"",""time""
""fullscreenenter"",""0"",""11451""
","
","
","""event"",""trial"",""time""
""fullscreenenter"",""0"",""11451""
","
","303","","","","","","","","50","0,1,0","6","blank","296","null","0.45522057156280765","0.5551284631885325","0.3813013849271405","1","","","","","","","","",""
"","html-keyboard-response","153","438989","0.0-85.0-1.0","""event"",""trial"",""time""
""fullscreenenter"",""0"",""11451""
","
","
","""event"",""trial"",""time""
""fullscreenenter"",""0"",""11451""
","
","null","<p></p>","null","","","","","","","","","","","","","","","","","","","","","","","",""
"","do_trial","154","441779","0.0-86.0-0.0","""event"",""trial"",""time""
""fullscreenenter"",""0"",""11451""
","
","
","""event"",""trial"",""time""
""fullscreenenter"",""0"",""11451""
","
","243.30000001192093","","","","","","","","50","1,0,0","6","blank","297","null","0.6106123128346516","0.36469520222951807","0.30019047780290214","0","","","","","","","","",""
"","html-keyboard-response","155","442787","0.0-86.0-1.0","""event"",""trial"",""time""
""fullscreenenter"",""0"",""11451""
","
","
","""event"",""trial"",""time""
""fullscreenenter"",""0"",""11451""
","
","null","<p></p>","null","","","","","","","","","","","","","","","","","","","","","","","",""
"","do_trial","156","445688","0.0-87.0-0.0","""event"",""trial"",""time""
""fullscreenenter"",""0"",""11451""
","
","
","""event"",""trial"",""time""
""fullscreenenter"",""0"",""11451""
","
","356.5","","","","","","","","49","1,0,0","6","blank","298","null","0.5476023165811178","0.10902732476116335","0.3285752285222778","1","","","","","","","","",""
"","html-keyboard-response","157","446694","0.0-87.0-1.0","""event"",""trial"",""time""
""fullscreenenter"",""0"",""11451""
","
","
","""event"",""trial"",""time""
""fullscreenenter"",""0"",""11451""
","
","null","<p></p>","null","","","","","","","","","","","","","","","","","","","","","","","",""
"","do_trial","158","449594","0.0-88.0-0.0","""event"",""trial"",""time""
""fullscreenenter"",""0"",""11451""
","
","
","""event"",""trial"",""time""
""fullscreenenter"",""0"",""11451""
","
","340.10000002384186","","","","","","","","49","1,0,1","6","blank","299","null","0.4191917547209521","0.05973005763548654","0.21900058067261644","1","","","","","","","","",""
"","html-keyboard-response","159","450603","0.0-88.0-1.0","""event"",""trial"",""time""
""fullscreenenter"",""0"",""11451""
","
","
","""event"",""trial"",""time""
""fullscreenenter"",""0"",""11451""
","
","null","<p></p>","null","","","","","","","","","","","","","","","","","","","","","","","",""
"","do_recog","160","453786","0.0-89.0-0.0","""event"",""trial"",""time""
""fullscreenenter"",""0"",""11451""
","
","
","""event"",""trial"",""time""
""fullscreenenter"",""0"",""11451""
","
","1678.699999988079","","","","","","","","53","","","","300","probe-182","","","","","1","[object Object]","79","1","1","","","",""
"","html-keyboard-response","161","454793","0.0-89.0-1.0","""event"",""trial"",""time""
""fullscreenenter"",""0"",""11451""
","
","
","""event"",""trial"",""time""
""fullscreenenter"",""0"",""11451""
","
","null","<p></p>","null","","","","","","","","","","","","","","","","","","","","","","","",""
"","do_trial","162","458194","0.0-90.0-0.0","""event"",""trial"",""time""
""fullscreenenter"",""0"",""11451""
","
","
","""event"",""trial"",""time""
""fullscreenenter"",""0"",""11451""
","
","849.8999999761581","","","","","","","","50","0,0,0","6","blank","301","null","0.4778024725458214","0.12704935204960324","0.16875237401601445","0","","","","","","","","",""
"","html-keyboard-response","163","459201","0.0-90.0-1.0","""event"",""trial"",""time""
""fullscreenenter"",""0"",""11451""
","
","
","""event"",""trial"",""time""
""fullscreenenter"",""0"",""11451""
","
","null","<p></p>","null","","","","","","","","","","","","","","","","","","","","","","","",""
"","do_recog","164","463269","0.0-91.0-0.0","""event"",""trial"",""time""
""fullscreenenter"",""0"",""11451""
","
","
","""event"",""trial"",""time""
""fullscreenenter"",""0"",""11451""
","
","2555","","","","","","","","54","","","","302","probe-78","","","","","1","[object Object]","194","4","1","","","",""
"","html-keyboard-response","165","464277","0.0-91.0-1.0","""event"",""trial"",""time""
""fullscreenenter"",""0"",""11451""
","
","
","""event"",""trial"",""time""
""fullscreenenter"",""0"",""11451""
","
","null","<p></p>","null","","","","","","","","","","","","","","","","","","","","","","","",""
"","do_trial","166","467472","0.0-92.0-0.0","""event"",""trial"",""time""
""fullscreenenter"",""0"",""11451""
","
","
","""event"",""trial"",""time""
""fullscreenenter"",""0"",""11451""
","
","632.3000000119209","","","","","","","","49","1,0,0","6","blank","303","null","0.6408491855849955","0.11789994334782732","0.23372471786815968","1","","","","","","","","",""
"","html-keyboard-response","167","468479","0.0-92.0-1.0","""event"",""trial"",""time""
""fullscreenenter"",""0"",""11451""
","
","
","""event"",""trial"",""time""
""fullscreenenter"",""0"",""11451""
","
","null","<p></p>","null","","","","","","","","","","","","","","","","","","","","","","","",""
"","do_trial","168","471343","0.0-93.0-0.0","""event"",""trial"",""time""
""fullscreenenter"",""0"",""11451""
","
","
","""event"",""trial"",""time""
""fullscreenenter"",""0"",""11451""
","
","300.89999997615814","","","","","","","","51","0,0,0","6","blank","304","null","0.6160087265257165","0.05568647693293517","0.26999124605705754","0","","","","","","","","",""
"","html-keyboard-response","169","472350","0.0-93.0-1.0","""event"",""trial"",""time""
""fullscreenenter"",""0"",""11451""
","
","
","""event"",""trial"",""time""
""fullscreenenter"",""0"",""11451""
","
","null","<p></p>","null","","","","","","","","","","","","","","","","","","","","","","","",""
"","do_trial","170","475121","0.0-94.0-0.0","""event"",""trial"",""time""
""fullscreenenter"",""0"",""11451""
","
","
","""event"",""trial"",""time""
""fullscreenenter"",""0"",""11451""
","
","214.19999998807907","","","","","","","","49","0,0,0","6","blank","305","null","0.5891616914050465","0.14911354323708112","0.34638281760089906","0","","","","","","","","",""
"","html-keyboard-response","171","476129","0.0-94.0-1.0","""event"",""trial"",""time""
""fullscreenenter"",""0"",""11451""
","
","
","""event"",""trial"",""time""
""fullscreenenter"",""0"",""11451""
","
","null","<p></p>","null","","","","","","","","","","","","","","","","","","","","","","","",""
"","do_trial","172","478934","0.0-95.0-0.0","""event"",""trial"",""time""
""fullscreenenter"",""0"",""11451""
","
","
","""event"",""trial"",""time""
""fullscreenenter"",""0"",""11451""
","
","248.60000002384186","","","","","","","","50","0,1,0","6","blank","306","null","0.4966629836870777","0.1538543334026306","0.2410076565332482","1","","","","","","","","",""
"","html-keyboard-response","173","479940","0.0-95.0-1.0","""event"",""trial"",""time""
""fullscreenenter"",""0"",""11451""
","
","
","""event"",""trial"",""time""
""fullscreenenter"",""0"",""11451""
","
","null","<p></p>","null","","","","","","","","","","","","","","","","","","","","","","","",""
"","do_trial","174","482807","0.0-96.0-0.0","""event"",""trial"",""time""
""fullscreenenter"",""0"",""11451""
","
","
","""event"",""trial"",""time""
""fullscreenenter"",""0"",""11451""
","
","307.5","","","","","","","","50","0,0,0","6","blank","307","null","0.500847749597632","0.1954854567071204","0.29040928406571415","0","","","","","","","","",""
"","html-keyboard-response","175","483816","0.0-96.0-1.0","""event"",""trial"",""time""
""fullscreenenter"",""0"",""11451""
","
","
","""event"",""trial"",""time""
""fullscreenenter"",""0"",""11451""
","
","null","<p></p>","null","","","","","","","","","","","","","","","","","","","","","","","",""
"","do_recog","176","487239","0.0-97.0-0.0","""event"",""trial"",""time""
""fullscreenenter"",""0"",""11451""
","
","
","""event"",""trial"",""time""
""fullscreenenter"",""0"",""11451""
","
","1905.1000000238419","","","","","","","","53","","","","308","probe-132","","","","","1","[object Object]","155","3","1","","","",""
"","html-keyboard-response","177","488247","0.0-97.0-1.0","""event"",""trial"",""time""
""fullscreenenter"",""0"",""11451""
","
","
","""event"",""trial"",""time""
""fullscreenenter"",""0"",""11451""
","
","null","<p></p>","null","","","","","","","","","","","","","","","","","","","","","","","",""
"","break","178","489177","0.0-98.0-0.0","""event"",""trial"",""time""
""fullscreenenter"",""0"",""11451""
","
","
","""event"",""trial"",""time""
""fullscreenenter"",""0"",""11451""
","
","928.5999999642372","<div class='center'><p>Time to take a quick break! You have 2 minutes to rest, but you can move on sooner if you'd like.</p><p> Press the <b>space bar</b> to continue.</p></div>","32","","","","","","","","","","","","","","","","","","","","","","","",""
"","do_trial","179","492978","0.0-98.0-1.0","""event"",""trial"",""time""
""fullscreenenter"",""0"",""11451""
","
","
","""event"",""trial"",""time""
""fullscreenenter"",""0"",""11451""
","
","1243.800000011921","","","","","","","","49","0,0,0","6","blank","309","null","0.5169065684446487","0.15022901531624944","0.3737137158913815","0","","","","","","","","",""
"","html-keyboard-response","180","493987","0.0-98.0-2.0","""event"",""trial"",""time""
""fullscreenenter"",""0"",""11451""
","
","
","""event"",""trial"",""time""
""fullscreenenter"",""0"",""11451""
","
","null","<p></p>","null","","","","","","","","","","","","","","","","","","","","","","","",""
"","do_trial","181","496541","0.0-99.0-0.0","""event"",""trial"",""time""
""fullscreenenter"",""0"",""11451""
","
","
","""event"",""trial"",""time""
""fullscreenenter"",""0"",""11451""
","
","0.30000001192092896","","","","","","","","50","0,0,1","6","blank","310","null","0.45153312475201235","0.07500837457418913","0.4006173987875279","0","","","","","","","","",""
"","html-keyboard-response","182","497549","0.0-99.0-1.0","""event"",""trial"",""time""
""fullscreenenter"",""0"",""11451""
","
","
","""event"",""trial"",""time""
""fullscreenenter"",""0"",""11451""
","
","null","<p></p>","null","","","","","","","","","","","","","","","","","","","","","","","",""
"","do_trial","183","500273","0.0-100.0-0.0","""event"",""trial"",""time""
""fullscreenenter"",""0"",""11451""
","
","
","""event"",""trial"",""time""
""fullscreenenter"",""0"",""11451""
","
","176.19999998807907","","","","","","","","51","0,0,0","6","blank","311","null","0.37155477603163006","0.1201641409849683","0.38630420135305105","0","","","","","","","","",""
"","html-keyboard-response","184","501282","0.0-100.0-1.0","""event"",""trial"",""time""
""fullscreenenter"",""0"",""11451""
","
","
","""event"",""trial"",""time""
""fullscreenenter"",""0"",""11451""
","
","null","<p></p>","null","","","","","","","","","","","","","","","","","","","","","","","",""
"","do_trial","185","504097","0.0-101.0-0.0","""event"",""trial"",""time""
""fullscreenenter"",""0"",""11451""
","
","
","""event"",""trial"",""time""
""fullscreenenter"",""0"",""11451""
","
","273","","","","","","","","49","1,0,0","6","blank","312","null","0.3769784504473991","0.2803986041362942","0.38298310960185583","1","","","","","","","","",""
"","html-keyboard-response","186","505106","0.0-101.0-1.0","""event"",""trial"",""time""
""fullscreenenter"",""0"",""11451""
","
","
","""event"",""trial"",""time""
""fullscreenenter"",""0"",""11451""
","
","null","<p></p>","null","","","","","","","","","","","","","","","","","","","","","","","",""
"","do_recog","187","508762","0.0-102.0-0.0","""event"",""trial"",""time""
""fullscreenenter"",""0"",""11451""
","
","
","""event"",""trial"",""time""
""fullscreenenter"",""0"",""11451""
","
","2139.199999988079","","","","","","","","54","","","","313","probe-48","","","","","1","[object Object]","154","3","1","","","",""
"","html-keyboard-response","188","509769","0.0-102.0-1.0","""event"",""trial"",""time""
""fullscreenenter"",""0"",""11451""
","
","
","""event"",""trial"",""time""
""fullscreenenter"",""0"",""11451""
","
","null","<p></p>","null","","","","","","","","","","","","","","","","","","","","","","","",""
"","do_trial","189","512889","0.0-103.0-0.0","""event"",""trial"",""time""
""fullscreenenter"",""0"",""11451""
","
","
","""event"",""trial"",""time""
""fullscreenenter"",""0"",""11451""
","
","572.3999999761581","","","","","","","","51","1,0,1","6","blank","314","null","0.280336165370674","0.15251643952084087","0.4141121247413369","1","","","","","","","","",""
"","html-keyboard-response","190","513898","0.0-103.0-1.0","""event"",""trial"",""time""
""fullscreenenter"",""0"",""11451""
","
","
","""event"",""trial"",""time""
""fullscreenenter"",""0"",""11451""
","
","null","<p></p>","null","","","","","","","","","","","","","","","","","","","","","","","",""
"","do_trial","191","516816","0.0-104.0-0.0","""event"",""trial"",""time""
""fullscreenenter"",""0"",""11451""
","
","
","""event"",""trial"",""time""
""fullscreenenter"",""0"",""11451""
","
","361.69999998807907","","","","","","","","51","0,0,0","6","blank","315","null","0.5065390109110803","0.11015105133339326","0.32337831882534745","0","","","","","","","","",""
"","html-keyboard-response","192","517823","0.0-104.0-1.0","""event"",""trial"",""time""
""fullscreenenter"",""0"",""11451""
","
","
","""event"",""trial"",""time""
""fullscreenenter"",""0"",""11451""
","
","null","<p></p>","null","","","","","","","","","","","","","","","","","","","","","","","",""
"","do_trial","193","520644","0.0-105.0-0.0","""event"",""trial"",""time""
""fullscreenenter"",""0"",""11451""
","
","
","""event"",""trial"",""time""
""fullscreenenter"",""0"",""11451""
","
","277.19999998807907","","","","","","","","49","0,0,1","6","blank","316","null","0.45285130849823946","0.07837156938753256","0.33710457670518756","0","","","","","","","","",""
"","html-keyboard-response","194","521652","0.0-105.0-1.0","""event"",""trial"",""time""
""fullscreenenter"",""0"",""11451""
","
","
","""event"",""trial"",""time""
""fullscreenenter"",""0"",""11451""
","
","null","<p></p>","null","","","","","","","","","","","","","","","","","","","","","","","",""
"","do_trial","195","524518","0.0-106.0-0.0","""event"",""trial"",""time""
""fullscreenenter"",""0"",""11451""
","
","
","""event"",""trial"",""time""
""fullscreenenter"",""0"",""11451""
","
","310.89999997615814","","","","","","","","50","0,0,0","6","blank","317","null","0.534681161187491","0.10119775717653337","0.48208033203121675","0","","","","","","","","",""
"","html-keyboard-response","196","525526","0.0-106.0-1.0","""event"",""trial"",""time""
""fullscreenenter"",""0"",""11451""
","
","
","""event"",""trial"",""time""
""fullscreenenter"",""0"",""11451""
","
","null","<p></p>","null","","","","","","","","","","","","","","","","","","","","","","","",""
"","do_recog","197","529198","0.0-107.0-0.0","""event"",""trial"",""time""
""fullscreenenter"",""0"",""11451""
","
","
","""event"",""trial"",""time""
""fullscreenenter"",""0"",""11451""
","
","2163","","","","","","","","54","","","","318","probe-12","","","","","1","[object Object]","73","1","1","","","",""
"","html-keyboard-response","198","530205","0.0-107.0-1.0","""event"",""trial"",""time""
""fullscreenenter"",""0"",""11451""
","
","
","""event"",""trial"",""time""
""fullscreenenter"",""0"",""11451""
","
","null","<p></p>","null","","","","","","","","","","","","","","","","","","","","","","","",""
"","do_trial","199","533214","0.0-108.0-0.0","""event"",""trial"",""time""
""fullscreenenter"",""0"",""11451""
","
","
","""event"",""trial"",""time""
""fullscreenenter"",""0"",""11451""
","
","454.19999998807907","","","","","","","","49","1,0,0","6","blank","319","null","0.4505866352570099","0.16767484951001244","0.470779868528407","1","","","","","","","","",""
"","html-keyboard-response","200","534221","0.0-108.0-1.0","""event"",""trial"",""time""
""fullscreenenter"",""0"",""11451""
","
","
","""event"",""trial"",""time""
""fullscreenenter"",""0"",""11451""
","
","null","<p></p>","null","","","","","","","","","","","","","","","","","","","","","","","",""
"","do_recog","201","537609","0.0-109.0-0.0","""event"",""trial"",""time""
""fullscreenenter"",""0"",""11451""
","
","
","""event"",""trial"",""time""
""fullscreenenter"",""0"",""11451""
","
","1868.6000000238419","","","","","","","","54","","","","320","probe-248","","","","","0","[object Object]","null","null","0","","","",""
"","html-keyboard-response","202","538616","0.0-109.0-1.0","""event"",""trial"",""time""
""fullscreenenter"",""0"",""11451""
","
","
","""event"",""trial"",""time""
""fullscreenenter"",""0"",""11451""
","
","null","<p></p>","null","","","","","","","","","","","","","","","","","","","","","","","",""
"","do_trial","203","541749","0.0-110.0-0.0","""event"",""trial"",""time""
""fullscreenenter"",""0"",""11451""
","
","
","""event"",""trial"",""time""
""fullscreenenter"",""0"",""11451""
","
","570.0999999642372","","","","","","","","49","0,1,1","6","blank","321","null","0.6103466303060106","0.2047960984668901","0.4466258945916451","0","","","","","","","","",""
"","html-keyboard-response","204","542756","0.0-110.0-1.0","""event"",""trial"",""time""
""fullscreenenter"",""0"",""11451""
","
","
","""event"",""trial"",""time""
""fullscreenenter"",""0"",""11451""
","
","null","<p></p>","null","","","","","","","","","","","","","","","","","","","","","","","",""
"","do_trial","205","545528","0.0-111.0-0.0","""event"",""trial"",""time""
""fullscreenenter"",""0"",""11451""
","
","
","""event"",""trial"",""time""
""fullscreenenter"",""0"",""11451""
","
","215.5","","","","","","","","49","0,1,1","6","blank","322","null","0.6881131561697788","0.35191567278608815","0.2806755500315501","0","","","","","","","","",""
"","html-keyboard-response","206","546533","0.0-111.0-1.0","""event"",""trial"",""time""
""fullscreenenter"",""0"",""11451""
","
","
","""event"",""trial"",""time""
""fullscreenenter"",""0"",""11451""
","
","null","<p></p>","null","","","","","","","","","","","","","","","","","","","","","","","",""
"","do_trial","207","549197","0.0-112.0-0.0","""event"",""trial"",""time""
""fullscreenenter"",""0"",""11451""
","
","
","""event"",""trial"",""time""
""fullscreenenter"",""0"",""11451""
","
","114.60000002384186","","","","","","","","50","0,1,0","6","blank","323","null","0.7293380602449148","0.22280320977709817","0.27914550721374887","1","","","","","","","","",""
"","html-keyboard-response","208","550207","0.0-112.0-1.0","""event"",""trial"",""time""
""fullscreenenter"",""0"",""11451""
","
","
","""event"",""trial"",""time""
""fullscreenenter"",""0"",""11451""
","
","null","<p></p>","null","","","","","","","","","","","","","","","","","","","","","","","",""
"","do_recog","209","553331","0.0-113.0-0.0","""event"",""trial"",""time""
""fullscreenenter"",""0"",""11451""
","
","
","""event"",""trial"",""time""
""fullscreenenter"",""0"",""11451""
","
","1617","","","","","","","","53","","","","324","probe-142","","","","","1","[object Object]","158","3","1","","","",""
"","html-keyboard-response","210","554338","0.0-113.0-1.0","""event"",""trial"",""time""
""fullscreenenter"",""0"",""11451""
","
","
","""event"",""trial"",""time""
""fullscreenenter"",""0"",""11451""
","
","null","<p></p>","null","","","","","","","","","","","","","","","","","","","","","","","",""
"","do_trial","211","558794","0.0-114.0-0.0","""event"",""trial"",""time""
""fullscreenenter"",""0"",""11451""
","
","
","""event"",""trial"",""time""
""fullscreenenter"",""0"",""11451""
","
","1901.5","","","","","","","","51","1,0,0","6","blank","325","null","0.6276767463958375","0.09448148561451372","0.24297312791288406","0","","","","","","","","",""
"","html-keyboard-response","212","559801","0.0-114.0-1.0","""event"",""trial"",""time""
""fullscreenenter"",""0"",""11451""
","
","
","""event"",""trial"",""time""
""fullscreenenter"",""0"",""11451""
","
","null","<p></p>","null","","","","","","","","","","","","","","","","","","","","","","","",""
"","do_trial","213","562368","0.0-115.0-0.0","""event"",""trial"",""time""
""fullscreenenter"",""0"",""11451""
","
","
","""event"",""trial"",""time""
""fullscreenenter"",""0"",""11451""
","
","18.399999976158142","","","","","","","","50","1,0,0","6","blank","326","null","0.5431823147268475","0.05614068833792157","0.20360466855701975","0","","","","","","","","",""
"","html-keyboard-response","214","563377","0.0-115.0-1.0","""event"",""trial"",""time""
""fullscreenenter"",""0"",""11451""
","
","
","""event"",""trial"",""time""
""fullscreenenter"",""0"",""11451""
","
","null","<p></p>","null","","","","","","","","","","","","","","","","","","","","","","","",""
"","do_recog","215","566421","0.0-116.0-0.0","""event"",""trial"",""time""
""fullscreenenter"",""0"",""11451""
","
","
","""event"",""trial"",""time""
""fullscreenenter"",""0"",""11451""
","
","1529.699999988079","","","","","","","","53","","","","327","probe-168","","","","","1","[object Object]","191","4","1","","","",""
"","html-keyboard-response","216","567431","0.0-116.0-1.0","""event"",""trial"",""time""
""fullscreenenter"",""0"",""11451""
","
","
","""event"",""trial"",""time""
""fullscreenenter"",""0"",""11451""
","
","null","<p></p>","null","","","","","","","","","","","","","","","","","","","","","","","",""
"","do_trial","217","570664","0.0-117.0-0.0","""event"",""trial"",""time""
""fullscreenenter"",""0"",""11451""
","
","
","""event"",""trial"",""time""
""fullscreenenter"",""0"",""11451""
","
","677.3999999761581","","","","","","","","49","1,0,0","6","blank","328","null","0.6759362753390213","0.15308900793801916","0.17409179079290676","1","","","","","","","","",""
"","html-keyboard-response","218","571672","0.0-117.0-1.0","""event"",""trial"",""time""
""fullscreenenter"",""0"",""11451""
","
","
","""event"",""trial"",""time""
""fullscreenenter"",""0"",""11451""
","
","null","<p></p>","null","","","","","","","","","","","","","","","","","","","","","","","",""
"","do_trial","219","574633","0.0-118.0-0.0","""event"",""trial"",""time""
""fullscreenenter"",""0"",""11451""
","
","
","""event"",""trial"",""time""
""fullscreenenter"",""0"",""11451""
","
","410.5","","","","","","","","49","1,0,1","6","blank","329","null","0.7091603577078465","0.0881260667248101","0.3096348880642296","1","","","","","","","","",""
"","html-keyboard-response","220","575641","0.0-118.0-1.0","""event"",""trial"",""time""
""fullscreenenter"",""0"",""11451""
","
","
","""event"",""trial"",""time""
""fullscreenenter"",""0"",""11451""
","
","null","<p></p>","null","","","","","","","","","","","","","","","","","","","","","","","",""
"","do_recog","221","579221","0.0-119.0-0.0","""event"",""trial"",""time""
""fullscreenenter"",""0"",""11451""
","
","
","""event"",""trial"",""time""
""fullscreenenter"",""0"",""11451""
","
","2062.599999964237","","","","","","","","55","","","","330","probe-252","","","","","0","[object Object]","null","null","1","","","",""
"","html-keyboard-response","222","580229","0.0-119.0-1.0","""event"",""trial"",""time""
""fullscreenenter"",""0"",""11451""
","
","
","""event"",""trial"",""time""
""fullscreenenter"",""0"",""11451""
","
","null","<p></p>","null","","","","","","","","","","","","","","","","","","","","","","","",""
"","do_trial","223","583349","0.0-120.0-0.0","""event"",""trial"",""time""
""fullscreenenter"",""0"",""11451""
","
","
","""event"",""trial"",""time""
""fullscreenenter"",""0"",""11451""
","
","563.1999999880791","","","","","","","","49","0,0,0","6","blank","331","null","0.6768603682493856","0.06547067723056767","0.2858424823648103","0","","","","","","","","",""
"","html-keyboard-response","224","584358","0.0-120.0-1.0","""event"",""trial"",""time""
""fullscreenenter"",""0"",""11451""
","
","
","""event"",""trial"",""time""
""fullscreenenter"",""0"",""11451""
","
","null","<p></p>","null","","","","","","","","","","","","","","","","","","","","","","","",""
"","do_recog","225","588082","0.0-121.0-0.0","""event"",""trial"",""time""
""fullscreenenter"",""0"",""11451""
","
","
","""event"",""trial"",""time""
""fullscreenenter"",""0"",""11451""
","
","2209.800000011921","","","","","","","","55","","","","332","probe-175","","","","","1","[object Object]","198","4","0","","","",""
"","html-keyboard-response","226","589092","0.0-121.0-1.0","""event"",""trial"",""time""
""fullscreenenter"",""0"",""11451""
","
","
","""event"",""trial"",""time""
""fullscreenenter"",""0"",""11451""
","
","null","<p></p>","null","","","","","","","","","","","","","","","","","","","","","","","",""
"","do_trial","227","592122","0.0-122.0-0.0","""event"",""trial"",""time""
""fullscreenenter"",""0"",""11451""
","
","
","""event"",""trial"",""time""
""fullscreenenter"",""0"",""11451""
","
","479.7000000476837","","","","","","","","49","1,0,0","6","blank","333","null","0.4515684609394947","0.21733185144319017","0.43324743672613486","1","","","","","","","","",""
"","html-keyboard-response","228","593128","0.0-122.0-1.0","""event"",""trial"",""time""
""fullscreenenter"",""0"",""11451""
","
","
","""event"",""trial"",""time""
""fullscreenenter"",""0"",""11451""
","
","null","<p></p>","null","","","","","","","","","","","","","","","","","","","","","","","",""
"","do_recog","229","596579","0.0-123.0-0.0","""event"",""trial"",""time""
""fullscreenenter"",""0"",""11451""
","
","
","""event"",""trial"",""time""
""fullscreenenter"",""0"",""11451""
","
","1938","","","","","","","","53","","","","334","probe-200","","","","","1","[object Object]","156","3","1","","","",""
"","html-keyboard-response","230","597587","0.0-123.0-1.0","""event"",""trial"",""time""
""fullscreenenter"",""0"",""11451""
","
","
","""event"",""trial"",""time""
""fullscreenenter"",""0"",""11451""
","
","null","<p></p>","null","","","","","","","","","","","","","","","","","","","","","","","",""
"","do_trial","231","600938","0.0-124.0-0.0","""event"",""trial"",""time""
""fullscreenenter"",""0"",""11451""
","
","
","""event"",""trial"",""time""
""fullscreenenter"",""0"",""11451""
","
","792.0999999642372","","","","","","","","49","0,0,0","6","blank","335","null","0.6183484615584895","0.24830891448609924","0.291809135033618","0","","","","","","","","",""
"","html-keyboard-response","232","601949","0.0-124.0-1.0","""event"",""trial"",""time""
""fullscreenenter"",""0"",""11451""
","
","
","""event"",""trial"",""time""
""fullscreenenter"",""0"",""11451""
","
","null","<p></p>","null","","","","","","","","","","","","","","","","","","","","","","","",""
"","do_trial","233","604768","0.0-125.0-0.0","""event"",""trial"",""time""
""fullscreenenter"",""0"",""11451""
","
","
","""event"",""trial"",""time""
""fullscreenenter"",""0"",""11451""
","
","270.4000000357628","","","","","","","","50","1,1,1","6","blank","336","null","0.5079424981596036","0.20633257055101062","0.2544319641384826","1","","","","","","","","",""
"","html-keyboard-response","234","605777","0.0-125.0-1.0","""event"",""trial"",""time""
""fullscreenenter"",""0"",""11451""
","
","
","""event"",""trial"",""time""
""fullscreenenter"",""0"",""11451""
","
","null","<p></p>","null","","","","","","","","","","","","","","","","","","","","","","","",""
"","do_trial","235","608738","0.0-126.0-0.0","""event"",""trial"",""time""
""fullscreenenter"",""0"",""11451""
","
","
","""event"",""trial"",""time""
""fullscreenenter"",""0"",""11451""
","
","407.5","","","","","","","","50","0,0,1","6","blank","337","null","0.5255157685949235","0.13127833482137027","0.32375062343149824","0","","","","","","","","",""
"","html-keyboard-response","236","609749","0.0-126.0-1.0","""event"",""trial"",""time""
""fullscreenenter"",""0"",""11451""
","
","
","""event"",""trial"",""time""
""fullscreenenter"",""0"",""11451""
","
","null","<p></p>","null","","","","","","","","","","","","","","","","","","","","","","","",""
"","do_trial","237","612632","0.0-127.0-0.0","""event"",""trial"",""time""
""fullscreenenter"",""0"",""11451""
","
","
","""event"",""trial"",""time""
""fullscreenenter"",""0"",""11451""
","
","334.0999999642372","","","","","","","","51","1,0,0","6","blank","338","null","0.5867959130134652","0.1775291582948032","0.3737386955219978","0","","","","","","","","",""
"","html-keyboard-response","238","613641","0.0-127.0-1.0","""event"",""trial"",""time""
""fullscreenenter"",""0"",""11451""
","
","
","""event"",""trial"",""time""
""fullscreenenter"",""0"",""11451""
","
","null","<p></p>","null","","","","","","","","","","","","","","","","","","","","","","","",""
"","do_recog","239","617608","0.0-128.0-0.0","""event"",""trial"",""time""
""fullscreenenter"",""0"",""11451""
","
","
","""event"",""trial"",""time""
""fullscreenenter"",""0"",""11451""
","
","2461.400000035763","","","","","","","","54","","","","339","probe-206","","","","","1","[object Object]","196","4","1","","","",""
"","html-keyboard-response","240","618616","0.0-128.0-1.0","""event"",""trial"",""time""
""fullscreenenter"",""0"",""11451""
","
","
","""event"",""trial"",""time""
""fullscreenenter"",""0"",""11451""
","
","null","<p></p>","null","","","","","","","","","","","","","","","","","","","","","","","",""
"","do_trial","241","621723","0.0-129.0-0.0","""event"",""trial"",""time""
""fullscreenenter"",""0"",""11451""
","
","
","""event"",""trial"",""time""
""fullscreenenter"",""0"",""11451""
","
","550.8999999761581","","","","","","","","49","0,1,0","6","blank","340","null","0.5430987344157291","0.1444204437837654","0.35101564055120704","0","","","","","","","","",""
"","html-keyboard-response","242","622732","0.0-129.0-1.0","""event"",""trial"",""time""
""fullscreenenter"",""0"",""11451""
","
","
","""event"",""trial"",""time""
""fullscreenenter"",""0"",""11451""
","
","null","<p></p>","null","","","","","","","","","","","","","","","","","","","","","","","",""
"","do_trial","243","625503","0.0-130.0-0.0","""event"",""trial"",""time""
""fullscreenenter"",""0"",""11451""
","
","
","""event"",""trial"",""time""
""fullscreenenter"",""0"",""11451""
","
","224.9000000357628","","","","","","","","50","0,0,0","6","blank","341","null","0.6248662672163616","0.07990417301736776","0.39172823570530396","0","","","","","","","","",""
"","html-keyboard-response","244","626509","0.0-130.0-1.0","""event"",""trial"",""time""
""fullscreenenter"",""0"",""11451""
","
","
","""event"",""trial"",""time""
""fullscreenenter"",""0"",""11451""
","
","null","<p></p>","null","","","","","","","","","","","","","","","","","","","","","","","",""
"","do_trial","245","629315","0.0-131.0-0.0","""event"",""trial"",""time""
""fullscreenenter"",""0"",""11451""
","
","
","""event"",""trial"",""time""
""fullscreenenter"",""0"",""11451""
","
","252.4000000357628","","","","","","","","51","1,0,1","6","blank","342","null","0.689451047570599","0.19751658348369622","0.4692195113350457","1","","","","","","","","",""
"","html-keyboard-response","246","630322","0.0-131.0-1.0","""event"",""trial"",""time""
""fullscreenenter"",""0"",""11451""
","
","
","""event"",""trial"",""time""
""fullscreenenter"",""0"",""11451""
","
","null","<p></p>","null","","","","","","","","","","","","","","","","","","","","","","","",""
"","do_recog","247","634011","0.0-132.0-0.0","""event"",""trial"",""time""
""fullscreenenter"",""0"",""11451""
","
","
","""event"",""trial"",""time""
""fullscreenenter"",""0"",""11451""
","
","2173.400000035763","","","","","","","","55","","","","343","probe-77","","","","","1","[object Object]","192","4","0","","","",""
"","html-keyboard-response","248","635018","0.0-132.0-1.0","""event"",""trial"",""time""
""fullscreenenter"",""0"",""11451""
","
","
","""event"",""trial"",""time""
""fullscreenenter"",""0"",""11451""
","
","null","<p></p>","null","","","","","","","","","","","","","","","","","","","","","","","",""
"","do_trial","249","638164","0.0-133.0-0.0","""event"",""trial"",""time""
""fullscreenenter"",""0"",""11451""
","
","
","""event"",""trial"",""time""
""fullscreenenter"",""0"",""11451""
","
","591.8000000119209","","","","","","","","51","0,0,1","6","blank","344","null","0.5995810377531342","0.2523486956816378","0.38405131956390337","1","","","","","","","","",""
"","html-keyboard-response","250","639172","0.0-133.0-1.0","""event"",""trial"",""time""
""fullscreenenter"",""0"",""11451""
","
","
","""event"",""trial"",""time""
""fullscreenenter"",""0"",""11451""
","
","null","<p></p>","null","","","","","","","","","","","","","","","","","","","","","","","",""
"","do_recog","251","642516","0.0-134.0-0.0","""event"",""trial"",""time""
""fullscreenenter"",""0"",""11451""
","
","
","""event"",""trial"",""time""
""fullscreenenter"",""0"",""11451""
","
","1830.4000000357628","","","","","","","","55","","","","345","probe-188","","","","","1","[object Object]","151","3","0","","","",""
"","html-keyboard-response","252","643523","0.0-134.0-1.0","""event"",""trial"",""time""
""fullscreenenter"",""0"",""11451""
","
","
","""event"",""trial"",""time""
""fullscreenenter"",""0"",""11451""
","
","null","<p></p>","null","","","","","","","","","","","","","","","","","","","","","","","",""
"","do_trial","253","646609","0.0-135.0-0.0","""event"",""trial"",""time""
""fullscreenenter"",""0"",""11451""
","
","
","""event"",""trial"",""time""
""fullscreenenter"",""0"",""11451""
","
","534.5999999642372","","","","","","","","51","1,0,0","6","blank","346","null","0.6047018442746475","0.09075583474266137","0.19581798120192379","0","","","","","","","","",""
"","html-keyboard-response","254","647618","0.0-135.0-1.0","""event"",""trial"",""time""
""fullscreenenter"",""0"",""11451""
","
","
","""event"",""trial"",""time""
""fullscreenenter"",""0"",""11451""
","
","null","<p></p>","null","","","","","","","","","","","","","","","","","","","","","","","",""
"","do_trial","255","650473","0.0-136.0-0.0","""event"",""trial"",""time""
""fullscreenenter"",""0"",""11451""
","
","
","""event"",""trial"",""time""
""fullscreenenter"",""0"",""11451""
","
","303","","","","","","","","49","0,0,0","6","blank","347","null","0.6124993962345381","0.1644566634831164","0.247232562236058","0","","","","","","","","",""
"","html-keyboard-response","256","651480","0.0-136.0-1.0","""event"",""trial"",""time""
""fullscreenenter"",""0"",""11451""
","
","
","""event"",""trial"",""time""
""fullscreenenter"",""0"",""11451""
","
","null","<p></p>","null","","","","","","","","","","","","","","","","","","","","","","","",""
"","do_trial","257","654290","0.0-137.0-0.0","""event"",""trial"",""time""
""fullscreenenter"",""0"",""11451""
","
","
","""event"",""trial"",""time""
""fullscreenenter"",""0"",""11451""
","
","259.39999997615814","","","","","","","","50","1,0,0","6","blank","348","null","0.5840256663650712","0.06918997693568116","0.21631119982531088","0","","","","","","","","",""
"","html-keyboard-response","258","655299","0.0-137.0-1.0","""event"",""trial"",""time""
""fullscreenenter"",""0"",""11451""
","
","
","""event"",""trial"",""time""
""fullscreenenter"",""0"",""11451""
","
","null","<p></p>","null","","","","","","","","","","","","","","","","","","","","","","","",""
"","break","259","656273","0.0-138.0-0.0","""event"",""trial"",""time""
""fullscreenenter"",""0"",""11451""
","
","
","""event"",""trial"",""time""
""fullscreenenter"",""0"",""11451""
","
","973.3999999761581","<div class='center'><p>Time to take a quick break! You have 2 minutes to rest, but you can move on sooner if you'd like.</p><p> Press the <b>space bar</b> to continue.</p></div>","32","","","","","","","","","","","","","","","","","","","","","","","",""
"","do_trial","260","659393","0.0-138.0-1.0","""event"",""trial"",""time""
""fullscreenenter"",""0"",""11451""
","
","
","""event"",""trial"",""time""
""fullscreenenter"",""0"",""11451""
","
","572.2999999523163","","","","","","","","51","1,0,1","6","blank","349","null","0.6847602681443019","0.06390290808395606","0.18154458856277214","1","","","","","","","","",""
"","html-keyboard-response","261","660401","0.0-138.0-2.0","""event"",""trial"",""time""
""fullscreenenter"",""0"",""11451""
","
","
","""event"",""trial"",""time""
""fullscreenenter"",""0"",""11451""
","
","null","<p></p>","null","","","","","","","","","","","","","","","","","","","","","","","",""
"","do_trial","262","663343","0.0-139.0-0.0","""event"",""trial"",""time""
""fullscreenenter"",""0"",""11451""
","
","
","""event"",""trial"",""time""
""fullscreenenter"",""0"",""11451""
","
","389.0999999642372","","","","","","","","51","0,0,1","6","blank","350","null","0.5337199775088423","0.05935091257722976","0.4035826486851049","1","","","","","","","","",""
"","html-keyboard-response","263","664352","0.0-139.0-1.0","""event"",""trial"",""time""
""fullscreenenter"",""0"",""11451""
","
","
","""event"",""trial"",""time""
""fullscreenenter"",""0"",""11451""
","
","null","<p></p>","null","","","","","","","","","","","","","","","","","","","","","","","",""
"","do_recog","264","667360","0.0-140.0-0.0","""event"",""trial"",""time""
""fullscreenenter"",""0"",""11451""
","
","
","""event"",""trial"",""time""
""fullscreenenter"",""0"",""11451""
","
","1502.0999999642372","","","","","","","","53","","","","351","probe-13","","","","","1","[object Object]","72","1","1","","","",""
"","html-keyboard-response","265","668364","0.0-140.0-1.0","""event"",""trial"",""time""
""fullscreenenter"",""0"",""11451""
","
","
","""event"",""trial"",""time""
""fullscreenenter"",""0"",""11451""
","
","null","<p></p>","null","","","","","","","","","","","","","","","","","","","","","","","",""
"","do_trial","266","671532","0.0-141.0-0.0","""event"",""trial"",""time""
""fullscreenenter"",""0"",""11451""
","
","
","""event"",""trial"",""time""
""fullscreenenter"",""0"",""11451""
","
","616.2000000476837","","","","","","","","51","0,0,1","6","blank","352","null","0.34358428883408804","0.1200564568539621","0.5272183561760118","1","","","","","","","","",""
"","html-keyboard-response","267","672540","0.0-141.0-1.0","""event"",""trial"",""time""
""fullscreenenter"",""0"",""11451""
","
","
","""event"",""trial"",""time""
""fullscreenenter"",""0"",""11451""
","
","null","<p></p>","null","","","","","","","","","","","","","","","","","","","","","","","",""
"","do_trial","268","675505","0.0-142.0-0.0","""event"",""trial"",""time""
""fullscreenenter"",""0"",""11451""
","
","
","""event"",""trial"",""time""
""fullscreenenter"",""0"",""11451""
","
","404.60000002384186","","","","","","","","51","1,1,1","6","blank","353","null","0.3461079302428927","0.20348474740303446","0.6632030085198025","1","","","","","","","","",""
"","html-keyboard-response","269","676515","0.0-142.0-1.0","""event"",""trial"",""time""
""fullscreenenter"",""0"",""11451""
","
","
","""event"",""trial"",""time""
""fullscreenenter"",""0"",""11451""
","
","null","<p></p>","null","","","","","","","","","","","","","","","","","","","","","","","",""
"","do_trial","270","679491","0.0-143.0-0.0","""event"",""trial"",""time""
""fullscreenenter"",""0"",""11451""
","
","
","""event"",""trial"",""time""
""fullscreenenter"",""0"",""11451""
","
","422","","","","","","","","51","0,0,0","6","blank","354","null","0.3743047498796976","0.1496717256055627","0.6339672223882012","0","","","","","","","","",""
"","html-keyboard-response","271","680500","0.0-143.0-1.0","""event"",""trial"",""time""
""fullscreenenter"",""0"",""11451""
","
","
","""event"",""trial"",""time""
""fullscreenenter"",""0"",""11451""
","
","null","<p></p>","null","","","","","","","","","","","","","","","","","","","","","","","",""
"","do_trial","272","683463","0.0-144.0-0.0","""event"",""trial"",""time""
""fullscreenenter"",""0"",""11451""
","
","
","""event"",""trial"",""time""
""fullscreenenter"",""0"",""11451""
","
","396.69999998807907","","","","","","","","50","0,0,1","6","blank","355","null","0.3756181464342568","0.10894606567665693","0.6849447579023931","0","","","","","","","","",""
"","html-keyboard-response","273","684472","0.0-144.0-1.0","""event"",""trial"",""time""
""fullscreenenter"",""0"",""11451""
","
","
","""event"",""trial"",""time""
""fullscreenenter"",""0"",""11451""
","
","null","<p></p>","null","","","","","","","","","","","","","","","","","","","","","","","",""
"","do_recog","274","688193","0.0-145.0-0.0","""event"",""trial"",""time""
""fullscreenenter"",""0"",""11451""
","
","
","""event"",""trial"",""time""
""fullscreenenter"",""0"",""11451""
","
","2213.400000035763","","","","","","","","55","","","","356","probe-115","","","","","1","[object Object]","157","3","0","","","",""
"","html-keyboard-response","275","689203","0.0-145.0-1.0","""event"",""trial"",""time""
""fullscreenenter"",""0"",""11451""
","
","
","""event"",""trial"",""time""
""fullscreenenter"",""0"",""11451""
","
","null","<p></p>","null","","","","","","","","","","","","","","","","","","","","","","","",""
