success,trial_type,trial_index,time_elapsed,internal_node_id,rt,stimulus,subject_id,key_press,response,choice_outcomes,context_n,context_img_id,trial_n,probe_img_id,pR_red,pR_white,pR_black,outcome,is_valid,image_to_show,probed_trial,probed_context,correct,context_id
TRUE,fullscreen,0,5126,0.0-0.0,,,,,,,,,,,,,,,,,,,,
,pavlovia,1,5128,0.0-1.0,,,,,,,,,,,,,,,,,,,,
,html-keyboard-response,2,36997,0.0-2.0,31868.8,"<div class='center'><p>Like yesterday,as the head captain of the ship, you have one important things to do: </p><b><p> Pick the pirate who you think will be most successful at robbing the next ship.</p></b><p>This is important in determining how much bonus money you’ll win.</p><br><p>The game will start by showing you the pirates. First pick a pirate using the <b> 1, 2, 3 </b> buttons on your keyboard. </p><p> Press <b>'1'</b> to choose red beard, <b>'2'</b> to choose white beard, and <b>'3'</b> to choose black beard</p><p> You only have 3 seconds to pick a pirate, so please make a choice quickly! If you are too slow, you’ll have to wait a bit during the time out.</p><p> Don’t feel rushed, but please do try to make a choice every time.</p><p>How good a pirate is at robbing a ship will change depending on the place they are in and how good the defenses are of the ship.</p><p><b>[Press the space bar to begin the practice game]</b></p></div>",60fd6697546be8a6eb141693,32,,,,,,,,,,,,,,,,
,html-keyboard-response,3,81491,0.0-3.0,44496.2,"<div class='center'><p>You’ve arrived at the final island of your journey! Unfortunately, it’s very foggy out, so you won’t be able to see it in the distance like the previous islands you've visited.</p><p>You’ll still be deciding which pirate you want to rob a ship like before. However, because of the fog, you also won’t be able to see the ship.</p><p>This means you do not have to remember the ships you rob on this island.</p><p><b>[Press the space bar to continue]</b></p></div>",,32,,,,,,,,,,,,,,,,
,html-keyboard-response,4,96619,0.0-4.0,15127.2,"<div class='center'><p> Sometimes you’ll be shown a ship, and you will be asked if you saw this ship on a past island.</p><p> Here is an example of what you will see.</p><p><b>[Press the space bar to continue]</b></p><p><img src='run_exp/static/images/tutorial/example_recog_trial.png' height='500'></p></div>",,32,,,,,,,,,,,,,,,,
,html-keyboard-response,5,106321,0.0-5.0,9702.2,"<div class='center'><p> You will press the 5, 6, 7, 8 buttons on your keyboard to respond.</p><p>If you are very sure saw the ship, press <b>5</b> on your keyboard.</p><p> If you think you  saw it before but are not sure, then press <b>6</b>.</p><p> If you think you have not seen it before but are not sure, then press <b>7</b>.</p><p> If you are sure you did not see the ship before, then press <b>8</b>.</p><p><b>[Press the space bar to continue]</b></p><p><img src='run_exp/static/images/tutorial/example_recog_trial.png' height='500'></p></div>",,32,,,,,,,,,,,,,,,,
,html-keyboard-response,6,125418,0.0-6.0,19097,"<div class='center'><p> If you remember correctly, then you’ll get a gold coin like this: </p><p><img src='run_exp/static/images/tutorial/reward_small.png' height='200'></p><p>If you do not remember correctly, then you'll see a red x like this: </p><p><img src='run_exp/static/images/tutorial/reward_no.png' height='200'></p><p>Importantly, when you are shown a ship, take the time to remind yourself which island you saw it on. This will help you in the next part of the study.</p><p><b>[Press the space bar to continue]</b></p></div>",,32,,,,,,,,,,,,,,,,
,html-keyboard-response,7,140520,0.0-7.0,15102.2,"<div class='center'><p>Let's go over the important points again. Your job is to: </p><p>1. Pick the pirate who is best at robbing ships and will bring you back gold coins. </p><p>2. Correctly remember whether or not you saw a ship before. If you did see the ship before, remind yourself on which island you saw the ship. </p><p><b>[Press the space bar to begin the next part of the study]</b></p></div>",,32,,,,,,,,,,,,,,,,
,do_welcome,8,142031,0.0-8.0,null,,,,null,,,,,,,,,,,,,,,
,do_trial,9,146053,0.0-9.0-0.0,1477,,,,49,"1,0,1",6,blank,230,null,0.480354117,0.117141443,0.296567787,1,,,,,,
,html-keyboard-response,10,147058,0.0-9.0-1.0,null,<p></p>,,null,,,,,,,,,,,,,,,,
,do_trial,11,150645,0.0-10.0-0.0,1046,,,,49,"1,0,1",6,blank,231,null,0.522532268,0.167181774,0.34531025,1,,,,,,
,html-keyboard-response,12,151648,0.0-10.0-1.0,null,<p></p>,,null,,,,,,,,,,,,,,,,
,do_trial,13,154533,0.0-11.0-0.0,345.3000002,,,,49,"0,0,0",6,blank,232,null,0.553103116,0.099304787,0.318926118,0,,,,,,
,html-keyboard-response,14,155535,0.0-11.0-1.0,null,<p></p>,,null,,,,,,,,,,,,,,,,
,do_trial,15,158607,0.0-12.0-0.0,530.0999999,,,,49,"0,0,0",6,blank,233,null,0.663205519,0.069030255,0.330003536,0,,,,,,
,html-keyboard-response,16,159613,0.0-12.0-1.0,null,<p></p>,,null,,,,,,,,,,,,,,,,
,do_trial,17,162504,0.0-13.0-0.0,346.8000002,,,,51,"0,0,0",6,blank,234,null,0.627160241,0.067836971,0.254697438,0,,,,,,
,html-keyboard-response,18,163508,0.0-13.0-1.0,null,<p></p>,,null,,,,,,,,,,,,,,,,
,do_trial,19,166340,0.0-14.0-0.0,292.6999998,,,,50,"1,0,0",6,blank,235,null,0.820316329,0.205843936,0.393810647,0,,,,,,
,html-keyboard-response,20,167345,0.0-14.0-1.0,null,<p></p>,,null,,,,,,,,,,,,,,,,
,do_trial,21,170172,0.0-15.0-0.0,286.3999996,,,,49,"0,0,0",6,blank,236,null,0.739113825,0.335273817,0.273903768,0,,,,,,
,html-keyboard-response,22,171176,0.0-15.0-1.0,null,<p></p>,,null,,,,,,,,,,,,,,,,
,do_trial,23,173943,0.0-16.0-0.0,222.9000001,,,,49,"0,0,0",6,blank,237,null,0.79917574,0.22120151,0.248721063,0,,,,,,
,html-keyboard-response,24,174949,0.0-16.0-1.0,null,<p></p>,,null,,,,,,,,,,,,,,,,
,do_trial,25,177759,0.0-17.0-0.0,268.6999998,,,,51,"1,0,0",6,blank,238,null,0.796588892,0.166139,0.304692872,0,,,,,,
,html-keyboard-response,26,178763,0.0-17.0-1.0,null,<p></p>,,null,,,,,,,,,,,,,,,,
,do_trial,27,181478,0.0-18.0-0.0,170.3000002,,,,51,"1,0,0",6,blank,239,null,0.754580716,0.249208374,0.324942733,0,,,,,,
,html-keyboard-response,28,182483,0.0-18.0-1.0,null,<p></p>,,null,,,,,,,,,,,,,,,,
,do_trial,29,185116,0.0-19.0-0.0,91.20000029,,,,50,"1,1,0",6,blank,240,null,0.843925617,0.136337164,0.229733729,1,,,,,,
,html-keyboard-response,30,186121,0.0-19.0-1.0,null,<p></p>,,null,,,,,,,,,,,,,,,,
,do_recog,31,192131,0.0-20.0-0.0,null,,,,null,,,,241,probe-196,,,,,1,[object Object],206,5,0,
,html-keyboard-response,32,193135,0.0-20.0-1.0,null,<p></p>,,null,,,,,,,,,,,,,,,,
,do_trial,33,196525,0.0-21.0-0.0,848,,,,49,"1,0,1",6,blank,242,null,0.883600126,0.225011478,0.232921225,1,,,,,,
,html-keyboard-response,34,197529,0.0-21.0-1.0,null,<p></p>,,null,,,,,,,,,,,,,,,,
,do_trial,35,200603,0.0-22.0-0.0,534.9000001,,,,49,"0,0,0",6,blank,243,null,0.627030375,0.252687152,0.303919103,0,,,,,,
,html-keyboard-response,36,201608,0.0-22.0-1.0,null,<p></p>,,null,,,,,,,,,,,,,,,,
,do_recog,37,205547,0.0-23.0-0.0,2430.2,,,,55,,,,244,probe-227,,,,,1,[object Object],167,4,0,
,html-keyboard-response,38,206550,0.0-23.0-1.0,null,<p></p>,,null,,,,,,,,,,,,,,,,
,do_trial,39,211083,0.0-24.0-0.0,1993.1,,,,49,"0,0,0",6,blank,245,null,0.384535273,0.293191517,0.488393272,0,,,,,,
,html-keyboard-response,40,212089,0.0-24.0-1.0,null,<p></p>,,null,,,,,,,,,,,,,,,,
,do_recog,41,215402,0.0-25.0-0.0,1806,,,,56,,,,246,probe-94,,,,,1,[object Object],47,1,0,
,html-keyboard-response,42,216407,0.0-25.0-1.0,null,<p></p>,,null,,,,,,,,,,,,,,,,
,do_trial,43,219901,0.0-26.0-0.0,950.1999998,,,,50,"1,0,1",6,blank,247,null,0.407824489,0.213587557,0.536694443,0,,,,,,
,html-keyboard-response,44,220904,0.0-26.0-1.0,null,<p></p>,,null,,,,,,,,,,,,,,,,
,do_recog,45,223674,0.0-27.0-0.0,1263.4,,,,56,,,,248,probe-129,,,,,1,[object Object],127,3,0,
,html-keyboard-response,46,224678,0.0-27.0-1.0,null,<p></p>,,null,,,,,,,,,,,,,,,,
,do_trial,47,227954,0.0-28.0-0.0,733.7999997,,,,50,"0,0,1",6,blank,249,null,0.271150135,0.215340667,0.698602385,0,,,,,,
,html-keyboard-response,48,228956,0.0-28.0-1.0,null,<p></p>,,null,,,,,,,,,,,,,,,,
,do_recog,49,231400,0.0-29.0-0.0,938.3000002,,,,53,,,,250,probe-110,,,,,1,[object Object],80,2,1,
,html-keyboard-response,50,232404,0.0-29.0-1.0,null,<p></p>,,null,,,,,,,,,,,,,,,,
,do_trial,51,235394,0.0-30.0-0.0,448.8000002,,,,49,"1,1,0",6,blank,251,null,0.339932781,0.179943175,0.668830035,1,,,,,,
,html-keyboard-response,52,236397,0.0-30.0-1.0,null,<p></p>,,null,,,,,,,,,,,,,,,,
,do_trial,53,239556,0.0-31.0-0.0,615,,,,49,"1,0,0",6,blank,252,null,0.267846914,0.179191973,0.722032307,1,,,,,,
,html-keyboard-response,54,240561,0.0-31.0-1.0,null,<p></p>,,null,,,,,,,,,,,,,,,,
,do_trial,55,243555,0.0-32.0-0.0,453.1999998,,,,49,"1,0,1",6,blank,253,null,0.262541779,0.103385479,0.696727263,1,,,,,,
,html-keyboard-response,56,244560,0.0-32.0-1.0,null,<p></p>,,null,,,,,,,,,,,,,,,,
,do_recog,57,248187,0.0-33.0-0.0,2117,,,,53,,,,254,probe-248,,,,,0,[object Object],null,null,0,
,html-keyboard-response,58,249191,0.0-33.0-1.0,null,<p></p>,,null,,,,,,,,,,,,,,,,
,do_trial,59,252043,0.0-34.0-0.0,307.8000002,,,,49,"0,0,1",6,blank,255,null,0.190938073,0.053154022,0.605125886,0,,,,,,
,html-keyboard-response,60,253047,0.0-34.0-1.0,null,<p></p>,,null,,,,,,,,,,,,,,,,
,do_trial,61,255617,0.0-35.0-0.0,27.0999999,,,,49,"0,0,1",6,blank,256,null,0.251667482,0.088913092,0.534398186,0,,,,,,
,html-keyboard-response,62,256623,0.0-35.0-1.0,null,<p></p>,,null,,,,,,,,,,,,,,,,
,do_trial,63,259600,0.0-36.0-0.0,438,,,,50,"0,0,0",6,blank,257,null,0.319334014,0.055638155,0.629352054,0,,,,,,
,html-keyboard-response,64,260603,0.0-36.0-1.0,null,<p></p>,,null,,,,,,,,,,,,,,,,
,do_recog,65,263768,0.0-37.0-0.0,1657.5,,,,56,,,,258,probe-138,,,,,1,[object Object],88,2,0,
,html-keyboard-response,66,264771,0.0-37.0-1.0,null,<p></p>,,null,,,,,,,,,,,,,,,,
,do_trial,67,267848,0.0-38.0-0.0,534.6999998,,,,50,"0,0,0",6,blank,259,null,0.371433949,0.131648306,0.66895558,0,,,,,,
,html-keyboard-response,68,268852,0.0-38.0-1.0,null,<p></p>,,null,,,,,,,,,,,,,,,,
,do_recog,69,272874,0.0-39.0-0.0,2512.4,,,,56,,,,260,probe-200,,,,,1,[object Object],203,5,0,
,html-keyboard-response,70,273878,0.0-39.0-1.0,null,<p></p>,,null,,,,,,,,,,,,,,,,
,do_trial,71,277321,0.0-40.0-0.0,900.5999999,,,,50,"1,0,0",6,blank,261,null,0.46955467,0.091745174,0.501642737,0,,,,,,
,html-keyboard-response,72,278325,0.0-40.0-1.0,null,<p></p>,,null,,,,,,,,,,,,,,,,
,do_trial,73,281158,0.0-41.0-0.0,292.8999996,,,,49,"0,0,1",6,blank,262,null,0.34877022,0.27186599,0.507433819,0,,,,,,
,html-keyboard-response,74,282162,0.0-41.0-1.0,null,<p></p>,,null,,,,,,,,,,,,,,,,
,do_trial,75,285401,0.0-42.0-0.0,697,,,,51,"0,0,1",6,blank,263,null,0.315024251,0.169694802,0.597186748,1,,,,,,
,html-keyboard-response,76,286405,0.0-42.0-1.0,null,<p></p>,,null,,,,,,,,,,,,,,,,
,do_trial,77,289471,0.0-43.0-0.0,524.5,,,,51,"0,0,1",6,blank,264,null,0.159901237,0.173155023,0.585877656,1,,,,,,
,html-keyboard-response,78,290477,0.0-43.0-1.0,null,<p></p>,,null,,,,,,,,,,,,,,,,
,do_trial,79,293493,0.0-44.0-0.0,476.4000001,,,,51,"0,0,1",6,blank,265,null,0.055997456,0.211596422,0.591018261,1,,,,,,
,html-keyboard-response,80,294497,0.0-44.0-1.0,null,<p></p>,,null,,,,,,,,,,,,,,,,
,do_recog,81,298008,0.0-45.0-0.0,2003.6,,,,56,,,,266,probe-124,,,,,1,[object Object],168,4,0,
,html-keyboard-response,82,299013,0.0-45.0-1.0,null,<p></p>,,null,,,,,,,,,,,,,,,,
,do_trial,83,302236,0.0-46.0-0.0,682.5,,,,51,"1,1,1",6,blank,267,null,0.134332699,0.22657631,0.60978041,1,,,,,,
,html-keyboard-response,84,303239,0.0-46.0-1.0,null,<p></p>,,null,,,,,,,,,,,,,,,,
,do_trial,85,306223,0.0-47.0-0.0,445.1999998,,,,51,"0,0,1",6,blank,268,null,0.301498569,0.131292406,0.638798764,1,,,,,,
,html-keyboard-response,86,307227,0.0-47.0-1.0,null,<p></p>,,null,,,,,,,,,,,,,,,,
,do_trial,87,310216,0.0-48.0-0.0,447.2999997,,,,51,"1,0,1",6,blank,269,null,0.443198975,0.236858041,0.683396155,1,,,,,,
,html-keyboard-response,88,311221,0.0-48.0-1.0,null,<p></p>,,null,,,,,,,,,,,,,,,,
,do_recog,89,314303,0.0-49.0-0.0,1573.6,,,,53,,,,270,probe-224,,,,,1,[object Object],81,2,1,
,html-keyboard-response,90,315307,0.0-49.0-1.0,null,<p></p>,,null,,,,,,,,,,,,,,,,
,do_trial,91,318279,0.0-50.0-0.0,429.0999999,,,,51,"1,1,1",6,blank,271,null,0.429586082,0.097953358,0.783176664,1,,,,,,
,html-keyboard-response,92,319284,0.0-50.0-1.0,null,<p></p>,,null,,,,,,,,,,,,,,,,
,do_trial,93,322105,0.0-51.0-0.0,277.5,,,,51,"0,0,1",6,blank,272,null,0.512863454,0.051240482,0.674554821,1,,,,,,
,html-keyboard-response,94,323108,0.0-51.0-1.0,null,<p></p>,,null,,,,,,,,,,,,,,,,
,do_trial,95,325964,0.0-52.0-0.0,316.7999997,,,,51,"0,1,1",6,blank,273,null,0.451979459,0.084980116,0.624235461,1,,,,,,
,html-keyboard-response,96,326969,0.0-52.0-1.0,null,<p></p>,,null,,,,,,,,,,,,,,,,
,do_trial,97,329749,0.0-53.0-0.0,238.1999998,,,,51,"1,0,1",6,blank,274,null,0.388608846,0.067396395,0.547511845,1,,,,,,
,html-keyboard-response,98,330753,0.0-53.0-1.0,null,<p></p>,,null,,,,,,,,,,,,,,,,
,do_trial,99,333766,0.0-54.0-0.0,472,,,,51,"0,0,1",6,blank,275,null,0.273274568,0.063989542,0.745175003,1,,,,,,
,html-keyboard-response,100,334770,0.0-54.0-1.0,null,<p></p>,,null,,,,,,,,,,,,,,,,
,do_trial,101,337748,0.0-55.0-0.0,437.7000003,,,,51,"0,0,0",6,blank,276,null,0.23022539,0.146689642,0.722246631,0,,,,,,
,html-keyboard-response,102,338752,0.0-55.0-1.0,null,<p></p>,,null,,,,,,,,,,,,,,,,
,do_trial,103,341748,0.0-56.0-0.0,455.3000002,,,,51,"0,0,1",6,blank,277,null,0.223557795,0.135325283,0.580556319,1,,,,,,
,html-keyboard-response,104,342752,0.0-56.0-1.0,null,<p></p>,,null,,,,,,,,,,,,,,,,
,do_recog,105,346588,0.0-57.0-0.0,2328,,,,55,,,,278,probe-146,,,,,1,[object Object],169,4,0,
,html-keyboard-response,106,347593,0.0-57.0-1.0,null,<p></p>,,null,,,,,,,,,,,,,,,,
,do_trial,107,350629,0.0-58.0-0.0,493.1000004,,,,51,"1,0,0",6,blank,279,null,0.32717749,0.201919324,0.491750142,0,,,,,,
,html-keyboard-response,108,351633,0.0-58.0-1.0,null,<p></p>,,null,,,,,,,,,,,,,,,,
,do_recog,109,355023,0.0-59.0-0.0,1880.9,,,,56,,,,280,probe-211,,,,,1,[object Object],87,2,0,
,html-keyboard-response,110,356026,0.0-59.0-1.0,null,<p></p>,,null,,,,,,,,,,,,,,,,
,do_trial,111,359255,0.0-60.0-0.0,684.5,,,,51,"0,0,0",6,blank,281,null,0.317850962,0.106815109,0.503577643,0,,,,,,
,html-keyboard-response,112,360259,0.0-60.0-1.0,null,<p></p>,,null,,,,,,,,,,,,,,,,
,do_trial,113,363359,0.0-61.0-0.0,556.0999999,,,,51,"0,0,0",6,blank,282,null,0.334817291,0.081102572,0.461602925,0,,,,,,
,html-keyboard-response,114,364363,0.0-61.0-1.0,null,<p></p>,,null,,,,,,,,,,,,,,,,
,do_trial,115,367359,0.0-62.0-0.0,453.2999997,,,,49,"1,0,1",6,blank,283,null,0.254798611,0.061162141,0.5191124,1,,,,,,
,html-keyboard-response,116,368362,0.0-62.0-1.0,null,<p></p>,,null,,,,,,,,,,,,,,,,
,do_trial,117,371276,0.0-63.0-0.0,371.9000001,,,,49,"0,0,1",6,blank,284,null,0.197356367,0.174977112,0.647130625,0,,,,,,
,html-keyboard-response,118,372280,0.0-63.0-1.0,null,<p></p>,,null,,,,,,,,,,,,,,,,
,do_trial,119,375101,0.0-64.0-0.0,277.8999996,,,,49,"1,0,0",6,blank,285,null,0.234364013,0.187460162,0.527176397,1,,,,,,
,html-keyboard-response,120,376105,0.0-64.0-1.0,null,<p></p>,,null,,,,,,,,,,,,,,,,
,do_trial,121,379043,0.0-65.0-0.0,397.7999997,,,,49,"1,0,1",6,blank,286,null,0.280607579,0.161700718,0.545960306,1,,,,,,
,html-keyboard-response,122,380047,0.0-65.0-1.0,null,<p></p>,,null,,,,,,,,,,,,,,,,
,do_recog,123,381620,0.0-66.0-0.0,64.19999981,,,,54,,,,287,probe-09,,,,,1,[object Object],49,1,1,
,html-keyboard-response,124,382626,0.0-66.0-1.0,null,<p></p>,,null,,,,,,,,,,,,,,,,
,do_trial,125,385898,0.0-67.0-0.0,730.6999998,,,,49,"0,1,1",6,blank,288,null,0.281045764,0.224489013,0.521355314,0,,,,,,
,html-keyboard-response,126,386903,0.0-67.0-1.0,null,<p></p>,,null,,,,,,,,,,,,,,,,
,do_trial,127,389526,0.0-68.0-0.0,79.5,,,,49,"1,0,0",6,blank,289,null,0.276973565,0.143058406,0.474447156,1,,,,,,
,html-keyboard-response,128,390530,0.0-68.0-1.0,null,<p></p>,,null,,,,,,,,,,,,,,,,
,do_trial,129,393595,0.0-69.0-0.0,521.7999997,,,,49,"0,0,0",6,blank,290,null,0.368418583,0.146828541,0.479435548,0,,,,,,
,html-keyboard-response,130,394600,0.0-69.0-1.0,null,<p></p>,,null,,,,,,,,,,,,,,,,
,do_trial,131,397600,0.0-70.0-0.0,460.3000002,,,,49,"0,0,0",6,blank,291,null,0.375299792,0.117226782,0.435543893,0,,,,,,
,html-keyboard-response,132,398605,0.0-70.0-1.0,null,<p></p>,,null,,,,,,,,,,,,,,,,
,do_trial,133,401443,0.0-71.0-0.0,296.1000004,,,,51,"1,0,0",6,blank,292,null,0.343254556,0.134453747,0.648094251,0,,,,,,
,html-keyboard-response,134,402448,0.0-71.0-1.0,null,<p></p>,,null,,,,,,,,,,,,,,,,
,do_trial,135,405257,0.0-72.0-0.0,268.5,,,,50,"0,0,1",6,blank,293,null,0.33147101,0.055222959,0.654438044,0,,,,,,
,html-keyboard-response,136,406261,0.0-72.0-1.0,null,<p></p>,,null,,,,,,,,,,,,,,,,
,do_trial,137,409071,0.0-73.0-0.0,271.8999996,,,,49,"1,0,1",6,blank,294,null,0.241458255,0.072795031,0.605008478,1,,,,,,
,html-keyboard-response,138,410075,0.0-73.0-1.0,null,<p></p>,,null,,,,,,,,,,,,,,,,
,do_recog,139,413157,0.0-74.0-0.0,1572.4,,,,56,,,,295,probe-106,,,,,1,[object Object],205,5,0,
,html-keyboard-response,140,414161,0.0-74.0-1.0,null,<p></p>,,null,,,,,,,,,,,,,,,,
,do_trial,141,417464,0.0-75.0-0.0,761.1999998,,,,49,"0,0,1",6,blank,296,null,0.357260821,0.231071559,0.465695246,0,,,,,,
,html-keyboard-response,142,418469,0.0-75.0-1.0,null,<p></p>,,null,,,,,,,,,,,,,,,,
,do_recog,143,422180,0.0-76.0-0.0,2201.9,,,,55,,,,297,probe-231,,,,,0,[object Object],null,null,1,
,html-keyboard-response,144,423183,0.0-76.0-1.0,null,<p></p>,,null,,,,,,,,,,,,,,,,
,do_trial,145,426380,0.0-77.0-0.0,653.6000004,,,,49,"0,1,1",6,blank,298,null,0.256400013,0.298509462,0.420999382,0,,,,,,
,html-keyboard-response,146,427385,0.0-77.0-1.0,null,<p></p>,,null,,,,,,,,,,,,,,,,
,do_recog,147,430937,0.0-78.0-0.0,2043.6,,,,53,,,,299,probe-114,,,,,1,[object Object],201,5,1,
,html-keyboard-response,148,431942,0.0-78.0-1.0,null,<p></p>,,null,,,,,,,,,,,,,,,,
,do_trial,149,434966,0.0-79.0-0.0,485.0999999,,,,49,"1,0,0",6,blank,300,null,0.419137349,0.246778021,0.312856646,1,,,,,,
,html-keyboard-response,150,435971,0.0-79.0-1.0,null,<p></p>,,null,,,,,,,,,,,,,,,,
,do_recog,151,438576,0.0-80.0-0.0,1099.1,,,,53,,,,301,probe-74,,,,,1,[object Object],41,1,1,
,html-keyboard-response,152,439580,0.0-80.0-1.0,null,<p></p>,,null,,,,,,,,,,,,,,,,
,do_trial,153,442463,0.0-81.0-0.0,340.5999999,,,,49,"1,0,0",6,blank,302,null,0.532492614,0.10527192,0.345425356,1,,,,,,
,html-keyboard-response,154,443466,0.0-81.0-1.0,null,<p></p>,,null,,,,,,,,,,,,,,,,
,do_trial,155,446408,0.0-82.0-0.0,399.8999996,,,,49,"0,0,0",6,blank,303,null,0.613368916,0.07903083,0.232999021,0,,,,,,
,html-keyboard-response,156,447412,0.0-82.0-1.0,null,<p></p>,,null,,,,,,,,,,,,,,,,
,do_trial,157,450453,0.0-83.0-0.0,496.9000001,,,,49,"0,0,0",6,blank,304,null,0.673190668,0.11294029,0.259260801,0,,,,,,
,html-keyboard-response,158,451457,0.0-83.0-1.0,null,<p></p>,,null,,,,,,,,,,,,,,,,
,do_recog,159,453877,0.0-84.0-0.0,915.2999997,,,,53,,,,305,probe-246,,,,,0,[object Object],null,null,0,
,html-keyboard-response,160,454881,0.0-84.0-1.0,null,<p></p>,,null,,,,,,,,,,,,,,,,
,do_trial,161,457801,0.0-85.0-0.0,377.0999999,,,,51,"0,0,0",6,blank,306,null,0.492570054,0.108810749,0.170879979,0,,,,,,
,html-keyboard-response,162,458806,0.0-85.0-1.0,null,<p></p>,,null,,,,,,,,,,,,,,,,
,do_recog,163,462033,0.0-86.0-0.0,1718.1,,,,56,,,,307,probe-213,,,,,1,[object Object],48,1,0,
,html-keyboard-response,164,463037,0.0-86.0-1.0,null,<p></p>,,null,,,,,,,,,,,,,,,,
,do_trial,165,466137,0.0-87.0-0.0,556.0999999,,,,51,"0,1,0",6,blank,308,null,0.583685553,0.086184242,0.220345167,0,,,,,,
,html-keyboard-response,166,467141,0.0-87.0-1.0,null,<p></p>,,null,,,,,,,,,,,,,,,,
,do_recog,167,470786,0.0-88.0-0.0,2135.2,,,,54,,,,309,probe-204,,,,,1,[object Object],202,5,1,
,html-keyboard-response,168,471800,0.0-88.0-1.0,null,<p></p>,,null,,,,,,,,,,,,,,,,
,do_trial,169,475221,0.0-89.0-0.0,863.5999999,,,,51,"1,0,1",6,blank,310,null,0.640075653,0.129963756,0.49506539,1,,,,,,
,html-keyboard-response,170,476225,0.0-89.0-1.0,null,<p></p>,,null,,,,,,,,,,,,,,,,
,do_trial,171,479246,0.0-90.0-0.0,479.3000002,,,,51,"1,0,1",6,blank,311,null,0.697492659,0.070763994,0.425448552,1,,,,,,
,html-keyboard-response,172,480248,0.0-90.0-1.0,null,<p></p>,,null,,,,,,,,,,,,,,,,
,do_recog,173,483066,0.0-91.0-0.0,1309.9,,,,53,,,,312,probe-131,,,,,1,[object Object],40,1,1,
,html-keyboard-response,174,484068,0.0-91.0-1.0,null,<p></p>,,null,,,,,,,,,,,,,,,,
,do_trial,175,487144,0.0-92.0-0.0,530.3000002,,,,51,"1,0,0",6,blank,313,null,0.683596164,0.074249783,0.2380156,0,,,,,,
,html-keyboard-response,176,488148,0.0-92.0-1.0,null,<p></p>,,null,,,,,,,,,,,,,,,,
,do_trial,177,491149,0.0-93.0-0.0,460.2000003,,,,51,"0,0,1",6,blank,314,null,0.668603814,0.077183451,0.354827181,1,,,,,,
,html-keyboard-response,178,492154,0.0-93.0-1.0,null,<p></p>,,null,,,,,,,,,,,,,,,,
,do_trial,179,495206,0.0-94.0-0.0,512.0999999,,,,51,"1,1,1",6,blank,315,null,0.47098669,0.201027288,0.345890103,1,,,,,,
,html-keyboard-response,180,496211,0.0-94.0-1.0,null,<p></p>,,null,,,,,,,,,,,,,,,,
,do_trial,181,499212,0.0-95.0-0.0,461.6999998,,,,51,"0,0,0",6,blank,316,null,0.586501642,0.105540174,0.316016118,0,,,,,,
,html-keyboard-response,182,500217,0.0-95.0-1.0,null,<p></p>,,null,,,,,,,,,,,,,,,,
,do_recog,183,503583,0.0-96.0-0.0,1857.2,,,,56,,,,317,probe-44,,,,,1,[object Object],209,5,0,
,html-keyboard-response,184,504587,0.0-96.0-1.0,null,<p></p>,,null,,,,,,,,,,,,,,,,
,do_trial,185,507710,0.0-97.0-0.0,580.9000001,,,,51,"0,0,0",6,blank,318,null,0.603989938,0.074576788,0.292937462,0,,,,,,
,html-keyboard-response,186,508715,0.0-97.0-1.0,null,<p></p>,,null,,,,,,,,,,,,,,,,
,do_trial,187,511659,0.0-98.0-0.0,404.3000002,,,,51,"0,0,0",6,blank,319,null,0.569089179,0.111655475,0.163764665,0,,,,,,
,html-keyboard-response,188,512662,0.0-98.0-1.0,null,<p></p>,,null,,,,,,,,,,,,,,,,
,do_trial,189,515483,0.0-99.0-0.0,281.7000003,,,,49,"1,1,0",6,blank,320,null,0.504956685,0.294720179,0.112903756,1,,,,,,
,html-keyboard-response,190,516487,0.0-99.0-1.0,null,<p></p>,,null,,,,,,,,,,,,,,,,
,do_trial,191,519326,0.0-100.0-0.0,294.8000002,,,,49,"1,0,0",6,blank,321,null,0.51557153,0.115016403,0.231665843,1,,,,,,
,html-keyboard-response,192,520329,0.0-100.0-1.0,null,<p></p>,,null,,,,,,,,,,,,,,,,
,do_recog,193,523453,0.0-101.0-0.0,1615.3,,,,55,,,,322,probe-173,,,,,1,[object Object],86,2,0,
,html-keyboard-response,194,524457,0.0-101.0-1.0,null,<p></p>,,null,,,,,,,,,,,,,,,,
,do_trial,195,527522,0.0-102.0-0.0,524.8000002,,,,49,"1,0,1",6,blank,323,null,0.710705899,0.096591098,0.254936117,1,,,,,,
,html-keyboard-response,196,528526,0.0-102.0-1.0,null,<p></p>,,null,,,,,,,,,,,,,,,,
,do_trial,197,531515,0.0-103.0-0.0,449.4000001,,,,49,"0,1,0",6,blank,324,null,0.657417638,0.138848801,0.307513218,0,,,,,,
,html-keyboard-response,198,532520,0.0-103.0-1.0,null,<p></p>,,null,,,,,,,,,,,,,,,,
,do_trial,199,535451,0.0-104.0-0.0,389.5,,,,49,"0,0,0",6,blank,325,null,0.598355896,0.133016516,0.154254344,0,,,,,,
,html-keyboard-response,200,536455,0.0-104.0-1.0,null,<p></p>,,null,,,,,,,,,,,,,,,,
,do_trial,201,539356,0.0-105.0-0.0,357.5,,,,51,"0,0,0",6,blank,326,null,0.541241226,0.062234749,0.186553309,0,,,,,,
,html-keyboard-response,202,540362,0.0-105.0-1.0,null,<p></p>,,null,,,,,,,,,,,,,,,,
,do_trial,203,543090,0.0-106.0-0.0,184.0999999,,,,50,"0,0,0",6,blank,327,null,0.497642157,0.221175639,0.223095456,0,,,,,,
,html-keyboard-response,204,544094,0.0-106.0-1.0,null,<p></p>,,null,,,,,,,,,,,,,,,,
,do_recog,205,547276,0.0-107.0-0.0,1672.3,,,,53,,,,328,probe-170,,,,,1,[object Object],42,1,1,
,html-keyboard-response,206,548280,0.0-107.0-1.0,null,<p></p>,,null,,,,,,,,,,,,,,,,
,do_trial,207,551205,0.0-108.0-0.0,381.5999999,,,,51,"1,0,0",6,blank,329,null,0.575968185,0.138932327,0.095888635,0,,,,,,
,html-keyboard-response,208,552209,0.0-108.0-1.0,null,<p></p>,,null,,,,,,,,,,,,,,,,
,do_trial,209,555228,0.0-109.0-0.0,478.8999996,,,,51,"1,0,0",6,blank,330,null,0.580080506,0.119622025,0.332841149,0,,,,,,
,html-keyboard-response,210,556232,0.0-109.0-1.0,null,<p></p>,,null,,,,,,,,,,,,,,,,
,do_trial,211,559181,0.0-110.0-0.0,405.4000001,,,,49,"1,0,0",6,blank,331,null,0.43298184,0.121069329,0.188178103,1,,,,,,
,html-keyboard-response,212,560185,0.0-110.0-1.0,null,<p></p>,,null,,,,,,,,,,,,,,,,
,do_trial,213,563250,0.0-111.0-0.0,524,,,,49,"1,0,0",6,blank,332,null,0.499323701,0.107134759,0.249689207,1,,,,,,
,html-keyboard-response,214,564254,0.0-111.0-1.0,null,<p></p>,,null,,,,,,,,,,,,,,,,
,do_recog,215,567174,0.0-112.0-0.0,1409.2,,,,53,,,,333,probe-36,,,,,1,[object Object],204,5,1,
,html-keyboard-response,216,568178,0.0-112.0-1.0,null,<p></p>,,null,,,,,,,,,,,,,,,,
,do_trial,217,571295,0.0-113.0-0.0,572.6000004,,,,49,"1,0,0",6,blank,334,null,0.430849271,0.106491266,0.319420937,1,,,,,,
,html-keyboard-response,218,572299,0.0-113.0-1.0,null,<p></p>,,null,,,,,,,,,,,,,,,,
,do_trial,219,575254,0.0-114.0-0.0,412.0999999,,,,49,"1,0,0",6,blank,335,null,0.442816653,0.108756696,0.296956797,1,,,,,,
,html-keyboard-response,220,576258,0.0-114.0-1.0,null,<p></p>,,null,,,,,,,,,,,,,,,,
,do_trial,221,579259,0.0-115.0-0.0,460.5999999,,,,49,"1,0,1",6,blank,336,null,0.486792747,0.059197113,0.410790382,1,,,,,,
,html-keyboard-response,222,580263,0.0-115.0-1.0,null,<p></p>,,null,,,,,,,,,,,,,,,,
,do_trial,223,583281,0.0-116.0-0.0,477.2000003,,,,49,"0,0,0",6,blank,337,null,0.700772841,0.179183665,0.537640839,0,,,,,,
,html-keyboard-response,224,584286,0.0-116.0-1.0,null,<p></p>,,null,,,,,,,,,,,,,,,,
,do_trial,225,587165,0.0-117.0-0.0,335.9000001,,,,49,"1,0,1",6,blank,338,null,0.74718129,0.159058226,0.579162453,1,,,,,,
,html-keyboard-response,226,588170,0.0-117.0-1.0,null,<p></p>,,null,,,,,,,,,,,,,,,,
,do_trial,227,591136,0.0-118.0-0.0,423.1999998,,,,49,"1,0,1",6,blank,339,null,0.652140617,0.220801403,0.555060761,1,,,,,,
,html-keyboard-response,228,592140,0.0-118.0-1.0,null,<p></p>,,null,,,,,,,,,,,,,,,,
,do_recog,229,594967,0.0-119.0-0.0,1321.1,,,,56,,,,340,probe-201,,,,,1,[object Object],160,4,0,
,html-keyboard-response,230,595971,0.0-119.0-1.0,null,<p></p>,,null,,,,,,,,,,,,,,,,
,do_trial,231,598995,0.0-120.0-0.0,480.1999998,,,,49,"1,0,0",6,blank,341,null,0.464585597,0.177847324,0.480490902,1,,,,,,
,html-keyboard-response,232,599999,0.0-120.0-1.0,null,<p></p>,,null,,,,,,,,,,,,,,,,
,do_recog,233,602690,0.0-121.0-0.0,1181.5,,,,53,,,,342,probe-83,,,,,1,[object Object],82,2,1,
,html-keyboard-response,234,603695,0.0-121.0-1.0,null,<p></p>,,null,,,,,,,,,,,,,,,,
,do_trial,235,606623,0.0-122.0-0.0,387.4000001,,,,49,"0,1,1",6,blank,343,null,0.560575668,0.192677629,0.47378492,0,,,,,,
,html-keyboard-response,236,607627,0.0-122.0-1.0,null,<p></p>,,null,,,,,,,,,,,,,,,,
,do_recog,237,610697,0.0-123.0-0.0,1561.4,,,,55,,,,344,probe-230,,,,,1,[object Object],89,2,0,
,html-keyboard-response,238,611701,0.0-123.0-1.0,null,<p></p>,,null,,,,,,,,,,,,,,,,
,do_trial,239,614722,0.0-124.0-0.0,478.0999999,,,,49,"0,1,0",6,blank,345,null,0.619482976,0.081939828,0.45931756,0,,,,,,
,html-keyboard-response,240,615725,0.0-124.0-1.0,null,<p></p>,,null,,,,,,,,,,,,,,,,
,do_trial,241,618546,0.0-125.0-0.0,277.0999999,,,,49,"1,0,0",6,blank,346,null,0.659159764,0.070657803,0.299345677,1,,,,,,
,html-keyboard-response,242,619550,0.0-125.0-1.0,null,<p></p>,,null,,,,,,,,,,,,,,,,
,do_trial,243,622400,0.0-126.0-0.0,308.4000001,,,,49,"0,0,0",6,blank,347,null,0.619916068,0.19279464,0.407013644,0,,,,,,
,html-keyboard-response,244,623404,0.0-126.0-1.0,null,<p></p>,,null,,,,,,,,,,,,,,,,
,do_recog,245,626115,0.0-127.0-0.0,1201.1,,,,56,,,,348,probe-152,,,,,1,[object Object],46,1,0,
,html-keyboard-response,246,627119,0.0-127.0-1.0,null,<p></p>,,null,,,,,,,,,,,,,,,,
,do_trial,247,630138,0.0-128.0-0.0,474.5,,,,49,"1,0,0",6,blank,349,null,0.533170246,0.079119461,0.482256374,1,,,,,,
,html-keyboard-response,248,631142,0.0-128.0-1.0,null,<p></p>,,null,,,,,,,,,,,,,,,,
,do_trial,249,634160,0.0-129.0-0.0,476.2000003,,,,49,"1,0,0",6,blank,350,null,0.768720483,0.086480485,0.530687366,1,,,,,,
,html-keyboard-response,250,635165,0.0-129.0-1.0,null,<p></p>,,null,,,,,,,,,,,,,,,,
,do_recog,251,638090,0.0-130.0-0.0,1415.4,,,,56,,,,351,probe-206,,,,,1,[object Object],163,4,0,
,html-keyboard-response,252,639094,0.0-130.0-1.0,null,<p></p>,,null,,,,,,,,,,,,,,,,
,do_trial,253,642141,0.0-131.0-0.0,507.5,,,,49,"0,0,1",6,blank,352,null,0.601645334,0.118982197,0.525887046,0,,,,,,
,html-keyboard-response,254,643146,0.0-131.0-1.0,null,<p></p>,,null,,,,,,,,,,,,,,,,
,do_trial,255,646252,0.0-132.0-0.0,566.3000002,,,,49,"0,0,0",6,blank,353,null,0.429606682,0.168200105,0.495449701,0,,,,,,
,html-keyboard-response,256,647256,0.0-132.0-1.0,null,<p></p>,,null,,,,,,,,,,,,,,,,
,do_trial,257,650170,0.0-133.0-0.0,371.3000002,,,,51,"0,1,0",6,blank,354,null,0.210425328,0.278513993,0.616895254,0,,,,,,
,html-keyboard-response,258,651174,0.0-133.0-1.0,null,<p></p>,,null,,,,,,,,,,,,,,,,
,do_trial,259,654128,0.0-134.0-0.0,410,,,,51,"0,0,1",6,blank,355,null,0.239388096,0.243434052,0.671686765,1,,,,,,
,html-keyboard-response,260,655133,0.0-134.0-1.0,null,<p></p>,,null,,,,,,,,,,,,,,,,
,do_recog,261,658343,0.0-135.0-0.0,1699.7,,,,56,,,,356,probe-101,,,,,1,[object Object],165,4,0,
,html-keyboard-response,262,659347,0.0-135.0-1.0,null,<p></p>,,null,,,,,,,,,,,,,,,,
,do_trial,263,662447,0.0-136.0-0.0,556.9000001,,,,51,"0,0,0",6,blank,357,null,0.192290672,0.222162729,0.606321116,0,,,,,,
,html-keyboard-response,264,663451,0.0-136.0-1.0,null,<p></p>,,null,,,,,,,,,,,,,,,,
,do_trial,265,666574,0.0-137.0-0.0,580.5,,,,51,"0,0,1",6,blank,358,null,0.168383841,0.29890708,0.628204743,1,,,,,,
,html-keyboard-response,266,667578,0.0-137.0-1.0,null,<p></p>,,null,,,,,,,,,,,,,,,,
,do_recog,267,670260,0.0-138.0-0.0,1175.3,,,,53,,,,359,probe-29,,,,,1,[object Object],120,3,1,
,html-keyboard-response,268,671263,0.0-138.0-1.0,null,<p></p>,,null,,,,,,,,,,,,,,,,
,do_trial,269,674322,0.0-139.0-0.0,520.9000001,,,,51,"0,0,0",6,blank,360,null,0.106236106,0.192604797,0.463451459,0,,,,,,
,html-keyboard-response,270,675327,0.0-139.0-1.0,null,<p></p>,,null,,,,,,,,,,,,,,,,
,do_recog,271,678572,0.0-140.0-0.0,1737.9,,,,56,,,,361,probe-125,,,,,1,[object Object],207,5,0,
,html-keyboard-response,272,679576,0.0-140.0-1.0,null,<p></p>,,null,,,,,,,,,,,,,,,,
,do_trial,273,683276,0.0-141.0-0.0,1158.9,,,,51,"0,0,1",6,blank,362,null,0.167846339,0.35810256,0.469419817,1,,,,,,
,html-keyboard-response,274,684278,0.0-141.0-1.0,null,<p></p>,,null,,,,,,,,,,,,,,,,
,do_trial,275,687088,0.0-142.0-0.0,265.4000001,,,,51,"0,0,0",6,blank,363,null,0.148972247,0.228535998,0.613719469,0,,,,,,
,html-keyboard-response,276,688092,0.0-142.0-1.0,null,<p></p>,,null,,,,,,,,,,,,,,,,
,do_trial,277,691011,0.0-143.0-0.0,380.4000001,,,,51,"1,0,1",6,blank,364,null,0.147800521,0.149372829,0.584967449,1,,,,,,
,html-keyboard-response,278,692016,0.0-143.0-1.0,null,<p></p>,,null,,,,,,,,,,,,,,,,
,do_trial,279,695022,0.0-144.0-0.0,465.8999996,,,,51,"0,0,0",6,blank,365,null,0.169712982,0.291184698,0.642568706,0,,,,,,
,html-keyboard-response,280,696027,0.0-144.0-1.0,null,<p></p>,,null,,,,,,,,,,,,,,,,
,do_recog,281,698844,0.0-145.0-0.0,1311,,,,56,,,,366,probe-133,,,,,1,[object Object],200,5,0,
,html-keyboard-response,282,699850,0.0-145.0-1.0,null,<p></p>,,null,,,,,,,,,,,,,,,,
,do_trial,283,703189,0.0-146.0-0.0,795,,,,51,"1,1,1",6,blank,367,null,0.15333825,0.347469149,0.619754643,1,,,,,,
,html-keyboard-response,284,704194,0.0-146.0-1.0,null,<p></p>,,null,,,,,,,,,,,,,,,,
,do_trial,285,707092,0.0-147.0-0.0,356.7999997,,,,51,"0,0,0",6,blank,368,null,0.064255194,0.231650028,0.476221204,0,,,,,,
,html-keyboard-response,286,708094,0.0-147.0-1.0,null,<p></p>,,null,,,,,,,,,,,,,,,,
,do_trial,287,711102,0.0-148.0-0.0,465.5,,,,51,"0,1,1",6,blank,369,null,0.073012495,0.342849662,0.417381963,1,,,,,,
,html-keyboard-response,288,712106,0.0-148.0-1.0,null,<p></p>,,null,,,,,,,,,,,,,,,,
,do_trial,289,715101,0.0-149.0-0.0,451.8000002,,,,51,"0,0,1",6,blank,370,null,0.144886392,0.331951519,0.373723732,1,,,,,,
,html-keyboard-response,290,716105,0.0-149.0-1.0,null,<p></p>,,null,,,,,,,,,,,,,,,,
,do_trial,291,719310,0.0-150.0-0.0,662,,,,51,"0,1,0",6,blank,371,null,0.179774563,0.321385628,0.426924944,0,,,,,,
,html-keyboard-response,292,720314,0.0-150.0-1.0,null,<p></p>,,null,,,,,,,,,,,,,,,,
,do_trial,293,723408,0.0-151.0-0.0,550.2999997,,,,51,"0,0,0",6,blank,372,null,0.078967626,0.240271495,0.496168475,0,,,,,,
,html-keyboard-response,294,724412,0.0-151.0-1.0,null,<p></p>,,null,,,,,,,,,,,,,,,,
,do_trial,295,727451,0.0-152.0-0.0,497.8000002,,,,51,"0,1,1",6,blank,373,null,0.091926653,0.232200784,0.651229521,1,,,,,,
,html-keyboard-response,296,728454,0.0-152.0-1.0,null,<p></p>,,null,,,,,,,,,,,,,,,,
,do_recog,297,731151,0.0-153.0-0.0,1193.1,,,,55,,,,374,probe-109,,,,,1,[object Object],43,1,0,
,html-keyboard-response,298,732155,0.0-153.0-1.0,null,<p></p>,,null,,,,,,,,,,,,,,,,
,do_trial,299,735360,0.0-154.0-0.0,666.8000002,,,,51,"0,0,1",6,blank,375,null,0.122798282,0.337961475,0.658593357,1,,,,,,
,html-keyboard-response,300,736364,0.0-154.0-1.0,null,<p></p>,,null,,,,,,,,,,,,,,,,
,do_trial,301,739609,0.0-155.0-0.0,704.3000002,,,,51,"1,0,1",6,blank,376,null,0.085009875,0.304271579,0.542944655,1,,,,,,
,html-keyboard-response,302,740613,0.0-155.0-1.0,null,<p></p>,,null,,,,,,,,,,,,,,,,
,do_trial,303,743568,0.0-156.0-0.0,411.5999999,,,,51,"0,0,0",6,blank,377,null,0.063634211,0.341516723,0.50201821,0,,,,,,
,html-keyboard-response,304,744572,0.0-156.0-1.0,null,<p></p>,,null,,,,,,,,,,,,,,,,
,do_trial,305,747491,0.0-157.0-0.0,378.4000001,,,,51,"1,0,0",6,blank,378,null,0.17760058,0.376561721,0.630561499,0,,,,,,
,html-keyboard-response,306,748495,0.0-157.0-1.0,null,<p></p>,,null,,,,,,,,,,,,,,,,
,do_trial,307,751288,0.0-158.0-0.0,253,,,,49,"0,1,1",6,blank,379,null,0.124594799,0.488253499,0.671724086,0,,,,,,
,html-keyboard-response,308,752292,0.0-158.0-1.0,null,<p></p>,,null,,,,,,,,,,,,,,,,
,do_recog,309,755282,0.0-159.0-0.0,1482.4,,,,54,,,,380,probe-05,,,,,1,[object Object],123,3,1,
,html-keyboard-response,310,756285,0.0-159.0-1.0,null,<p></p>,,null,,,,,,,,,,,,,,,,
,do_trial,311,759299,0.0-160.0-0.0,472.1999998,,,,49,"0,0,1",6,blank,381,null,0.080842588,0.457384215,0.651585898,0,,,,,,
,html-keyboard-response,312,760303,0.0-160.0-1.0,null,<p></p>,,null,,,,,,,,,,,,,,,,
,do_trial,313,763114,0.0-161.0-0.0,269.1999998,,,,49,"0,0,0",6,blank,382,null,0.059519678,0.362377164,0.576875871,0,,,,,,
,html-keyboard-response,314,764116,0.0-161.0-1.0,null,<p></p>,,null,,,,,,,,,,,,,,,,
,do_trial,315,767096,0.0-162.0-0.0,438.5,,,,51,"0,0,0",6,blank,383,null,0.207028094,0.317297966,0.530396451,0,,,,,,
,html-keyboard-response,316,768098,0.0-162.0-1.0,null,<p></p>,,null,,,,,,,,,,,,,,,,
,do_trial,317,770954,0.0-163.0-0.0,312.9000001,,,,50,"0,0,0",6,blank,384,null,0.299628215,0.470140703,0.6770922,0,,,,,,
,html-keyboard-response,318,771959,0.0-163.0-1.0,null,<p></p>,,null,,,,,,,,,,,,,,,,
,do_recog,319,775482,0.0-164.0-0.0,2015.1,,,,53,,,,385,probe-105,,,,,1,[object Object],128,3,1,
,html-keyboard-response,320,776486,0.0-164.0-1.0,null,<p></p>,,null,,,,,,,,,,,,,,,,
,do_trial,321,779522,0.0-165.0-0.0,492.1999998,,,,50,"1,1,1",6,blank,386,null,0.268017708,0.342798291,0.555298279,1,,,,,,
,html-keyboard-response,322,780526,0.0-165.0-1.0,null,<p></p>,,null,,,,,,,,,,,,,,,,
,do_trial,323,783580,0.0-166.0-0.0,513.2999997,,,,50,"0,0,0",6,blank,387,null,0.160166485,0.348075337,0.624986016,0,,,,,,
,html-keyboard-response,324,784584,0.0-166.0-1.0,null,<p></p>,,null,,,,,,,,,,,,,,,,
,do_trial,325,787538,0.0-167.0-0.0,410.8000002,,,,50,"1,0,0",6,blank,388,null,0.171829291,0.189800915,0.541350286,0,,,,,,
,html-keyboard-response,326,788542,0.0-167.0-1.0,null,<p></p>,,null,,,,,,,,,,,,,,,,
,do_trial,327,791521,0.0-168.0-0.0,435.5999999,,,,51,"0,1,0",6,blank,389,null,0.080290522,0.353836985,0.59021739,0,,,,,,
,html-keyboard-response,328,792525,0.0-168.0-1.0,null,<p></p>,,null,,,,,,,,,,,,,,,,
,do_recog,329,798538,0.0-169.0-0.0,null,,,,null,,,,390,probe-198,,,,,1,[object Object],129,3,0,
,html-keyboard-response,330,799542,0.0-169.0-1.0,null,<p></p>,,null,,,,,,,,,,,,,,,,
,do_trial,331,805585,0.0-170.0-0.0,null,,,,null,"1,0,1",6,blank,391,null,0.105264286,0.234361407,0.637860602,,,,,,,
,html-keyboard-response,332,806589,0.0-170.0-1.0,null,<p></p>,,null,,,,,,,,,,,,,,,,
,do_recog,333,809393,0.0-171.0-0.0,1295.2,,,,54,,,,392,probe-126,,,,,1,[object Object],166,4,1,
,html-keyboard-response,334,810397,0.0-171.0-1.0,null,<p></p>,,null,,,,,,,,,,,,,,,,
,do_trial,335,813839,0.0-172.0-0.0,898.1999998,,,,49,"0,1,1",6,blank,393,null,0.07757105,0.281332059,0.574038696,0,,,,,,
,html-keyboard-response,336,814844,0.0-172.0-1.0,null,<p></p>,,null,,,,,,,,,,,,,,,,
,do_recog,337,816968,0.0-173.0-0.0,614.3000002,,,,53,,,,394,probe-160,,,,,1,[object Object],45,1,1,
,html-keyboard-response,338,817972,0.0-173.0-1.0,null,<p></p>,,null,,,,,,,,,,,,,,,,
,do_trial,339,824016,0.0-174.0-0.0,null,,,,null,"0,1,0",6,blank,395,null,0.146016449,0.428529473,0.559890538,,,,,,,
,html-keyboard-response,340,825020,0.0-174.0-1.0,null,<p></p>,,null,,,,,,,,,,,,,,,,
,do_trial,341,827933,0.0-175.0-0.0,371.2999997,,,,49,"0,0,0",6,blank,396,null,0.240830108,0.387171228,0.588992692,0,,,,,,
,html-keyboard-response,342,828938,0.0-175.0-1.0,null,<p></p>,,null,,,,,,,,,,,,,,,,
,do_trial,343,831847,0.0-176.0-0.0,367.2000003,,,,50,"0,1,0",6,blank,397,null,0.083998477,0.334969081,0.524008688,1,,,,,,
,html-keyboard-response,344,832851,0.0-176.0-1.0,null,<p></p>,,null,,,,,,,,,,,,,,,,
,do_trial,345,836687,0.0-177.0-0.0,1295.6,,,,50,"0,1,0",6,blank,398,null,0.095142301,0.320686973,0.553767557,1,,,,,,
,html-keyboard-response,346,837693,0.0-177.0-1.0,null,<p></p>,,null,,,,,,,,,,,,,,,,
,do_trial,347,843112,0.0-178.0-0.0,2876.5,,,,50,"0,0,0",6,blank,399,null,0.070327891,0.315904747,0.664180247,0,,,,,,
,html-keyboard-response,348,844116,0.0-178.0-1.0,null,<p></p>,,null,,,,,,,,,,,,,,,,
,do_trial,349,847095,0.0-179.0-0.0,435.3000002,,,,49,"0,0,0",6,blank,400,null,0.130713754,0.353124414,0.536502391,0,,,,,,
,html-keyboard-response,350,848099,0.0-179.0-1.0,null,<p></p>,,null,,,,,,,,,,,,,,,,
,do_recog,351,850560,0.0-180.0-0.0,950.7999997,,,,53,,,,401,probe-84,,,,,1,[object Object],162,4,1,
,html-keyboard-response,352,851565,0.0-180.0-1.0,null,<p></p>,,null,,,,,,,,,,,,,,,,
,do_trial,353,854647,0.0-181.0-0.0,539.4000001,,,,49,"0,1,0",6,blank,402,null,0.113458168,0.335190544,0.572516883,0,,,,,,
,html-keyboard-response,354,855651,0.0-181.0-1.0,null,<p></p>,,null,,,,,,,,,,,,,,,,
,do_trial,355,858478,0.0-182.0-0.0,283.8000002,,,,51,"1,1,1",6,blank,403,null,0.091067329,0.416106974,0.439932054,1,,,,,,
,html-keyboard-response,356,859482,0.0-182.0-1.0,null,<p></p>,,null,,,,,,,,,,,,,,,,
,do_trial,357,862358,0.0-183.0-0.0,332.3000002,,,,51,"0,1,0",6,blank,404,null,0.067014193,0.543793795,0.167057019,0,,,,,,
,html-keyboard-response,358,863360,0.0-183.0-1.0,null,<p></p>,,null,,,,,,,,,,,,,,,,
,do_trial,359,866227,0.0-184.0-0.0,328.3000002,,,,51,"0,1,0",6,blank,405,null,0.14362871,0.665976105,0.260554128,0,,,,,,
,html-keyboard-response,360,867231,0.0-184.0-1.0,null,<p></p>,,null,,,,,,,,,,,,,,,,
,do_trial,361,870308,0.0-185.0-0.0,535.4000001,,,,51,"0,0,0",6,blank,406,null,0.129112472,0.650650257,0.330236757,0,,,,,,
,html-keyboard-response,362,871312,0.0-185.0-1.0,null,<p></p>,,null,,,,,,,,,,,,,,,,
,do_trial,363,874354,0.0-186.0-0.0,498.5,,,,50,"0,0,0",6,blank,407,null,0.237071641,0.520171147,0.307480191,0,,,,,,
,html-keyboard-response,364,875358,0.0-186.0-1.0,null,<p></p>,,null,,,,,,,,,,,,,,,,
,do_recog,365,878316,0.0-187.0-0.0,1449.9,,,,55,,,,408,probe-172,,,,,1,[object Object],161,4,0,
,html-keyboard-response,366,879322,0.0-187.0-1.0,null,<p></p>,,null,,,,,,,,,,,,,,,,
,do_trial,367,882550,0.0-188.0-0.0,683.7000003,,,,49,"0,1,1",6,blank,409,null,0.063251963,0.64388316,0.25746982,0,,,,,,
,html-keyboard-response,368,883554,0.0-188.0-1.0,null,<p></p>,,null,,,,,,,,,,,,,,,,
,do_trial,369,886642,0.0-189.0-0.0,547.9000001,,,,50,"0,1,0",6,blank,410,null,0.088488943,0.622867092,0.145792493,1,,,,,,
,html-keyboard-response,370,887647,0.0-189.0-1.0,null,<p></p>,,null,,,,,,,,,,,,,,,,
,do_recog,371,889982,0.0-190.0-0.0,825.8000002,,,,54,,,,411,probe-72,,,,,1,[object Object],125,3,1,
,html-keyboard-response,372,890984,0.0-190.0-1.0,null,<p></p>,,null,,,,,,,,,,,,,,,,
,do_trial,373,894189,0.0-191.0-0.0,661.5,,,,50,"0,1,0",6,blank,412,null,0.113779246,0.76156086,0.197392133,1,,,,,,
,html-keyboard-response,374,895193,0.0-191.0-1.0,null,<p></p>,,null,,,,,,,,,,,,,,,,
,do_recog,375,898327,0.0-192.0-0.0,1628.9,,,,55,,,,413,probe-77,,,,,1,[object Object],122,3,0,
,html-keyboard-response,376,899332,0.0-192.0-1.0,null,<p></p>,,null,,,,,,,,,,,,,,,,
,do_trial,377,902493,0.0-193.0-0.0,616.5,,,,50,"0,1,0",6,blank,414,null,0.111947662,0.817220743,0.228300502,1,,,,,,
,html-keyboard-response,378,903498,0.0-193.0-1.0,null,<p></p>,,null,,,,,,,,,,,,,,,,
,do_trial,379,906437,0.0-194.0-0.0,394.9000001,,,,50,"0,1,1",6,blank,415,null,0.233607891,0.89208419,0.358506707,1,,,,,,
,html-keyboard-response,380,907441,0.0-194.0-1.0,null,<p></p>,,null,,,,,,,,,,,,,,,,
,do_trial,381,910443,0.0-195.0-0.0,459.2000003,,,,50,"0,1,0",6,blank,416,null,0.058666481,0.774687651,0.166077121,1,,,,,,
,html-keyboard-response,382,911446,0.0-195.0-1.0,null,<p></p>,,null,,,,,,,,,,,,,,,,
,do_trial,383,914418,0.0-196.0-0.0,433,,,,50,"0,1,0",6,blank,417,null,0.102957811,0.825237467,0.319557805,1,,,,,,
,html-keyboard-response,384,915422,0.0-196.0-1.0,null,<p></p>,,null,,,,,,,,,,,,,,,,
,do_trial,385,918371,0.0-197.0-0.0,406.2999997,,,,50,"0,1,0",6,blank,418,null,0.21380633,0.71480508,0.311117311,1,,,,,,
,html-keyboard-response,386,919375,0.0-197.0-1.0,null,<p></p>,,null,,,,,,,,,,,,,,,,
,do_trial,387,922405,0.0-198.0-0.0,485.9000001,,,,50,"0,1,1",6,blank,419,null,0.229803828,0.740297658,0.350735946,1,,,,,,
,html-keyboard-response,388,923409,0.0-198.0-1.0,null,<p></p>,,null,,,,,,,,,,,,,,,,
,do_trial,389,926143,0.0-199.0-0.0,195.1999998,,,,50,"0,0,0",6,blank,420,null,0.13706587,0.721943551,0.308159974,0,,,,,,
,html-keyboard-response,390,927148,0.0-199.0-1.0,null,<p></p>,,null,,,,,,,,,,,,,,,,
,do_recog,391,930027,0.0-200.0-0.0,1369.3,,,,53,,,,421,probe-144,,,,,1,[object Object],84,2,1,
,html-keyboard-response,392,931031,0.0-200.0-1.0,null,<p></p>,,null,,,,,,,,,,,,,,,,
,do_trial,393,933962,0.0-201.0-0.0,390.0999999,,,,50,"0,0,1",6,blank,422,null,0.251539612,0.758123404,0.27981734,0,,,,,,
,html-keyboard-response,394,934966,0.0-201.0-1.0,null,<p></p>,,null,,,,,,,,,,,,,,,,
,do_trial,395,938165,0.0-202.0-0.0,654.2000003,,,,50,"1,1,1",6,blank,423,null,0.234027716,0.798273481,0.502297772,1,,,,,,
,html-keyboard-response,396,939169,0.0-202.0-1.0,null,<p></p>,,null,,,,,,,,,,,,,,,,
,do_trial,397,942257,0.0-203.0-0.0,546.0999999,,,,50,"1,0,1",6,blank,424,null,0.180435243,0.724147663,0.334638788,0,,,,,,
,html-keyboard-response,398,943262,0.0-203.0-1.0,null,<p></p>,,null,,,,,,,,,,,,,,,,
,do_recog,399,946553,0.0-204.0-0.0,1783,,,,56,,,,425,probe-143,,,,,1,[object Object],121,3,0,
,html-keyboard-response,400,947557,0.0-204.0-1.0,null,<p></p>,,null,,,,,,,,,,,,,,,,
,do_trial,401,950970,0.0-205.0-0.0,871.0999999,,,,50,"0,1,0",6,blank,426,null,0.138725358,0.70787813,0.283088188,1,,,,,,
,html-keyboard-response,402,951975,0.0-205.0-1.0,null,<p></p>,,null,,,,,,,,,,,,,,,,
,do_trial,403,955080,0.0-206.0-0.0,564.0999999,,,,50,"0,1,0",6,blank,427,null,0.12799301,0.614717875,0.179047536,1,,,,,,
,html-keyboard-response,404,956084,0.0-206.0-1.0,null,<p></p>,,null,,,,,,,,,,,,,,,,
,do_trial,405,959097,0.0-207.0-0.0,470.3999996,,,,50,"1,0,1",6,blank,428,null,0.180415785,0.531754992,0.292896296,0,,,,,,
,html-keyboard-response,406,960101,0.0-207.0-1.0,null,<p></p>,,null,,,,,,,,,,,,,,,,
,do_trial,407,963323,0.0-208.0-0.0,678.8999996,,,,50,"0,1,0",6,blank,429,null,0.197674555,0.6518382,0.294421257,1,,,,,,
,html-keyboard-response,408,964327,0.0-208.0-1.0,null,<p></p>,,null,,,,,,,,,,,,,,,,
,do_trial,409,967527,0.0-209.0-0.0,658.0999999,,,,50,"0,0,0",6,blank,430,null,0.137445046,0.511310666,0.260395575,0,,,,,,
,html-keyboard-response,410,968531,0.0-209.0-1.0,null,<p></p>,,null,,,,,,,,,,,,,,,,
,do_trial,411,972053,0.0-210.0-0.0,983.6999998,,,,50,"0,1,0",6,blank,431,null,0.074689057,0.459140435,0.347845678,1,,,,,,
,html-keyboard-response,412,973059,0.0-210.0-1.0,null,<p></p>,,null,,,,,,,,,,,,,,,,
,do_recog,413,976071,0.0-211.0-0.0,1505.3,,,,53,,,,432,probe-203,,,,,1,[object Object],85,2,1,
,html-keyboard-response,414,977074,0.0-211.0-1.0,null,<p></p>,,null,,,,,,,,,,,,,,,,
,do_trial,415,980778,0.0-212.0-0.0,1158.8,,,,50,"0,0,0",6,blank,433,null,0.094325958,0.389181903,0.369923272,0,,,,,,
,html-keyboard-response,416,981787,0.0-212.0-1.0,null,<p></p>,,null,,,,,,,,,,,,,,,,
,do_trial,417,985654,0.0-213.0-0.0,1318.9,,,,50,"0,1,1",6,blank,434,null,0.216108014,0.455632575,0.27328626,1,,,,,,
,html-keyboard-response,418,986657,0.0-213.0-1.0,null,<p></p>,,null,,,,,,,,,,,,,,,,
,do_trial,419,990785,0.0-214.0-0.0,1584.7,,,,50,"1,1,1",6,blank,435,null,0.058336315,0.549419716,0.388838886,1,,,,,,
,html-keyboard-response,420,991795,0.0-214.0-1.0,null,<p></p>,,null,,,,,,,,,,,,,,,,
,do_trial,421,994924,0.0-215.0-0.0,581.8000002,,,,50,"0,1,0",6,blank,436,null,0.185979308,0.550545079,0.342397887,1,,,,,,
,html-keyboard-response,422,995928,0.0-215.0-1.0,null,<p></p>,,null,,,,,,,,,,,,,,,,
,do_trial,423,999299,0.0-216.0-0.0,827.1999998,,,,50,"0,1,0",6,blank,437,null,0.198553488,0.466271021,0.295484683,1,,,,,,
,html-keyboard-response,424,1000304,0.0-216.0-1.0,null,<p></p>,,null,,,,,,,,,,,,,,,,
,do_trial,425,1003306,0.0-217.0-0.0,458.5999999,,,,50,"0,0,0",6,blank,438,null,0.080446161,0.532673892,0.374623954,0,,,,,,
,html-keyboard-response,426,1004310,0.0-217.0-1.0,null,<p></p>,,null,,,,,,,,,,,,,,,,
,do_recog,427,1007508,0.0-218.0-0.0,1692.4,,,,55,,,,439,probe-158,,,,,1,[object Object],83,2,0,
,html-keyboard-response,428,1008513,0.0-218.0-1.0,null,<p></p>,,null,,,,,,,,,,,,,,,,
,do_trial,429,1011856,0.0-219.0-0.0,799.7000003,,,,50,"0,1,0",6,blank,440,null,0.076204745,0.510834277,0.324995027,1,,,,,,
,html-keyboard-response,430,1012860,0.0-219.0-1.0,null,<p></p>,,null,,,,,,,,,,,,,,,,
,do_trial,431,1015716,0.0-220.0-0.0,316.3000002,,,,50,"0,0,1",6,blank,441,null,0.056801437,0.532121826,0.381062039,0,,,,,,
,html-keyboard-response,432,1016720,0.0-220.0-1.0,null,<p></p>,,null,,,,,,,,,,,,,,,,
,do_trial,433,1019616,0.0-221.0-0.0,325,,,,51,"0,1,0",6,blank,442,null,0.115083371,0.511736865,0.350068255,0,,,,,,
,html-keyboard-response,434,1020621,0.0-221.0-1.0,null,<p></p>,,null,,,,,,,,,,,,,,,,
,do_trial,435,1023616,0.0-222.0-0.0,450.3000002,,,,49,"0,1,1",6,blank,443,null,0.061524744,0.563742603,0.402855234,0,,,,,,
,html-keyboard-response,436,1024621,0.0-222.0-1.0,null,<p></p>,,null,,,,,,,,,,,,,,,,
,do_recog,437,1027285,0.0-223.0-0.0,1155.9,,,,53,,,,444,probe-90,,,,,1,[object Object],124,3,1,
,html-keyboard-response,438,1028289,0.0-223.0-1.0,null,<p></p>,,null,,,,,,,,,,,,,,,,
,do_trial,439,1031424,0.0-224.0-0.0,590.2999997,,,,49,"1,1,0",6,blank,445,null,0.104396842,0.656476627,0.259946859,1,,,,,,
,html-keyboard-response,440,1032427,0.0-224.0-1.0,null,<p></p>,,null,,,,,,,,,,,,,,,,
,do_trial,441,1035220,0.0-225.0-0.0,250.4000001,,,,49,"0,0,0",6,blank,446,null,0.200255113,0.637588229,0.308390331,0,,,,,,
,html-keyboard-response,442,1036224,0.0-225.0-1.0,null,<p></p>,,null,,,,,,,,,,,,,,,,
,do_trial,443,1039167,0.0-226.0-0.0,399.5999999,,,,49,"0,0,0",6,blank,447,null,0.182365175,0.638723592,0.402814563,0,,,,,,
,html-keyboard-response,444,1040172,0.0-226.0-1.0,null,<p></p>,,null,,,,,,,,,,,,,,,,
,do_trial,445,1043131,0.0-227.0-0.0,418.5,,,,51,"0,1,0",6,blank,448,null,0.180830718,0.458007782,0.357176215,0,,,,,,
,html-keyboard-response,446,1044136,0.0-227.0-1.0,null,<p></p>,,null,,,,,,,,,,,,,,,,
,do_trial,447,1046946,0.0-228.0-0.0,270.4000001,,,,51,"0,1,1",6,blank,449,null,0.240778575,0.58663265,0.505099076,1,,,,,,
,html-keyboard-response,448,1047950,0.0-228.0-1.0,null,<p></p>,,null,,,,,,,,,,,,,,,,
,do_trial,449,1050903,0.0-229.0-0.0,410.2999997,,,,51,"0,1,0",6,blank,450,null,0.109109596,0.539916722,0.426865957,0,,,,,,
,html-keyboard-response,450,1051909,0.0-229.0-1.0,null,<p></p>,,null,,,,,,,,,,,,,,,,
,do_recog,451,1054564,0.0-230.0-0.0,1147.4,,,,53,,,,451,probe-21,,,,,1,[object Object],164,4,1,
,html-keyboard-response,452,1055566,0.0-230.0-1.0,null,<p></p>,,null,,,,,,,,,,,,,,,,
,do_trial,453,1059739,0.0-231.0-0.0,1631.7,,,,51,"0,1,1",6,blank,452,null,0.145361169,0.421871864,0.321064146,1,,,,,,
,html-keyboard-response,454,1060743,0.0-231.0-1.0,null,<p></p>,,null,,,,,,,,,,,,,,,,
,do_recog,455,1063827,0.0-232.0-0.0,1576.2,,,,55,,,,453,probe-216,,,,,1,[object Object],126,3,0,
,html-keyboard-response,456,1064830,0.0-232.0-1.0,null,<p></p>,,null,,,,,,,,,,,,,,,,
,do_trial,457,1067979,0.0-233.0-0.0,607.5,,,,51,"1,0,1",6,blank,454,null,0.17901721,0.379192137,0.370684563,1,,,,,,
,html-keyboard-response,458,1068980,0.0-233.0-1.0,null,<p></p>,,null,,,,,,,,,,,,,,,,
,do_trial,459,1071914,0.0-234.0-0.0,391.3000002,,,,51,"0,0,1",6,blank,455,null,0.397713916,0.235052799,0.389782467,1,,,,,,
,html-keyboard-response,460,1072916,0.0-234.0-1.0,null,<p></p>,,null,,,,,,,,,,,,,,,,
,do_recog,461,1075981,0.0-235.0-0.0,1556.1,,,,53,,,,456,probe-147,,,,,1,[object Object],44,1,1,
,html-keyboard-response,462,1076985,0.0-235.0-1.0,null,<p></p>,,null,,,,,,,,,,,,,,,,
,do_trial,463,1079904,0.0-236.0-0.0,379.9000001,,,,51,"1,1,1",6,blank,457,null,0.394468071,0.265208915,0.433808408,1,,,,,,
,html-keyboard-response,464,1080908,0.0-236.0-1.0,null,<p></p>,,null,,,,,,,,,,,,,,,,
,do_recog,465,1083527,0.0-237.0-0.0,1114,,,,53,,,,458,probe-236,,,,,0,[object Object],null,null,0,
,html-keyboard-response,466,1084531,0.0-237.0-1.0,null,<p></p>,,null,,,,,,,,,,,,,,,,
,do_trial,467,1087693,0.0-238.0-0.0,618.6999998,,,,51,"0,0,0",6,blank,459,null,0.433286304,0.182171481,0.30631082,0,,,,,,
,html-keyboard-response,468,1088697,0.0-238.0-1.0,null,<p></p>,,null,,,,,,,,,,,,,,,,
,do_recog,469,1091859,0.0-239.0-0.0,1654.2,,,,55,,,,460,probe-240,,,,,0,[object Object],null,null,1,
,html-keyboard-response,470,1092864,0.0-239.0-1.0,null,<p></p>,,null,,,,,,,,,,,,,,,,
,do_trial,471,1096065,0.0-240.0-0.0,660.3999996,,,,50,"0,0,1",6,blank,461,null,0.525275398,0.18075491,0.361605505,0,,,,,,
,html-keyboard-response,472,1097071,0.0-240.0-1.0,null,<p></p>,,null,,,,,,,,,,,,,,,,
,do_recog,473,1100268,0.0-241.0-0.0,1686.9,,,,54,,,,462,probe-251,,,,,0,[object Object],null,null,0,
,html-keyboard-response,474,1101272,0.0-241.0-1.0,null,<p></p>,,null,,,,,,,,,,,,,,,,
,do_trial,475,1104459,0.0-242.0-0.0,643.7000003,,,,50,"1,0,0",6,blank,463,null,0.588318888,0.256386984,0.315444743,0,,,,,,
,html-keyboard-response,476,1105463,0.0-242.0-1.0,null,<p></p>,,null,,,,,,,,,,,,,,,,
,do_trial,477,1108412,0.0-243.0-0.0,405.1999998,,,,51,"1,0,0",6,blank,464,null,0.546925918,0.198537325,0.389345817,0,,,,,,
,html-keyboard-response,478,1109416,0.0-243.0-1.0,null,<p></p>,,null,,,,,,,,,,,,,,,,
,do_trial,479,1112394,0.0-244.0-0.0,436.4000001,,,,51,"0,0,1",6,blank,465,null,0.518202977,0.159997462,0.44149248,1,,,,,,
,html-keyboard-response,480,1113398,0.0-244.0-1.0,null,<p></p>,,null,,,,,,,,,,,,,,,,
,do_recog,481,1116527,0.0-245.0-0.0,1622,,,,56,,,,466,probe-235,,,,,0,[object Object],null,null,1,
,html-keyboard-response,482,1117531,0.0-245.0-1.0,null,<p></p>,,null,,,,,,,,,,,,,,,,
,do_trial,483,1120694,0.0-246.0-0.0,624.0999999,,,,51,"0,0,1",6,blank,467,null,0.416214996,0.050611098,0.366254652,1,,,,,,
,html-keyboard-response,484,1121698,0.0-246.0-1.0,null,<p></p>,,null,,,,,,,,,,,,,,,,
,do_recog,485,1124543,0.0-247.0-0.0,1337.9,,,,56,,,,468,probe-255,,,,,0,[object Object],null,null,1,
,html-keyboard-response,486,1125547,0.0-247.0-1.0,null,<p></p>,,null,,,,,,,,,,,,,,,,
,do_trial,487,1130846,0.0-248.0-0.0,2758.6,,,,51,"1,0,0",6,blank,469,null,0.412932527,0.102908198,0.222493031,0,,,,,,
,html-keyboard-response,488,1131851,0.0-248.0-1.0,null,<p></p>,,null,,,,,,,,,,,,,,,,
,do_recog,489,1137861,0.0-249.0-0.0,null,,,,null,,,,470,probe-254,,,,,0,[object Object],null,null,0,
,html-keyboard-response,490,1138863,0.0-249.0-1.0,null,<p></p>,,null,,,,,,,,,,,,,,,,
,do_trial,491,1144909,0.0-250.0-0.0,null,,,,null,"1,0,0",6,blank,471,null,0.594279683,0.057140509,0.139300183,,,,,,,
,html-keyboard-response,492,1145912,0.0-250.0-1.0,null,<p></p>,,null,,,,,,,,,,,,,,,,
,do_trial,493,1149306,0.0-251.0-0.0,853.7000003,,,,50,"1,0,1",6,blank,472,null,0.639020127,0.063020831,0.236283919,0,,,,,,
,html-keyboard-response,494,1150310,0.0-251.0-1.0,null,<p></p>,,null,,,,,,,,,,,,,,,,
,do_trial,495,1156352,0.0-252.0-0.0,null,,,,null,"0,0,1",6,blank,473,null,0.750517209,0.066709119,0.345800292,,,,,,,
,html-keyboard-response,496,1157357,0.0-252.0-1.0,null,<p></p>,,null,,,,,,,,,,,,,,,,
,do_trial,497,1161072,0.0-253.0-0.0,1171.6,,,,50,"0,0,1",6,blank,474,null,0.744956593,0.080227338,0.248093157,0,,,,,,
,html-keyboard-response,498,1162076,0.0-253.0-1.0,null,<p></p>,,null,,,,,,,,,,,,,,,,
,do_trial,499,1164984,0.0-254.0-0.0,365,,,,49,"1,0,0",6,blank,475,null,0.713225817,0.24006638,0.130372726,1,,,,,,
,html-keyboard-response,500,1165989,0.0-254.0-1.0,null,<p></p>,,null,,,,,,,,,,,,,,,,
,do_trial,501,1170279,0.0-255.0-0.0,1748.3,,,,51,"1,0,0",6,blank,476,null,0.764706388,0.157210922,0.173783076,0,,,,,,
,html-keyboard-response,502,1171283,0.0-255.0-1.0,null,<p></p>,,null,,,,,,,,,,,,,,,,
,do_recog,503,1177296,0.0-256.0-0.0,null,,,,null,,,,477,probe-239,,,,,0,[object Object],null,null,0,
,html-keyboard-response,504,1178302,0.0-256.0-1.0,null,<p></p>,,null,,,,,,,,,,,,,,,,
,do_trial,505,1181209,0.0-257.0-0.0,363.5999999,,,,49,"1,0,0",6,blank,478,null,0.610070494,0.28370947,0.211780222,1,,,,,,
,html-keyboard-response,506,1182213,0.0-257.0-1.0,null,<p></p>,,null,,,,,,,,,,,,,,,,
,do_recog,507,1184831,0.0-258.0-0.0,1107.4,,,,54,,,,479,probe-232,,,,,0,[object Object],null,null,0,
,html-keyboard-response,508,1185835,0.0-258.0-1.0,null,<p></p>,,null,,,,,,,,,,,,,,,,
,do_pick_best_pirate,509,1193208,0.0-259.0-0.0,6367.4,,,,50,,,,,,,,,,,,,,,
,do_pick_best_pirate,510,1198089,0.0-260.0-0.0,3873.8,,,,51,,,,,,,,,,,,,,,
,do_pick_best_pirate,511,1200312,0.0-261.0-0.0,1216,,,,51,,,,,,,,,,,,,,,
,do_pick_best_pirate,512,1203872,0.0-262.0-0.0,2553.4,,,,49,,,,,,,,,,,,,,,
,do_pick_best_pirate,513,1207458,0.0-263.0-0.0,2577.5,,,,50,,,,,,,,,,,,,,,
,do_pick_best_pirate,514,1209577,0.0-264.0-0.0,1111.3,,,,49,,,,,,,,,,,,,,,
,html-keyboard-response,515,1217111,0.0-265.0-0.0,7532.8,<p>You are all done with the experiment!</p><p> You made $15 plus $1 in bonus payment!</p><p>Thank you for participating. You will recieve your payment within 3 days.<p><b>[Press the space bar to end the experiment]</b></p></div>,,32,,,,,,,,,,,,,,,,