"success","trial_type","trial_index","time_elapsed","internal_node_id","interactions","blur_events","focus_events","fullscreenenter_events","fullscreenexit_events","rt","stimulus","key_press","subject_id","participant_id","age","gender","prompt","response","choice_outcomes","context_n","context_img_id","trial_n","probe_img_id","pR_red","pR_white","pR_black","outcome","is_valid","image_to_show","probed_trial","probed_context","correct","probe","probed_trial_n","probed_context_n","context_im"
"true","fullscreen","0","4119","0.0-0.0","""event"",""trial"",""time""
""fullscreenenter"",""0"",""3122""
","
","
","""event"",""trial"",""time""
""fullscreenenter"",""0"",""3122""
","
","","","","","","","","","","","","","","","","","","","","","","","","","","",""
"","pavlovia","1","4121","0.0-1.0","""event"",""trial"",""time""
""fullscreenenter"",""0"",""3122""
""blur"",""2"",""7809""
","""event"",""trial"",""time""
""blur"",""2"",""7809""
","
","""event"",""trial"",""time""
""fullscreenenter"",""0"",""3122""
","
","","","","","","","","","","","","","","","","","","","","","","","","","","",""
"","welc_back","2","14312","0.0-2.0","""event"",""trial"",""time""
""fullscreenenter"",""0"",""3122""
""blur"",""2"",""7809""
""focus"",""3"",""17857""
","""event"",""trial"",""time""
""blur"",""2"",""7809""
","""event"",""trial"",""time""
""focus"",""3"",""17857""
","""event"",""trial"",""time""
""fullscreenenter"",""0"",""3122""
","
","null","run_exp/static/audio/clip_29_welcome_back.m4a","null","1472","1570","18","Male","<div class='center'><p>Welcome to day 2!</p><p> Yesterday, you were the head captain of a pirate ship. You asked your fellow pirates to rob other ships of their gold across six different islands.</p></div>","","","","","","","","","","","","","","","","","","",""
"","html-keyboard-response","3","21817","0.0-3.0","""event"",""trial"",""time""
""fullscreenenter"",""0"",""3122""
""blur"",""2"",""7809""
""focus"",""3"",""17857""
","""event"",""trial"",""time""
""blur"",""2"",""7809""
","""event"",""trial"",""time""
""focus"",""3"",""17857""
","""event"",""trial"",""time""
""fullscreenenter"",""0"",""3122""
","
","7504.40000000014","<div class='center'><p>Welcome to day 2!</p><p> Yesterday, you were the head captain of a pirate ship. You asked your fellow pirates to rob other ships of their gold across six different islands.</p><p><b>[Press the space bar to continue]</b></p></div>","32","","","","","","","","","","","","","","","","","","","","","","","",""
"","day_1_summary_goal","4","39272","0.0-4.0","""event"",""trial"",""time""
""fullscreenenter"",""0"",""3122""
""blur"",""2"",""7809""
""focus"",""3"",""17857""
","""event"",""trial"",""time""
""blur"",""2"",""7809""
","""event"",""trial"",""time""
""focus"",""3"",""17857""
","""event"",""trial"",""time""
""fullscreenenter"",""0"",""3122""
","
","null","run_exp/static/audio/clip_30_goal_of_game.m4a","null","","","","","<div class='center'><p>Today, like yesterday, you get to pick which pirate you want to rob the next ship.</p><p>If the pirate is successful in robbing a ship, you get gold coins that look like this: </p><p><img src='run_exp/static/images/tutorial/reward.png' height='150'></p><p> If they were not successful in robbing the ship, then you will get no gold coins and you'll see a big red x like this: </p><p><img src='run_exp/static/images/tutorial/reward_no.png' height='150'></p></div>","","","","","","","","","","","","","","","","","","",""
"","html-keyboard-response","5","41431","0.0-5.0","""event"",""trial"",""time""
""fullscreenenter"",""0"",""3122""
""blur"",""2"",""7809""
""focus"",""3"",""17857""
","""event"",""trial"",""time""
""blur"",""2"",""7809""
","""event"",""trial"",""time""
""focus"",""3"",""17857""
","""event"",""trial"",""time""
""fullscreenenter"",""0"",""3122""
","
","2158.8000000000466","<div class='center'><p>Today, like yesterday, you get to pick which pirate you want to rob the next ship.</p><p>If the pirate is successful in robbing a ship, you get gold coins that look like this: </p><p><img src='run_exp/static/images/tutorial/reward.png' height='150'></p><p> If they were not successful in robbing the ship, then you will get no gold coins and you'll see a big red x like this: </p><p><img src='run_exp/static/images/tutorial/reward_no.png' height='150'></p><p><b>[Press the space bar to continue]</b></p></div>","32","","","","","","","","","","","","","","","","","","","","","","","",""
"","day_1_summary_pick","6","56332","0.0-6.0","""event"",""trial"",""time""
""fullscreenenter"",""0"",""3122""
""blur"",""2"",""7809""
""focus"",""3"",""17857""
","""event"",""trial"",""time""
""blur"",""2"",""7809""
","""event"",""trial"",""time""
""focus"",""3"",""17857""
","""event"",""trial"",""time""
""fullscreenenter"",""0"",""3122""
","
","null","run_exp/static/audio/clip_31_how_to_pick_a_pirate.m4a","null","","","","","<div class='center'><p>Also, just like yesterday, you will use the 1,2,3 keys on your keyboard to pick a pirate. Press '1' to choose red beard, '2' to choose white beard, and '3' to choose black beard . You only have 3 seconds to pick a pirate, so please make a choice quickly!</p></div>","","","","","","","","","","","","","","","","","","",""
"","html-keyboard-response","7","79437","0.0-7.0","""event"",""trial"",""time""
""fullscreenenter"",""0"",""3122""
""blur"",""2"",""7809""
""focus"",""3"",""17857""
""blur"",""8"",""101505""
","""event"",""trial"",""time""
""blur"",""2"",""7809""
""blur"",""8"",""101505""
","""event"",""trial"",""time""
""focus"",""3"",""17857""
","""event"",""trial"",""time""
""fullscreenenter"",""0"",""3122""
","
","23104.100000000093","<div class='center'><p>Also, just like yesterday, you will use the 1,2,3 keys on your keyboard to pick a pirate. Press '1' to choose red beard, '2' to choose white beard, and '3' to choose black beard . You only have 3 seconds to pick a pirate, so please make a choice quickly!</p><p><b>[Press the space bar to continue]</b></p></div>","32","","","","","","","","","","","","","","","","","","","","","","","",""
"","test_phase_begin","8","110442","0.0-8.0","""event"",""trial"",""time""
""fullscreenenter"",""0"",""3122""
""blur"",""2"",""7809""
""focus"",""3"",""17857""
""blur"",""8"",""101505""
""focus"",""9"",""114461""
","""event"",""trial"",""time""
""blur"",""2"",""7809""
""blur"",""8"",""101505""
","""event"",""trial"",""time""
""focus"",""3"",""17857""
""focus"",""9"",""114461""
","""event"",""trial"",""time""
""fullscreenenter"",""0"",""3122""
","
","null","run_exp/static/audio/clip_32_final_place.m4a","null","","","","","<div class='center'><p>You’ve arrived at the final island of your journey! Unfortunately, it’s very foggy out, so you won’t be able to see it in the distance like the other islands you've visited.</p><p>You’ll still be deciding which pirate you want to rob a ship like before. However, because of the fog, you also won’t be able to see the ship.</p><p>This means you do not have to remember the ships you rob on this island.</p><p>Unlike yesterday, you won't be visiting multiple islands today. You will stay on this island for the entire game. This game will last ~30 minutes.</p></div>","","","","","","","","","","","","","","","","","","",""
"","html-keyboard-response","9","119599","0.0-9.0","""event"",""trial"",""time""
""fullscreenenter"",""0"",""3122""
""blur"",""2"",""7809""
""focus"",""3"",""17857""
""blur"",""8"",""101505""
""focus"",""9"",""114461""
","""event"",""trial"",""time""
""blur"",""2"",""7809""
""blur"",""8"",""101505""
","""event"",""trial"",""time""
""focus"",""3"",""17857""
""focus"",""9"",""114461""
","""event"",""trial"",""time""
""fullscreenenter"",""0"",""3122""
","
","9156.699999999953","<div class='center'><p>You’ve arrived at the final island of your journey! Unfortunately, it’s very foggy out, so you won’t be able to see it in the distance like the other islands you've visited.</p><p>You’ll still be deciding which pirate you want to rob a ship like before. However, because of the fog, you also won’t be able to see the ship.</p><p>This means you do not have to remember the ships you rob on this island.</p><p>Unlike yesterday, you won't be visiting multiple islands today. You will stay on this island for the entire game. This game will last ~30 minutes.</p><p><b>[Press the space bar to continue]</b></p></div>","32","","","","","","","","","","","","","","","","","","","","","","","",""
"","explain_probe_1","10","127521","0.0-10.0","""event"",""trial"",""time""
""fullscreenenter"",""0"",""3122""
""blur"",""2"",""7809""
""focus"",""3"",""17857""
""blur"",""8"",""101505""
""focus"",""9"",""114461""
","""event"",""trial"",""time""
""blur"",""2"",""7809""
""blur"",""8"",""101505""
","""event"",""trial"",""time""
""focus"",""3"",""17857""
""focus"",""9"",""114461""
","""event"",""trial"",""time""
""fullscreenenter"",""0"",""3122""
","
","null","run_exp/static/audio/clip_33_recognition_1.m4a","null","","","","","<div class='center'><p> Sometimes you’ll be shown a ship, and you will be asked if you saw this ship on a past island.</p><p> Here is an example of what you will see.</p><p><img src='run_exp/static/images/tutorial/example_recog_trial.png' height='500'></p></div>","","","","","","","","","","","","","","","","","","",""
"","html-keyboard-response","11","131676","0.0-11.0","""event"",""trial"",""time""
""fullscreenenter"",""0"",""3122""
""blur"",""2"",""7809""
""focus"",""3"",""17857""
""blur"",""8"",""101505""
""focus"",""9"",""114461""
","""event"",""trial"",""time""
""blur"",""2"",""7809""
""blur"",""8"",""101505""
","""event"",""trial"",""time""
""focus"",""3"",""17857""
""focus"",""9"",""114461""
","""event"",""trial"",""time""
""fullscreenenter"",""0"",""3122""
","
","4154.100000000093","<div class='center'><p> Sometimes you’ll be shown a ship, and you will be asked if you saw this ship on a past island.</p><p> Here is an example of what you will see.</p><p><img src='run_exp/static/images/tutorial/example_recog_trial.png' height='500'></p><p><b>[Press the space bar to continue]</b></p></div>","32","","","","","","","","","","","","","","","","","","","","","","","",""
"","explain_probe_2","12","153621","0.0-12.0","""event"",""trial"",""time""
""fullscreenenter"",""0"",""3122""
""blur"",""2"",""7809""
""focus"",""3"",""17857""
""blur"",""8"",""101505""
""focus"",""9"",""114461""
","""event"",""trial"",""time""
""blur"",""2"",""7809""
""blur"",""8"",""101505""
","""event"",""trial"",""time""
""focus"",""3"",""17857""
""focus"",""9"",""114461""
","""event"",""trial"",""time""
""fullscreenenter"",""0"",""3122""
","
","null","run_exp/static/audio/clip_34_recognition_2.m4a","null","","","","","<div class='center'><p> You will press the 5, 6, 7, 8 keys on your keyboard to respond.</p><p>If you are sure you saw the ship, press <b>5</b> on your keyboard.</p><p> If you think you saw it before but aren't sure, then press <b>6</b>.</p><p> If you think you have <b>not</b> seen it before but aren't sure, then press <b>7</b>.</p><p> If you are sure you did <b>not</b> see the ship before, then press <b>8</b>.</p><p><img src='run_exp/static/images/tutorial/example_recog_trial.png' height='500'></p></div>","","","","","","","","","","","","","","","","","","",""
"","html-keyboard-response","13","159917","0.0-13.0","""event"",""trial"",""time""
""fullscreenenter"",""0"",""3122""
""blur"",""2"",""7809""
""focus"",""3"",""17857""
""blur"",""8"",""101505""
""focus"",""9"",""114461""
","""event"",""trial"",""time""
""blur"",""2"",""7809""
""blur"",""8"",""101505""
","""event"",""trial"",""time""
""focus"",""3"",""17857""
""focus"",""9"",""114461""
","""event"",""trial"",""time""
""fullscreenenter"",""0"",""3122""
","
","6294.799999999814","<div class='center'><p> You will press the 5, 6, 7, 8 keys on your keyboard to respond.</p><p>If you are sure you saw the ship, press <b>5</b> on your keyboard.</p><p> If you think you saw it before but aren't sure, then press <b>6</b>.</p><p> If you think you have <b>not</b> seen it before but aren't sure, then press <b>7</b>.</p><p> If you are sure you did <b>not</b> see the ship before, then press <b>8</b>.</p><p><img src='run_exp/static/images/tutorial/example_recog_trial.png' height='500'></p><p><b>[Press the space bar to continue]</b></p></div>","32","","","","","","","","","","","","","","","","","","","","","","","",""
"","explain_outcome","14","177341","0.0-14.0","""event"",""trial"",""time""
""fullscreenenter"",""0"",""3122""
""blur"",""2"",""7809""
""focus"",""3"",""17857""
""blur"",""8"",""101505""
""focus"",""9"",""114461""
","""event"",""trial"",""time""
""blur"",""2"",""7809""
""blur"",""8"",""101505""
","""event"",""trial"",""time""
""focus"",""3"",""17857""
""focus"",""9"",""114461""
","""event"",""trial"",""time""
""fullscreenenter"",""0"",""3122""
","
","null","run_exp/static/audio/clip_35_recognition_3.m4a","null","","","","","<div class='center'><p> If you remember correctly, then you’ll get a gold coin like this: </p><p><img src='run_exp/static/images/tutorial/reward_small.png' height='200'></p><p>If you do not remember correctly, then you'll see a red x like this: </p><p><img src='run_exp/static/images/tutorial/reward_no.png' height='200'></p><p>Importantly, when you are shown a ship, take the time to remind yourself which island you saw it on. This will help you in the next part of the study.</p></div>","","","","","","","","","","","","","","","","","","",""
"","html-keyboard-response","15","178705","0.0-15.0","""event"",""trial"",""time""
""fullscreenenter"",""0"",""3122""
""blur"",""2"",""7809""
""focus"",""3"",""17857""
""blur"",""8"",""101505""
""focus"",""9"",""114461""
","""event"",""trial"",""time""
""blur"",""2"",""7809""
""blur"",""8"",""101505""
","""event"",""trial"",""time""
""focus"",""3"",""17857""
""focus"",""9"",""114461""
","""event"",""trial"",""time""
""fullscreenenter"",""0"",""3122""
","
","1362.8000000000466","<div class='center'><p> If you remember correctly, then you’ll get a gold coin like this: </p><p><img src='run_exp/static/images/tutorial/reward_small.png' height='200'></p><p>If you do not remember correctly, then you'll see a red x like this: </p><p><img src='run_exp/static/images/tutorial/reward_no.png' height='200'></p><p>Importantly, when you are shown a ship, take the time to remind yourself which island you saw it on. This will help you in the next part of the study.</p><p><b>[Press the space bar to continue]</b></p></div>","32","","","","","","","","","","","","","","","","","","","","","","","",""
"","begin_test_phase","16","194721","0.0-16.0","""event"",""trial"",""time""
""fullscreenenter"",""0"",""3122""
""blur"",""2"",""7809""
""focus"",""3"",""17857""
""blur"",""8"",""101505""
""focus"",""9"",""114461""
","""event"",""trial"",""time""
""blur"",""2"",""7809""
""blur"",""8"",""101505""
","""event"",""trial"",""time""
""focus"",""3"",""17857""
""focus"",""9"",""114461""
","""event"",""trial"",""time""
""fullscreenenter"",""0"",""3122""
","
","null","run_exp/static/audio/clip_36_begin_final.m4a","null","","","","","<div class='center'><p>Let's go over the important points again. Your job is to: </p><p>1. Pick the pirate who is best at robbing ships and will bring you back gold coins. </p><p>2. Correctly remember whether or not you saw a ship before. If you did see the ship before, remind yourself on which island you saw it. </p></div>","","","","","","","","","","","","","","","","","","",""
"","html-keyboard-response","17","196981","0.0-17.0","""event"",""trial"",""time""
""fullscreenenter"",""0"",""3122""
""blur"",""2"",""7809""
""focus"",""3"",""17857""
""blur"",""8"",""101505""
""focus"",""9"",""114461""
","""event"",""trial"",""time""
""blur"",""2"",""7809""
""blur"",""8"",""101505""
","""event"",""trial"",""time""
""focus"",""3"",""17857""
""focus"",""9"",""114461""
","""event"",""trial"",""time""
""fullscreenenter"",""0"",""3122""
","
","2233.1999999999534","<div class='center'><p>Let's go over the important points again. Your job is to: </p><p>1. Pick the pirate who is best at robbing ships and will bring you back gold coins. </p><p>2. Correctly remember whether or not you saw a ship before. If you did see the ship before, remind yourself on which island you saw it. </p><p><b>[Press the space bar to continue]</b></p></div>","32","","","","","","","","","","","","","","","","","","","","","","","",""
"","do_welcome","18","200999","0.0-18.0","""event"",""trial"",""time""
""fullscreenenter"",""0"",""3122""
""blur"",""2"",""7809""
""focus"",""3"",""17857""
""blur"",""8"",""101505""
""focus"",""9"",""114461""
""blur"",""19"",""203689""
","""event"",""trial"",""time""
""blur"",""2"",""7809""
""blur"",""8"",""101505""
""blur"",""19"",""203689""
","""event"",""trial"",""time""
""focus"",""3"",""17857""
""focus"",""9"",""114461""
","""event"",""trial"",""time""
""fullscreenenter"",""0"",""3122""
","
","null","","","","","","","","null","","","","","","","","","","","","","","","","","",""
"","do_trial","19","205260","0.0-19.0-0.0","""event"",""trial"",""time""
""fullscreenenter"",""0"",""3122""
""blur"",""2"",""7809""
""focus"",""3"",""17857""
""blur"",""8"",""101505""
""focus"",""9"",""114461""
""blur"",""19"",""203689""
","""event"",""trial"",""time""
""blur"",""2"",""7809""
""blur"",""8"",""101505""
""blur"",""19"",""203689""
","""event"",""trial"",""time""
""focus"",""3"",""17857""
""focus"",""9"",""114461""
","""event"",""trial"",""time""
""fullscreenenter"",""0"",""3122""
","
","1716.6000000000931","","","","","","","","49","1,0,0","6","blank","230","null","0.7700846801633339","0.25817104187848167","0.23297009555633708","1","","","","","","","","",""
"","html-keyboard-response","20","206277","0.0-19.0-1.0","""event"",""trial"",""time""
""fullscreenenter"",""0"",""3122""
""blur"",""2"",""7809""
""focus"",""3"",""17857""
""blur"",""8"",""101505""
""focus"",""9"",""114461""
""blur"",""19"",""203689""
""focus"",""21"",""207599""
","""event"",""trial"",""time""
""blur"",""2"",""7809""
""blur"",""8"",""101505""
""blur"",""19"",""203689""
","""event"",""trial"",""time""
""focus"",""3"",""17857""
""focus"",""9"",""114461""
""focus"",""21"",""207599""
","""event"",""trial"",""time""
""fullscreenenter"",""0"",""3122""
","
","null","<p></p>","null","","","","","","","","","","","","","","","","","","","","","","","",""
"","do_trial","21","212330","0.0-20.0-0.0","""event"",""trial"",""time""
""fullscreenenter"",""0"",""3122""
""blur"",""2"",""7809""
""focus"",""3"",""17857""
""blur"",""8"",""101505""
""focus"",""9"",""114461""
""blur"",""19"",""203689""
""focus"",""21"",""207599""
","""event"",""trial"",""time""
""blur"",""2"",""7809""
""blur"",""8"",""101505""
""blur"",""19"",""203689""
","""event"",""trial"",""time""
""focus"",""3"",""17857""
""focus"",""9"",""114461""
""focus"",""21"",""207599""
","""event"",""trial"",""time""
""fullscreenenter"",""0"",""3122""
","
","null","","","","","","","","null","1,1,0","6","blank","231","null","0.7830425454068316","0.18478751959249173","0.3853039396546666","","","","","","","","","",""
"","html-keyboard-response","22","213347","0.0-20.0-1.0","""event"",""trial"",""time""
""fullscreenenter"",""0"",""3122""
""blur"",""2"",""7809""
""focus"",""3"",""17857""
""blur"",""8"",""101505""
""focus"",""9"",""114461""
""blur"",""19"",""203689""
""focus"",""21"",""207599""
","""event"",""trial"",""time""
""blur"",""2"",""7809""
""blur"",""8"",""101505""
""blur"",""19"",""203689""
","""event"",""trial"",""time""
""focus"",""3"",""17857""
""focus"",""9"",""114461""
""focus"",""21"",""207599""
","""event"",""trial"",""time""
""fullscreenenter"",""0"",""3122""
","
","null","<p></p>","null","","","","","","","","","","","","","","","","","","","","","","","",""
"","do_trial","23","216152","0.0-21.0-0.0","""event"",""trial"",""time""
""fullscreenenter"",""0"",""3122""
""blur"",""2"",""7809""
""focus"",""3"",""17857""
""blur"",""8"",""101505""
""focus"",""9"",""114461""
""blur"",""19"",""203689""
""focus"",""21"",""207599""
","""event"",""trial"",""time""
""blur"",""2"",""7809""
""blur"",""8"",""101505""
""blur"",""19"",""203689""
","""event"",""trial"",""time""
""focus"",""3"",""17857""
""focus"",""9"",""114461""
""focus"",""21"",""207599""
","""event"",""trial"",""time""
""fullscreenenter"",""0"",""3122""
","
","254","","","","","","","","49","0,0,0","6","blank","232","null","0.8146220123121569","0.11720392879444522","0.35195020895046564","0","","","","","","","","",""
"","html-keyboard-response","24","217154","0.0-21.0-1.0","""event"",""trial"",""time""
""fullscreenenter"",""0"",""3122""
""blur"",""2"",""7809""
""focus"",""3"",""17857""
""blur"",""8"",""101505""
""focus"",""9"",""114461""
""blur"",""19"",""203689""
""focus"",""21"",""207599""
","""event"",""trial"",""time""
""blur"",""2"",""7809""
""blur"",""8"",""101505""
""blur"",""19"",""203689""
","""event"",""trial"",""time""
""focus"",""3"",""17857""
""focus"",""9"",""114461""
""focus"",""21"",""207599""
","""event"",""trial"",""time""
""fullscreenenter"",""0"",""3122""
","
","null","<p></p>","null","","","","","","","","","","","","","","","","","","","","","","","",""
"","do_trial","25","220084","0.0-22.0-0.0","""event"",""trial"",""time""
""fullscreenenter"",""0"",""3122""
""blur"",""2"",""7809""
""focus"",""3"",""17857""
""blur"",""8"",""101505""
""focus"",""9"",""114461""
""blur"",""19"",""203689""
""focus"",""21"",""207599""
","""event"",""trial"",""time""
""blur"",""2"",""7809""
""blur"",""8"",""101505""
""blur"",""19"",""203689""
","""event"",""trial"",""time""
""focus"",""3"",""17857""
""focus"",""9"",""114461""
""focus"",""21"",""207599""
","""event"",""trial"",""time""
""fullscreenenter"",""0"",""3122""
","
","385.5999999998603","","","","","","","","50","1,0,1","6","blank","233","null","0.7962791574674755","0.18936127509281547","0.2737026291386561","0","","","","","","","","",""
"","html-keyboard-response","26","221087","0.0-22.0-1.0","""event"",""trial"",""time""
""fullscreenenter"",""0"",""3122""
""blur"",""2"",""7809""
""focus"",""3"",""17857""
""blur"",""8"",""101505""
""focus"",""9"",""114461""
""blur"",""19"",""203689""
""focus"",""21"",""207599""
","""event"",""trial"",""time""
""blur"",""2"",""7809""
""blur"",""8"",""101505""
""blur"",""19"",""203689""
","""event"",""trial"",""time""
""focus"",""3"",""17857""
""focus"",""9"",""114461""
""focus"",""21"",""207599""
","""event"",""trial"",""time""
""fullscreenenter"",""0"",""3122""
","
","null","<p></p>","null","","","","","","","","","","","","","","","","","","","","","","","",""
"","do_trial","27","224013","0.0-23.0-0.0","""event"",""trial"",""time""
""fullscreenenter"",""0"",""3122""
""blur"",""2"",""7809""
""focus"",""3"",""17857""
""blur"",""8"",""101505""
""focus"",""9"",""114461""
""blur"",""19"",""203689""
""focus"",""21"",""207599""
","""event"",""trial"",""time""
""blur"",""2"",""7809""
""blur"",""8"",""101505""
""blur"",""19"",""203689""
","""event"",""trial"",""time""
""focus"",""3"",""17857""
""focus"",""9"",""114461""
""focus"",""21"",""207599""
","""event"",""trial"",""time""
""fullscreenenter"",""0"",""3122""
","
","381.30000000004657","","","","","","","","51","1,0,1","6","blank","234","null","0.7792567969036268","0.15886911187420272","0.28804912842058983","1","","","","","","","","",""
"","html-keyboard-response","28","225015","0.0-23.0-1.0","""event"",""trial"",""time""
""fullscreenenter"",""0"",""3122""
""blur"",""2"",""7809""
""focus"",""3"",""17857""
""blur"",""8"",""101505""
""focus"",""9"",""114461""
""blur"",""19"",""203689""
""focus"",""21"",""207599""
","""event"",""trial"",""time""
""blur"",""2"",""7809""
""blur"",""8"",""101505""
""blur"",""19"",""203689""
","""event"",""trial"",""time""
""focus"",""3"",""17857""
""focus"",""9"",""114461""
""focus"",""21"",""207599""
","""event"",""trial"",""time""
""fullscreenenter"",""0"",""3122""
","
","null","<p></p>","null","","","","","","","","","","","","","","","","","","","","","","","",""
"","do_trial","29","227975","0.0-24.0-0.0","""event"",""trial"",""time""
""fullscreenenter"",""0"",""3122""
""blur"",""2"",""7809""
""focus"",""3"",""17857""
""blur"",""8"",""101505""
""focus"",""9"",""114461""
""blur"",""19"",""203689""
""focus"",""21"",""207599""
","""event"",""trial"",""time""
""blur"",""2"",""7809""
""blur"",""8"",""101505""
""blur"",""19"",""203689""
","""event"",""trial"",""time""
""focus"",""3"",""17857""
""focus"",""9"",""114461""
""focus"",""21"",""207599""
","""event"",""trial"",""time""
""fullscreenenter"",""0"",""3122""
","
","408.5","","","","","","","","51","0,0,0","6","blank","235","null","0.6903681600040451","0.13734756704235068","0.34306235398758256","0","","","","","","","","",""
"","html-keyboard-response","30","228978","0.0-24.0-1.0","""event"",""trial"",""time""
""fullscreenenter"",""0"",""3122""
""blur"",""2"",""7809""
""focus"",""3"",""17857""
""blur"",""8"",""101505""
""focus"",""9"",""114461""
""blur"",""19"",""203689""
""focus"",""21"",""207599""
","""event"",""trial"",""time""
""blur"",""2"",""7809""
""blur"",""8"",""101505""
""blur"",""19"",""203689""
","""event"",""trial"",""time""
""focus"",""3"",""17857""
""focus"",""9"",""114461""
""focus"",""21"",""207599""
","""event"",""trial"",""time""
""fullscreenenter"",""0"",""3122""
","
","null","<p></p>","null","","","","","","","","","","","","","","","","","","","","","","","",""
"","do_trial","31","231539","0.0-25.0-0.0","""event"",""trial"",""time""
""fullscreenenter"",""0"",""3122""
""blur"",""2"",""7809""
""focus"",""3"",""17857""
""blur"",""8"",""101505""
""focus"",""9"",""114461""
""blur"",""19"",""203689""
""focus"",""21"",""207599""
","""event"",""trial"",""time""
""blur"",""2"",""7809""
""blur"",""8"",""101505""
""blur"",""19"",""203689""
","""event"",""trial"",""time""
""focus"",""3"",""17857""
""focus"",""9"",""114461""
""focus"",""21"",""207599""
","""event"",""trial"",""time""
""fullscreenenter"",""0"",""3122""
","
","17.300000000046566","","","","","","","","51","0,0,0","6","blank","236","null","0.6838730329500199","0.06071479415579159","0.3502352101503059","0","","","","","","","","",""
"","html-keyboard-response","32","232555","0.0-25.0-1.0","""event"",""trial"",""time""
""fullscreenenter"",""0"",""3122""
""blur"",""2"",""7809""
""focus"",""3"",""17857""
""blur"",""8"",""101505""
""focus"",""9"",""114461""
""blur"",""19"",""203689""
""focus"",""21"",""207599""
","""event"",""trial"",""time""
""blur"",""2"",""7809""
""blur"",""8"",""101505""
""blur"",""19"",""203689""
","""event"",""trial"",""time""
""focus"",""3"",""17857""
""focus"",""9"",""114461""
""focus"",""21"",""207599""
","""event"",""trial"",""time""
""fullscreenenter"",""0"",""3122""
","
","null","<p></p>","null","","","","","","","","","","","","","","","","","","","","","","","",""
"","do_trial","33","235223","0.0-26.0-0.0","""event"",""trial"",""time""
""fullscreenenter"",""0"",""3122""
""blur"",""2"",""7809""
""focus"",""3"",""17857""
""blur"",""8"",""101505""
""focus"",""9"",""114461""
""blur"",""19"",""203689""
""focus"",""21"",""207599""
","""event"",""trial"",""time""
""blur"",""2"",""7809""
""blur"",""8"",""101505""
""blur"",""19"",""203689""
","""event"",""trial"",""time""
""focus"",""3"",""17857""
""focus"",""9"",""114461""
""focus"",""21"",""207599""
","""event"",""trial"",""time""
""fullscreenenter"",""0"",""3122""
","
","123","","","","","","","","51","1,0,0","6","blank","237","null","0.5759620270464936","0.10501702886261666","0.3593621354111171","0","","","","","","","","",""
"","html-keyboard-response","34","236239","0.0-26.0-1.0","""event"",""trial"",""time""
""fullscreenenter"",""0"",""3122""
""blur"",""2"",""7809""
""focus"",""3"",""17857""
""blur"",""8"",""101505""
""focus"",""9"",""114461""
""blur"",""19"",""203689""
""focus"",""21"",""207599""
","""event"",""trial"",""time""
""blur"",""2"",""7809""
""blur"",""8"",""101505""
""blur"",""19"",""203689""
","""event"",""trial"",""time""
""focus"",""3"",""17857""
""focus"",""9"",""114461""
""focus"",""21"",""207599""
","""event"",""trial"",""time""
""fullscreenenter"",""0"",""3122""
","
","null","<p></p>","null","","","","","","","","","","","","","","","","","","","","","","","",""
"","do_trial","35","238785","0.0-27.0-0.0","""event"",""trial"",""time""
""fullscreenenter"",""0"",""3122""
""blur"",""2"",""7809""
""focus"",""3"",""17857""
""blur"",""8"",""101505""
""focus"",""9"",""114461""
""blur"",""19"",""203689""
""focus"",""21"",""207599""
","""event"",""trial"",""time""
""blur"",""2"",""7809""
""blur"",""8"",""101505""
""blur"",""19"",""203689""
","""event"",""trial"",""time""
""focus"",""3"",""17857""
""focus"",""9"",""114461""
""focus"",""21"",""207599""
","""event"",""trial"",""time""
""fullscreenenter"",""0"",""3122""
","
","0.2999999998137355","","","","","","","","51","1,0,1","6","blank","238","null","0.5982523941534662","0.06826447784657862","0.3472774904649807","1","","","","","","","","",""
"","html-keyboard-response","36","239800","0.0-27.0-1.0","""event"",""trial"",""time""
""fullscreenenter"",""0"",""3122""
""blur"",""2"",""7809""
""focus"",""3"",""17857""
""blur"",""8"",""101505""
""focus"",""9"",""114461""
""blur"",""19"",""203689""
""focus"",""21"",""207599""
","""event"",""trial"",""time""
""blur"",""2"",""7809""
""blur"",""8"",""101505""
""blur"",""19"",""203689""
","""event"",""trial"",""time""
""focus"",""3"",""17857""
""focus"",""9"",""114461""
""focus"",""21"",""207599""
","""event"",""trial"",""time""
""fullscreenenter"",""0"",""3122""
","
","null","<p></p>","null","","","","","","","","","","","","","","","","","","","","","","","",""
"","do_trial","37","242685","0.0-28.0-0.0","""event"",""trial"",""time""
""fullscreenenter"",""0"",""3122""
""blur"",""2"",""7809""
""focus"",""3"",""17857""
""blur"",""8"",""101505""
""focus"",""9"",""114461""
""blur"",""19"",""203689""
""focus"",""21"",""207599""
","""event"",""trial"",""time""
""blur"",""2"",""7809""
""blur"",""8"",""101505""
""blur"",""19"",""203689""
","""event"",""trial"",""time""
""focus"",""3"",""17857""
""focus"",""9"",""114461""
""focus"",""21"",""207599""
","""event"",""trial"",""time""
""fullscreenenter"",""0"",""3122""
","
","333.19999999995343","","","","","","","","51","0,0,0","6","blank","239","null","0.696055985687859","0.05055208575585713","0.38997447919805367","0","","","","","","","","",""
"","html-keyboard-response","38","243687","0.0-28.0-1.0","""event"",""trial"",""time""
""fullscreenenter"",""0"",""3122""
""blur"",""2"",""7809""
""focus"",""3"",""17857""
""blur"",""8"",""101505""
""focus"",""9"",""114461""
""blur"",""19"",""203689""
""focus"",""21"",""207599""
","""event"",""trial"",""time""
""blur"",""2"",""7809""
""blur"",""8"",""101505""
""blur"",""19"",""203689""
","""event"",""trial"",""time""
""focus"",""3"",""17857""
""focus"",""9"",""114461""
""focus"",""21"",""207599""
","""event"",""trial"",""time""
""fullscreenenter"",""0"",""3122""
","
","null","<p></p>","null","","","","","","","","","","","","","","","","","","","","","","","",""
"","do_trial","39","246974","0.0-29.0-0.0","""event"",""trial"",""time""
""fullscreenenter"",""0"",""3122""
""blur"",""2"",""7809""
""focus"",""3"",""17857""
""blur"",""8"",""101505""
""focus"",""9"",""114461""
""blur"",""19"",""203689""
""focus"",""21"",""207599""
","""event"",""trial"",""time""
""blur"",""2"",""7809""
""blur"",""8"",""101505""
""blur"",""19"",""203689""
","""event"",""trial"",""time""
""focus"",""3"",""17857""
""focus"",""9"",""114461""
""focus"",""21"",""207599""
","""event"",""trial"",""time""
""fullscreenenter"",""0"",""3122""
","
","744.3999999999069","","","","","","","","50","1,0,0","6","blank","240","null","0.5124103024487748","0.05912402287844281","0.4516401158690065","0","","","","","","","","",""
"","html-keyboard-response","40","247991","0.0-29.0-1.0","""event"",""trial"",""time""
""fullscreenenter"",""0"",""3122""
""blur"",""2"",""7809""
""focus"",""3"",""17857""
""blur"",""8"",""101505""
""focus"",""9"",""114461""
""blur"",""19"",""203689""
""focus"",""21"",""207599""
","""event"",""trial"",""time""
""blur"",""2"",""7809""
""blur"",""8"",""101505""
""blur"",""19"",""203689""
","""event"",""trial"",""time""
""focus"",""3"",""17857""
""focus"",""9"",""114461""
""focus"",""21"",""207599""
","""event"",""trial"",""time""
""fullscreenenter"",""0"",""3122""
","
","null","<p></p>","null","","","","","","","","","","","","","","","","","","","","","","","",""
"","do_trial","41","251349","0.0-30.0-0.0","""event"",""trial"",""time""
""fullscreenenter"",""0"",""3122""
""blur"",""2"",""7809""
""focus"",""3"",""17857""
""blur"",""8"",""101505""
""focus"",""9"",""114461""
""blur"",""19"",""203689""
""focus"",""21"",""207599""
","""event"",""trial"",""time""
""blur"",""2"",""7809""
""blur"",""8"",""101505""
""blur"",""19"",""203689""
","""event"",""trial"",""time""
""focus"",""3"",""17857""
""focus"",""9"",""114461""
""focus"",""21"",""207599""
","""event"",""trial"",""time""
""fullscreenenter"",""0"",""3122""
","
","816.9000000001397","","","","","","","","50","0,0,1","6","blank","241","null","0.5977215392801165","0.11228579344378987","0.4061521787038899","0","","","","","","","","",""
"","html-keyboard-response","42","252365","0.0-30.0-1.0","""event"",""trial"",""time""
""fullscreenenter"",""0"",""3122""
""blur"",""2"",""7809""
""focus"",""3"",""17857""
""blur"",""8"",""101505""
""focus"",""9"",""114461""
""blur"",""19"",""203689""
""focus"",""21"",""207599""
","""event"",""trial"",""time""
""blur"",""2"",""7809""
""blur"",""8"",""101505""
""blur"",""19"",""203689""
","""event"",""trial"",""time""
""focus"",""3"",""17857""
""focus"",""9"",""114461""
""focus"",""21"",""207599""
","""event"",""trial"",""time""
""fullscreenenter"",""0"",""3122""
","
","null","<p></p>","null","","","","","","","","","","","","","","","","","","","","","","","",""
"","do_trial","43","255600","0.0-31.0-0.0","""event"",""trial"",""time""
""fullscreenenter"",""0"",""3122""
""blur"",""2"",""7809""
""focus"",""3"",""17857""
""blur"",""8"",""101505""
""focus"",""9"",""114461""
""blur"",""19"",""203689""
""focus"",""21"",""207599""
","""event"",""trial"",""time""
""blur"",""2"",""7809""
""blur"",""8"",""101505""
""blur"",""19"",""203689""
","""event"",""trial"",""time""
""focus"",""3"",""17857""
""focus"",""9"",""114461""
""focus"",""21"",""207599""
","""event"",""trial"",""time""
""fullscreenenter"",""0"",""3122""
","
","693.1000000000931","","","","","","","","49","0,0,1","6","blank","242","null","0.41566000097690625","0.34447354860358304","0.3806923613045737","0","","","","","","","","",""
"","html-keyboard-response","44","256614","0.0-31.0-1.0","""event"",""trial"",""time""
""fullscreenenter"",""0"",""3122""
""blur"",""2"",""7809""
""focus"",""3"",""17857""
""blur"",""8"",""101505""
""focus"",""9"",""114461""
""blur"",""19"",""203689""
""focus"",""21"",""207599""
","""event"",""trial"",""time""
""blur"",""2"",""7809""
""blur"",""8"",""101505""
""blur"",""19"",""203689""
","""event"",""trial"",""time""
""focus"",""3"",""17857""
""focus"",""9"",""114461""
""focus"",""21"",""207599""
","""event"",""trial"",""time""
""fullscreenenter"",""0"",""3122""
","
","null","<p></p>","null","","","","","","","","","","","","","","","","","","","","","","","",""
"","do_recog","45","262621","0.0-32.0-0.0","""event"",""trial"",""time""
""fullscreenenter"",""0"",""3122""
""blur"",""2"",""7809""
""focus"",""3"",""17857""
""blur"",""8"",""101505""
""focus"",""9"",""114461""
""blur"",""19"",""203689""
""focus"",""21"",""207599""
","""event"",""trial"",""time""
""blur"",""2"",""7809""
""blur"",""8"",""101505""
""blur"",""19"",""203689""
","""event"",""trial"",""time""
""focus"",""3"",""17857""
""focus"",""9"",""114461""
""focus"",""21"",""207599""
","""event"",""trial"",""time""
""fullscreenenter"",""0"",""3122""
","
","null","","","","","","","","null","","","","243","probe-174","","","","","1","[object Object]","195","4","0","","","",""
"","html-keyboard-response","46","263636","0.0-32.0-1.0","""event"",""trial"",""time""
""fullscreenenter"",""0"",""3122""
""blur"",""2"",""7809""
""focus"",""3"",""17857""
""blur"",""8"",""101505""
""focus"",""9"",""114461""
""blur"",""19"",""203689""
""focus"",""21"",""207599""
","""event"",""trial"",""time""
""blur"",""2"",""7809""
""blur"",""8"",""101505""
""blur"",""19"",""203689""
","""event"",""trial"",""time""
""focus"",""3"",""17857""
""focus"",""9"",""114461""
""focus"",""21"",""207599""
","""event"",""trial"",""time""
""fullscreenenter"",""0"",""3122""
","
","null","<p></p>","null","","","","","","","","","","","","","","","","","","","","","","","",""
"","do_trial","47","267118","0.0-33.0-0.0","""event"",""trial"",""time""
""fullscreenenter"",""0"",""3122""
""blur"",""2"",""7809""
""focus"",""3"",""17857""
""blur"",""8"",""101505""
""focus"",""9"",""114461""
""blur"",""19"",""203689""
""focus"",""21"",""207599""
","""event"",""trial"",""time""
""blur"",""2"",""7809""
""blur"",""8"",""101505""
""blur"",""19"",""203689""
","""event"",""trial"",""time""
""focus"",""3"",""17857""
""focus"",""9"",""114461""
""focus"",""21"",""207599""
","""event"",""trial"",""time""
""fullscreenenter"",""0"",""3122""
","
","936.8999999999069","","","","","","","","49","0,1,1","6","blank","244","null","0.2951488469191552","0.46631868904946844","0.65384358515727","0","","","","","","","","",""
"","html-keyboard-response","48","268120","0.0-33.0-1.0","""event"",""trial"",""time""
""fullscreenenter"",""0"",""3122""
""blur"",""2"",""7809""
""focus"",""3"",""17857""
""blur"",""8"",""101505""
""focus"",""9"",""114461""
""blur"",""19"",""203689""
""focus"",""21"",""207599""
","""event"",""trial"",""time""
""blur"",""2"",""7809""
""blur"",""8"",""101505""
""blur"",""19"",""203689""
","""event"",""trial"",""time""
""focus"",""3"",""17857""
""focus"",""9"",""114461""
""focus"",""21"",""207599""
","""event"",""trial"",""time""
""fullscreenenter"",""0"",""3122""
","
","null","<p></p>","null","","","","","","","","","","","","","","","","","","","","","","","",""
"","do_recog","49","272466","0.0-34.0-0.0","""event"",""trial"",""time""
""fullscreenenter"",""0"",""3122""
""blur"",""2"",""7809""
""focus"",""3"",""17857""
""blur"",""8"",""101505""
""focus"",""9"",""114461""
""blur"",""19"",""203689""
""focus"",""21"",""207599""
","""event"",""trial"",""time""
""blur"",""2"",""7809""
""blur"",""8"",""101505""
""blur"",""19"",""203689""
","""event"",""trial"",""time""
""focus"",""3"",""17857""
""focus"",""9"",""114461""
""focus"",""21"",""207599""
","""event"",""trial"",""time""
""fullscreenenter"",""0"",""3122""
","
","2833.4000000001397","","","","","","","","56","","","","245","probe-227","","","","","1","[object Object]","157","3","0","","","",""
"","html-keyboard-response","50","273483","0.0-34.0-1.0","""event"",""trial"",""time""
""fullscreenenter"",""0"",""3122""
""blur"",""2"",""7809""
""focus"",""3"",""17857""
""blur"",""8"",""101505""
""focus"",""9"",""114461""
""blur"",""19"",""203689""
""focus"",""21"",""207599""
","""event"",""trial"",""time""
""blur"",""2"",""7809""
""blur"",""8"",""101505""
""blur"",""19"",""203689""
","""event"",""trial"",""time""
""focus"",""3"",""17857""
""focus"",""9"",""114461""
""focus"",""21"",""207599""
","""event"",""trial"",""time""
""fullscreenenter"",""0"",""3122""
","
","null","<p></p>","null","","","","","","","","","","","","","","","","","","","","","","","",""
"","do_trial","51","277431","0.0-35.0-0.0","""event"",""trial"",""time""
""fullscreenenter"",""0"",""3122""
""blur"",""2"",""7809""
""focus"",""3"",""17857""
""blur"",""8"",""101505""
""focus"",""9"",""114461""
""blur"",""19"",""203689""
""focus"",""21"",""207599""
","""event"",""trial"",""time""
""blur"",""2"",""7809""
""blur"",""8"",""101505""
""blur"",""19"",""203689""
","""event"",""trial"",""time""
""focus"",""3"",""17857""
""focus"",""9"",""114461""
""focus"",""21"",""207599""
","""event"",""trial"",""time""
""fullscreenenter"",""0"",""3122""
","
","1406","","","","","","","","51","0,1,1","6","blank","246","null","0.2746279712690813","0.44319748021833827","0.5019274517273166","1","","","","","","","","",""
"","html-keyboard-response","52","278433","0.0-35.0-1.0","""event"",""trial"",""time""
""fullscreenenter"",""0"",""3122""
""blur"",""2"",""7809""
""focus"",""3"",""17857""
""blur"",""8"",""101505""
""focus"",""9"",""114461""
""blur"",""19"",""203689""
""focus"",""21"",""207599""
","""event"",""trial"",""time""
""blur"",""2"",""7809""
""blur"",""8"",""101505""
""blur"",""19"",""203689""
","""event"",""trial"",""time""
""focus"",""3"",""17857""
""focus"",""9"",""114461""
""focus"",""21"",""207599""
","""event"",""trial"",""time""
""fullscreenenter"",""0"",""3122""
","
","null","<p></p>","null","","","","","","","","","","","","","","","","","","","","","","","",""
"","do_trial","53","281311","0.0-36.0-0.0","""event"",""trial"",""time""
""fullscreenenter"",""0"",""3122""
""blur"",""2"",""7809""
""focus"",""3"",""17857""
""blur"",""8"",""101505""
""focus"",""9"",""114461""
""blur"",""19"",""203689""
""focus"",""21"",""207599""
","""event"",""trial"",""time""
""blur"",""2"",""7809""
""blur"",""8"",""101505""
""blur"",""19"",""203689""
","""event"",""trial"",""time""
""focus"",""3"",""17857""
""focus"",""9"",""114461""
""focus"",""21"",""207599""
","""event"",""trial"",""time""
""fullscreenenter"",""0"",""3122""
","
","333.80000000004657","","","","","","","","51","1,0,1","6","blank","247","null","0.07882555496268634","0.41412220836252245","0.6054786565962281","1","","","","","","","","",""
"","html-keyboard-response","54","282327","0.0-36.0-1.0","""event"",""trial"",""time""
""fullscreenenter"",""0"",""3122""
""blur"",""2"",""7809""
""focus"",""3"",""17857""
""blur"",""8"",""101505""
""focus"",""9"",""114461""
""blur"",""19"",""203689""
""focus"",""21"",""207599""
","""event"",""trial"",""time""
""blur"",""2"",""7809""
""blur"",""8"",""101505""
""blur"",""19"",""203689""
","""event"",""trial"",""time""
""focus"",""3"",""17857""
""focus"",""9"",""114461""
""focus"",""21"",""207599""
","""event"",""trial"",""time""
""fullscreenenter"",""0"",""3122""
","
","null","<p></p>","null","","","","","","","","","","","","","","","","","","","","","","","",""
"","do_recog","55","285485","0.0-37.0-0.0","""event"",""trial"",""time""
""fullscreenenter"",""0"",""3122""
""blur"",""2"",""7809""
""focus"",""3"",""17857""
""blur"",""8"",""101505""
""focus"",""9"",""114461""
""blur"",""19"",""203689""
""focus"",""21"",""207599""
","""event"",""trial"",""time""
""blur"",""2"",""7809""
""blur"",""8"",""101505""
""blur"",""19"",""203689""
","""event"",""trial"",""time""
""focus"",""3"",""17857""
""focus"",""9"",""114461""
""focus"",""21"",""207599""
","""event"",""trial"",""time""
""fullscreenenter"",""0"",""3122""
","
","1642.5","","","","","","","","54","","","","248","probe-237","","","","","0","[object Object]","null","null","0","","","",""
"","html-keyboard-response","56","286500","0.0-37.0-1.0","""event"",""trial"",""time""
""fullscreenenter"",""0"",""3122""
""blur"",""2"",""7809""
""focus"",""3"",""17857""
""blur"",""8"",""101505""
""focus"",""9"",""114461""
""blur"",""19"",""203689""
""focus"",""21"",""207599""
","""event"",""trial"",""time""
""blur"",""2"",""7809""
""blur"",""8"",""101505""
""blur"",""19"",""203689""
","""event"",""trial"",""time""
""focus"",""3"",""17857""
""focus"",""9"",""114461""
""focus"",""21"",""207599""
","""event"",""trial"",""time""
""fullscreenenter"",""0"",""3122""
","
","null","<p></p>","null","","","","","","","","","","","","","","","","","","","","","","","",""
"","do_trial","57","289644","0.0-38.0-0.0","""event"",""trial"",""time""
""fullscreenenter"",""0"",""3122""
""blur"",""2"",""7809""
""focus"",""3"",""17857""
""blur"",""8"",""101505""
""focus"",""9"",""114461""
""blur"",""19"",""203689""
""focus"",""21"",""207599""
","""event"",""trial"",""time""
""blur"",""2"",""7809""
""blur"",""8"",""101505""
""blur"",""19"",""203689""
","""event"",""trial"",""time""
""focus"",""3"",""17857""
""focus"",""9"",""114461""
""focus"",""21"",""207599""
","""event"",""trial"",""time""
""fullscreenenter"",""0"",""3122""
","
","585.3000000000466","","","","","","","","51","0,0,0","6","blank","249","null","0.06806736137977822","0.25223201566394965","0.5925520014209061","0","","","","","","","","",""
"","html-keyboard-response","58","290659","0.0-38.0-1.0","""event"",""trial"",""time""
""fullscreenenter"",""0"",""3122""
""blur"",""2"",""7809""
""focus"",""3"",""17857""
""blur"",""8"",""101505""
""focus"",""9"",""114461""
""blur"",""19"",""203689""
""focus"",""21"",""207599""
","""event"",""trial"",""time""
""blur"",""2"",""7809""
""blur"",""8"",""101505""
""blur"",""19"",""203689""
","""event"",""trial"",""time""
""focus"",""3"",""17857""
""focus"",""9"",""114461""
""focus"",""21"",""207599""
","""event"",""trial"",""time""
""fullscreenenter"",""0"",""3122""
","
","null","<p></p>","null","","","","","","","","","","","","","","","","","","","","","","","",""
"","do_recog","59","293846","0.0-39.0-0.0","""event"",""trial"",""time""
""fullscreenenter"",""0"",""3122""
""blur"",""2"",""7809""
""focus"",""3"",""17857""
""blur"",""8"",""101505""
""focus"",""9"",""114461""
""blur"",""19"",""203689""
""focus"",""21"",""207599""
","""event"",""trial"",""time""
""blur"",""2"",""7809""
""blur"",""8"",""101505""
""blur"",""19"",""203689""
","""event"",""trial"",""time""
""focus"",""3"",""17857""
""focus"",""9"",""114461""
""focus"",""21"",""207599""
","""event"",""trial"",""time""
""fullscreenenter"",""0"",""3122""
","
","1677","","","","","","","","56","","","","250","probe-134","","","","","1","[object Object]","113","2","0","","","",""
"","html-keyboard-response","60","294862","0.0-39.0-1.0","""event"",""trial"",""time""
""fullscreenenter"",""0"",""3122""
""blur"",""2"",""7809""
""focus"",""3"",""17857""
""blur"",""8"",""101505""
""focus"",""9"",""114461""
""blur"",""19"",""203689""
""focus"",""21"",""207599""
","""event"",""trial"",""time""
""blur"",""2"",""7809""
""blur"",""8"",""101505""
""blur"",""19"",""203689""
","""event"",""trial"",""time""
""focus"",""3"",""17857""
""focus"",""9"",""114461""
""focus"",""21"",""207599""
","""event"",""trial"",""time""
""fullscreenenter"",""0"",""3122""
","
","null","<p></p>","null","","","","","","","","","","","","","","","","","","","","","","","",""
"","do_trial","61","298806","0.0-40.0-0.0","""event"",""trial"",""time""
""fullscreenenter"",""0"",""3122""
""blur"",""2"",""7809""
""focus"",""3"",""17857""
""blur"",""8"",""101505""
""focus"",""9"",""114461""
""blur"",""19"",""203689""
""focus"",""21"",""207599""
","""event"",""trial"",""time""
""blur"",""2"",""7809""
""blur"",""8"",""101505""
""blur"",""19"",""203689""
","""event"",""trial"",""time""
""focus"",""3"",""17857""
""focus"",""9"",""114461""
""focus"",""21"",""207599""
","""event"",""trial"",""time""
""fullscreenenter"",""0"",""3122""
","
","1393.6000000000931","","","","","","","","51","0,0,1","6","blank","251","null","0.05115003251771744","0.22123837070720076","0.5039805462586067","1","","","","","","","","",""
"","html-keyboard-response","62","299808","0.0-40.0-1.0","""event"",""trial"",""time""
""fullscreenenter"",""0"",""3122""
""blur"",""2"",""7809""
""focus"",""3"",""17857""
""blur"",""8"",""101505""
""focus"",""9"",""114461""
""blur"",""19"",""203689""
""focus"",""21"",""207599""
","""event"",""trial"",""time""
""blur"",""2"",""7809""
""blur"",""8"",""101505""
""blur"",""19"",""203689""
","""event"",""trial"",""time""
""focus"",""3"",""17857""
""focus"",""9"",""114461""
""focus"",""21"",""207599""
","""event"",""trial"",""time""
""fullscreenenter"",""0"",""3122""
","
","null","<p></p>","null","","","","","","","","","","","","","","","","","","","","","","","",""
"","do_trial","63","302689","0.0-41.0-0.0","""event"",""trial"",""time""
""fullscreenenter"",""0"",""3122""
""blur"",""2"",""7809""
""focus"",""3"",""17857""
""blur"",""8"",""101505""
""focus"",""9"",""114461""
""blur"",""19"",""203689""
""focus"",""21"",""207599""
","""event"",""trial"",""time""
""blur"",""2"",""7809""
""blur"",""8"",""101505""
""blur"",""19"",""203689""
","""event"",""trial"",""time""
""focus"",""3"",""17857""
""focus"",""9"",""114461""
""focus"",""21"",""207599""
","""event"",""trial"",""time""
""fullscreenenter"",""0"",""3122""
","
","334.4000000001397","","","","","","","","51","0,0,1","6","blank","252","null","0.17828522409098718","0.39467766886171746","0.4659164295012094","1","","","","","","","","",""
"","html-keyboard-response","64","303692","0.0-41.0-1.0","""event"",""trial"",""time""
""fullscreenenter"",""0"",""3122""
""blur"",""2"",""7809""
""focus"",""3"",""17857""
""blur"",""8"",""101505""
""focus"",""9"",""114461""
""blur"",""19"",""203689""
""focus"",""21"",""207599""
","""event"",""trial"",""time""
""blur"",""2"",""7809""
""blur"",""8"",""101505""
""blur"",""19"",""203689""
","""event"",""trial"",""time""
""focus"",""3"",""17857""
""focus"",""9"",""114461""
""focus"",""21"",""207599""
","""event"",""trial"",""time""
""fullscreenenter"",""0"",""3122""
","
","null","<p></p>","null","","","","","","","","","","","","","","","","","","","","","","","",""
"","do_trial","65","306573","0.0-42.0-0.0","""event"",""trial"",""time""
""fullscreenenter"",""0"",""3122""
""blur"",""2"",""7809""
""focus"",""3"",""17857""
""blur"",""8"",""101505""
""focus"",""9"",""114461""
""blur"",""19"",""203689""
""focus"",""21"",""207599""
","""event"",""trial"",""time""
""blur"",""2"",""7809""
""blur"",""8"",""101505""
""blur"",""19"",""203689""
","""event"",""trial"",""time""
""focus"",""3"",""17857""
""focus"",""9"",""114461""
""focus"",""21"",""207599""
","""event"",""trial"",""time""
""fullscreenenter"",""0"",""3122""
","
","329.19999999995343","","","","","","","","51","0,0,1","6","blank","253","null","0.1781423614659379","0.38204723657800965","0.47563306390228494","1","","","","","","","","",""
"","html-keyboard-response","66","307575","0.0-42.0-1.0","""event"",""trial"",""time""
""fullscreenenter"",""0"",""3122""
""blur"",""2"",""7809""
""focus"",""3"",""17857""
""blur"",""8"",""101505""
""focus"",""9"",""114461""
""blur"",""19"",""203689""
""focus"",""21"",""207599""
","""event"",""trial"",""time""
""blur"",""2"",""7809""
""blur"",""8"",""101505""
""blur"",""19"",""203689""
","""event"",""trial"",""time""
""focus"",""3"",""17857""
""focus"",""9"",""114461""
""focus"",""21"",""207599""
","""event"",""trial"",""time""
""fullscreenenter"",""0"",""3122""
","
","null","<p></p>","null","","","","","","","","","","","","","","","","","","","","","","","",""
"","do_recog","67","310702","0.0-43.0-0.0","""event"",""trial"",""time""
""fullscreenenter"",""0"",""3122""
""blur"",""2"",""7809""
""focus"",""3"",""17857""
""blur"",""8"",""101505""
""focus"",""9"",""114461""
""blur"",""19"",""203689""
""focus"",""21"",""207599""
","""event"",""trial"",""time""
""blur"",""2"",""7809""
""blur"",""8"",""101505""
""blur"",""19"",""203689""
","""event"",""trial"",""time""
""focus"",""3"",""17857""
""focus"",""9"",""114461""
""focus"",""21"",""207599""
","""event"",""trial"",""time""
""fullscreenenter"",""0"",""3122""
","
","1617","","","","","","","","55","","","","254","probe-152","","","","","1","[object Object]","159","3","0","","","",""
"","html-keyboard-response","68","311704","0.0-43.0-1.0","""event"",""trial"",""time""
""fullscreenenter"",""0"",""3122""
""blur"",""2"",""7809""
""focus"",""3"",""17857""
""blur"",""8"",""101505""
""focus"",""9"",""114461""
""blur"",""19"",""203689""
""focus"",""21"",""207599""
","""event"",""trial"",""time""
""blur"",""2"",""7809""
""blur"",""8"",""101505""
""blur"",""19"",""203689""
","""event"",""trial"",""time""
""focus"",""3"",""17857""
""focus"",""9"",""114461""
""focus"",""21"",""207599""
","""event"",""trial"",""time""
""fullscreenenter"",""0"",""3122""
","
","null","<p></p>","null","","","","","","","","","","","","","","","","","","","","","","","",""
"","do_trial","69","315432","0.0-44.0-0.0","""event"",""trial"",""time""
""fullscreenenter"",""0"",""3122""
""blur"",""2"",""7809""
""focus"",""3"",""17857""
""blur"",""8"",""101505""
""focus"",""9"",""114461""
""blur"",""19"",""203689""
""focus"",""21"",""207599""
","""event"",""trial"",""time""
""blur"",""2"",""7809""
""blur"",""8"",""101505""
""blur"",""19"",""203689""
","""event"",""trial"",""time""
""focus"",""3"",""17857""
""focus"",""9"",""114461""
""focus"",""21"",""207599""
","""event"",""trial"",""time""
""fullscreenenter"",""0"",""3122""
","
","1189.6000000000931","","","","","","","","51","0,0,1","6","blank","255","null","0.14241963877081257","0.32679361963539777","0.4780603001788565","1","","","","","","","","",""
"","html-keyboard-response","70","316448","0.0-44.0-1.0","""event"",""trial"",""time""
""fullscreenenter"",""0"",""3122""
""blur"",""2"",""7809""
""focus"",""3"",""17857""
""blur"",""8"",""101505""
""focus"",""9"",""114461""
""blur"",""19"",""203689""
""focus"",""21"",""207599""
","""event"",""trial"",""time""
""blur"",""2"",""7809""
""blur"",""8"",""101505""
""blur"",""19"",""203689""
","""event"",""trial"",""time""
""focus"",""3"",""17857""
""focus"",""9"",""114461""
""focus"",""21"",""207599""
","""event"",""trial"",""time""
""fullscreenenter"",""0"",""3122""
","
","null","<p></p>","null","","","","","","","","","","","","","","","","","","","","","","","",""
"","do_trial","71","319333","0.0-45.0-0.0","""event"",""trial"",""time""
""fullscreenenter"",""0"",""3122""
""blur"",""2"",""7809""
""focus"",""3"",""17857""
""blur"",""8"",""101505""
""focus"",""9"",""114461""
""blur"",""19"",""203689""
""focus"",""21"",""207599""
","""event"",""trial"",""time""
""blur"",""2"",""7809""
""blur"",""8"",""101505""
""blur"",""19"",""203689""
","""event"",""trial"",""time""
""focus"",""3"",""17857""
""focus"",""9"",""114461""
""focus"",""21"",""207599""
","""event"",""trial"",""time""
""fullscreenenter"",""0"",""3122""
","
","332.29999999981374","","","","","","","","51","0,0,1","6","blank","256","null","0.07065537041129637","0.31990774344878925","0.6459194558122233","1","","","","","","","","",""
"","html-keyboard-response","72","320335","0.0-45.0-1.0","""event"",""trial"",""time""
""fullscreenenter"",""0"",""3122""
""blur"",""2"",""7809""
""focus"",""3"",""17857""
""blur"",""8"",""101505""
""focus"",""9"",""114461""
""blur"",""19"",""203689""
""focus"",""21"",""207599""
","""event"",""trial"",""time""
""blur"",""2"",""7809""
""blur"",""8"",""101505""
""blur"",""19"",""203689""
","""event"",""trial"",""time""
""focus"",""3"",""17857""
""focus"",""9"",""114461""
""focus"",""21"",""207599""
","""event"",""trial"",""time""
""fullscreenenter"",""0"",""3122""
","
","null","<p></p>","null","","","","","","","","","","","","","","","","","","","","","","","",""
"","do_trial","73","323470","0.0-46.0-0.0","""event"",""trial"",""time""
""fullscreenenter"",""0"",""3122""
""blur"",""2"",""7809""
""focus"",""3"",""17857""
""blur"",""8"",""101505""
""focus"",""9"",""114461""
""blur"",""19"",""203689""
""focus"",""21"",""207599""
","""event"",""trial"",""time""
""blur"",""2"",""7809""
""blur"",""8"",""101505""
""blur"",""19"",""203689""
","""event"",""trial"",""time""
""focus"",""3"",""17857""
""focus"",""9"",""114461""
""focus"",""21"",""207599""
","""event"",""trial"",""time""
""fullscreenenter"",""0"",""3122""
","
","582.3999999999069","","","","","","","","51","0,0,1","6","blank","257","null","0.11141729738738355","0.23323319662414818","0.5641569588079395","1","","","","","","","","",""
"","html-keyboard-response","74","324473","0.0-46.0-1.0","""event"",""trial"",""time""
""fullscreenenter"",""0"",""3122""
""blur"",""2"",""7809""
""focus"",""3"",""17857""
""blur"",""8"",""101505""
""focus"",""9"",""114461""
""blur"",""19"",""203689""
""focus"",""21"",""207599""
","""event"",""trial"",""time""
""blur"",""2"",""7809""
""blur"",""8"",""101505""
""blur"",""19"",""203689""
","""event"",""trial"",""time""
""focus"",""3"",""17857""
""focus"",""9"",""114461""
""focus"",""21"",""207599""
","""event"",""trial"",""time""
""fullscreenenter"",""0"",""3122""
","
","null","<p></p>","null","","","","","","","","","","","","","","","","","","","","","","","",""
"","do_recog","75","327533","0.0-47.0-0.0","""event"",""trial"",""time""
""fullscreenenter"",""0"",""3122""
""blur"",""2"",""7809""
""focus"",""3"",""17857""
""blur"",""8"",""101505""
""focus"",""9"",""114461""
""blur"",""19"",""203689""
""focus"",""21"",""207599""
","""event"",""trial"",""time""
""blur"",""2"",""7809""
""blur"",""8"",""101505""
""blur"",""19"",""203689""
","""event"",""trial"",""time""
""focus"",""3"",""17857""
""focus"",""9"",""114461""
""focus"",""21"",""207599""
","""event"",""trial"",""time""
""fullscreenenter"",""0"",""3122""
","
","1541.6999999999534","","","","","","","","55","","","","258","probe-233","","","","","0","[object Object]","null","null","1","","","",""
"","html-keyboard-response","76","328538","0.0-47.0-1.0","""event"",""trial"",""time""
""fullscreenenter"",""0"",""3122""
""blur"",""2"",""7809""
""focus"",""3"",""17857""
""blur"",""8"",""101505""
""focus"",""9"",""114461""
""blur"",""19"",""203689""
""focus"",""21"",""207599""
","""event"",""trial"",""time""
""blur"",""2"",""7809""
""blur"",""8"",""101505""
""blur"",""19"",""203689""
","""event"",""trial"",""time""
""focus"",""3"",""17857""
""focus"",""9"",""114461""
""focus"",""21"",""207599""
","""event"",""trial"",""time""
""fullscreenenter"",""0"",""3122""
","
","null","<p></p>","null","","","","","","","","","","","","","","","","","","","","","","","",""
"","do_trial","77","331595","0.0-48.0-0.0","""event"",""trial"",""time""
""fullscreenenter"",""0"",""3122""
""blur"",""2"",""7809""
""focus"",""3"",""17857""
""blur"",""8"",""101505""
""focus"",""9"",""114461""
""blur"",""19"",""203689""
""focus"",""21"",""207599""
","""event"",""trial"",""time""
""blur"",""2"",""7809""
""blur"",""8"",""101505""
""blur"",""19"",""203689""
","""event"",""trial"",""time""
""focus"",""3"",""17857""
""focus"",""9"",""114461""
""focus"",""21"",""207599""
","""event"",""trial"",""time""
""fullscreenenter"",""0"",""3122""
","
","517","","","","","","","","51","0,0,0","6","blank","259","null","0.19399786971464295","0.11191235776315393","0.689218890143054","0","","","","","","","","",""
"","html-keyboard-response","78","332599","0.0-48.0-1.0","""event"",""trial"",""time""
""fullscreenenter"",""0"",""3122""
""blur"",""2"",""7809""
""focus"",""3"",""17857""
""blur"",""8"",""101505""
""focus"",""9"",""114461""
""blur"",""19"",""203689""
""focus"",""21"",""207599""
","""event"",""trial"",""time""
""blur"",""2"",""7809""
""blur"",""8"",""101505""
""blur"",""19"",""203689""
","""event"",""trial"",""time""
""focus"",""3"",""17857""
""focus"",""9"",""114461""
""focus"",""21"",""207599""
","""event"",""trial"",""time""
""fullscreenenter"",""0"",""3122""
","
","null","<p></p>","null","","","","","","","","","","","","","","","","","","","","","","","",""
"","do_recog","79","335238","0.0-49.0-0.0","""event"",""trial"",""time""
""fullscreenenter"",""0"",""3122""
""blur"",""2"",""7809""
""focus"",""3"",""17857""
""blur"",""8"",""101505""
""focus"",""9"",""114461""
""blur"",""19"",""203689""
""focus"",""21"",""207599""
","""event"",""trial"",""time""
""blur"",""2"",""7809""
""blur"",""8"",""101505""
""blur"",""19"",""203689""
","""event"",""trial"",""time""
""focus"",""3"",""17857""
""focus"",""9"",""114461""
""focus"",""21"",""207599""
","""event"",""trial"",""time""
""fullscreenenter"",""0"",""3122""
","
","1134.8000000000466","","","","","","","","55","","","","260","probe-140","","","","","1","[object Object]","118","2","0","","","",""
"","html-keyboard-response","80","336242","0.0-49.0-1.0","""event"",""trial"",""time""
""fullscreenenter"",""0"",""3122""
""blur"",""2"",""7809""
""focus"",""3"",""17857""
""blur"",""8"",""101505""
""focus"",""9"",""114461""
""blur"",""19"",""203689""
""focus"",""21"",""207599""
","""event"",""trial"",""time""
""blur"",""2"",""7809""
""blur"",""8"",""101505""
""blur"",""19"",""203689""
","""event"",""trial"",""time""
""focus"",""3"",""17857""
""focus"",""9"",""114461""
""focus"",""21"",""207599""
","""event"",""trial"",""time""
""fullscreenenter"",""0"",""3122""
","
","null","<p></p>","null","","","","","","","","","","","","","","","","","","","","","","","",""
"","do_trial","81","339556","0.0-50.0-0.0","""event"",""trial"",""time""
""fullscreenenter"",""0"",""3122""
""blur"",""2"",""7809""
""focus"",""3"",""17857""
""blur"",""8"",""101505""
""focus"",""9"",""114461""
""blur"",""19"",""203689""
""focus"",""21"",""207599""
","""event"",""trial"",""time""
""blur"",""2"",""7809""
""blur"",""8"",""101505""
""blur"",""19"",""203689""
","""event"",""trial"",""time""
""focus"",""3"",""17857""
""focus"",""9"",""114461""
""focus"",""21"",""207599""
","""event"",""trial"",""time""
""fullscreenenter"",""0"",""3122""
","
","759.4000000001397","","","","","","","","51","0,0,1","6","blank","261","null","0.15417094867773018","0.1108667107174119","0.7215585912363021","1","","","","","","","","",""
"","html-keyboard-response","82","340560","0.0-50.0-1.0","""event"",""trial"",""time""
""fullscreenenter"",""0"",""3122""
""blur"",""2"",""7809""
""focus"",""3"",""17857""
""blur"",""8"",""101505""
""focus"",""9"",""114461""
""blur"",""19"",""203689""
""focus"",""21"",""207599""
","""event"",""trial"",""time""
""blur"",""2"",""7809""
""blur"",""8"",""101505""
""blur"",""19"",""203689""
","""event"",""trial"",""time""
""focus"",""3"",""17857""
""focus"",""9"",""114461""
""focus"",""21"",""207599""
","""event"",""trial"",""time""
""fullscreenenter"",""0"",""3122""
","
","null","<p></p>","null","","","","","","","","","","","","","","","","","","","","","","","",""
"","do_trial","83","343446","0.0-51.0-0.0","""event"",""trial"",""time""
""fullscreenenter"",""0"",""3122""
""blur"",""2"",""7809""
""focus"",""3"",""17857""
""blur"",""8"",""101505""
""focus"",""9"",""114461""
""blur"",""19"",""203689""
""focus"",""21"",""207599""
","""event"",""trial"",""time""
""blur"",""2"",""7809""
""blur"",""8"",""101505""
""blur"",""19"",""203689""
","""event"",""trial"",""time""
""focus"",""3"",""17857""
""focus"",""9"",""114461""
""focus"",""21"",""207599""
","""event"",""trial"",""time""
""fullscreenenter"",""0"",""3122""
","
","333","","","","","","","","51","1,0,1","6","blank","262","null","0.08675053243894619","0.11728036228409355","0.7240495212684143","1","","","","","","","","",""
"","html-keyboard-response","84","344448","0.0-51.0-1.0","""event"",""trial"",""time""
""fullscreenenter"",""0"",""3122""
""blur"",""2"",""7809""
""focus"",""3"",""17857""
""blur"",""8"",""101505""
""focus"",""9"",""114461""
""blur"",""19"",""203689""
""focus"",""21"",""207599""
","""event"",""trial"",""time""
""blur"",""2"",""7809""
""blur"",""8"",""101505""
""blur"",""19"",""203689""
","""event"",""trial"",""time""
""focus"",""3"",""17857""
""focus"",""9"",""114461""
""focus"",""21"",""207599""
","""event"",""trial"",""time""
""fullscreenenter"",""0"",""3122""
","
","null","<p></p>","null","","","","","","","","","","","","","","","","","","","","","","","",""
"","do_recog","85","347552","0.0-52.0-0.0","""event"",""trial"",""time""
""fullscreenenter"",""0"",""3122""
""blur"",""2"",""7809""
""focus"",""3"",""17857""
""blur"",""8"",""101505""
""focus"",""9"",""114461""
""blur"",""19"",""203689""
""focus"",""21"",""207599""
","""event"",""trial"",""time""
""blur"",""2"",""7809""
""blur"",""8"",""101505""
""blur"",""19"",""203689""
","""event"",""trial"",""time""
""focus"",""3"",""17857""
""focus"",""9"",""114461""
""focus"",""21"",""207599""
","""event"",""trial"",""time""
""fullscreenenter"",""0"",""3122""
","
","1600","","","","","","","","54","","","","263","probe-234","","","","","0","[object Object]","null","null","0","","","",""
"","html-keyboard-response","86","348563","0.0-52.0-1.0","""event"",""trial"",""time""
""fullscreenenter"",""0"",""3122""
""blur"",""2"",""7809""
""focus"",""3"",""17857""
""blur"",""8"",""101505""
""focus"",""9"",""114461""
""blur"",""19"",""203689""
""focus"",""21"",""207599""
","""event"",""trial"",""time""
""blur"",""2"",""7809""
""blur"",""8"",""101505""
""blur"",""19"",""203689""
","""event"",""trial"",""time""
""focus"",""3"",""17857""
""focus"",""9"",""114461""
""focus"",""21"",""207599""
","""event"",""trial"",""time""
""fullscreenenter"",""0"",""3122""
","
","null","<p></p>","null","","","","","","","","","","","","","","","","","","","","","","","",""
"","do_trial","87","351483","0.0-53.0-0.0","""event"",""trial"",""time""
""fullscreenenter"",""0"",""3122""
""blur"",""2"",""7809""
""focus"",""3"",""17857""
""blur"",""8"",""101505""
""focus"",""9"",""114461""
""blur"",""19"",""203689""
""focus"",""21"",""207599""
","""event"",""trial"",""time""
""blur"",""2"",""7809""
""blur"",""8"",""101505""
""blur"",""19"",""203689""
","""event"",""trial"",""time""
""focus"",""3"",""17857""
""focus"",""9"",""114461""
""focus"",""21"",""207599""
","""event"",""trial"",""time""
""fullscreenenter"",""0"",""3122""
","
","370.4000000001397","","","","","","","","51","0,0,0","6","blank","264","null","0.08727021277213752","0.13538151302908813","0.7196153330707488","0","","","","","","","","",""
"","html-keyboard-response","88","352487","0.0-53.0-1.0","""event"",""trial"",""time""
""fullscreenenter"",""0"",""3122""
""blur"",""2"",""7809""
""focus"",""3"",""17857""
""blur"",""8"",""101505""
""focus"",""9"",""114461""
""blur"",""19"",""203689""
""focus"",""21"",""207599""
","""event"",""trial"",""time""
""blur"",""2"",""7809""
""blur"",""8"",""101505""
""blur"",""19"",""203689""
","""event"",""trial"",""time""
""focus"",""3"",""17857""
""focus"",""9"",""114461""
""focus"",""21"",""207599""
","""event"",""trial"",""time""
""fullscreenenter"",""0"",""3122""
","
","null","<p></p>","null","","","","","","","","","","","","","","","","","","","","","","","",""
"","do_recog","89","355516","0.0-54.0-0.0","""event"",""trial"",""time""
""fullscreenenter"",""0"",""3122""
""blur"",""2"",""7809""
""focus"",""3"",""17857""
""blur"",""8"",""101505""
""focus"",""9"",""114461""
""blur"",""19"",""203689""
""focus"",""21"",""207599""
","""event"",""trial"",""time""
""blur"",""2"",""7809""
""blur"",""8"",""101505""
""blur"",""19"",""203689""
","""event"",""trial"",""time""
""focus"",""3"",""17857""
""focus"",""9"",""114461""
""focus"",""21"",""207599""
","""event"",""trial"",""time""
""fullscreenenter"",""0"",""3122""
","
","1522.3999999999069","","","","","","","","56","","","","265","probe-58","","","","","1","[object Object]","38","0","0","","","",""
"","html-keyboard-response","90","356519","0.0-54.0-1.0","""event"",""trial"",""time""
""fullscreenenter"",""0"",""3122""
""blur"",""2"",""7809""
""focus"",""3"",""17857""
""blur"",""8"",""101505""
""focus"",""9"",""114461""
""blur"",""19"",""203689""
""focus"",""21"",""207599""
","""event"",""trial"",""time""
""blur"",""2"",""7809""
""blur"",""8"",""101505""
""blur"",""19"",""203689""
","""event"",""trial"",""time""
""focus"",""3"",""17857""
""focus"",""9"",""114461""
""focus"",""21"",""207599""
","""event"",""trial"",""time""
""fullscreenenter"",""0"",""3122""
","
","null","<p></p>","null","","","","","","","","","","","","","","","","","","","","","","","",""
"","do_trial","91","359697","0.0-55.0-0.0","""event"",""trial"",""time""
""fullscreenenter"",""0"",""3122""
""blur"",""2"",""7809""
""focus"",""3"",""17857""
""blur"",""8"",""101505""
""focus"",""9"",""114461""
""blur"",""19"",""203689""
""focus"",""21"",""207599""
","""event"",""trial"",""time""
""blur"",""2"",""7809""
""blur"",""8"",""101505""
""blur"",""19"",""203689""
","""event"",""trial"",""time""
""focus"",""3"",""17857""
""focus"",""9"",""114461""
""focus"",""21"",""207599""
","""event"",""trial"",""time""
""fullscreenenter"",""0"",""3122""
","
","633.9000000001397","","","","","","","","51","0,0,1","6","blank","266","null","0.21967907391510053","0.26276825086655675","0.6759600190318099","1","","","","","","","","",""
"","html-keyboard-response","92","360700","0.0-55.0-1.0","""event"",""trial"",""time""
""fullscreenenter"",""0"",""3122""
""blur"",""2"",""7809""
""focus"",""3"",""17857""
""blur"",""8"",""101505""
""focus"",""9"",""114461""
""blur"",""19"",""203689""
""focus"",""21"",""207599""
","""event"",""trial"",""time""
""blur"",""2"",""7809""
""blur"",""8"",""101505""
""blur"",""19"",""203689""
","""event"",""trial"",""time""
""focus"",""3"",""17857""
""focus"",""9"",""114461""
""focus"",""21"",""207599""
","""event"",""trial"",""time""
""fullscreenenter"",""0"",""3122""
","
","null","<p></p>","null","","","","","","","","","","","","","","","","","","","","","","","",""
"","do_trial","93","363846","0.0-56.0-0.0","""event"",""trial"",""time""
""fullscreenenter"",""0"",""3122""
""blur"",""2"",""7809""
""focus"",""3"",""17857""
""blur"",""8"",""101505""
""focus"",""9"",""114461""
""blur"",""19"",""203689""
""focus"",""21"",""207599""
","""event"",""trial"",""time""
""blur"",""2"",""7809""
""blur"",""8"",""101505""
""blur"",""19"",""203689""
","""event"",""trial"",""time""
""focus"",""3"",""17857""
""focus"",""9"",""114461""
""focus"",""21"",""207599""
","""event"",""trial"",""time""
""fullscreenenter"",""0"",""3122""
","
","595.1999999999534","","","","","","","","51","1,0,1","6","blank","267","null","0.18870390797532227","0.16804524673578677","0.7131739732004648","1","","","","","","","","",""
"","html-keyboard-response","94","364849","0.0-56.0-1.0","""event"",""trial"",""time""
""fullscreenenter"",""0"",""3122""
""blur"",""2"",""7809""
""focus"",""3"",""17857""
""blur"",""8"",""101505""
""focus"",""9"",""114461""
""blur"",""19"",""203689""
""focus"",""21"",""207599""
","""event"",""trial"",""time""
""blur"",""2"",""7809""
""blur"",""8"",""101505""
""blur"",""19"",""203689""
","""event"",""trial"",""time""
""focus"",""3"",""17857""
""focus"",""9"",""114461""
""focus"",""21"",""207599""
","""event"",""trial"",""time""
""fullscreenenter"",""0"",""3122""
","
","null","<p></p>","null","","","","","","","","","","","","","","","","","","","","","","","",""
"","do_recog","95","368038","0.0-57.0-0.0","""event"",""trial"",""time""
""fullscreenenter"",""0"",""3122""
""blur"",""2"",""7809""
""focus"",""3"",""17857""
""blur"",""8"",""101505""
""focus"",""9"",""114461""
""blur"",""19"",""203689""
""focus"",""21"",""207599""
","""event"",""trial"",""time""
""blur"",""2"",""7809""
""blur"",""8"",""101505""
""blur"",""19"",""203689""
","""event"",""trial"",""time""
""focus"",""3"",""17857""
""focus"",""9"",""114461""
""focus"",""21"",""207599""
","""event"",""trial"",""time""
""fullscreenenter"",""0"",""3122""
","
","1675.1999999999534","","","","","","","","54","","","","268","probe-71","","","","","1","[object Object]","36","0","1","","","",""
"","html-keyboard-response","96","369054","0.0-57.0-1.0","""event"",""trial"",""time""
""fullscreenenter"",""0"",""3122""
""blur"",""2"",""7809""
""focus"",""3"",""17857""
""blur"",""8"",""101505""
""focus"",""9"",""114461""
""blur"",""19"",""203689""
""focus"",""21"",""207599""
""blur"",""97"",""382826""
""focus"",""97"",""466621""
","""event"",""trial"",""time""
""blur"",""2"",""7809""
""blur"",""8"",""101505""
""blur"",""19"",""203689""
""blur"",""97"",""382826""
","""event"",""trial"",""time""
""focus"",""3"",""17857""
""focus"",""9"",""114461""
""focus"",""21"",""207599""
""focus"",""97"",""466621""
","""event"",""trial"",""time""
""fullscreenenter"",""0"",""3122""
","
","null","<p></p>","null","","","","","","","","","","","","","","","","","","","","","","","",""
"","break","97","489063","0.0-58.0-0.0","""event"",""trial"",""time""
""fullscreenenter"",""0"",""3122""
""blur"",""2"",""7809""
""focus"",""3"",""17857""
""blur"",""8"",""101505""
""focus"",""9"",""114461""
""blur"",""19"",""203689""
""focus"",""21"",""207599""
""blur"",""97"",""382826""
""focus"",""97"",""466621""
","""event"",""trial"",""time""
""blur"",""2"",""7809""
""blur"",""8"",""101505""
""blur"",""19"",""203689""
""blur"",""97"",""382826""
","""event"",""trial"",""time""
""focus"",""3"",""17857""
""focus"",""9"",""114461""
""focus"",""21"",""207599""
""focus"",""97"",""466621""
","""event"",""trial"",""time""
""fullscreenenter"",""0"",""3122""
","
","null","<div class='center'><p>Time to take a quick break! You have 2 minutes to rest, but you can move on sooner if you'd like.</p><p> Press the <b>space bar</b> to continue.</p></div>","null","","","","","","","","","","","","","","","","","","","","","","","",""
"","do_trial","98","492989","0.0-58.0-1.0","""event"",""trial"",""time""
""fullscreenenter"",""0"",""3122""
""blur"",""2"",""7809""
""focus"",""3"",""17857""
""blur"",""8"",""101505""
""focus"",""9"",""114461""
""blur"",""19"",""203689""
""focus"",""21"",""207599""
""blur"",""97"",""382826""
""focus"",""97"",""466621""
","""event"",""trial"",""time""
""blur"",""2"",""7809""
""blur"",""8"",""101505""
""blur"",""19"",""203689""
""blur"",""97"",""382826""
","""event"",""trial"",""time""
""focus"",""3"",""17857""
""focus"",""9"",""114461""
""focus"",""21"",""207599""
""focus"",""97"",""466621""
","""event"",""trial"",""time""
""fullscreenenter"",""0"",""3122""
","
","1376.8999999999069","","","","","","","","51","0,0,1","6","blank","269","null","0.18659191071849027","0.07226991647086921","0.6530912039541522","1","","","","","","","","",""
"","html-keyboard-response","99","493994","0.0-58.0-2.0","""event"",""trial"",""time""
""fullscreenenter"",""0"",""3122""
""blur"",""2"",""7809""
""focus"",""3"",""17857""
""blur"",""8"",""101505""
""focus"",""9"",""114461""
""blur"",""19"",""203689""
""focus"",""21"",""207599""
""blur"",""97"",""382826""
""focus"",""97"",""466621""
","""event"",""trial"",""time""
""blur"",""2"",""7809""
""blur"",""8"",""101505""
""blur"",""19"",""203689""
""blur"",""97"",""382826""
","""event"",""trial"",""time""
""focus"",""3"",""17857""
""focus"",""9"",""114461""
""focus"",""21"",""207599""
""focus"",""97"",""466621""
","""event"",""trial"",""time""
""fullscreenenter"",""0"",""3122""
","
","null","<p></p>","null","","","","","","","","","","","","","","","","","","","","","","","",""
"","do_recog","100","497219","0.0-59.0-0.0","""event"",""trial"",""time""
""fullscreenenter"",""0"",""3122""
""blur"",""2"",""7809""
""focus"",""3"",""17857""
""blur"",""8"",""101505""
""focus"",""9"",""114461""
""blur"",""19"",""203689""
""focus"",""21"",""207599""
""blur"",""97"",""382826""
""focus"",""97"",""466621""
","""event"",""trial"",""time""
""blur"",""2"",""7809""
""blur"",""8"",""101505""
""blur"",""19"",""203689""
""blur"",""97"",""382826""
","""event"",""trial"",""time""
""focus"",""3"",""17857""
""focus"",""9"",""114461""
""focus"",""21"",""207599""
""focus"",""97"",""466621""
","""event"",""trial"",""time""
""fullscreenenter"",""0"",""3122""
","
","1712.2000000001863","","","","","","","","53","","","","270","probe-158","","","","","1","[object Object]","112","2","1","","","",""
"","html-keyboard-response","101","498223","0.0-59.0-1.0","""event"",""trial"",""time""
""fullscreenenter"",""0"",""3122""
""blur"",""2"",""7809""
""focus"",""3"",""17857""
""blur"",""8"",""101505""
""focus"",""9"",""114461""
""blur"",""19"",""203689""
""focus"",""21"",""207599""
""blur"",""97"",""382826""
""focus"",""97"",""466621""
","""event"",""trial"",""time""
""blur"",""2"",""7809""
""blur"",""8"",""101505""
""blur"",""19"",""203689""
""blur"",""97"",""382826""
","""event"",""trial"",""time""
""focus"",""3"",""17857""
""focus"",""9"",""114461""
""focus"",""21"",""207599""
""focus"",""97"",""466621""
","""event"",""trial"",""time""
""fullscreenenter"",""0"",""3122""
","
","null","<p></p>","null","","","","","","","","","","","","","","","","","","","","","","","",""
"","do_trial","102","501345","0.0-60.0-0.0","""event"",""trial"",""time""
""fullscreenenter"",""0"",""3122""
""blur"",""2"",""7809""
""focus"",""3"",""17857""
""blur"",""8"",""101505""
""focus"",""9"",""114461""
""blur"",""19"",""203689""
""focus"",""21"",""207599""
""blur"",""97"",""382826""
""focus"",""97"",""466621""
","""event"",""trial"",""time""
""blur"",""2"",""7809""
""blur"",""8"",""101505""
""blur"",""19"",""203689""
""blur"",""97"",""382826""
","""event"",""trial"",""time""
""focus"",""3"",""17857""
""focus"",""9"",""114461""
""focus"",""21"",""207599""
""focus"",""97"",""466621""
","""event"",""trial"",""time""
""fullscreenenter"",""0"",""3122""
","
","582.1000000000931","","","","","","","","51","0,0,0","6","blank","271","null","0.1809298065655474","0.15276729545160891","0.7316288856203894","0","","","","","","","","",""
"","html-keyboard-response","103","502347","0.0-60.0-1.0","""event"",""trial"",""time""
""fullscreenenter"",""0"",""3122""
""blur"",""2"",""7809""
""focus"",""3"",""17857""
""blur"",""8"",""101505""
""focus"",""9"",""114461""
""blur"",""19"",""203689""
""focus"",""21"",""207599""
""blur"",""97"",""382826""
""focus"",""97"",""466621""
","""event"",""trial"",""time""
""blur"",""2"",""7809""
""blur"",""8"",""101505""
""blur"",""19"",""203689""
""blur"",""97"",""382826""
","""event"",""trial"",""time""
""focus"",""3"",""17857""
""focus"",""9"",""114461""
""focus"",""21"",""207599""
""focus"",""97"",""466621""
","""event"",""trial"",""time""
""fullscreenenter"",""0"",""3122""
","
","null","<p></p>","null","","","","","","","","","","","","","","","","","","","","","","","",""
"","do_recog","104","505032","0.0-61.0-0.0","""event"",""trial"",""time""
""fullscreenenter"",""0"",""3122""
""blur"",""2"",""7809""
""focus"",""3"",""17857""
""blur"",""8"",""101505""
""focus"",""9"",""114461""
""blur"",""19"",""203689""
""focus"",""21"",""207599""
""blur"",""97"",""382826""
""focus"",""97"",""466621""
","""event"",""trial"",""time""
""blur"",""2"",""7809""
""blur"",""8"",""101505""
""blur"",""19"",""203689""
""blur"",""97"",""382826""
","""event"",""trial"",""time""
""focus"",""3"",""17857""
""focus"",""9"",""114461""
""focus"",""21"",""207599""
""focus"",""97"",""466621""
","""event"",""trial"",""time""
""fullscreenenter"",""0"",""3122""
","
","1178.7000000001863","","","","","","","","53","","","","272","probe-150","","","","","1","[object Object]","77","1","1","","","",""
"","html-keyboard-response","105","506036","0.0-61.0-1.0","""event"",""trial"",""time""
""fullscreenenter"",""0"",""3122""
""blur"",""2"",""7809""
""focus"",""3"",""17857""
""blur"",""8"",""101505""
""focus"",""9"",""114461""
""blur"",""19"",""203689""
""focus"",""21"",""207599""
""blur"",""97"",""382826""
""focus"",""97"",""466621""
","""event"",""trial"",""time""
""blur"",""2"",""7809""
""blur"",""8"",""101505""
""blur"",""19"",""203689""
""blur"",""97"",""382826""
","""event"",""trial"",""time""
""focus"",""3"",""17857""
""focus"",""9"",""114461""
""focus"",""21"",""207599""
""focus"",""97"",""466621""
","""event"",""trial"",""time""
""fullscreenenter"",""0"",""3122""
","
","null","<p></p>","null","","","","","","","","","","","","","","","","","","","","","","","",""
"","do_trial","106","509279","0.0-62.0-0.0","""event"",""trial"",""time""
""fullscreenenter"",""0"",""3122""
""blur"",""2"",""7809""
""focus"",""3"",""17857""
""blur"",""8"",""101505""
""focus"",""9"",""114461""
""blur"",""19"",""203689""
""focus"",""21"",""207599""
""blur"",""97"",""382826""
""focus"",""97"",""466621""
","""event"",""trial"",""time""
""blur"",""2"",""7809""
""blur"",""8"",""101505""
""blur"",""19"",""203689""
""blur"",""97"",""382826""
","""event"",""trial"",""time""
""focus"",""3"",""17857""
""focus"",""9"",""114461""
""focus"",""21"",""207599""
""focus"",""97"",""466621""
","""event"",""trial"",""time""
""fullscreenenter"",""0"",""3122""
","
","696.3000000000466","","","","","","","","51","0,0,1","6","blank","273","null","0.22008691730012891","0.24730240699199005","0.6900716892107017","1","","","","","","","","",""
"","html-keyboard-response","107","510280","0.0-62.0-1.0","""event"",""trial"",""time""
""fullscreenenter"",""0"",""3122""
""blur"",""2"",""7809""
""focus"",""3"",""17857""
""blur"",""8"",""101505""
""focus"",""9"",""114461""
""blur"",""19"",""203689""
""focus"",""21"",""207599""
""blur"",""97"",""382826""
""focus"",""97"",""466621""
","""event"",""trial"",""time""
""blur"",""2"",""7809""
""blur"",""8"",""101505""
""blur"",""19"",""203689""
""blur"",""97"",""382826""
","""event"",""trial"",""time""
""focus"",""3"",""17857""
""focus"",""9"",""114461""
""focus"",""21"",""207599""
""focus"",""97"",""466621""
","""event"",""trial"",""time""
""fullscreenenter"",""0"",""3122""
","
","null","<p></p>","null","","","","","","","","","","","","","","","","","","","","","","","",""
"","do_recog","108","512504","0.0-63.0-0.0","""event"",""trial"",""time""
""fullscreenenter"",""0"",""3122""
""blur"",""2"",""7809""
""focus"",""3"",""17857""
""blur"",""8"",""101505""
""focus"",""9"",""114461""
""blur"",""19"",""203689""
""focus"",""21"",""207599""
""blur"",""97"",""382826""
""focus"",""97"",""466621""
","""event"",""trial"",""time""
""blur"",""2"",""7809""
""blur"",""8"",""101505""
""blur"",""19"",""203689""
""blur"",""97"",""382826""
","""event"",""trial"",""time""
""focus"",""3"",""17857""
""focus"",""9"",""114461""
""focus"",""21"",""207599""
""focus"",""97"",""466621""
","""event"",""trial"",""time""
""fullscreenenter"",""0"",""3122""
","
","714.5","","","","","","","","53","","","","274","probe-182","","","","","1","[object Object]","190","4","1","","","",""
"","html-keyboard-response","109","513507","0.0-63.0-1.0","""event"",""trial"",""time""
""fullscreenenter"",""0"",""3122""
""blur"",""2"",""7809""
""focus"",""3"",""17857""
""blur"",""8"",""101505""
""focus"",""9"",""114461""
""blur"",""19"",""203689""
""focus"",""21"",""207599""
""blur"",""97"",""382826""
""focus"",""97"",""466621""
","""event"",""trial"",""time""
""blur"",""2"",""7809""
""blur"",""8"",""101505""
""blur"",""19"",""203689""
""blur"",""97"",""382826""
","""event"",""trial"",""time""
""focus"",""3"",""17857""
""focus"",""9"",""114461""
""focus"",""21"",""207599""
""focus"",""97"",""466621""
","""event"",""trial"",""time""
""fullscreenenter"",""0"",""3122""
","
","null","<p></p>","null","","","","","","","","","","","","","","","","","","","","","","","",""
"","do_trial","110","516378","0.0-64.0-0.0","""event"",""trial"",""time""
""fullscreenenter"",""0"",""3122""
""blur"",""2"",""7809""
""focus"",""3"",""17857""
""blur"",""8"",""101505""
""focus"",""9"",""114461""
""blur"",""19"",""203689""
""focus"",""21"",""207599""
""blur"",""97"",""382826""
""focus"",""97"",""466621""
","""event"",""trial"",""time""
""blur"",""2"",""7809""
""blur"",""8"",""101505""
""blur"",""19"",""203689""
""blur"",""97"",""382826""
","""event"",""trial"",""time""
""focus"",""3"",""17857""
""focus"",""9"",""114461""
""focus"",""21"",""207599""
""focus"",""97"",""466621""
","""event"",""trial"",""time""
""fullscreenenter"",""0"",""3122""
","
","321.9000000001397","","","","","","","","51","0,1,1","6","blank","275","null","0.051327167471932875","0.2362173508353608","0.5907958980779671","1","","","","","","","","",""
"","html-keyboard-response","111","517393","0.0-64.0-1.0","""event"",""trial"",""time""
""fullscreenenter"",""0"",""3122""
""blur"",""2"",""7809""
""focus"",""3"",""17857""
""blur"",""8"",""101505""
""focus"",""9"",""114461""
""blur"",""19"",""203689""
""focus"",""21"",""207599""
""blur"",""97"",""382826""
""focus"",""97"",""466621""
","""event"",""trial"",""time""
""blur"",""2"",""7809""
""blur"",""8"",""101505""
""blur"",""19"",""203689""
""blur"",""97"",""382826""
","""event"",""trial"",""time""
""focus"",""3"",""17857""
""focus"",""9"",""114461""
""focus"",""21"",""207599""
""focus"",""97"",""466621""
","""event"",""trial"",""time""
""fullscreenenter"",""0"",""3122""
","
","null","<p></p>","null","","","","","","","","","","","","","","","","","","","","","","","",""
"","do_trial","112","520166","0.0-65.0-0.0","""event"",""trial"",""time""
""fullscreenenter"",""0"",""3122""
""blur"",""2"",""7809""
""focus"",""3"",""17857""
""blur"",""8"",""101505""
""focus"",""9"",""114461""
""blur"",""19"",""203689""
""focus"",""21"",""207599""
""blur"",""97"",""382826""
""focus"",""97"",""466621""
","""event"",""trial"",""time""
""blur"",""2"",""7809""
""blur"",""8"",""101505""
""blur"",""19"",""203689""
""blur"",""97"",""382826""
","""event"",""trial"",""time""
""focus"",""3"",""17857""
""focus"",""9"",""114461""
""focus"",""21"",""207599""
""focus"",""97"",""466621""
","""event"",""trial"",""time""
""fullscreenenter"",""0"",""3122""
","
","230.5999999998603","","","","","","","","51","0,0,0","6","blank","276","null","0.13964628886866795","0.22965645747631516","0.5936129644911012","0","","","","","","","","",""
"","html-keyboard-response","113","521167","0.0-65.0-1.0","""event"",""trial"",""time""
""fullscreenenter"",""0"",""3122""
""blur"",""2"",""7809""
""focus"",""3"",""17857""
""blur"",""8"",""101505""
""focus"",""9"",""114461""
""blur"",""19"",""203689""
""focus"",""21"",""207599""
""blur"",""97"",""382826""
""focus"",""97"",""466621""
","""event"",""trial"",""time""
""blur"",""2"",""7809""
""blur"",""8"",""101505""
""blur"",""19"",""203689""
""blur"",""97"",""382826""
","""event"",""trial"",""time""
""focus"",""3"",""17857""
""focus"",""9"",""114461""
""focus"",""21"",""207599""
""focus"",""97"",""466621""
","""event"",""trial"",""time""
""fullscreenenter"",""0"",""3122""
","
","null","<p></p>","null","","","","","","","","","","","","","","","","","","","","","","","",""
"","do_recog","114","523338","0.0-66.0-0.0","""event"",""trial"",""time""
""fullscreenenter"",""0"",""3122""
""blur"",""2"",""7809""
""focus"",""3"",""17857""
""blur"",""8"",""101505""
""focus"",""9"",""114461""
""blur"",""19"",""203689""
""focus"",""21"",""207599""
""blur"",""97"",""382826""
""focus"",""97"",""466621""
","""event"",""trial"",""time""
""blur"",""2"",""7809""
""blur"",""8"",""101505""
""blur"",""19"",""203689""
""blur"",""97"",""382826""
","""event"",""trial"",""time""
""focus"",""3"",""17857""
""focus"",""9"",""114461""
""focus"",""21"",""207599""
""focus"",""97"",""466621""
","""event"",""trial"",""time""
""fullscreenenter"",""0"",""3122""
","
","659.6999999999534","","","","","","","","53","","","","277","probe-247","","","","","0","[object Object]","null","null","0","","","",""
"","html-keyboard-response","115","524353","0.0-66.0-1.0","""event"",""trial"",""time""
""fullscreenenter"",""0"",""3122""
""blur"",""2"",""7809""
""focus"",""3"",""17857""
""blur"",""8"",""101505""
""focus"",""9"",""114461""
""blur"",""19"",""203689""
""focus"",""21"",""207599""
""blur"",""97"",""382826""
""focus"",""97"",""466621""
","""event"",""trial"",""time""
""blur"",""2"",""7809""
""blur"",""8"",""101505""
""blur"",""19"",""203689""
""blur"",""97"",""382826""
","""event"",""trial"",""time""
""focus"",""3"",""17857""
""focus"",""9"",""114461""
""focus"",""21"",""207599""
""focus"",""97"",""466621""
","""event"",""trial"",""time""
""fullscreenenter"",""0"",""3122""
","
","null","<p></p>","null","","","","","","","","","","","","","","","","","","","","","","","",""
"","do_trial","116","529035","0.0-67.0-0.0","""event"",""trial"",""time""
""fullscreenenter"",""0"",""3122""
""blur"",""2"",""7809""
""focus"",""3"",""17857""
""blur"",""8"",""101505""
""focus"",""9"",""114461""
""blur"",""19"",""203689""
""focus"",""21"",""207599""
""blur"",""97"",""382826""
""focus"",""97"",""466621""
","""event"",""trial"",""time""
""blur"",""2"",""7809""
""blur"",""8"",""101505""
""blur"",""19"",""203689""
""blur"",""97"",""382826""
","""event"",""trial"",""time""
""focus"",""3"",""17857""
""focus"",""9"",""114461""
""focus"",""21"",""207599""
""focus"",""97"",""466621""
","""event"",""trial"",""time""
""fullscreenenter"",""0"",""3122""
","
","2127.8000000000466","","","","","","","","51","0,0,1","6","blank","278","null","0.1389570495860827","0.2539963938266378","0.7097799133175313","1","","","","","","","","",""
"","html-keyboard-response","117","530037","0.0-67.0-1.0","""event"",""trial"",""time""
""fullscreenenter"",""0"",""3122""
""blur"",""2"",""7809""
""focus"",""3"",""17857""
""blur"",""8"",""101505""
""focus"",""9"",""114461""
""blur"",""19"",""203689""
""focus"",""21"",""207599""
""blur"",""97"",""382826""
""focus"",""97"",""466621""
","""event"",""trial"",""time""
""blur"",""2"",""7809""
""blur"",""8"",""101505""
""blur"",""19"",""203689""
""blur"",""97"",""382826""
","""event"",""trial"",""time""
""focus"",""3"",""17857""
""focus"",""9"",""114461""
""focus"",""21"",""207599""
""focus"",""97"",""466621""
","""event"",""trial"",""time""
""fullscreenenter"",""0"",""3122""
","
","null","<p></p>","null","","","","","","","","","","","","","","","","","","","","","","","",""
"","do_trial","118","533009","0.0-68.0-0.0","""event"",""trial"",""time""
""fullscreenenter"",""0"",""3122""
""blur"",""2"",""7809""
""focus"",""3"",""17857""
""blur"",""8"",""101505""
""focus"",""9"",""114461""
""blur"",""19"",""203689""
""focus"",""21"",""207599""
""blur"",""97"",""382826""
""focus"",""97"",""466621""
","""event"",""trial"",""time""
""blur"",""2"",""7809""
""blur"",""8"",""101505""
""blur"",""19"",""203689""
""blur"",""97"",""382826""
","""event"",""trial"",""time""
""focus"",""3"",""17857""
""focus"",""9"",""114461""
""focus"",""21"",""207599""
""focus"",""97"",""466621""
","""event"",""trial"",""time""
""fullscreenenter"",""0"",""3122""
","
","420.5","","","","","","","","51","0,0,1","6","blank","279","null","0.11819235227197428","0.1802829165853305","0.7829651096494783","1","","","","","","","","",""
"","html-keyboard-response","119","534010","0.0-68.0-1.0","""event"",""trial"",""time""
""fullscreenenter"",""0"",""3122""
""blur"",""2"",""7809""
""focus"",""3"",""17857""
""blur"",""8"",""101505""
""focus"",""9"",""114461""
""blur"",""19"",""203689""
""focus"",""21"",""207599""
""blur"",""97"",""382826""
""focus"",""97"",""466621""
","""event"",""trial"",""time""
""blur"",""2"",""7809""
""blur"",""8"",""101505""
""blur"",""19"",""203689""
""blur"",""97"",""382826""
","""event"",""trial"",""time""
""focus"",""3"",""17857""
""focus"",""9"",""114461""
""focus"",""21"",""207599""
""focus"",""97"",""466621""
","""event"",""trial"",""time""
""fullscreenenter"",""0"",""3122""
","
","null","<p></p>","null","","","","","","","","","","","","","","","","","","","","","","","",""
"","do_recog","120","537169","0.0-69.0-0.0","""event"",""trial"",""time""
""fullscreenenter"",""0"",""3122""
""blur"",""2"",""7809""
""focus"",""3"",""17857""
""blur"",""8"",""101505""
""focus"",""9"",""114461""
""blur"",""19"",""203689""
""focus"",""21"",""207599""
""blur"",""97"",""382826""
""focus"",""97"",""466621""
","""event"",""trial"",""time""
""blur"",""2"",""7809""
""blur"",""8"",""101505""
""blur"",""19"",""203689""
""blur"",""97"",""382826""
","""event"",""trial"",""time""
""focus"",""3"",""17857""
""focus"",""9"",""114461""
""focus"",""21"",""207599""
""focus"",""97"",""466621""
","""event"",""trial"",""time""
""fullscreenenter"",""0"",""3122""
","
","1641.1000000000931","","","","","","","","53","","","","280","probe-61","","","","","1","[object Object]","194","4","1","","","",""
"","html-keyboard-response","121","538170","0.0-69.0-1.0","""event"",""trial"",""time""
""fullscreenenter"",""0"",""3122""
""blur"",""2"",""7809""
""focus"",""3"",""17857""
""blur"",""8"",""101505""
""focus"",""9"",""114461""
""blur"",""19"",""203689""
""focus"",""21"",""207599""
""blur"",""97"",""382826""
""focus"",""97"",""466621""
","""event"",""trial"",""time""
""blur"",""2"",""7809""
""blur"",""8"",""101505""
""blur"",""19"",""203689""
""blur"",""97"",""382826""
","""event"",""trial"",""time""
""focus"",""3"",""17857""
""focus"",""9"",""114461""
""focus"",""21"",""207599""
""focus"",""97"",""466621""
","""event"",""trial"",""time""
""fullscreenenter"",""0"",""3122""
","
","null","<p></p>","null","","","","","","","","","","","","","","","","","","","","","","","",""
"","do_trial","122","541221","0.0-70.0-0.0","""event"",""trial"",""time""
""fullscreenenter"",""0"",""3122""
""blur"",""2"",""7809""
""focus"",""3"",""17857""
""blur"",""8"",""101505""
""focus"",""9"",""114461""
""blur"",""19"",""203689""
""focus"",""21"",""207599""
""blur"",""97"",""382826""
""focus"",""97"",""466621""
","""event"",""trial"",""time""
""blur"",""2"",""7809""
""blur"",""8"",""101505""
""blur"",""19"",""203689""
""blur"",""97"",""382826""
","""event"",""trial"",""time""
""focus"",""3"",""17857""
""focus"",""9"",""114461""
""focus"",""21"",""207599""
""focus"",""97"",""466621""
","""event"",""trial"",""time""
""fullscreenenter"",""0"",""3122""
","
","491.10000000009313","","","","","","","","51","0,0,1","6","blank","281","null","0.1885450607581052","0.09900853826219803","0.7600478932261352","1","","","","","","","","",""
"","html-keyboard-response","123","542237","0.0-70.0-1.0","""event"",""trial"",""time""
""fullscreenenter"",""0"",""3122""
""blur"",""2"",""7809""
""focus"",""3"",""17857""
""blur"",""8"",""101505""
""focus"",""9"",""114461""
""blur"",""19"",""203689""
""focus"",""21"",""207599""
""blur"",""97"",""382826""
""focus"",""97"",""466621""
","""event"",""trial"",""time""
""blur"",""2"",""7809""
""blur"",""8"",""101505""
""blur"",""19"",""203689""
""blur"",""97"",""382826""
","""event"",""trial"",""time""
""focus"",""3"",""17857""
""focus"",""9"",""114461""
""focus"",""21"",""207599""
""focus"",""97"",""466621""
","""event"",""trial"",""time""
""fullscreenenter"",""0"",""3122""
","
","null","<p></p>","null","","","","","","","","","","","","","","","","","","","","","","","",""
"","do_trial","124","545211","0.0-71.0-0.0","""event"",""trial"",""time""
""fullscreenenter"",""0"",""3122""
""blur"",""2"",""7809""
""focus"",""3"",""17857""
""blur"",""8"",""101505""
""focus"",""9"",""114461""
""blur"",""19"",""203689""
""focus"",""21"",""207599""
""blur"",""97"",""382826""
""focus"",""97"",""466621""
","""event"",""trial"",""time""
""blur"",""2"",""7809""
""blur"",""8"",""101505""
""blur"",""19"",""203689""
""blur"",""97"",""382826""
","""event"",""trial"",""time""
""focus"",""3"",""17857""
""focus"",""9"",""114461""
""focus"",""21"",""207599""
""focus"",""97"",""466621""
","""event"",""trial"",""time""
""fullscreenenter"",""0"",""3122""
","
","421.79999999981374","","","","","","","","51","0,0,1","6","blank","282","null","0.22451341408326758","0.11237744667546838","0.7698122879008199","1","","","","","","","","",""
"","html-keyboard-response","125","546213","0.0-71.0-1.0","""event"",""trial"",""time""
""fullscreenenter"",""0"",""3122""
""blur"",""2"",""7809""
""focus"",""3"",""17857""
""blur"",""8"",""101505""
""focus"",""9"",""114461""
""blur"",""19"",""203689""
""focus"",""21"",""207599""
""blur"",""97"",""382826""
""focus"",""97"",""466621""
","""event"",""trial"",""time""
""blur"",""2"",""7809""
""blur"",""8"",""101505""
""blur"",""19"",""203689""
""blur"",""97"",""382826""
","""event"",""trial"",""time""
""focus"",""3"",""17857""
""focus"",""9"",""114461""
""focus"",""21"",""207599""
""focus"",""97"",""466621""
","""event"",""trial"",""time""
""fullscreenenter"",""0"",""3122""
","
","null","<p></p>","null","","","","","","","","","","","","","","","","","","","","","","","",""
"","do_trial","126","549478","0.0-72.0-0.0","""event"",""trial"",""time""
""fullscreenenter"",""0"",""3122""
""blur"",""2"",""7809""
""focus"",""3"",""17857""
""blur"",""8"",""101505""
""focus"",""9"",""114461""
""blur"",""19"",""203689""
""focus"",""21"",""207599""
""blur"",""97"",""382826""
""focus"",""97"",""466621""
","""event"",""trial"",""time""
""blur"",""2"",""7809""
""blur"",""8"",""101505""
""blur"",""19"",""203689""
""blur"",""97"",""382826""
","""event"",""trial"",""time""
""focus"",""3"",""17857""
""focus"",""9"",""114461""
""focus"",""21"",""207599""
""focus"",""97"",""466621""
","""event"",""trial"",""time""
""fullscreenenter"",""0"",""3122""
","
","724.5","","","","","","","","51","0,0,1","6","blank","283","null","0.31032505359131457","0.2229272135131163","0.7856953979258876","1","","","","","","","","",""
"","html-keyboard-response","127","550494","0.0-72.0-1.0","""event"",""trial"",""time""
""fullscreenenter"",""0"",""3122""
""blur"",""2"",""7809""
""focus"",""3"",""17857""
""blur"",""8"",""101505""
""focus"",""9"",""114461""
""blur"",""19"",""203689""
""focus"",""21"",""207599""
""blur"",""97"",""382826""
""focus"",""97"",""466621""
","""event"",""trial"",""time""
""blur"",""2"",""7809""
""blur"",""8"",""101505""
""blur"",""19"",""203689""
""blur"",""97"",""382826""
","""event"",""trial"",""time""
""focus"",""3"",""17857""
""focus"",""9"",""114461""
""focus"",""21"",""207599""
""focus"",""97"",""466621""
","""event"",""trial"",""time""
""fullscreenenter"",""0"",""3122""
","
","null","<p></p>","null","","","","","","","","","","","","","","","","","","","","","","","",""
"","do_trial","128","553359","0.0-73.0-0.0","""event"",""trial"",""time""
""fullscreenenter"",""0"",""3122""
""blur"",""2"",""7809""
""focus"",""3"",""17857""
""blur"",""8"",""101505""
""focus"",""9"",""114461""
""blur"",""19"",""203689""
""focus"",""21"",""207599""
""blur"",""97"",""382826""
""focus"",""97"",""466621""
","""event"",""trial"",""time""
""blur"",""2"",""7809""
""blur"",""8"",""101505""
""blur"",""19"",""203689""
""blur"",""97"",""382826""
","""event"",""trial"",""time""
""focus"",""3"",""17857""
""focus"",""9"",""114461""
""focus"",""21"",""207599""
""focus"",""97"",""466621""
","""event"",""trial"",""time""
""fullscreenenter"",""0"",""3122""
","
","316.70000000018626","","","","","","","","51","1,1,1","6","blank","284","null","0.25012260290611665","0.21047348511156586","0.6988527848123585","1","","","","","","","","",""
